trial_type,trial_index,time_elapsed,rt,stimulus,key_press,test_part,task,targ_cond,correctKeyCode,correct,word,value,response
pavlovia,0,958,,"",,,,,,,,,
external-html,1,12927,11790.71999998996,"",,,,,,,,,
html-keyboard-response,2,15451,2518.3149999938905,"Welcome to the experiment. Press any key to begin.",32,,,,,,,,
html-keyboard-response,3,21281,5826.889999996638,"<p>You will see a list of words and colored squares in the following task.<p><p>Press the spacebar whenever you see a red square.<p><p>Do not press a key if the square is green<p><p>Press the spacebar to continue.</p>",32,,,,,,,,
html-keyboard-response,4,30516,8728.26500001247,"<p>Please try to remember as many of the words as you can, and try to think about the meaning of each word as it appears.<p><p>After the detection and encoding task you will be asked to solve some math problems for 24 seconds.<p> Please solve as many problems as you can in the time given. <p>",32,,,,,,,,
html-keyboard-response,5,43082,12061.599999986356,"After solving the math problems, you will be asked to type in as many words <p>from the previous list as you can remember for 75 seconds.<p> If you finish recalling before the 75 seconds are up,<p> just sit tight and try to think of any more words you could have missed. <p><p>We will begin with a brief practice session<p>Press the spacebar to begin the practice.</p>",32,,,,,,,,
html-keyboard-response,6,45587,null,"<div style=""font-size:60px;"">+</div>",null,,,,,,,,
html-keyboard-response,7,46091,null,"HAPPY<img id = ""stim"" ><div class = green_square id = ""topsquare"" ></div><img id = ""stim"" ><div class = green_square  id = ""bottomsquare"" ></div>",null,word_square,prac_response,0,none,true,,,
html-keyboard-response,8,47596,null,"HAPPY",null,word,,,,,HAPPY,,
html-keyboard-response,9,48101,458.054999995511,"COLD<img id = ""stim"" ><div class = red_square id = ""topsquare"" ></div><img id = ""stim"" ><div class = red_square  id = ""bottomsquare"" ></div>",32,word_square,prac_response,1,Space,true,,,
html-keyboard-response,10,49604,null,"COLD",null,word,,,,,COLD,,
html-keyboard-response,11,50109,null,"HEAVY<img id = ""stim"" ><div class = red_square id = ""topsquare"" ></div><img id = ""stim"" ><div class = red_square  id = ""bottomsquare"" ></div>",null,word_square,prac_response,1,Space,false,,,
html-keyboard-response,12,51613,null,"HEAVY",null,word,,,,,HEAVY,,
html-keyboard-response,13,52117,null,"FUNNY<img id = ""stim"" ><div class = green_square id = ""topsquare"" ></div><img id = ""stim"" ><div class = green_square  id = ""bottomsquare"" ></div>",null,word_square,prac_response,0,none,true,,,
html-keyboard-response,14,53624,null,"FUNNY",null,word,,,,,FUNNY,,
html-keyboard-response,15,54132,324.2100000206847,"SCARY<img id = ""stim"" ><div class = red_square id = ""topsquare"" ></div><img id = ""stim"" ><div class = red_square  id = ""bottomsquare"" ></div>",32,word_square,prac_response,1,Space,true,,,
html-keyboard-response,16,55648,null,"SCARY",null,word,,,,,SCARY,,
html-keyboard-response,17,56151,499.8100000084378,"PEACEFUL<img id = ""stim"" ><div class = red_square id = ""topsquare"" ></div><img id = ""stim"" ><div class = red_square  id = ""bottomsquare"" ></div>",32,word_square,prac_response,1,Space,true,,,
html-keyboard-response,18,57665,null,"PEACEFUL",null,word,,,,,PEACEFUL,,
html-keyboard-response,19,58169,null,"LITTLE<img id = ""stim"" ><div class = green_square id = ""topsquare"" ></div><img id = ""stim"" ><div class = green_square  id = ""bottomsquare"" ></div>",null,word_square,prac_response,0,none,true,,,
html-keyboard-response,20,59678,null,"LITTLE",null,word,,,,,LITTLE,,
html-keyboard-response,21,60185,null,"TIRED<img id = ""stim"" ><div class = green_square id = ""topsquare"" ></div><img id = ""stim"" ><div class = green_square  id = ""bottomsquare"" ></div>",null,word_square,prac_response,0,none,true,,,
html-keyboard-response,22,61689,null,"TIRED",null,word,,,,,TIRED,,
html-keyboard-response,23,62193,null,"ENTERTAINING<img id = ""stim"" ><div class = green_square id = ""topsquare"" ></div><img id = ""stim"" ><div class = green_square  id = ""bottomsquare"" ></div>",null,word_square,prac_response,0,none,true,,,
html-keyboard-response,24,63699,null,"ENTERTAINING",null,word,,,,,ENTERTAINING,,
html-keyboard-response,25,64206,325.81999999820255,"GRATEFUL<img id = ""stim"" ><div class = red_square id = ""topsquare"" ></div><img id = ""stim"" ><div class = red_square  id = ""bottomsquare"" ></div>",32,word_square,prac_response,1,Space,true,,,
html-keyboard-response,26,65708,null,"GRATEFUL",null,word,,,,,GRATEFUL,,
html-keyboard-response,27,66213,null,"LOUD<img id = ""stim"" ><div class = green_square id = ""topsquare"" ></div><img id = ""stim"" ><div class = green_square  id = ""bottomsquare"" ></div>",null,word_square,prac_response,0,none,true,,,
html-keyboard-response,28,67715,null,"LOUD",null,word,,,,,LOUD,,
html-keyboard-response,29,68218,null,"SMART<img id = ""stim"" ><div class = red_square id = ""topsquare"" ></div><img id = ""stim"" ><div class = red_square  id = ""bottomsquare"" ></div>",null,word_square,prac_response,1,Space,false,,,
html-keyboard-response,30,69722,null,"SMART",null,word,,,,,SMART,,
html-keyboard-response,31,70227,449.13500000257045,"SMOOTH<img id = ""stim"" ><div class = red_square id = ""topsquare"" ></div><img id = ""stim"" ><div class = red_square  id = ""bottomsquare"" ></div>",32,word_square,prac_response,1,Space,true,,,
html-keyboard-response,32,71732,null,"SMOOTH",null,word,,,,,SMOOTH,,
html-keyboard-response,33,72234,null,"DISHONEST<img id = ""stim"" ><div class = green_square id = ""topsquare"" ></div><img id = ""stim"" ><div class = green_square  id = ""bottomsquare"" ></div>",null,word_square,prac_response,0,none,true,,,
html-keyboard-response,34,73743,null,"DISHONEST",null,word,,,,,DISHONEST,,
html-keyboard-response,35,74247,440.7449999998789,"WEALTHY<img id = ""stim"" ><div class = red_square id = ""topsquare"" ></div><img id = ""stim"" ><div class = red_square  id = ""bottomsquare"" ></div>",32,word_square,prac_response,1,Space,true,,,
html-keyboard-response,36,75759,null,"WEALTHY",null,word,,,,,WEALTHY,,
html-keyboard-response,37,76262,null,"BEAUTIFUL<img id = ""stim"" ><div class = green_square id = ""topsquare"" ></div><img id = ""stim"" ><div class = green_square  id = ""bottomsquare"" ></div>",null,word_square,prac_response,0,none,true,,,
html-keyboard-response,38,77771,null,"BEAUTIFUL",null,word,,,,,BEAUTIFUL,,
html-keyboard-response,39,78275,null,"DREARY<img id = ""stim"" ><div class = green_square id = ""topsquare"" ></div><img id = ""stim"" ><div class = green_square  id = ""bottomsquare"" ></div>",null,word_square,prac_response,0,none,true,,,
html-keyboard-response,40,79788,null,"DREARY",null,word,,,,,DREARY,,
html-keyboard-response,41,80293,381.0899999807589,"PLAYFUL<img id = ""stim"" ><div class = red_square id = ""topsquare"" ></div><img id = ""stim"" ><div class = red_square  id = ""bottomsquare"" ></div>",32,word_square,prac_response,1,Space,true,,,
html-keyboard-response,42,81804,null,"PLAYFUL",null,word,,,,,PLAYFUL,,
html-keyboard-response,43,144640,62832.03499999945,"<p> Good job! You responded correctly to 89% of the red squares.</p>
                  <p>Be sure to keep your accuracy above 80%</p>
                  <p>We're going to try once more to make sure you understand  the task. press any key to continue. </p>",32,,,,,,,,
html-keyboard-response,44,147732,3089.46499999729,"<p>You will see a list of words and colored squares in the following task.<p><p>Press the spacebar whenever you see a red square.<p><p>Do not press a key if the square is green<p><p>Press the spacebar to continue.</p>",32,,,,,,,,
html-keyboard-response,45,150241,null,"<div style=""font-size:60px;"">+</div>",null,,,,,,,,
html-keyboard-response,46,150753,null,"HAPPY<img id = ""stim"" ><div class = green_square id = ""topsquare"" ></div><img id = ""stim"" ><div class = green_square  id = ""bottomsquare"" ></div>",null,word_square,response,0,none,true,,,
html-keyboard-response,47,152257,null,"HAPPY",null,word,,,,,HAPPY,,
html-keyboard-response,48,152559,299.7249999898486,"COLD<img id = ""stim"" ><div class = red_square id = ""topsquare"" ></div><img id = ""stim"" ><div class = red_square  id = ""bottomsquare"" ></div>",32,word_square,response,1,Space,true,,,
html-keyboard-response,49,154066,null,"COLD",null,word,,,,,COLD,,
html-keyboard-response,50,154421,353.13000000314787,"HEAVY<img id = ""stim"" ><div class = red_square id = ""topsquare"" ></div><img id = ""stim"" ><div class = red_square  id = ""bottomsquare"" ></div>",32,word_square,response,1,Space,true,,,
html-keyboard-response,51,155928,null,"HEAVY",null,word,,,,,HEAVY,,
html-keyboard-response,52,156440,null,"FUNNY<img id = ""stim"" ><div class = green_square id = ""topsquare"" ></div><img id = ""stim"" ><div class = green_square  id = ""bottomsquare"" ></div>",null,word_square,response,0,none,true,,,
html-keyboard-response,53,157944,null,"FUNNY",null,word,,,,,FUNNY,,
html-keyboard-response,54,158260,314.6649999835063,"SCARY<img id = ""stim"" ><div class = red_square id = ""topsquare"" ></div><img id = ""stim"" ><div class = red_square  id = ""bottomsquare"" ></div>",32,word_square,response,1,Space,true,,,
html-keyboard-response,55,159764,null,"SCARY",null,word,,,,,SCARY,,
html-keyboard-response,56,160268,null,"PEACEFUL<img id = ""stim"" ><div class = red_square id = ""topsquare"" ></div><img id = ""stim"" ><div class = red_square  id = ""bottomsquare"" ></div>",null,word_square,response,1,Space,false,,,
html-keyboard-response,57,161776,null,"PEACEFUL",null,word,,,,,PEACEFUL,,
html-keyboard-response,58,162280,null,"LITTLE<img id = ""stim"" ><div class = green_square id = ""topsquare"" ></div><img id = ""stim"" ><div class = green_square  id = ""bottomsquare"" ></div>",null,word_square,response,0,none,true,,,
html-keyboard-response,59,163788,null,"LITTLE",null,word,,,,,LITTLE,,
html-keyboard-response,60,164293,null,"TIRED<img id = ""stim"" ><div class = green_square id = ""topsquare"" ></div><img id = ""stim"" ><div class = green_square  id = ""bottomsquare"" ></div>",null,word_square,response,0,none,true,,,
html-keyboard-response,61,165797,null,"TIRED",null,word,,,,,TIRED,,
html-keyboard-response,62,166300,null,"ENTERTAINING<img id = ""stim"" ><div class = green_square id = ""topsquare"" ></div><img id = ""stim"" ><div class = green_square  id = ""bottomsquare"" ></div>",null,word_square,response,0,none,true,,,
html-keyboard-response,63,167803,null,"ENTERTAINING",null,word,,,,,ENTERTAINING,,
html-keyboard-response,64,168154,348.86999998707324,"GRATEFUL<img id = ""stim"" ><div class = red_square id = ""topsquare"" ></div><img id = ""stim"" ><div class = red_square  id = ""bottomsquare"" ></div>",32,word_square,response,1,Space,true,,,
html-keyboard-response,65,169658,null,"GRATEFUL",null,word,,,,,GRATEFUL,,
html-keyboard-response,66,170163,null,"LOUD<img id = ""stim"" ><div class = green_square id = ""topsquare"" ></div><img id = ""stim"" ><div class = green_square  id = ""bottomsquare"" ></div>",null,word_square,response,0,none,true,,,
html-keyboard-response,67,171665,null,"LOUD",null,word,,,,,LOUD,,
html-keyboard-response,68,172044,377.0349999831524,"SMART<img id = ""stim"" ><div class = red_square id = ""topsquare"" ></div><img id = ""stim"" ><div class = red_square  id = ""bottomsquare"" ></div>",32,word_square,response,1,Space,true,,,
html-keyboard-response,69,173548,null,"SMART",null,word,,,,,SMART,,
html-keyboard-response,70,174057,null,"SMOOTH<img id = ""stim"" ><div class = red_square id = ""topsquare"" ></div><img id = ""stim"" ><div class = red_square  id = ""bottomsquare"" ></div>",null,word_square,response,1,Space,false,,,
html-keyboard-response,71,175565,null,"SMOOTH",null,word,,,,,SMOOTH,,
html-keyboard-response,72,176073,null,"DISHONEST<img id = ""stim"" ><div class = green_square id = ""topsquare"" ></div><img id = ""stim"" ><div class = green_square  id = ""bottomsquare"" ></div>",null,word_square,response,0,none,true,,,
html-keyboard-response,73,177577,null,"DISHONEST",null,word,,,,,DISHONEST,,
html-keyboard-response,74,177981,401.3599999889266,"WEALTHY<img id = ""stim"" ><div class = red_square id = ""topsquare"" ></div><img id = ""stim"" ><div class = red_square  id = ""bottomsquare"" ></div>",32,word_square,response,1,Space,true,,,
html-keyboard-response,75,179484,null,"WEALTHY",null,word,,,,,WEALTHY,,
html-keyboard-response,76,179989,null,"BEAUTIFUL<img id = ""stim"" ><div class = green_square id = ""topsquare"" ></div><img id = ""stim"" ><div class = green_square  id = ""bottomsquare"" ></div>",null,word_square,response,0,none,true,,,
html-keyboard-response,77,181493,null,"BEAUTIFUL",null,word,,,,,BEAUTIFUL,,
html-keyboard-response,78,181996,null,"DREARY<img id = ""stim"" ><div class = green_square id = ""topsquare"" ></div><img id = ""stim"" ><div class = green_square  id = ""bottomsquare"" ></div>",null,word_square,response,0,none,true,,,
html-keyboard-response,79,183502,null,"DREARY",null,word,,,,,DREARY,,
html-keyboard-response,80,183994,485.53000000538304,"PLAYFUL<img id = ""stim"" ><div class = red_square id = ""topsquare"" ></div><img id = ""stim"" ><div class = red_square  id = ""bottomsquare"" ></div>",32,word_square,response,1,Space,true,,,
html-keyboard-response,81,185512,null,"PLAYFUL",null,word,,,,,PLAYFUL,,
html-keyboard-response,82,191316,5800.859999988461,"<p> Good job! You responded correctly to 89% of the red squares.</p>
                  <p>Be sure to keep your accuracy above 80%</p>
                  <p>Press any key to begin the math and recall sections. Thank you!</p>",32,,,,,,,,
call-function,83,191319,,"",,,,,,,,,
html-keyboard-response,84,191423,null,"",null,,,,,,,,
math-period,85,197336,10160.409999953117,"",,,,,,,,,5
html-keyboard-response,86,197439,null,"",null,,,,,,,,
math-period,87,200694,6213.614999986021,"",,,,,,,,,3
html-keyboard-response,88,200802,null,"",null,,,,,,,,
math-period,89,206072,9913.63499997533,"",,,,,,,,,2
html-keyboard-response,90,206174,null,"",null,,,,,,,,
math-period,91,209839,7070.490000012796,"",,,,,,,,,3
html-keyboard-response,92,209944,null,"",null,,,,,,,,
math-period,93,212073,4006.8199999805074,"",,,,,,,,,4
html-keyboard-response,94,212177,null,"",null,,,,,,,,
math-period,95,215022,5316.805000009481,"",,,,,,,,,3
html-keyboard-response,96,215125,null,"",null,,,,,,,,
math-period,97,215320,null,"",,,,,,,,,
html-keyboard-response,98,216337,null,"Recall Period!",null,,,,,,,,
call-function,99,216339,,"",,,,,,,,,
html-keyboard-response,100,216444,null,"",null,,,,,,,,
recall-period,101,222447,24322.595000063302,"",,,,,,,,,Loud
html-keyboard-response,102,222563,null,"",null,,,,,,,,
recall-period,103,227708,35986.52000003494,"",,,,,,,,,Dishonest
html-keyboard-response,104,227812,null,"",null,,,,,,,,
recall-period,105,231885,20380.884999904083,"",,,,,,,,,dreary
html-keyboard-response,106,231989,null,"",null,,,,,,,,
recall-period,107,241395,84334.6100000199,"",,,,,,,,,beautiful
html-keyboard-response,108,241504,null,"",null,,,,,,,,
recall-period,109,291345,null,"",,,,,,,,,
html-keyboard-response,110,291849,null,"Time's Up!",null,,,,,,,,
html-keyboard-response,111,301443,9591.950000001816,"<p>We will now begin the experiment!<p><p>Please try to remember all words from each list.<p><p>Press the spacebar whenever you see a red square.<p><p><p><p>Press the spacebar to begin.</p>",32,,,,,,,,
html-keyboard-response,112,304848,2902.3100000049453,"<div style=""font-size:48px;"">Press any key to begin list 1 of 24 </div>",32,,,,,,,,
html-keyboard-response,113,307358,null,"<div style=""font-size:60px;"">+</div>",null,,,,,,,,
html-keyboard-response,114,307874,null,"MAPLE<img id = ""stim"" ><div class = green_square id = ""topsquare"" ></div><img id = ""stim"" ><div class = green_square  id = ""bottomsquare"" ></div>",null,word_square,response,0,none,true,,,
html-keyboard-response,115,309379,null,"MAPLE",null,word,,,,, 'MAPLE',,
html-keyboard-response,116,309882,null,"SHELTER<img id = ""stim"" ><div class = green_square id = ""topsquare"" ></div><img id = ""stim"" ><div class = green_square  id = ""bottomsquare"" ></div>",null,word_square,response,0,none,true,,,
html-keyboard-response,117,311387,null,"SHELTER",null,word,,,,, 'SHELTER',,
html-keyboard-response,118,311894,null,"SHERIFF<img id = ""stim"" ><div class = red_square id = ""topsquare"" ></div><img id = ""stim"" ><div class = red_square  id = ""bottomsquare"" ></div>",null,word_square,response,1,Space,false,,,
html-keyboard-response,119,313399,null,"SHERIFF",null,word,,,,, 'SHERIFF',,
html-keyboard-response,120,313731,330.17000000108965,"AGENT<img id = ""stim"" ><div class = red_square id = ""topsquare"" ></div><img id = ""stim"" ><div class = red_square  id = ""bottomsquare"" ></div>",32,word_square,response,1,Space,true,,,
html-keyboard-response,121,315239,null,"AGENT",null,word,,,,, 'AGENT',,
html-keyboard-response,122,315744,null,"VENUS<img id = ""stim"" ><div class = green_square id = ""topsquare"" ></div><img id = ""stim"" ><div class = green_square  id = ""bottomsquare"" ></div>",null,word_square,response,0,none,true,,,
html-keyboard-response,123,317248,null,"VENUS",null,word,,,,, 'VENUS',,
html-keyboard-response,124,317756,null,"BANDIT<img id = ""stim"" ><div class = green_square id = ""topsquare"" ></div><img id = ""stim"" ><div class = green_square  id = ""bottomsquare"" ></div>",null,word_square,response,0,none,true,,,
html-keyboard-response,125,319259,null,"BANDIT",null,word,,,,, 'BANDIT',,
html-keyboard-response,126,319764,null,"RUST<img id = ""stim"" ><div class = red_square id = ""topsquare"" ></div><img id = ""stim"" ><div class = red_square  id = ""bottomsquare"" ></div>",null,word_square,response,1,Space,false,,,
html-keyboard-response,127,321267,null,"RUST",null,word,,,,, 'RUST',,
html-keyboard-response,128,321771,null,"LIVER<img id = ""stim"" ><div class = green_square id = ""topsquare"" ></div><img id = ""stim"" ><div class = green_square  id = ""bottomsquare"" ></div>",null,word_square,response,0,none,true,,,
html-keyboard-response,129,323276,null,"LIVER",null,word,,,,, 'LIVER',,
html-keyboard-response,130,323649,370.60999998357147,"GARLIC<img id = ""stim"" ><div class = red_square id = ""topsquare"" ></div><img id = ""stim"" ><div class = red_square  id = ""bottomsquare"" ></div>",32,word_square,response,1,Space,true,,,
html-keyboard-response,131,325153,null,"GARLIC",null,word,,,,, 'GARLIC',,
html-keyboard-response,132,325660,null,"SAILOR<img id = ""stim"" ><div class = green_square id = ""topsquare"" ></div><img id = ""stim"" ><div class = green_square  id = ""bottomsquare"" ></div>",null,word_square,response,0,none,true,,,
html-keyboard-response,133,327167,null,"SAILOR",null,word,,,,, 'SAILOR',,
html-keyboard-response,134,327675,null,"MARS<img id = ""stim"" ><div class = green_square id = ""topsquare"" ></div><img id = ""stim"" ><div class = green_square  id = ""bottomsquare"" ></div>",null,word_square,response,0,none,true,,,
html-keyboard-response,135,329191,null,"MARS",null,word,,,,, 'MARS',,
html-keyboard-response,136,329476,282.4900000123307,"DWARF<img id = ""stim"" ><div class = red_square id = ""topsquare"" ></div><img id = ""stim"" ><div class = red_square  id = ""bottomsquare"" ></div>",32,word_square,response,1,Space,true,,,
html-keyboard-response,137,330981,null,"DWARF",null,word,,,,, 'DWARF',,
html-keyboard-response,138,331486,null,"CREVICE<img id = ""stim"" ><div class = green_square id = ""topsquare"" ></div><img id = ""stim"" ><div class = green_square  id = ""bottomsquare"" ></div>",null,word_square,response,0,none,true,,,
html-keyboard-response,139,332990,null,"CREVICE",null,word,,,,, 'CREVICE',,
html-keyboard-response,140,333334,341.37499998905696,"NICKEL<img id = ""stim"" ><div class = red_square id = ""topsquare"" ></div><img id = ""stim"" ><div class = red_square  id = ""bottomsquare"" ></div>",32,word_square,response,1,Space,true,,,
html-keyboard-response,141,334840,null,"NICKEL",null,word,,,,, 'NICKEL',,
html-keyboard-response,142,335352,null,"CLIPPERS<img id = ""stim"" ><div class = green_square id = ""topsquare"" ></div><img id = ""stim"" ><div class = green_square  id = ""bottomsquare"" ></div>",null,word_square,response,0,none,true,,,
html-keyboard-response,143,336857,null,"CLIPPERS",null,word,,,,, 'CLIPPERS',,
html-keyboard-response,144,337260,401.39499999349937,"CONVICT<img id = ""stim"" ><div class = red_square id = ""topsquare"" ></div><img id = ""stim"" ><div class = red_square  id = ""bottomsquare"" ></div>",32,word_square,response,1,Space,true,,,
html-keyboard-response,145,338768,null,"CONVICT",null,word,,,,, 'CONVICT',,
html-keyboard-response,146,339268,498.5099999757949,"HAMMOCK<img id = ""stim"" ><div class = red_square id = ""topsquare"" ></div><img id = ""stim"" ><div class = red_square  id = ""bottomsquare"" ></div>",32,word_square,response,1,Space,true,,,
html-keyboard-response,147,340772,null,"HAMMOCK",null,word,,,,, 'HAMMOCK',,
html-keyboard-response,148,341127,352.7250000042841,"SLEEVE<img id = ""stim"" ><div class = red_square id = ""topsquare"" ></div><img id = ""stim"" ><div class = red_square  id = ""bottomsquare"" ></div>",32,word_square,response,1,Space,true,,,
html-keyboard-response,149,342630,null,"SLEEVE",null,word,,,,, 'SLEEVE',,
call-function,150,342632,,"",,,,,,,,,
html-keyboard-response,151,342739,null,"",null,,,,,,,,
math-period,152,349305,12739.029999997001,"",,,,,,,,,1
html-keyboard-response,153,349412,null,"",null,,,,,,,,
math-period,154,352255,5220.480000018142,"",,,,,,,,,1
html-keyboard-response,155,352360,null,"",null,,,,,,,,
math-period,156,354052,3101.124999986496,"",,,,,,,,,4
html-keyboard-response,157,354158,null,"",null,,,,,,,,
math-period,158,356029,3533.720000006724,"",,,,,,,,,4
html-keyboard-response,159,356137,null,"",null,,,,,,,,
math-period,160,357760,3088.9399999869056,"",,,,,,,,,6
html-keyboard-response,161,357864,null,"",null,,,,,,,,
math-period,162,359782,3450.6399999954738,"",,,,,,,,,3
html-keyboard-response,163,359889,null,"",null,,,,,,,,
math-period,164,362152,4358.084999985294,"",,,,,,,,,1
html-keyboard-response,165,362259,null,"",null,,,,,,,,
math-period,166,363765,2870.6100000126753,"",,,,,,,,,3
html-keyboard-response,167,363872,null,"",null,,,,,,,,
math-period,168,366634,null,"",,,,,,,,,
html-keyboard-response,169,367638,null,"Recall Period!",null,,,,,,,,
call-function,170,367639,,"",,,,,,,,,
html-keyboard-response,171,367745,null,"",null,,,,,,,,
recall-period,172,383775,107569.61000000592,"",,,,,,,,,garlic
html-keyboard-response,173,383879,null,"",null,,,,,,,,
recall-period,174,442653,null,"",,,,,,,,,
html-keyboard-response,175,443155,null,"Time's Up!",null,,,,,,,,
html-keyboard-response,176,448769,5611.99000000488,"<p> Good job! You responded correctly to 89% of the red squares.</p>
                  <p>Be sure to keep your accuracy above 80%</p>
                  <p>Press any key to continue the experiment. Thank you!</p>",32,,,,,,,,
html-keyboard-response,177,453520,4748.300000006566,"<div style=""font-size:48px;"">Press any key to begin list 2 of 24 </div>",32,,,,,,,,
html-keyboard-response,178,456024,null,"<div style=""font-size:60px;"">+</div>",null,,,,,,,,
html-keyboard-response,179,456537,null,"UNCLE<img id = ""stim"" ><div class = green_square id = ""topsquare"" ></div><img id = ""stim"" ><div class = green_square  id = ""bottomsquare"" ></div>",null,word_square,response,0,none,true,,,
html-keyboard-response,180,458040,null,"UNCLE",null,word,,,,, 'UNCLE',,
html-keyboard-response,181,458545,null,"BUG<img id = ""stim"" ><div class = green_square id = ""topsquare"" ></div><img id = ""stim"" ><div class = green_square  id = ""bottomsquare"" ></div>",null,word_square,response,0,none,true,,,
html-keyboard-response,182,460049,null,"BUG",null,word,,,,, 'BUG',,
html-keyboard-response,183,460451,400.9049999876879,"CHEMIST<img id = ""stim"" ><div class = red_square id = ""topsquare"" ></div><img id = ""stim"" ><div class = red_square  id = ""bottomsquare"" ></div>",32,word_square,response,1,Space,true,,,
html-keyboard-response,184,461958,null,"CHEMIST",null,word,,,,, 'CHEMIST',,
html-keyboard-response,185,462348,387.0549999992363,"SWEATER<img id = ""stim"" ><div class = red_square id = ""topsquare"" ></div><img id = ""stim"" ><div class = red_square  id = ""bottomsquare"" ></div>",32,word_square,response,1,Space,true,,,
html-keyboard-response,186,463852,null,"SWEATER",null,word,,,,, 'SWEATER',,
html-keyboard-response,187,464397,null,"HORSE<img id = ""stim"" ><div class = green_square id = ""topsquare"" ></div><img id = ""stim"" ><div class = green_square  id = ""bottomsquare"" ></div>",null,word_square,response,0,none,true,,,
html-keyboard-response,188,465901,null,"HORSE",null,word,,,,, 'HORSE',,
html-keyboard-response,189,466411,null,"CABIN<img id = ""stim"" ><div class = green_square id = ""topsquare"" ></div><img id = ""stim"" ><div class = green_square  id = ""bottomsquare"" ></div>",null,word_square,response,0,none,true,,,
html-keyboard-response,190,467914,null,"CABIN",null,word,,,,, 'CABIN',,
html-keyboard-response,191,468426,null,"REBEL<img id = ""stim"" ><div class = red_square id = ""topsquare"" ></div><img id = ""stim"" ><div class = red_square  id = ""bottomsquare"" ></div>",null,word_square,response,1,Space,false,,,
html-keyboard-response,192,469930,null,"REBEL",null,word,,,,, 'REBEL',,
html-keyboard-response,193,470438,null,"COMPASS<img id = ""stim"" ><div class = green_square id = ""topsquare"" ></div><img id = ""stim"" ><div class = green_square  id = ""bottomsquare"" ></div>",null,word_square,response,0,none,true,,,
html-keyboard-response,194,471941,null,"COMPASS",null,word,,,,, 'COMPASS',,
html-keyboard-response,195,472296,352.2050000028685,"BANDAGE<img id = ""stim"" ><div class = red_square id = ""topsquare"" ></div><img id = ""stim"" ><div class = red_square  id = ""bottomsquare"" ></div>",32,word_square,response,1,Space,true,,,
html-keyboard-response,196,473799,null,"BANDAGE",null,word,,,,, 'BANDAGE',,
html-keyboard-response,197,474312,null,"CABLE<img id = ""stim"" ><div class = green_square id = ""topsquare"" ></div><img id = ""stim"" ><div class = green_square  id = ""bottomsquare"" ></div>",null,word_square,response,0,none,true,,,
html-keyboard-response,198,475818,null,"CABLE",null,word,,,,, 'CABLE',,
html-keyboard-response,199,476333,null,"SHRIMP<img id = ""stim"" ><div class = green_square id = ""topsquare"" ></div><img id = ""stim"" ><div class = green_square  id = ""bottomsquare"" ></div>",null,word_square,response,0,none,true,,,
html-keyboard-response,200,477836,null,"SHRIMP",null,word,,,,, 'SHRIMP',,
html-keyboard-response,201,478296,458.4800000011455,"HAMPER<img id = ""stim"" ><div class = red_square id = ""topsquare"" ></div><img id = ""stim"" ><div class = red_square  id = ""bottomsquare"" ></div>",32,word_square,response,1,Space,true,,,
html-keyboard-response,202,479799,null,"HAMPER",null,word,,,,, 'HAMPER',,
html-keyboard-response,203,480303,null,"BUREAU<img id = ""stim"" ><div class = green_square id = ""topsquare"" ></div><img id = ""stim"" ><div class = green_square  id = ""bottomsquare"" ></div>",null,word_square,response,0,none,true,,,
html-keyboard-response,204,481806,null,"BUREAU",null,word,,,,, 'BUREAU',,
html-keyboard-response,205,482233,424.83000000356697,"GLASSES<img id = ""stim"" ><div class = red_square id = ""topsquare"" ></div><img id = ""stim"" ><div class = red_square  id = ""bottomsquare"" ></div>",32,word_square,response,1,Space,true,,,
html-keyboard-response,206,483739,null,"GLASSES",null,word,,,,, 'GLASSES',,
html-keyboard-response,207,484245,null,"AIRPORT<img id = ""stim"" ><div class = green_square id = ""topsquare"" ></div><img id = ""stim"" ><div class = green_square  id = ""bottomsquare"" ></div>",null,word_square,response,0,none,true,,,
html-keyboard-response,208,485751,null,"AIRPORT",null,word,,,,, 'AIRPORT',,
html-keyboard-response,209,486212,459.869999991497,"PILOT<img id = ""stim"" ><div class = red_square id = ""topsquare"" ></div><img id = ""stim"" ><div class = red_square  id = ""bottomsquare"" ></div>",32,word_square,response,1,Space,true,,,
html-keyboard-response,210,487718,null,"PILOT",null,word,,,,, 'PILOT',,
html-keyboard-response,211,488222,null,"COUNTRY<img id = ""stim"" ><div class = red_square id = ""topsquare"" ></div><img id = ""stim"" ><div class = red_square  id = ""bottomsquare"" ></div>",null,word_square,response,1,Space,false,,,
html-keyboard-response,212,489738,null,"COUNTRY",null,word,,,,, 'COUNTRY',,
html-keyboard-response,213,490242,501.45000001066364,"STAMP<img id = ""stim"" ><div class = red_square id = ""topsquare"" ></div><img id = ""stim"" ><div class = red_square  id = ""bottomsquare"" ></div>",32,word_square,response,1,Space,true,,,
html-keyboard-response,214,491747,null,"STAMP",null,word,,,,, 'STAMP',,
call-function,215,491748,,"",,,,,,,,,
html-keyboard-response,216,491854,null,"",null,,,,,,,,
math-period,217,496972,9941.67500003823,"",,,,,,,,,1
html-keyboard-response,218,497074,null,"",null,,,,,,,,
math-period,219,499457,4556.024999998044,"",,,,,,,,,5
html-keyboard-response,220,499561,null,"",null,,,,,,,,
math-period,221,501515,3577.3149999731686,"",,,,,,,,,3
html-keyboard-response,222,501619,null,"",null,,,,,,,,
math-period,223,505151,6583.690000028582,"",,,,,,,,,2
html-keyboard-response,224,505256,null,"",null,,,,,,,,
math-period,225,508090,5309.450000000652,"",,,,,,,,,2
html-keyboard-response,226,508205,null,"",null,,,,,,,,
math-period,227,512085,7400.099999998929,"",,,,,,,,,1
html-keyboard-response,228,512195,null,"",null,,,,,,,,
math-period,229,515010,5161.149999999907,"",,,,,,,,,5
html-keyboard-response,230,515117,null,"",null,,,,,,,,
math-period,231,515753,null,"",,,,,,,,,
html-keyboard-response,232,516757,null,"Recall Period!",null,,,,,,,,
call-function,233,516758,,"",,,,,,,,,
html-keyboard-response,234,516865,null,"",null,,,,,,,,
recall-period,235,520375,18581.724999879953,"",,,,,,,,,Hamper
html-keyboard-response,236,520481,null,"",null,,,,,,,,
recall-period,237,537027,92359.55000008107,"",,,,,,,,,rebel
html-keyboard-response,238,537133,null,"",null,,,,,,,,
recall-period,239,538650,7471.609999920474,"",,,,,,,,,airport
html-keyboard-response,240,538753,null,"",null,,,,,,,,
recall-period,241,540038,4935.675000015181,"",,,,,,,,,pilot
html-keyboard-response,242,540148,null,"",null,,,,,,,,
recall-period,243,554924,83083.49000001908,"",,,,,,,,,cabin
html-keyboard-response,244,555029,null,"",null,,,,,,,,
recall-period,245,591762,null,"",,,,,,,,,
html-keyboard-response,246,592270,null,"Time's Up!",null,,,,,,,,
html-keyboard-response,247,597743,5467.319999996107,"<p> Good job! You responded correctly to 89% of the red squares.</p>
                  <p>Be sure to keep your accuracy above 80%</p>
                  <p>Press any key to continue the experiment. Thank you!</p>",32,,,,,,,,
html-keyboard-response,248,609938,12193.295000004582,"<div style=""font-size:48px;"">Press any key to begin list 3 of 24 </div>",32,,,,,,,,
html-keyboard-response,249,612444,null,"<div style=""font-size:60px;"">+</div>",null,,,,,,,,
html-keyboard-response,250,612957,null,"SNAKE<img id = ""stim"" ><div class = red_square id = ""topsquare"" ></div><img id = ""stim"" ><div class = red_square  id = ""bottomsquare"" ></div>",null,word_square,response,1,Space,false,,,
html-keyboard-response,251,614461,null,"SNAKE",null,word,,,,, 'SNAKE',,
html-keyboard-response,252,614800,337.0899999863468,"SUITE<img id = ""stim"" ><div class = red_square id = ""topsquare"" ></div><img id = ""stim"" ><div class = red_square  id = ""bottomsquare"" ></div>",32,word_square,response,1,Space,true,,,
html-keyboard-response,253,616305,null,"SUITE",null,word,,,,, 'SUITE',,
html-keyboard-response,254,616814,null,"GUARD<img id = ""stim"" ><div class = green_square id = ""topsquare"" ></div><img id = ""stim"" ><div class = green_square  id = ""bottomsquare"" ></div>",null,word_square,response,0,none,true,,,
html-keyboard-response,255,618319,null,"GUARD",null,word,,,,, 'GUARD',,
html-keyboard-response,256,618827,null,"PICNIC<img id = ""stim"" ><div class = green_square id = ""topsquare"" ></div><img id = ""stim"" ><div class = green_square  id = ""bottomsquare"" ></div>",null,word_square,response,0,none,true,,,
html-keyboard-response,257,620329,null,"PICNIC",null,word,,,,, 'PICNIC',,
html-keyboard-response,258,620842,null,"CROOK<img id = ""stim"" ><div class = red_square id = ""topsquare"" ></div><img id = ""stim"" ><div class = red_square  id = ""bottomsquare"" ></div>",null,word_square,response,1,Space,false,,,
html-keyboard-response,259,622346,null,"CROOK",null,word,,,,, 'CROOK',,
html-keyboard-response,260,622781,433.0049999989569,"JOINT<img id = ""stim"" ><div class = red_square id = ""topsquare"" ></div><img id = ""stim"" ><div class = red_square  id = ""bottomsquare"" ></div>",32,word_square,response,1,Space,true,,,
html-keyboard-response,261,624283,null,"JOINT",null,word,,,,, 'JOINT',,
html-keyboard-response,262,624788,null,"BUSH<img id = ""stim"" ><div class = green_square id = ""topsquare"" ></div><img id = ""stim"" ><div class = green_square  id = ""bottomsquare"" ></div>",null,word_square,response,0,none,true,,,
html-keyboard-response,263,626291,null,"BUSH",null,word,,,,, 'BUSH',,
html-keyboard-response,264,626655,361.97500000707805,"PARENT<img id = ""stim"" ><div class = red_square id = ""topsquare"" ></div><img id = ""stim"" ><div class = red_square  id = ""bottomsquare"" ></div>",32,word_square,response,1,Space,true,,,
html-keyboard-response,265,628160,null,"PARENT",null,word,,,,, 'PARENT',,
html-keyboard-response,266,628675,null,"PIGMENT<img id = ""stim"" ><div class = green_square id = ""topsquare"" ></div><img id = ""stim"" ><div class = green_square  id = ""bottomsquare"" ></div>",null,word_square,response,0,none,true,,,
html-keyboard-response,267,630180,null,"PIGMENT",null,word,,,,, 'PIGMENT',,
html-keyboard-response,268,630510,328.2199999957811,"JEANS<img id = ""stim"" ><div class = red_square id = ""topsquare"" ></div><img id = ""stim"" ><div class = red_square  id = ""bottomsquare"" ></div>",32,word_square,response,1,Space,true,,,
html-keyboard-response,269,632014,null,"JEANS",null,word,,,,, 'JEANS',,
html-keyboard-response,270,632336,320.4600000171922,"POCKET<img id = ""stim"" ><div class = red_square id = ""topsquare"" ></div><img id = ""stim"" ><div class = red_square  id = ""bottomsquare"" ></div>",32,word_square,response,1,Space,true,,,
html-keyboard-response,271,633841,null,"POCKET",null,word,,,,, 'POCKET',,
html-keyboard-response,272,634346,null,"DAUGHTER<img id = ""stim"" ><div class = green_square id = ""topsquare"" ></div><img id = ""stim"" ><div class = green_square  id = ""bottomsquare"" ></div>",null,word_square,response,0,none,true,,,
html-keyboard-response,273,635858,null,"DAUGHTER",null,word,,,,, 'DAUGHTER',,
html-keyboard-response,274,636202,342.98499999567866,"LOBBY<img id = ""stim"" ><div class = red_square id = ""topsquare"" ></div><img id = ""stim"" ><div class = red_square  id = ""bottomsquare"" ></div>",32,word_square,response,1,Space,true,,,
html-keyboard-response,275,637706,null,"LOBBY",null,word,,,,, 'LOBBY',,
html-keyboard-response,276,638212,null,"FLIPPER<img id = ""stim"" ><div class = green_square id = ""topsquare"" ></div><img id = ""stim"" ><div class = green_square  id = ""bottomsquare"" ></div>",null,word_square,response,0,none,true,,,
html-keyboard-response,277,639715,null,"FLIPPER",null,word,,,,, 'FLIPPER',,
html-keyboard-response,278,640029,311.2200000032317,"CANAL<img id = ""stim"" ><div class = red_square id = ""topsquare"" ></div><img id = ""stim"" ><div class = red_square  id = ""bottomsquare"" ></div>",32,word_square,response,1,Space,true,,,
html-keyboard-response,279,641535,null,"CANAL",null,word,,,,, 'CANAL',,
html-keyboard-response,280,642044,null,"MONKEY<img id = ""stim"" ><div class = green_square id = ""topsquare"" ></div><img id = ""stim"" ><div class = green_square  id = ""bottomsquare"" ></div>",null,word_square,response,0,none,true,,,
html-keyboard-response,281,643561,null,"MONKEY",null,word,,,,, 'MONKEY',,
html-keyboard-response,282,644067,null,"MAILBOX<img id = ""stim"" ><div class = green_square id = ""topsquare"" ></div><img id = ""stim"" ><div class = green_square  id = ""bottomsquare"" ></div>",null,word_square,response,0,none,true,,,
html-keyboard-response,283,645576,null,"MAILBOX",null,word,,,,, 'MAILBOX',,
html-keyboard-response,284,646081,null,"POSTAGE<img id = ""stim"" ><div class = green_square id = ""topsquare"" ></div><img id = ""stim"" ><div class = green_square  id = ""bottomsquare"" ></div>",null,word_square,response,0,none,true,,,
html-keyboard-response,285,647588,null,"POSTAGE",null,word,,,,, 'POSTAGE',,
call-function,286,647590,,"",,,,,,,,,
html-keyboard-response,287,647692,null,"",null,,,,,,,,
math-period,288,650026,4194.710000010673,"",,,,,,,,,3
html-keyboard-response,289,650133,null,"",null,,,,,,,,
math-period,290,653470,6044.079999963287,"",,,,,,,,,2
html-keyboard-response,291,653574,null,"",null,,,,,,,,
math-period,292,658236,8691.894999996293,"",,,,,,,,,2
html-keyboard-response,293,658341,null,"",null,,,,,,,,
math-period,294,660063,3079.66500002658,"",,,,,,,,,5
html-keyboard-response,295,660169,null,"",null,,,,,,,,
math-period,296,661859,3031.604999967385,"",,,,,,,,,4
html-keyboard-response,297,661965,null,"",null,,,,,,,,
math-period,298,664393,4516.249999956926,"",,,,,,,,,6
html-keyboard-response,299,664501,null,"",null,,,,,,,,
math-period,300,666205,3070.6650000356603,"",,,,,,,,,5
html-keyboard-response,301,666323,null,"",null,,,,,,,,
math-period,302,668281,3337.6650000282098,"",,,,,,,,,6
html-keyboard-response,303,668388,null,"",null,,,,,,,,
math-period,304,670747,4372.399999992922,"",,,,,,,,,2
html-keyboard-response,305,670854,null,"",null,,,,,,,,
math-period,306,671592,null,"",,,,,,,,,
html-keyboard-response,307,672600,null,"Recall Period!",null,,,,,,,,
call-function,308,672601,,"",,,,,,,,,
html-keyboard-response,309,672713,null,"",null,,,,,,,,
recall-period,310,682004,44428.590000083204,"",,,,,,,,,mailbox
html-keyboard-response,311,682108,null,"",null,,,,,,,,
recall-period,312,685510,15789.465000067139,"",,,,,,,,,postage
html-keyboard-response,313,685625,null,"",null,,,,,,,,
recall-period,314,687953,11033.49999996135,"",,,,,,,,,stamp
html-keyboard-response,315,688059,null,"",null,,,,,,,,
recall-period,316,747606,null,"",,,,,,,,,
html-keyboard-response,317,748112,null,"Time's Up!",null,,,,,,,,
html-keyboard-response,318,750567,2455.020000023069,"<p> Good job! You responded correctly to 89% of the red squares.</p>
                  <p>Be sure to keep your accuracy above 80%</p>
                  <p>Press any key to continue the experiment. Thank you!</p>",32,,,,,,,,
html-keyboard-response,319,777544,26974.56499998225,"<div style=""font-size:48px;"">Press any key to begin list 4 of 24 </div>",32,,,,,,,,
html-keyboard-response,320,780050,null,"<div style=""font-size:60px;"">+</div>",null,,,,,,,,
html-keyboard-response,321,780476,423.3599999861326,"VELVET<img id = ""stim"" ><div class = red_square id = ""topsquare"" ></div><img id = ""stim"" ><div class = red_square  id = ""bottomsquare"" ></div>",32,word_square,response,1,Space,true,,,
html-keyboard-response,322,781980,null,"VELVET",null,word,,,,, 'VELVET',,
html-keyboard-response,323,782324,342.18499998678453,"STATUE<img id = ""stim"" ><div class = red_square id = ""topsquare"" ></div><img id = ""stim"" ><div class = red_square  id = ""bottomsquare"" ></div>",32,word_square,response,1,Space,true,,,
html-keyboard-response,324,783829,null,"STATUE",null,word,,,,, 'STATUE',,
html-keyboard-response,325,784333,null,"MONARCH<img id = ""stim"" ><div class = green_square id = ""topsquare"" ></div><img id = ""stim"" ><div class = green_square  id = ""bottomsquare"" ></div>",null,word_square,response,0,none,true,,,
html-keyboard-response,326,785841,null,"MONARCH",null,word,,,,, 'MONARCH',,
html-keyboard-response,327,786345,null,"BISON<img id = ""stim"" ><div class = green_square id = ""topsquare"" ></div><img id = ""stim"" ><div class = green_square  id = ""bottomsquare"" ></div>",null,word_square,response,0,none,true,,,
html-keyboard-response,328,787849,null,"BISON",null,word,,,,, 'BISON',,
html-keyboard-response,329,788230,378.3150000090245,"TRIBE<img id = ""stim"" ><div class = red_square id = ""topsquare"" ></div><img id = ""stim"" ><div class = red_square  id = ""bottomsquare"" ></div>",32,word_square,response,1,Space,true,,,
html-keyboard-response,330,789735,null,"TRIBE",null,word,,,,, 'TRIBE',,
html-keyboard-response,331,790094,356.25499999150634,"DRAWING<img id = ""stim"" ><div class = red_square id = ""topsquare"" ></div><img id = ""stim"" ><div class = red_square  id = ""bottomsquare"" ></div>",32,word_square,response,1,Space,true,,,
html-keyboard-response,332,791598,null,"DRAWING",null,word,,,,, 'DRAWING',,
html-keyboard-response,333,792102,null,"BEEF<img id = ""stim"" ><div class = green_square id = ""topsquare"" ></div><img id = ""stim"" ><div class = green_square  id = ""bottomsquare"" ></div>",null,word_square,response,0,none,true,,,
html-keyboard-response,334,793606,null,"BEEF",null,word,,,,, 'BEEF',,
html-keyboard-response,335,793905,296.6899999883026,"DRESSER<img id = ""stim"" ><div class = red_square id = ""topsquare"" ></div><img id = ""stim"" ><div class = red_square  id = ""bottomsquare"" ></div>",32,word_square,response,1,Space,true,,,
html-keyboard-response,336,795410,null,"DRESSER",null,word,,,,, 'DRESSER',,
html-keyboard-response,337,795913,null,"CLOTHES<img id = ""stim"" ><div class = green_square id = ""topsquare"" ></div><img id = ""stim"" ><div class = green_square  id = ""bottomsquare"" ></div>",null,word_square,response,0,none,true,,,
html-keyboard-response,338,797417,null,"CLOTHES",null,word,,,,, 'CLOTHES',,
html-keyboard-response,339,797883,463.6799999861978,"PONY<img id = ""stim"" ><div class = red_square id = ""topsquare"" ></div><img id = ""stim"" ><div class = red_square  id = ""bottomsquare"" ></div>",32,word_square,response,1,Space,true,,,
html-keyboard-response,340,799388,null,"PONY",null,word,,,,, 'PONY',,
html-keyboard-response,341,799748,358.12499999883585,"SPHINX<img id = ""stim"" ><div class = red_square id = ""topsquare"" ></div><img id = ""stim"" ><div class = red_square  id = ""bottomsquare"" ></div>",32,word_square,response,1,Space,true,,,
html-keyboard-response,342,801282,null,"SPHINX",null,word,,,,, 'SPHINX',,
html-keyboard-response,343,801790,null,"STOVE<img id = ""stim"" ><div class = green_square id = ""topsquare"" ></div><img id = ""stim"" ><div class = green_square  id = ""bottomsquare"" ></div>",null,word_square,response,0,none,true,,,
html-keyboard-response,344,803296,null,"STOVE",null,word,,,,, 'STOVE',,
html-keyboard-response,345,803804,null,"JOURNAL<img id = ""stim"" ><div class = red_square id = ""topsquare"" ></div><img id = ""stim"" ><div class = red_square  id = ""bottomsquare"" ></div>",null,word_square,response,1,Space,false,,,
html-keyboard-response,346,805308,null,"JOURNAL",null,word,,,,, 'JOURNAL',,
html-keyboard-response,347,805813,null,"SHELF<img id = ""stim"" ><div class = green_square id = ""topsquare"" ></div><img id = ""stim"" ><div class = green_square  id = ""bottomsquare"" ></div>",null,word_square,response,0,none,true,,,
html-keyboard-response,348,807320,null,"SHELF",null,word,,,,, 'SHELF',,
html-keyboard-response,349,807605,283.2050000142772,"GODDESS<img id = ""stim"" ><div class = red_square id = ""topsquare"" ></div><img id = ""stim"" ><div class = red_square  id = ""bottomsquare"" ></div>",32,word_square,response,1,Space,true,,,
html-keyboard-response,350,809111,null,"GODDESS",null,word,,,,, 'GODDESS',,
html-keyboard-response,351,809616,null,"SKUNK<img id = ""stim"" ><div class = green_square id = ""topsquare"" ></div><img id = ""stim"" ><div class = green_square  id = ""bottomsquare"" ></div>",null,word_square,response,0,none,true,,,
html-keyboard-response,352,811126,null,"SKUNK",null,word,,,,, 'SKUNK',,
html-keyboard-response,353,811629,null,"HELMET<img id = ""stim"" ><div class = green_square id = ""topsquare"" ></div><img id = ""stim"" ><div class = green_square  id = ""bottomsquare"" ></div>",null,word_square,response,0,none,true,,,
html-keyboard-response,354,813134,null,"HELMET",null,word,,,,, 'HELMET',,
html-keyboard-response,355,813641,null,"FOSSIL<img id = ""stim"" ><div class = green_square id = ""topsquare"" ></div><img id = ""stim"" ><div class = green_square  id = ""bottomsquare"" ></div>",null,word_square,response,0,none,true,,,
html-keyboard-response,356,815146,null,"FOSSIL",null,word,,,,, 'FOSSIL',,
call-function,357,815149,,"",,,,,,,,,
html-keyboard-response,358,815253,null,"",null,,,,,,,,
math-period,359,818332,5642.840000014985,"",,,,,,,,,2
html-keyboard-response,360,818435,null,"",null,,,,,,,,
math-period,361,820909,4627.574999991339,"",,,,,,,,,0
html-keyboard-response,362,821015,null,"",null,,,,,,,,
math-period,363,823024,3638.219999964349,"",,,,,,,,,3
html-keyboard-response,364,823131,null,"",null,,,,,,,,
math-period,365,824462,2477.7500000200234,"",,,,,,,,,5
html-keyboard-response,366,824567,null,"",null,,,,,,,,
math-period,367,826385,3283.355000021402,"",,,,,,,,,2
html-keyboard-response,368,826488,null,"",null,,,,,,,,
math-period,369,828198,3253.8349999813363,"",,,,,,,,,4
html-keyboard-response,370,828305,null,"",null,,,,,,,,
math-period,371,831770,10080.930000025546,"",,,,,,,,,3
html-keyboard-response,372,831874,null,"",null,,,,,,,,
math-period,373,833757,3640.4399999883026,"",,,,,,,,,4
html-keyboard-response,374,833865,null,"",null,,,,,,,,
math-period,375,835396,2774.635000008857,"",,,,,,,,,3
html-keyboard-response,376,835499,null,"",null,,,,,,,,
math-period,377,838120,4909.335000003921,"",,,,,,,,,0
html-keyboard-response,378,838224,null,"",null,,,,,,,,
math-period,379,839165,null,"",,,,,,,,,
html-keyboard-response,380,840170,null,"Recall Period!",null,,,,,,,,
call-function,381,840171,,"",,,,,,,,,
html-keyboard-response,382,840278,null,"",null,,,,,,,,
recall-period,383,845732,28515.69999998901,"",,,,,,,,,sphinx
html-keyboard-response,384,845837,null,"",null,,,,,,,,
recall-period,385,849426,17445.355000032578,"",,,,,,,,,goddess
html-keyboard-response,386,849533,null,"",null,,,,,,,,
recall-period,387,854594,23396.604999958072,"",,,,,,,,,helmet
html-keyboard-response,388,854699,null,"",null,,,,,,,,
recall-period,389,915174,null,"",,,,,,,,,
html-keyboard-response,390,915687,null,"Time's Up!",null,,,,,,,,
html-keyboard-response,391,925229,9539.04999999213,"<p> Good job! You responded correctly to 90% of the red squares.</p>
                  <p>Be sure to keep your accuracy above 80%</p>
                  <p>Press any key to continue the experiment. Thank you!</p>",32,,,,,,,,
html-keyboard-response,392,926177,945.7899999979418,"<div style=""font-size:48px;"">Press any key to begin list 5 of 24 </div>",32,,,,,,,,
html-keyboard-response,393,928685,null,"<div style=""font-size:60px;"">+</div>",null,,,,,,,,
html-keyboard-response,394,929197,null,"CHARCOAL<img id = ""stim"" ><div class = green_square id = ""topsquare"" ></div><img id = ""stim"" ><div class = green_square  id = ""bottomsquare"" ></div>",null,word_square,response,0,none,true,,,
html-keyboard-response,395,930701,null,"CHARCOAL",null,word,,,,, 'CHARCOAL',,
html-keyboard-response,396,931205,null,"BRACES<img id = ""stim"" ><div class = red_square id = ""topsquare"" ></div><img id = ""stim"" ><div class = red_square  id = ""bottomsquare"" ></div>",null,word_square,response,1,Space,false,,,
html-keyboard-response,397,932708,null,"BRACES",null,word,,,,, 'BRACES',,
html-keyboard-response,398,933213,null,"COURSE<img id = ""stim"" ><div class = green_square id = ""topsquare"" ></div><img id = ""stim"" ><div class = green_square  id = ""bottomsquare"" ></div>",null,word_square,response,0,none,true,,,
html-keyboard-response,399,934717,null,"COURSE",null,word,,,,, 'COURSE',,
html-keyboard-response,400,935192,472.35499997623265,"JUGGLER<img id = ""stim"" ><div class = red_square id = ""topsquare"" ></div><img id = ""stim"" ><div class = red_square  id = ""bottomsquare"" ></div>",32,word_square,response,1,Space,true,,,
html-keyboard-response,401,936695,null,"JUGGLER",null,word,,,,, 'JUGGLER',,
html-keyboard-response,402,937203,null,"MILDEW<img id = ""stim"" ><div class = green_square id = ""topsquare"" ></div><img id = ""stim"" ><div class = green_square  id = ""bottomsquare"" ></div>",null,word_square,response,0,none,true,,,
html-keyboard-response,403,938707,null,"MILDEW",null,word,,,,, 'MILDEW',,
html-keyboard-response,404,939212,null,"ROACH<img id = ""stim"" ><div class = red_square id = ""topsquare"" ></div><img id = ""stim"" ><div class = red_square  id = ""bottomsquare"" ></div>",null,word_square,response,1,Space,false,,,
html-keyboard-response,405,940716,null,"ROACH",null,word,,,,, 'ROACH',,
html-keyboard-response,406,941228,null,"DENTIST<img id = ""stim"" ><div class = red_square id = ""topsquare"" ></div><img id = ""stim"" ><div class = red_square  id = ""bottomsquare"" ></div>",null,word_square,response,1,Space,false,,,
html-keyboard-response,407,942732,null,"DENTIST",null,word,,,,, 'DENTIST',,
html-keyboard-response,408,943236,null,"TRUMPET<img id = ""stim"" ><div class = green_square id = ""topsquare"" ></div><img id = ""stim"" ><div class = green_square  id = ""bottomsquare"" ></div>",null,word_square,response,0,none,true,,,
html-keyboard-response,409,944744,null,"TRUMPET",null,word,,,,, 'TRUMPET',,
html-keyboard-response,410,945253,null,"PARSLEY<img id = ""stim"" ><div class = green_square id = ""topsquare"" ></div><img id = ""stim"" ><div class = green_square  id = ""bottomsquare"" ></div>",null,word_square,response,0,none,true,,,
html-keyboard-response,411,946759,null,"PARSLEY",null,word,,,,, 'PARSLEY',,
html-keyboard-response,412,947122,360.56999998982064,"BARLEY<img id = ""stim"" ><div class = red_square id = ""topsquare"" ></div><img id = ""stim"" ><div class = red_square  id = ""bottomsquare"" ></div>",32,word_square,response,1,Space,true,,,
html-keyboard-response,413,948630,null,"BARLEY",null,word,,,,, 'BARLEY',,
html-keyboard-response,414,949139,null,"TOURIST<img id = ""stim"" ><div class = green_square id = ""topsquare"" ></div><img id = ""stim"" ><div class = green_square  id = ""bottomsquare"" ></div>",null,word_square,response,0,none,true,,,
html-keyboard-response,415,950642,null,"TOURIST",null,word,,,,, 'TOURIST',,
html-keyboard-response,416,951146,null,"SAUCER<img id = ""stim"" ><div class = green_square id = ""topsquare"" ></div><img id = ""stim"" ><div class = green_square  id = ""bottomsquare"" ></div>",null,word_square,response,0,none,true,,,
html-keyboard-response,417,952654,null,"SAUCER",null,word,,,,, 'SAUCER',,
html-keyboard-response,418,953053,397.144999995362,"COFFIN<img id = ""stim"" ><div class = red_square id = ""topsquare"" ></div><img id = ""stim"" ><div class = red_square  id = ""bottomsquare"" ></div>",32,word_square,response,1,Space,true,,,
html-keyboard-response,419,954563,null,"COFFIN",null,word,,,,, 'COFFIN',,
html-keyboard-response,420,955072,null,"CHEST<img id = ""stim"" ><div class = green_square id = ""topsquare"" ></div><img id = ""stim"" ><div class = green_square  id = ""bottomsquare"" ></div>",null,word_square,response,0,none,true,,,
html-keyboard-response,421,956579,null,"CHEST",null,word,,,,, 'CHEST',,
html-keyboard-response,422,957083,null,"DONOR<img id = ""stim"" ><div class = green_square id = ""topsquare"" ></div><img id = ""stim"" ><div class = green_square  id = ""bottomsquare"" ></div>",null,word_square,response,0,none,true,,,
html-keyboard-response,423,958587,null,"DONOR",null,word,,,,, 'DONOR',,
html-keyboard-response,424,959090,null,"RAILROAD<img id = ""stim"" ><div class = red_square id = ""topsquare"" ></div><img id = ""stim"" ><div class = red_square  id = ""bottomsquare"" ></div>",null,word_square,response,1,Space,false,,,
html-keyboard-response,425,960606,null,"RAILROAD",null,word,,,,, 'RAILROAD',,
html-keyboard-response,426,960948,339.96499999193475,"PUDDLE<img id = ""stim"" ><div class = red_square id = ""topsquare"" ></div><img id = ""stim"" ><div class = red_square  id = ""bottomsquare"" ></div>",32,word_square,response,1,Space,true,,,
html-keyboard-response,427,962453,null,"PUDDLE",null,word,,,,, 'PUDDLE',,
html-keyboard-response,428,962827,372.0749999920372,"SPICE<img id = ""stim"" ><div class = red_square id = ""topsquare"" ></div><img id = ""stim"" ><div class = red_square  id = ""bottomsquare"" ></div>",32,word_square,response,1,Space,true,,,
html-keyboard-response,429,964331,null,"SPICE",null,word,,,,, 'SPICE',,
call-function,430,964332,,"",,,,,,,,,
html-keyboard-response,431,964435,null,"",null,,,,,,,,
math-period,432,967040,4585.880000027828,"",,,,,,,,,2
html-keyboard-response,433,967143,null,"",null,,,,,,,,
math-period,434,968801,3002.3850000288803,"",,,,,,,,,6
html-keyboard-response,435,968914,null,"",null,,,,,,,,
math-period,436,971122,3624.665000010282,"",,,,,,,,,4
html-keyboard-response,437,971227,null,"",null,,,,,,,,
math-period,438,973368,4101.829999999609,"",,,,,,,,,4
html-keyboard-response,439,973471,null,"",null,,,,,,,,
math-period,440,975159,3248.334999952931,"",,,,,,,,,4
html-keyboard-response,441,975262,null,"",null,,,,,,,,
math-period,442,976891,3037.4549999833107,"",,,,,,,,,3
html-keyboard-response,443,977008,null,"",null,,,,,,,,
math-period,444,978795,3293.4649999951944,"",,,,,,,,,3
html-keyboard-response,445,978897,null,"",null,,,,,,,,
math-period,446,980540,3146.5299999981653,"",,,,,,,,,4
html-keyboard-response,447,980649,null,"",null,,,,,,,,
math-period,448,982711,3965.8650000346825,"",,,,,,,,,4
html-keyboard-response,449,982814,null,"",null,,,,,,,,
math-period,450,985969,6007.270000030985,"",,,,,,,,,2
html-keyboard-response,451,986077,null,"",null,,,,,,,,
math-period,452,988335,2178.2400000083726,"",,,,,,,,,2
html-keyboard-response,453,989339,null,"Recall Period!",null,,,,,,,,
call-function,454,989340,,"",,,,,,,,,
html-keyboard-response,455,989443,null,"",null,,,,,,,,
recall-period,456,991148,1701.9750000035856,"",,,,,,,,,
html-keyboard-response,457,991256,null,"",null,,,,,,,,
recall-period,458,1009955,139376.414999977,"",,,,,,,,,dentist
html-keyboard-response,459,1010059,null,"",null,,,,,,,,
recall-period,460,1024793,121752.97499980661,"",,,,,,,,,charcoal
html-keyboard-response,461,1024898,null,"",null,,,,,,,,
recall-period,462,1064344,null,"",,,,,,,,,
html-keyboard-response,463,1064852,null,"Time's Up!",null,,,,,,,,
html-keyboard-response,464,1069112,4257.780000014463,"<p> Good job! You responded correctly to 88% of the red squares.</p>
                  <p>Be sure to keep your accuracy above 80%</p>
                  <p>Press any key to continue the experiment. Thank you!</p>",32,,,,,,,,
html-keyboard-response,465,1070478,1364.2450000043027,"<div style=""font-size:48px;"">Press any key to begin list 6 of 24 </div>",32,,,,,,,,
html-keyboard-response,466,1072988,null,"<div style=""font-size:60px;"">+</div>",null,,,,,,,,
html-keyboard-response,467,1073493,null,"PASTRY<img id = ""stim"" ><div class = green_square id = ""topsquare"" ></div><img id = ""stim"" ><div class = green_square  id = ""bottomsquare"" ></div>",null,word_square,response,0,none,true,,,
html-keyboard-response,468,1075000,null,"PASTRY",null,word,,,,, 'PASTRY',,
html-keyboard-response,469,1075379,376.6650000179652,"MONEY<img id = ""stim"" ><div class = red_square id = ""topsquare"" ></div><img id = ""stim"" ><div class = red_square  id = ""bottomsquare"" ></div>",32,word_square,response,1,Space,true,,,
html-keyboard-response,470,1076891,null,"MONEY",null,word,,,,, 'MONEY',,
html-keyboard-response,471,1077396,null,"MAILMAN<img id = ""stim"" ><div class = green_square id = ""topsquare"" ></div><img id = ""stim"" ><div class = green_square  id = ""bottomsquare"" ></div>",null,word_square,response,0,none,true,,,
html-keyboard-response,472,1078901,null,"MAILMAN",null,word,,,,, 'MAILMAN',,
html-keyboard-response,473,1079407,null,"EUROPE<img id = ""stim"" ><div class = red_square id = ""topsquare"" ></div><img id = ""stim"" ><div class = red_square  id = ""bottomsquare"" ></div>",null,word_square,response,1,Space,false,,,
html-keyboard-response,474,1080916,null,"EUROPE",null,word,,,,, 'EUROPE',,
html-keyboard-response,475,1081420,null,"FUNGUS<img id = ""stim"" ><div class = green_square id = ""topsquare"" ></div><img id = ""stim"" ><div class = green_square  id = ""bottomsquare"" ></div>",null,word_square,response,0,none,true,,,
html-keyboard-response,476,1082924,null,"FUNGUS",null,word,,,,, 'FUNGUS',,
html-keyboard-response,477,1083429,null,"WASP<img id = ""stim"" ><div class = red_square id = ""topsquare"" ></div><img id = ""stim"" ><div class = red_square  id = ""bottomsquare"" ></div>",null,word_square,response,1,Space,false,,,
html-keyboard-response,478,1084936,null,"WASP",null,word,,,,, 'WASP',,
html-keyboard-response,479,1085404,465.61000001383945,"HORNET<img id = ""stim"" ><div class = red_square id = ""topsquare"" ></div><img id = ""stim"" ><div class = red_square  id = ""bottomsquare"" ></div>",32,word_square,response,1,Space,true,,,
html-keyboard-response,480,1086910,null,"HORNET",null,word,,,,, 'HORNET',,
html-keyboard-response,481,1087419,null,"CLOSET<img id = ""stim"" ><div class = green_square id = ""topsquare"" ></div><img id = ""stim"" ><div class = green_square  id = ""bottomsquare"" ></div>",null,word_square,response,0,none,true,,,
html-keyboard-response,482,1088934,null,"CLOSET",null,word,,,,, 'CLOSET',,
html-keyboard-response,483,1089443,null,"TOOTHPASTE<img id = ""stim"" ><div class = green_square id = ""topsquare"" ></div><img id = ""stim"" ><div class = green_square  id = ""bottomsquare"" ></div>",null,word_square,response,0,none,true,,,
html-keyboard-response,484,1090952,null,"TOOTHPASTE",null,word,,,,, 'TOOTHPASTE',,
html-keyboard-response,485,1091344,390.39000001503155,"KNAPSACK<img id = ""stim"" ><div class = red_square id = ""topsquare"" ></div><img id = ""stim"" ><div class = red_square  id = ""bottomsquare"" ></div>",32,word_square,response,1,Space,true,,,
html-keyboard-response,486,1092858,null,"KNAPSACK",null,word,,,,, 'KNAPSACK',,
html-keyboard-response,487,1093363,null,"HANDBAG<img id = ""stim"" ><div class = green_square id = ""topsquare"" ></div><img id = ""stim"" ><div class = green_square  id = ""bottomsquare"" ></div>",null,word_square,response,0,none,true,,,
html-keyboard-response,488,1094868,null,"HANDBAG",null,word,,,,, 'HANDBAG',,
html-keyboard-response,489,1095374,null,"WORKER<img id = ""stim"" ><div class = green_square id = ""topsquare"" ></div><img id = ""stim"" ><div class = green_square  id = ""bottomsquare"" ></div>",null,word_square,response,0,none,true,,,
html-keyboard-response,490,1096879,null,"WORKER",null,word,,,,, 'WORKER',,
html-keyboard-response,491,1097383,null,"TURKEY<img id = ""stim"" ><div class = red_square id = ""topsquare"" ></div><img id = ""stim"" ><div class = red_square  id = ""bottomsquare"" ></div>",null,word_square,response,1,Space,false,,,
html-keyboard-response,492,1098886,null,"TURKEY",null,word,,,,, 'TURKEY',,
html-keyboard-response,493,1099391,null,"PIGEON<img id = ""stim"" ><div class = green_square id = ""topsquare"" ></div><img id = ""stim"" ><div class = green_square  id = ""bottomsquare"" ></div>",null,word_square,response,0,none,true,,,
html-keyboard-response,494,1100900,null,"PIGEON",null,word,,,,, 'PIGEON',,
html-keyboard-response,495,1101403,null,"GIRAFFE<img id = ""stim"" ><div class = green_square id = ""topsquare"" ></div><img id = ""stim"" ><div class = green_square  id = ""bottomsquare"" ></div>",null,word_square,response,0,none,true,,,
html-keyboard-response,496,1102907,null,"GIRAFFE",null,word,,,,, 'GIRAFFE',,
html-keyboard-response,497,1103340,429.3749999778811,"BURGLAR<img id = ""stim"" ><div class = red_square id = ""topsquare"" ></div><img id = ""stim"" ><div class = red_square  id = ""bottomsquare"" ></div>",32,word_square,response,1,Space,true,,,
html-keyboard-response,498,1104848,null,"BURGLAR",null,word,,,,, 'BURGLAR',,
html-keyboard-response,499,1105337,486.41500002122484,"BANK<img id = ""stim"" ><div class = red_square id = ""topsquare"" ></div><img id = ""stim"" ><div class = red_square  id = ""bottomsquare"" ></div>",32,word_square,response,1,Space,true,,,
html-keyboard-response,500,1106844,null,"BANK",null,word,,,,, 'BANK',,
html-keyboard-response,501,1107211,364.9450000084471,"PEOPLE<img id = ""stim"" ><div class = red_square id = ""topsquare"" ></div><img id = ""stim"" ><div class = red_square  id = ""bottomsquare"" ></div>",32,word_square,response,1,Space,true,,,
html-keyboard-response,502,1108718,null,"PEOPLE",null,word,,,,, 'PEOPLE',,
call-function,503,1108720,,"",,,,,,,,,
html-keyboard-response,504,1108822,null,"",null,,,,,,,,
math-period,505,1110823,3651.464999973541,"",,,,,,,,,4
html-keyboard-response,506,1110926,null,"",null,,,,,,,,
math-period,507,1112555,2855.535000009695,"",,,,,,,,,3
html-keyboard-response,508,1112658,null,"",null,,,,,,,,
math-period,509,1114446,3173.0099999986123,"",,,,,,,,,3
html-keyboard-response,510,1114550,null,"",null,,,,,,,,
math-period,511,1116745,4088.7900000379886,"",,,,,,,,,5
html-keyboard-response,512,1116851,null,"",null,,,,,,,,
math-period,513,1118174,2485.7450000126846,"",,,,,,,,,5
html-keyboard-response,514,1118279,null,"",null,,,,,,,,
math-period,515,1120573,4457.170000008773,"",,,,,,,,,5
html-keyboard-response,516,1120679,null,"",null,,,,,,,,
math-period,517,1122999,4342.434999998659,"",,,,,,,,,3
html-keyboard-response,518,1123103,null,"",null,,,,,,,,
math-period,519,1125910,5268.064999982016,"",,,,,,,,,4
html-keyboard-response,520,1126016,null,"",null,,,,,,,,
math-period,521,1127934,3678.4649999754038,"",,,,,,,,,5
html-keyboard-response,522,1128039,null,"",null,,,,,,,,
math-period,523,1129941,3405.9249999991152,"",,,,,,,,,5
html-keyboard-response,524,1130047,null,"",null,,,,,,,,
math-period,525,1132404,4417.825000040466,"",,,,,,,,,0
html-keyboard-response,526,1132509,null,"",null,,,,,,,,
math-period,527,1132725,null,"",,,,,,,,,
html-keyboard-response,528,1133734,null,"Recall Period!",null,,,,,,,,
call-function,529,1133736,,"",,,,,,,,,
html-keyboard-response,530,1133843,null,"",null,,,,,,,,
recall-period,531,1137197,15308.49499994656,"",,,,,,,,,Pastry
html-keyboard-response,532,1137304,null,"",null,,,,,,,,
recall-period,533,1140043,11935.30500002089,"",,,,,,,,,Money 
html-keyboard-response,534,1140147,null,"",null,,,,,,,,
recall-period,535,1141765,7849.980000057258,"",,,,,,,,,burglar
html-keyboard-response,536,1141878,null,"",null,,,,,,,,
recall-period,537,1143825,7548.805000027642,"",,,,,,,,,peopl
html-keyboard-response,538,1143932,null,"",null,,,,,,,,
recall-period,539,1147168,16115.405000018654,"",,,,,,,,,people
html-keyboard-response,540,1147273,null,"",null,,,,,,,,
recall-period,541,1153435,40491.710000060266,"",,,,,,,,,giraffe
html-keyboard-response,542,1153538,null,"",null,,,,,,,,
recall-period,543,1155658,8746.695000038017,"",,,,,,,,,pigeon
html-keyboard-response,544,1155763,null,"",null,,,,,,,,
recall-period,545,1208740,null,"",,,,,,,,,
html-keyboard-response,546,1209244,null,"Time's Up!",null,,,,,,,,
html-keyboard-response,547,1243789,34542.069999995874,"<p> Good job! You responded correctly to 87% of the red squares.</p>
                  <p>Be sure to keep your accuracy above 80%</p>
                  <p>Press any key to continue the experiment. Thank you!</p>",32,,,,,,,,
html-keyboard-response,548,1247997,4205.755000002682,"<div style=""font-size:48px;"">Press any key to begin list 7 of 24 </div>",32,,,,,,,,
html-keyboard-response,549,1250511,null,"<div style=""font-size:60px;"">+</div>",null,,,,,,,,
html-keyboard-response,550,1251019,null,"PATIENT<img id = ""stim"" ><div class = red_square id = ""topsquare"" ></div><img id = ""stim"" ><div class = red_square  id = ""bottomsquare"" ></div>",null,word_square,response,1,Space,false,,,
html-keyboard-response,551,1252531,null,"PATIENT",null,word,,,,, 'PATIENT',,
html-keyboard-response,552,1253036,null,"HONEY<img id = ""stim"" ><div class = green_square id = ""topsquare"" ></div><img id = ""stim"" ><div class = green_square  id = ""bottomsquare"" ></div>",null,word_square,response,0,none,true,,,
html-keyboard-response,553,1254538,null,"HONEY",null,word,,,,, 'HONEY',,
html-keyboard-response,554,1254909,368.0900000035763,"WIFE<img id = ""stim"" ><div class = red_square id = ""topsquare"" ></div><img id = ""stim"" ><div class = red_square  id = ""bottomsquare"" ></div>",32,word_square,response,1,Space,true,,,
html-keyboard-response,555,1256419,null,"WIFE",null,word,,,,, 'WIFE',,
html-keyboard-response,556,1256926,null,"SPOUSE<img id = ""stim"" ><div class = green_square id = ""topsquare"" ></div><img id = ""stim"" ><div class = green_square  id = ""bottomsquare"" ></div>",null,word_square,response,0,none,true,,,
html-keyboard-response,557,1258430,null,"SPOUSE",null,word,,,,, 'SPOUSE',,
html-keyboard-response,558,1258805,373.54999998933636,"STOCKING<img id = ""stim"" ><div class = red_square id = ""topsquare"" ></div><img id = ""stim"" ><div class = red_square  id = ""bottomsquare"" ></div>",32,word_square,response,1,Space,true,,,
html-keyboard-response,559,1260309,null,"STOCKING",null,word,,,,, 'STOCKING',,
html-keyboard-response,560,1260825,null,"POND<img id = ""stim"" ><div class = green_square id = ""topsquare"" ></div><img id = ""stim"" ><div class = green_square  id = ""bottomsquare"" ></div>",null,word_square,response,0,none,true,,,
html-keyboard-response,561,1262329,null,"POND",null,word,,,,, 'POND',,
html-keyboard-response,562,1262837,null,"RUG<img id = ""stim"" ><div class = green_square id = ""topsquare"" ></div><img id = ""stim"" ><div class = green_square  id = ""bottomsquare"" ></div>",null,word_square,response,0,none,true,,,
html-keyboard-response,563,1264346,null,"RUG",null,word,,,,, 'RUG',,
html-keyboard-response,564,1264767,418.9749999786727,"GROUND<img id = ""stim"" ><div class = red_square id = ""topsquare"" ></div><img id = ""stim"" ><div class = red_square  id = ""bottomsquare"" ></div>",32,word_square,response,1,Space,true,,,
html-keyboard-response,565,1266274,null,"GROUND",null,word,,,,, 'GROUND',,
html-keyboard-response,566,1266645,368.5700000205543,"PAIL<img id = ""stim"" ><div class = red_square id = ""topsquare"" ></div><img id = ""stim"" ><div class = red_square  id = ""bottomsquare"" ></div>",32,word_square,response,1,Space,true,,,
html-keyboard-response,567,1268149,null,"PAIL",null,word,,,,, 'PAIL',,
html-keyboard-response,568,1268654,null,"LAVA<img id = ""stim"" ><div class = green_square id = ""topsquare"" ></div><img id = ""stim"" ><div class = green_square  id = ""bottomsquare"" ></div>",null,word_square,response,0,none,true,,,
html-keyboard-response,569,1270165,null,"LAVA",null,word,,,,, 'LAVA',,
html-keyboard-response,570,1270637,469.8400000052061,"MEDAL<img id = ""stim"" ><div class = red_square id = ""topsquare"" ></div><img id = ""stim"" ><div class = red_square  id = ""bottomsquare"" ></div>",32,word_square,response,1,Space,true,,,
html-keyboard-response,571,1272143,null,"MEDAL",null,word,,,,, 'MEDAL',,
html-keyboard-response,572,1272634,483.84999998961575,"SCALPEL<img id = ""stim"" ><div class = red_square id = ""topsquare"" ></div><img id = ""stim"" ><div class = red_square  id = ""bottomsquare"" ></div>",32,word_square,response,1,Space,true,,,
html-keyboard-response,573,1274140,null,"SCALPEL",null,word,,,,, 'SCALPEL',,
html-keyboard-response,574,1274643,null,"PERSON<img id = ""stim"" ><div class = green_square id = ""topsquare"" ></div><img id = ""stim"" ><div class = green_square  id = ""bottomsquare"" ></div>",null,word_square,response,0,none,true,,,
html-keyboard-response,575,1276148,null,"PERSON",null,word,,,,, 'PERSON',,
html-keyboard-response,576,1276469,318.4400000027381,"WINDOW<img id = ""stim"" ><div class = red_square id = ""topsquare"" ></div><img id = ""stim"" ><div class = red_square  id = ""bottomsquare"" ></div>",32,word_square,response,1,Space,true,,,
html-keyboard-response,577,1277975,null,"WINDOW",null,word,,,,, 'WINDOW',,
html-keyboard-response,578,1278481,null,"CELLAR<img id = ""stim"" ><div class = red_square id = ""topsquare"" ></div><img id = ""stim"" ><div class = red_square  id = ""bottomsquare"" ></div>",null,word_square,response,1,Space,false,,,
html-keyboard-response,579,1279983,null,"CELLAR",null,word,,,,, 'CELLAR',,
html-keyboard-response,580,1280492,null,"GRILL<img id = ""stim"" ><div class = green_square id = ""topsquare"" ></div><img id = ""stim"" ><div class = green_square  id = ""bottomsquare"" ></div>",null,word_square,response,0,none,true,,,
html-keyboard-response,581,1281997,null,"GRILL",null,word,,,,, 'GRILL',,
html-keyboard-response,582,1282500,null,"ACTOR<img id = ""stim"" ><div class = green_square id = ""topsquare"" ></div><img id = ""stim"" ><div class = green_square  id = ""bottomsquare"" ></div>",null,word_square,response,0,none,true,,,
html-keyboard-response,583,1284004,null,"ACTOR",null,word,,,,, 'ACTOR',,
html-keyboard-response,584,1284507,null,"STRING<img id = ""stim"" ><div class = green_square id = ""topsquare"" ></div><img id = ""stim"" ><div class = green_square  id = ""bottomsquare"" ></div>",null,word_square,response,0,none,true,,,
html-keyboard-response,585,1286011,null,"STRING",null,word,,,,, 'STRING',,
call-function,586,1286013,,"",,,,,,,,,
html-keyboard-response,587,1286115,null,"",null,,,,,,,,
math-period,588,1290165,7444.835000002058,"",,,,,,,,,2
html-keyboard-response,589,1290280,null,"",null,,,,,,,,
math-period,590,1292902,4870.549999992363,"",,,,,,,,,2
html-keyboard-response,591,1293014,null,"",null,,,,,,,,
math-period,592,1294899,3359.7000000008848,"",,,,,,,,,3
html-keyboard-response,593,1295009,null,"",null,,,,,,,,
math-period,594,1296302,2240.280000027269,"",,,,,,,,,3
html-keyboard-response,595,1296410,null,"",null,,,,,,,,
math-period,596,1299038,4867.7150000294205,"",,,,,,,,,1
html-keyboard-response,597,1299142,null,"",null,,,,,,,,
math-period,598,1300953,3302.8900000208523,"",,,,,,,,,4
html-keyboard-response,599,1301059,null,"",null,,,,,,,,
math-period,600,1305112,12802.719999977853,"",,,,,,,,,2
html-keyboard-response,601,1305220,null,"",null,,,,,,,,
math-period,602,1307700,4699.799999973038,"",,,,,,,,,0
html-keyboard-response,603,1307803,null,"",null,,,,,,,,
math-period,604,1309764,3543.1450000032783,"",,,,,,,,,4
html-keyboard-response,605,1309874,null,"",null,,,,,,,,
math-period,606,1310015,null,"",,,,,,,,,
html-keyboard-response,607,1311019,null,"Recall Period!",null,,,,,,,,
call-function,608,1311020,,"",,,,,,,,,
html-keyboard-response,609,1311128,null,"",null,,,,,,,,
recall-period,610,1312158,1027.4499999941327,"",,,,,,,,,
html-keyboard-response,611,1312264,null,"",null,,,,,,,,
recall-period,612,1313565,1298.8450000120793,"",,,,,,,,,
html-keyboard-response,613,1313673,null,"",null,,,,,,,,
recall-period,614,1315777,2101.92499999539,"",,,,,,,,,
html-keyboard-response,615,1315885,null,"",null,,,,,,,,
recall-period,616,1325406,65363.09000008623,"",,,,,,,,,Cellar
html-keyboard-response,617,1325513,null,"",null,,,,,,,,
recall-period,618,1326851,5866.570000041975,"",,,,,,,,,Grill
html-keyboard-response,619,1326953,null,"",null,,,,,,,,
recall-period,620,1328171,4692.849999933969,"",,,,,,,,,Actor
html-keyboard-response,621,1328282,null,"",null,,,,,,,,
recall-period,622,1331002,16890.385000035167,"",,,,,,,,,String
html-keyboard-response,623,1331111,null,"",null,,,,,,,,
recall-period,624,1386025,null,"",,,,,,,,,
html-keyboard-response,625,1386529,null,"Time's Up!",null,,,,,,,,
html-keyboard-response,626,1402797,16265.74500001152,"<p> Good job! You responded correctly to 88% of the red squares.</p>
                  <p>Be sure to keep your accuracy above 80%</p>
                  <p>Press any key to continue the experiment. Thank you!</p>",32,,,,,,,,
html-keyboard-response,627,1436238,33437.83000000985,"<div style=""font-size:48px;"">Press any key to begin list 8 of 24 </div>",32,,,,,,,,
html-keyboard-response,628,1438756,null,"<div style=""font-size:60px;"">+</div>",null,,,,,,,,
html-keyboard-response,629,1439235,476.6150000214111,"FLASK<img id = ""stim"" ><div class = red_square id = ""topsquare"" ></div><img id = ""stim"" ><div class = red_square  id = ""bottomsquare"" ></div>",32,word_square,response,1,Space,true,,,
html-keyboard-response,630,1440740,null,"FLASK",null,word,,,,, 'FLASK',,
html-keyboard-response,631,1441256,null,"NURSE<img id = ""stim"" ><div class = green_square id = ""topsquare"" ></div><img id = ""stim"" ><div class = green_square  id = ""bottomsquare"" ></div>",null,word_square,response,0,none,true,,,
html-keyboard-response,632,1442763,null,"NURSE",null,word,,,,, 'NURSE',,
html-keyboard-response,633,1443145,379.82000000192784,"TRANSPLANT<img id = ""stim"" ><div class = red_square id = ""topsquare"" ></div><img id = ""stim"" ><div class = red_square  id = ""bottomsquare"" ></div>",32,word_square,response,1,Space,true,,,
html-keyboard-response,634,1444649,null,"TRANSPLANT",null,word,,,,, 'TRANSPLANT',,
html-keyboard-response,635,1445164,null,"SHAMPOO<img id = ""stim"" ><div class = green_square id = ""topsquare"" ></div><img id = ""stim"" ><div class = green_square  id = ""bottomsquare"" ></div>",null,word_square,response,0,none,true,,,
html-keyboard-response,636,1446685,null,"SHAMPOO",null,word,,,,, 'SHAMPOO',,
html-keyboard-response,637,1446999,299.2650000087451,"FEMALE<img id = ""stim"" ><div class = red_square id = ""topsquare"" ></div><img id = ""stim"" ><div class = red_square  id = ""bottomsquare"" ></div>",32,word_square,response,1,Space,true,,,
html-keyboard-response,638,1448504,null,"FEMALE",null,word,,,,, 'FEMALE',,
html-keyboard-response,639,1449007,null,"EARRING<img id = ""stim"" ><div class = green_square id = ""topsquare"" ></div><img id = ""stim"" ><div class = green_square  id = ""bottomsquare"" ></div>",null,word_square,response,0,none,true,,,
html-keyboard-response,640,1450512,null,"EARRING",null,word,,,,, 'EARRING',,
html-keyboard-response,641,1451019,null,"HANGER<img id = ""stim"" ><div class = green_square id = ""topsquare"" ></div><img id = ""stim"" ><div class = green_square  id = ""bottomsquare"" ></div>",null,word_square,response,0,none,true,,,
html-keyboard-response,642,1452523,null,"HANGER",null,word,,,,, 'HANGER',,
html-keyboard-response,643,1453012,486.5049999789335,"DINER<img id = ""stim"" ><div class = red_square id = ""topsquare"" ></div><img id = ""stim"" ><div class = red_square  id = ""bottomsquare"" ></div>",32,word_square,response,1,Space,true,,,
html-keyboard-response,644,1454516,null,"DINER",null,word,,,,, 'DINER',,
html-keyboard-response,645,1455020,null,"COOK<img id = ""stim"" ><div class = red_square id = ""topsquare"" ></div><img id = ""stim"" ><div class = red_square  id = ""bottomsquare"" ></div>",null,word_square,response,1,Space,false,,,
html-keyboard-response,646,1456528,null,"COOK",null,word,,,,, 'COOK',,
html-keyboard-response,647,1457045,null,"LAKE<img id = ""stim"" ><div class = green_square id = ""topsquare"" ></div><img id = ""stim"" ><div class = green_square  id = ""bottomsquare"" ></div>",null,word_square,response,0,none,true,,,
html-keyboard-response,648,1458548,null,"LAKE",null,word,,,,, 'LAKE',,
html-keyboard-response,649,1458917,367.43500002194196,"HOUND<img id = ""stim"" ><div class = red_square id = ""topsquare"" ></div><img id = ""stim"" ><div class = red_square  id = ""bottomsquare"" ></div>",32,word_square,response,1,Space,true,,,
html-keyboard-response,650,1460422,null,"HOUND",null,word,,,,, 'HOUND',,
html-keyboard-response,651,1460769,343.53499999269843,"PUPPY<img id = ""stim"" ><div class = red_square id = ""topsquare"" ></div><img id = ""stim"" ><div class = red_square  id = ""bottomsquare"" ></div>",32,word_square,response,1,Space,true,,,
html-keyboard-response,652,1462272,null,"PUPPY",null,word,,,,, 'PUPPY',,
html-keyboard-response,653,1462784,null,"ARTIST<img id = ""stim"" ><div class = green_square id = ""topsquare"" ></div><img id = ""stim"" ><div class = green_square  id = ""bottomsquare"" ></div>",null,word_square,response,0,none,true,,,
html-keyboard-response,654,1464289,null,"ARTIST",null,word,,,,, 'ARTIST',,
html-keyboard-response,655,1464660,369.1800000087824,"CHAMPAGNE<img id = ""stim"" ><div class = red_square id = ""topsquare"" ></div><img id = ""stim"" ><div class = red_square  id = ""bottomsquare"" ></div>",32,word_square,response,1,Space,true,,,
html-keyboard-response,656,1466163,null,"CHAMPAGNE",null,word,,,,, 'CHAMPAGNE',,
html-keyboard-response,657,1466500,335.014999989653,"PICKLE<img id = ""stim"" ><div class = red_square id = ""topsquare"" ></div><img id = ""stim"" ><div class = red_square  id = ""bottomsquare"" ></div>",32,word_square,response,1,Space,true,,,
html-keyboard-response,658,1468009,null,"PICKLE",null,word,,,,, 'PICKLE',,
html-keyboard-response,659,1468513,null,"JEEP<img id = ""stim"" ><div class = green_square id = ""topsquare"" ></div><img id = ""stim"" ><div class = green_square  id = ""bottomsquare"" ></div>",null,word_square,response,0,none,true,,,
html-keyboard-response,660,1470020,null,"JEEP",null,word,,,,, 'JEEP',,
html-keyboard-response,661,1470525,null,"SCALLOP<img id = ""stim"" ><div class = green_square id = ""topsquare"" ></div><img id = ""stim"" ><div class = green_square  id = ""bottomsquare"" ></div>",null,word_square,response,0,none,true,,,
html-keyboard-response,662,1472033,null,"SCALLOP",null,word,,,,, 'SCALLOP',,
html-keyboard-response,663,1472537,null,"FACE<img id = ""stim"" ><div class = green_square id = ""topsquare"" ></div><img id = ""stim"" ><div class = green_square  id = ""bottomsquare"" ></div>",null,word_square,response,0,none,true,,,
html-keyboard-response,664,1474041,null,"FACE",null,word,,,,, 'FACE',,
call-function,665,1474043,,"",,,,,,,,,
html-keyboard-response,666,1474145,null,"",null,,,,,,,,
math-period,667,1479458,10173.57000001357,"",,,,,,,,,2
html-keyboard-response,668,1479564,null,"",null,,,,,,,,
math-period,669,1481452,3637.4049999867566,"",,,,,,,,,6
html-keyboard-response,670,1481556,null,"",null,,,,,,,,
math-period,671,1483396,3531.9000000308733,"",,,,,,,,,4
html-keyboard-response,672,1483500,null,"",null,,,,,,,,
math-period,673,1485822,4289.354999986244,"",,,,,,,,,2
html-keyboard-response,674,1485925,null,"",null,,,,,,,,
math-period,675,1487417,2855.63000003458,"",,,,,,,,,6
html-keyboard-response,676,1487522,null,"",null,,,,,,,,
math-period,677,1489079,3038.445000012871,"",,,,,,,,,5
html-keyboard-response,678,1489183,null,"",null,,,,,,,,
math-period,679,1490616,2608.555000013439,"",,,,,,,,,3
html-keyboard-response,680,1490721,null,"",null,,,,,,,,
math-period,681,1492514,2968.5500000196043,"",,,,,,,,,6
html-keyboard-response,682,1492619,null,"",null,,,,,,,,
math-period,683,1494329,3257.695000007516,"",,,,,,,,,3
html-keyboard-response,684,1494437,null,"",null,,,,,,,,
math-period,685,1497043,5129.449999978533,"",,,,,,,,,3
html-keyboard-response,686,1497151,null,"",null,,,,,,,,
math-period,687,1498046,null,"",,,,,,,,,
html-keyboard-response,688,1499051,null,"Recall Period!",null,,,,,,,,
call-function,689,1499052,,"",,,,,,,,,
html-keyboard-response,690,1499154,null,"",null,,,,,,,,
recall-period,691,1500067,911.3150000048336,"",,,,,,,,,
html-keyboard-response,692,1500183,null,"",null,,,,,,,,
recall-period,693,1502571,6426.100000011502,"",,,,,,,,,Face
html-keyboard-response,694,1502675,null,"",null,,,,,,,,
recall-period,695,1504773,11800.795000075595,"",,,,,,,,,Scallop
html-keyboard-response,696,1504883,null,"",null,,,,,,,,
recall-period,697,1511276,53447.83499985351,"",,,,,,,,,Female
html-keyboard-response,698,1511381,null,"",null,,,,,,,,
recall-period,699,1512695,5512.599999987287,"",,,,,,,,,earrin
html-keyboard-response,700,1512806,null,"",null,,,,,,,,
recall-period,701,1574056,null,"",,,,,,,,,
html-keyboard-response,702,1574561,null,"Time's Up!",null,,,,,,,,
html-keyboard-response,703,1628904,54342.29499998037,"<p> Good job! You responded correctly to 88% of the red squares.</p>
                  <p>Be sure to keep your accuracy above 80%</p>
                  <p>Press any key to continue the experiment. Thank you!</p>",32,,,,,,,,
html-keyboard-response,704,1629728,821.4999999909196,"<div style=""font-size:48px;"">Press any key to begin list 9 of 24 </div>",32,,,,,,,,
html-keyboard-response,705,1632238,null,"<div style=""font-size:60px;"">+</div>",null,,,,,,,,
html-keyboard-response,706,1632755,null,"NOMAD<img id = ""stim"" ><div class = green_square id = ""topsquare"" ></div><img id = ""stim"" ><div class = green_square  id = ""bottomsquare"" ></div>",null,word_square,response,0,none,true,,,
html-keyboard-response,707,1634259,null,"NOMAD",null,word,,,,, 'NOMAD',,
html-keyboard-response,708,1634763,null,"LOBSTER<img id = ""stim"" ><div class = green_square id = ""topsquare"" ></div><img id = ""stim"" ><div class = green_square  id = ""bottomsquare"" ></div>",null,word_square,response,0,none,true,,,
html-keyboard-response,709,1636267,null,"LOBSTER",null,word,,,,, 'LOBSTER',,
html-keyboard-response,710,1636691,421.9100000045728,"CHAPEL<img id = ""stim"" ><div class = red_square id = ""topsquare"" ></div><img id = ""stim"" ><div class = red_square  id = ""bottomsquare"" ></div>",32,word_square,response,1,Space,true,,,
html-keyboard-response,711,1638195,null,"CHAPEL",null,word,,,,, 'CHAPEL',,
html-keyboard-response,712,1638639,441.3300000014715,"PREACHER<img id = ""stim"" ><div class = red_square id = ""topsquare"" ></div><img id = ""stim"" ><div class = red_square  id = ""bottomsquare"" ></div>",32,word_square,response,1,Space,true,,,
html-keyboard-response,713,1640145,null,"PREACHER",null,word,,,,, 'PREACHER',,
html-keyboard-response,714,1640658,null,"MISSILE<img id = ""stim"" ><div class = green_square id = ""topsquare"" ></div><img id = ""stim"" ><div class = green_square  id = ""bottomsquare"" ></div>",null,word_square,response,0,none,true,,,
html-keyboard-response,715,1642161,null,"MISSILE",null,word,,,,, 'MISSILE',,
html-keyboard-response,716,1642519,355.970000004163,"DAGGER<img id = ""stim"" ><div class = red_square id = ""topsquare"" ></div><img id = ""stim"" ><div class = red_square  id = ""bottomsquare"" ></div>",32,word_square,response,1,Space,true,,,
html-keyboard-response,717,1644026,null,"DAGGER",null,word,,,,, 'DAGGER',,
html-keyboard-response,718,1644389,360.6549999967683,"COWBOY<img id = ""stim"" ><div class = red_square id = ""topsquare"" ></div><img id = ""stim"" ><div class = red_square  id = ""bottomsquare"" ></div>",32,word_square,response,1,Space,true,,,
html-keyboard-response,719,1645898,null,"COWBOY",null,word,,,,, 'COWBOY',,
html-keyboard-response,720,1646402,null,"SLACKS<img id = ""stim"" ><div class = green_square id = ""topsquare"" ></div><img id = ""stim"" ><div class = green_square  id = ""bottomsquare"" ></div>",null,word_square,response,0,none,true,,,
html-keyboard-response,721,1647907,null,"SLACKS",null,word,,,,, 'SLACKS',,
html-keyboard-response,722,1648226,316.98999999207444,"RUBY<img id = ""stim"" ><div class = red_square id = ""topsquare"" ></div><img id = ""stim"" ><div class = red_square  id = ""bottomsquare"" ></div>",32,word_square,response,1,Space,true,,,
html-keyboard-response,723,1649735,null,"RUBY",null,word,,,,, 'RUBY',,
html-keyboard-response,724,1650239,null,"POET<img id = ""stim"" ><div class = green_square id = ""topsquare"" ></div><img id = ""stim"" ><div class = green_square  id = ""bottomsquare"" ></div>",null,word_square,response,0,none,true,,,
html-keyboard-response,725,1651746,null,"POET",null,word,,,,, 'POET',,
html-keyboard-response,726,1652251,null,"ZEBRA<img id = ""stim"" ><div class = green_square id = ""topsquare"" ></div><img id = ""stim"" ><div class = green_square  id = ""bottomsquare"" ></div>",null,word_square,response,0,none,true,,,
html-keyboard-response,727,1653755,null,"ZEBRA",null,word,,,,, 'ZEBRA',,
html-keyboard-response,728,1654145,387.83500000135973,"DIME<img id = ""stim"" ><div class = red_square id = ""topsquare"" ></div><img id = ""stim"" ><div class = red_square  id = ""bottomsquare"" ></div>",32,word_square,response,1,Space,true,,,
html-keyboard-response,729,1655650,null,"DIME",null,word,,,,, 'DIME',,
html-keyboard-response,730,1655963,311.1849999986589,"DENIM<img id = ""stim"" ><div class = red_square id = ""topsquare"" ></div><img id = ""stim"" ><div class = red_square  id = ""bottomsquare"" ></div>",32,word_square,response,1,Space,true,,,
html-keyboard-response,731,1657466,null,"DENIM",null,word,,,,, 'DENIM',,
html-keyboard-response,732,1657983,null,"PLAID<img id = ""stim"" ><div class = green_square id = ""topsquare"" ></div><img id = ""stim"" ><div class = green_square  id = ""bottomsquare"" ></div>",null,word_square,response,0,none,true,,,
html-keyboard-response,733,1659487,null,"PLAID",null,word,,,,, 'PLAID',,
html-keyboard-response,734,1659995,null,"TEAPOT<img id = ""stim"" ><div class = green_square id = ""topsquare"" ></div><img id = ""stim"" ><div class = green_square  id = ""bottomsquare"" ></div>",null,word_square,response,0,none,true,,,
html-keyboard-response,735,1661500,null,"TEAPOT",null,word,,,,, 'TEAPOT',,
html-keyboard-response,736,1661954,452.28500000666827,"ORGAN<img id = ""stim"" ><div class = red_square id = ""topsquare"" ></div><img id = ""stim"" ><div class = red_square  id = ""bottomsquare"" ></div>",32,word_square,response,1,Space,true,,,
html-keyboard-response,737,1663461,null,"ORGAN",null,word,,,,, 'ORGAN',,
html-keyboard-response,738,1663965,null,"SCOUT<img id = ""stim"" ><div class = green_square id = ""topsquare"" ></div><img id = ""stim"" ><div class = green_square  id = ""bottomsquare"" ></div>",null,word_square,response,0,none,true,,,
html-keyboard-response,739,1665470,null,"SCOUT",null,word,,,,, 'SCOUT',,
html-keyboard-response,740,1665882,409.90999998757616,"HEART<img id = ""stim"" ><div class = red_square id = ""topsquare"" ></div><img id = ""stim"" ><div class = red_square  id = ""bottomsquare"" ></div>",32,word_square,response,1,Space,true,,,
html-keyboard-response,741,1667385,null,"HEART",null,word,,,,, 'HEART',,
call-function,742,1667386,,"",,,,,,,,,
html-keyboard-response,743,1667489,null,"",null,,,,,,,,
math-period,744,1671222,7167.314999969676,"",,,,,,,,,5
html-keyboard-response,745,1671325,null,"",null,,,,,,,,
math-period,746,1673958,4922.39999998128,"",,,,,,,,,4
html-keyboard-response,747,1674062,null,"",null,,,,,,,,
math-period,748,1675618,2845.2399999659974,"",,,,,,,,,4
html-keyboard-response,749,1675724,null,"",null,,,,,,,,
math-period,750,1677211,2835.185000032652,"",,,,,,,,,4
html-keyboard-response,751,1677316,null,"",null,,,,,,,,
math-period,752,1678559,2321.3749999704305,"",,,,,,,,,4
html-keyboard-response,753,1678662,null,"",null,,,,,,,,
math-period,754,1680122,2841.260000015609,"",,,,,,,,,5
html-keyboard-response,755,1680229,null,"",null,,,,,,,,
math-period,756,1684526,7838.615000015125,"",,,,,,,,,2
html-keyboard-response,757,1684634,null,"",null,,,,,,,,
math-period,758,1686438,3344.2199999990407,"",,,,,,,,,3
html-keyboard-response,759,1686542,null,"",null,,,,,,,,
math-period,760,1688379,3495.409999974072,"",,,,,,,,,3
html-keyboard-response,761,1688483,null,"",null,,,,,,,,
math-period,762,1690697,4295.905000006314,"",,,,,,,,,5
html-keyboard-response,763,1690805,null,"",null,,,,,,,,
math-period,764,1691390,null,"",,,,,,,,,
html-keyboard-response,765,1692395,null,"Recall Period!",null,,,,,,,,
call-function,766,1692397,,"",,,,,,,,,
html-keyboard-response,767,1692502,null,"",null,,,,,,,,
recall-period,768,1694414,7645.665000076406,"",,,,,,,,,Organ
html-keyboard-response,769,1694523,null,"",null,,,,,,,,
recall-period,770,1696646,10567.950000084238,"",,,,,,,,,Scout
html-keyboard-response,771,1696760,null,"",null,,,,,,,,
recall-period,772,1699424,10400.949999922886,"",,,,,,,,,Nomad
html-keyboard-response,773,1699531,null,"",null,,,,,,,,
recall-period,774,1767400,null,"",,,,,,,,,
html-keyboard-response,775,1767907,null,"Time's Up!",null,,,,,,,,
html-keyboard-response,776,1852789,84880.00000000466,"<p> Good job! You responded correctly to 89% of the red squares.</p>
                  <p>Be sure to keep your accuracy above 80%</p>
                  <p>Press any key to continue the experiment. Thank you!</p>",32,,,,,,,,
html-keyboard-response,777,1853626,833.8999999978114,"<div style=""font-size:48px;"">Press any key to begin list 10 of 24 </div>",32,,,,,,,,
html-keyboard-response,778,1856139,null,"<div style=""font-size:60px;"">+</div>",null,,,,,,,,
html-keyboard-response,779,1856643,null,"PRIEST<img id = ""stim"" ><div class = green_square id = ""topsquare"" ></div><img id = ""stim"" ><div class = green_square  id = ""bottomsquare"" ></div>",null,word_square,response,0,none,true,,,
html-keyboard-response,780,1858152,null,"PRIEST",null,word,,,,, 'PRIEST',,
html-keyboard-response,781,1858659,null,"LIPSTICK<img id = ""stim"" ><div class = green_square id = ""topsquare"" ></div><img id = ""stim"" ><div class = green_square  id = ""bottomsquare"" ></div>",null,word_square,response,0,none,true,,,
html-keyboard-response,782,1860163,null,"LIPSTICK",null,word,,,,, 'LIPSTICK',,
html-keyboard-response,783,1860540,375.1549999869894,"STABLE<img id = ""stim"" ><div class = red_square id = ""topsquare"" ></div><img id = ""stim"" ><div class = red_square  id = ""bottomsquare"" ></div>",32,word_square,response,1,Space,true,,,
html-keyboard-response,784,1862045,null,"STABLE",null,word,,,,, 'STABLE',,
html-keyboard-response,785,1862549,null,"PATROL<img id = ""stim"" ><div class = red_square id = ""topsquare"" ></div><img id = ""stim"" ><div class = red_square  id = ""bottomsquare"" ></div>",null,word_square,response,1,Space,false,,,
html-keyboard-response,786,1864053,null,"PATROL",null,word,,,,, 'PATROL',,
html-keyboard-response,787,1864567,null,"GERM<img id = ""stim"" ><div class = green_square id = ""topsquare"" ></div><img id = ""stim"" ><div class = green_square  id = ""bottomsquare"" ></div>",null,word_square,response,0,none,true,,,
html-keyboard-response,788,1866069,null,"GERM",null,word,,,,, 'GERM',,
html-keyboard-response,789,1866563,491.8699999980163,"POWDER<img id = ""stim"" ><div class = red_square id = ""topsquare"" ></div><img id = ""stim"" ><div class = red_square  id = ""bottomsquare"" ></div>",32,word_square,response,1,Space,true,,,
html-keyboard-response,790,1868069,null,"POWDER",null,word,,,,, 'POWDER',,
html-keyboard-response,791,1868524,453.54499999666587,"COBBLER<img id = ""stim"" ><div class = red_square id = ""topsquare"" ></div><img id = ""stim"" ><div class = red_square  id = ""bottomsquare"" ></div>",32,word_square,response,1,Space,true,,,
html-keyboard-response,792,1870028,null,"COBBLER",null,word,,,,, 'COBBLER',,
html-keyboard-response,793,1870535,null,"SEAL<img id = ""stim"" ><div class = green_square id = ""topsquare"" ></div><img id = ""stim"" ><div class = green_square  id = ""bottomsquare"" ></div>",null,word_square,response,0,none,true,,,
html-keyboard-response,794,1872044,null,"SEAL",null,word,,,,, 'SEAL',,
html-keyboard-response,795,1872387,340.9349999856204,"BROTHER<img id = ""stim"" ><div class = red_square id = ""topsquare"" ></div><img id = ""stim"" ><div class = red_square  id = ""bottomsquare"" ></div>",32,word_square,response,1,Space,true,,,
html-keyboard-response,796,1873894,null,"BROTHER",null,word,,,,, 'BROTHER',,
html-keyboard-response,797,1874399,null,"SISTER<img id = ""stim"" ><div class = green_square id = ""topsquare"" ></div><img id = ""stim"" ><div class = green_square  id = ""bottomsquare"" ></div>",null,word_square,response,0,none,true,,,
html-keyboard-response,798,1875902,null,"SISTER",null,word,,,,, 'SISTER',,
html-keyboard-response,799,1876407,null,"LUNCH<img id = ""stim"" ><div class = green_square id = ""topsquare"" ></div><img id = ""stim"" ><div class = green_square  id = ""bottomsquare"" ></div>",null,word_square,response,0,none,true,,,
html-keyboard-response,800,1877914,null,"LUNCH",null,word,,,,, 'LUNCH',,
html-keyboard-response,801,1878255,339.77500000037253,"BADGE<img id = ""stim"" ><div class = red_square id = ""topsquare"" ></div><img id = ""stim"" ><div class = red_square  id = ""bottomsquare"" ></div>",32,word_square,response,1,Space,true,,,
html-keyboard-response,802,1879761,null,"BADGE",null,word,,,,, 'BADGE',,
html-keyboard-response,803,1880178,415.53999998723157,"PISTON<img id = ""stim"" ><div class = red_square id = ""topsquare"" ></div><img id = ""stim"" ><div class = red_square  id = ""bottomsquare"" ></div>",32,word_square,response,1,Space,true,,,
html-keyboard-response,804,1881681,null,"PISTON",null,word,,,,, 'PISTON',,
html-keyboard-response,805,1882185,null,"BIKE<img id = ""stim"" ><div class = green_square id = ""topsquare"" ></div><img id = ""stim"" ><div class = green_square  id = ""bottomsquare"" ></div>",null,word_square,response,0,none,true,,,
html-keyboard-response,806,1883688,null,"BIKE",null,word,,,,, 'BIKE',,
html-keyboard-response,807,1884193,null,"BOX<img id = ""stim"" ><div class = green_square id = ""topsquare"" ></div><img id = ""stim"" ><div class = green_square  id = ""bottomsquare"" ></div>",null,word_square,response,0,none,true,,,
html-keyboard-response,808,1885700,null,"BOX",null,word,,,,, 'BOX',,
html-keyboard-response,809,1886210,null,"GIFT<img id = ""stim"" ><div class = red_square id = ""topsquare"" ></div><img id = ""stim"" ><div class = red_square  id = ""bottomsquare"" ></div>",null,word_square,response,1,Space,false,,,
html-keyboard-response,810,1887712,null,"GIFT",null,word,,,,, 'GIFT',,
html-keyboard-response,811,1888217,null,"LODGE<img id = ""stim"" ><div class = green_square id = ""topsquare"" ></div><img id = ""stim"" ><div class = green_square  id = ""bottomsquare"" ></div>",null,word_square,response,0,none,true,,,
html-keyboard-response,812,1889721,null,"LODGE",null,word,,,,, 'LODGE',,
html-keyboard-response,813,1890035,311.17999998969026,"MARINE<img id = ""stim"" ><div class = red_square id = ""topsquare"" ></div><img id = ""stim"" ><div class = red_square  id = ""bottomsquare"" ></div>",32,word_square,response,1,Space,true,,,
html-keyboard-response,814,1891554,null,"MARINE",null,word,,,,, 'MARINE',,
call-function,815,1891556,,"",,,,,,,,,
html-keyboard-response,816,1891659,null,"",null,,,,,,,,
math-period,817,1894497,5278.525000001537,"",,,,,,,,,2
html-keyboard-response,818,1894603,null,"",null,,,,,,,,
math-period,819,1896507,3634.9399999598972,"",,,,,,,,,5
html-keyboard-response,820,1896611,null,"",null,,,,,,,,
math-period,821,1901229,9031.174999981886,"",,,,,,,,,1
html-keyboard-response,822,1901336,null,"",null,,,,,,,,
math-period,823,1903955,5118.064999958733,"",,,,,,,,,4
html-keyboard-response,824,1904059,null,"",null,,,,,,,,
math-period,825,1905348,2521.6550000186544,"",,,,,,,,,5
html-keyboard-response,826,1905451,null,"",null,,,,,,,,
math-period,827,1907294,3477.52000001492,"",,,,,,,,,0
html-keyboard-response,828,1907401,null,"",null,,,,,,,,
math-period,829,1909225,3539.055000001099,"",,,,,,,,,4
html-keyboard-response,830,1909331,null,"",null,,,,,,,,
math-period,831,1910796,2859.1850000375416,"",,,,,,,,,4
html-keyboard-response,832,1910901,null,"",null,,,,,,,,
math-period,833,1912292,2729.5199999934994,"",,,,,,,,,5
html-keyboard-response,834,1912400,null,"",null,,,,,,,,
math-period,835,1914713,4369.34000000474,"",,,,,,,,,0
html-keyboard-response,836,1914815,null,"",null,,,,,,,,
math-period,837,1915566,null,"",,,,,,,,,
html-keyboard-response,838,1916574,null,"Recall Period!",null,,,,,,,,
call-function,839,1916575,,"",,,,,,,,,
html-keyboard-response,840,1916681,null,"",null,,,,,,,,
recall-period,841,1917758,1073.514999996405,"",,,,,,,,,
html-keyboard-response,842,1917865,null,"",null,,,,,,,,
recall-period,843,1920523,2655.1949999993667,"",,,,,,,,,
html-keyboard-response,844,1920627,null,"",null,,,,,,,,
recall-period,845,1927224,23751.289999956498,"",,,,,,,,,Piston
html-keyboard-response,846,1927330,null,"",null,,,,,,,,
recall-period,847,1929348,5595.995000010589,"",,,,,,,,,Bike
html-keyboard-response,848,1929458,null,"",null,,,,,,,,
recall-period,849,1931535,8701.390000001993,"",,,,,,,,,Brother
html-keyboard-response,850,1931649,null,"",null,,,,,,,,
recall-period,851,1935350,20663.190000050236,"",,,,,,,,,Sister
html-keyboard-response,852,1935454,null,"",null,,,,,,,,
recall-period,853,1991582,219600.75000001234,"",,,,,,,,,prie
html-keyboard-response,854,1992088,null,"Time's Up!",null,,,,,,,,
html-keyboard-response,855,1994095,2006.8750000209548,"<p> Good job! You responded correctly to 89% of the red squares.</p>
                  <p>Be sure to keep your accuracy above 80%</p>
                  <p>Press any key to continue the experiment. Thank you!</p>",32,,,,,,,,
html-keyboard-response,856,2017089,22992.579999990994,"<div style=""font-size:48px;"">Press any key to begin list 11 of 24 </div>",32,,,,,,,,
html-keyboard-response,857,2019597,null,"<div style=""font-size:60px;"">+</div>",null,,,,,,,,
html-keyboard-response,858,2020101,null,"PEBBLE<img id = ""stim"" ><div class = red_square id = ""topsquare"" ></div><img id = ""stim"" ><div class = red_square  id = ""bottomsquare"" ></div>",null,word_square,response,1,Space,false,,,
html-keyboard-response,859,2021606,null,"PEBBLE",null,word,,,,, 'PEBBLE',,
html-keyboard-response,860,2022109,null,"PERFUME<img id = ""stim"" ><div class = red_square id = ""topsquare"" ></div><img id = ""stim"" ><div class = red_square  id = ""bottomsquare"" ></div>",null,word_square,response,1,Space,false,,,
html-keyboard-response,861,2023613,null,"PERFUME",null,word,,,,, 'PERFUME',,
html-keyboard-response,862,2024135,null,"PROTON<img id = ""stim"" ><div class = green_square id = ""topsquare"" ></div><img id = ""stim"" ><div class = green_square  id = ""bottomsquare"" ></div>",null,word_square,response,0,none,true,,,
html-keyboard-response,863,2025642,null,"PROTON",null,word,,,,, 'PROTON',,
html-keyboard-response,864,2026146,null,"BENCH<img id = ""stim"" ><div class = green_square id = ""topsquare"" ></div><img id = ""stim"" ><div class = green_square  id = ""bottomsquare"" ></div>",null,word_square,response,0,none,true,,,
html-keyboard-response,865,2027649,null,"BENCH",null,word,,,,, 'BENCH',,
html-keyboard-response,866,2028130,478.8249999983236,"MARBLE<img id = ""stim"" ><div class = red_square id = ""topsquare"" ></div><img id = ""stim"" ><div class = red_square  id = ""bottomsquare"" ></div>",32,word_square,response,1,Space,true,,,
html-keyboard-response,867,2029633,null,"MARBLE",null,word,,,,, 'MARBLE',,
html-keyboard-response,868,2030137,null,"CARRIAGE<img id = ""stim"" ><div class = green_square id = ""topsquare"" ></div><img id = ""stim"" ><div class = green_square  id = ""bottomsquare"" ></div>",null,word_square,response,0,none,true,,,
html-keyboard-response,869,2031641,null,"CARRIAGE",null,word,,,,, 'CARRIAGE',,
html-keyboard-response,870,2032144,null,"BOUILLON<img id = ""stim"" ><div class = green_square id = ""topsquare"" ></div><img id = ""stim"" ><div class = green_square  id = ""bottomsquare"" ></div>",null,word_square,response,0,none,true,,,
html-keyboard-response,871,2033653,null,"BOUILLON",null,word,,,,, 'BOUILLON',,
html-keyboard-response,872,2034112,455.19000000786036,"BUTLER<img id = ""stim"" ><div class = red_square id = ""topsquare"" ></div><img id = ""stim"" ><div class = red_square  id = ""bottomsquare"" ></div>",32,word_square,response,1,Space,true,,,
html-keyboard-response,873,2035618,null,"BUTLER",null,word,,,,, 'BUTLER',,
html-keyboard-response,874,2036124,null,"ICEBERG<img id = ""stim"" ><div class = green_square id = ""topsquare"" ></div><img id = ""stim"" ><div class = green_square  id = ""bottomsquare"" ></div>",null,word_square,response,0,none,true,,,
html-keyboard-response,875,2037627,null,"ICEBERG",null,word,,,,, 'ICEBERG',,
html-keyboard-response,876,2038060,430.8999999775551,"SHOULDER<img id = ""stim"" ><div class = red_square id = ""topsquare"" ></div><img id = ""stim"" ><div class = red_square  id = ""bottomsquare"" ></div>",32,word_square,response,1,Space,true,,,
