trial_type,trial_index,time_elapsed,rt,stimulus,key_press,test_part,task,targ_cond,correctKeyCode,correct,word,value,response
pavlovia,0,1083,,"",,,,,,,,,
external-html,1,5275,4004.394999705255,"",,,,,,,,,
html-keyboard-response,2,7662,2383.1500001251698,"Welcome to the experiment. Press any key to begin.",72,,,,,,,,
html-keyboard-response,3,103782,96118.24999935925,"<p>You will see a list of words and colored squares in the following task.<p><p>Press the spacebar whenever you see a GREEN square.<p><p>Do not press a key if the square is RED<p><p>Press the spacebar to continue.</p>",32,,,,,,,,
html-keyboard-response,4,109109,4824.349999427795,"<p>Please try to remember as many of the words as you can, and try to think about the meaning of each word as it appears.<p><p>After the detection and encoding task you will be asked to solve some math problems for 24 seconds.<p> Please solve as many problems as you can in the time given. <p>",32,,,,,,,,
html-keyboard-response,5,114338,4727.149999700487,"After solving the math problems, you will be asked to type in as many words <p>from the previous list as you can remember for 75 seconds.<p> If you finish recalling before the 75 seconds are up,<p> just sit tight and try to think of any more words you could have missed. <p><p>We will begin with a brief practice session<p>Press the spacebar to begin the practice.</p>",32,,,,,,,,
html-keyboard-response,6,116841,null,"<div style=""font-size:60px;"">+</div>",null,,,,,,,,
html-keyboard-response,7,117344,null,"HAPPY<img id = ""stim"" ><div class = red_square id = ""topsquare"" ></div><img id = ""stim"" ><div class = red_square  id = ""bottomsquare"" ></div>",null,word_square,prac_response,0,none,true,,,
html-keyboard-response,8,118846,null,"HAPPY",null,word,,,,,HAPPY,,
html-keyboard-response,9,119356,null,"COLD<img id = ""stim"" ><div class = green_square id = ""topsquare"" ></div><img id = ""stim"" ><div class = green_square  id = ""bottomsquare"" ></div>",null,word_square,prac_response,1,Space,false,,,
html-keyboard-response,10,120859,null,"COLD",null,word,,,,,COLD,,
html-keyboard-response,11,121361,477.54000034183264,"HEAVY<img id = ""stim"" ><div class = green_square id = ""topsquare"" ></div><img id = ""stim"" ><div class = green_square  id = ""bottomsquare"" ></div>",32,word_square,prac_response,1,Space,true,,,
html-keyboard-response,12,122863,null,"HEAVY",null,word,,,,,HEAVY,,
html-keyboard-response,13,123365,null,"FUNNY<img id = ""stim"" ><div class = red_square id = ""topsquare"" ></div><img id = ""stim"" ><div class = red_square  id = ""bottomsquare"" ></div>",null,word_square,prac_response,0,none,true,,,
html-keyboard-response,14,124867,null,"FUNNY",null,word,,,,,FUNNY,,
html-keyboard-response,15,125369,null,"SCARY<img id = ""stim"" ><div class = green_square id = ""topsquare"" ></div><img id = ""stim"" ><div class = green_square  id = ""bottomsquare"" ></div>",null,word_square,prac_response,1,Space,false,,,
html-keyboard-response,16,126869,null,"SCARY",null,word,,,,,SCARY,,
html-keyboard-response,17,127370,null,"PEACEFUL<img id = ""stim"" ><div class = green_square id = ""topsquare"" ></div><img id = ""stim"" ><div class = green_square  id = ""bottomsquare"" ></div>",null,word_square,prac_response,1,Space,false,,,
html-keyboard-response,18,128872,null,"PEACEFUL",null,word,,,,,PEACEFUL,,
html-keyboard-response,19,129373,null,"LITTLE<img id = ""stim"" ><div class = red_square id = ""topsquare"" ></div><img id = ""stim"" ><div class = red_square  id = ""bottomsquare"" ></div>",null,word_square,prac_response,0,none,true,,,
html-keyboard-response,20,130875,null,"LITTLE",null,word,,,,,LITTLE,,
html-keyboard-response,21,131377,null,"TIRED<img id = ""stim"" ><div class = red_square id = ""topsquare"" ></div><img id = ""stim"" ><div class = red_square  id = ""bottomsquare"" ></div>",null,word_square,prac_response,0,none,true,,,
html-keyboard-response,22,132878,null,"TIRED",null,word,,,,,TIRED,,
html-keyboard-response,23,133380,null,"ENTERTAINING<img id = ""stim"" ><div class = red_square id = ""topsquare"" ></div><img id = ""stim"" ><div class = red_square  id = ""bottomsquare"" ></div>",null,word_square,prac_response,0,none,true,,,
html-keyboard-response,24,134882,null,"ENTERTAINING",null,word,,,,,ENTERTAINING,,
html-keyboard-response,25,135384,429.10000029951334,"GRATEFUL<img id = ""stim"" ><div class = green_square id = ""topsquare"" ></div><img id = ""stim"" ><div class = green_square  id = ""bottomsquare"" ></div>",32,word_square,prac_response,1,Space,true,,,
html-keyboard-response,26,136886,null,"GRATEFUL",null,word,,,,,GRATEFUL,,
html-keyboard-response,27,137387,null,"LOUD<img id = ""stim"" ><div class = red_square id = ""topsquare"" ></div><img id = ""stim"" ><div class = red_square  id = ""bottomsquare"" ></div>",null,word_square,prac_response,0,none,true,,,
html-keyboard-response,28,138889,null,"LOUD",null,word,,,,,LOUD,,
html-keyboard-response,29,139392,383.00999999046326,"SMART<img id = ""stim"" ><div class = green_square id = ""topsquare"" ></div><img id = ""stim"" ><div class = green_square  id = ""bottomsquare"" ></div>",32,word_square,prac_response,1,Space,true,,,
html-keyboard-response,30,140894,null,"SMART",null,word,,,,,SMART,,
html-keyboard-response,31,141396,null,"SMOOTH<img id = ""stim"" ><div class = green_square id = ""topsquare"" ></div><img id = ""stim"" ><div class = green_square  id = ""bottomsquare"" ></div>",null,word_square,prac_response,1,Space,false,,,
html-keyboard-response,32,142898,null,"SMOOTH",null,word,,,,,SMOOTH,,
html-keyboard-response,33,143399,null,"DISHONEST<img id = ""stim"" ><div class = red_square id = ""topsquare"" ></div><img id = ""stim"" ><div class = red_square  id = ""bottomsquare"" ></div>",null,word_square,prac_response,0,none,true,,,
html-keyboard-response,34,144900,null,"DISHONEST",null,word,,,,,DISHONEST,,
html-keyboard-response,35,145401,312.22999934107065,"WEALTHY<img id = ""stim"" ><div class = green_square id = ""topsquare"" ></div><img id = ""stim"" ><div class = green_square  id = ""bottomsquare"" ></div>",32,word_square,prac_response,1,Space,true,,,
html-keyboard-response,36,146903,null,"WEALTHY",null,word,,,,,WEALTHY,,
html-keyboard-response,37,147405,null,"BEAUTIFUL<img id = ""stim"" ><div class = red_square id = ""topsquare"" ></div><img id = ""stim"" ><div class = red_square  id = ""bottomsquare"" ></div>",null,word_square,prac_response,0,none,true,,,
html-keyboard-response,38,148906,null,"BEAUTIFUL",null,word,,,,,BEAUTIFUL,,
html-keyboard-response,39,149409,null,"DREARY<img id = ""stim"" ><div class = red_square id = ""topsquare"" ></div><img id = ""stim"" ><div class = red_square  id = ""bottomsquare"" ></div>",null,word_square,prac_response,0,none,true,,,
html-keyboard-response,40,150910,null,"DREARY",null,word,,,,,DREARY,,
html-keyboard-response,41,151412,370.9950000047684,"PLAYFUL<img id = ""stim"" ><div class = green_square id = ""topsquare"" ></div><img id = ""stim"" ><div class = green_square  id = ""bottomsquare"" ></div>",32,word_square,prac_response,1,Space,true,,,
html-keyboard-response,42,152913,null,"PLAYFUL",null,word,,,,,PLAYFUL,,
html-keyboard-response,43,159888,6972.914999350905,"<p> Uh oh. You responded correctly on 78% of the GREEN squares.</p>
                  <p>We need you keep your accuracy above 80%</p>
                  <p>We're going to try once more to make sure you understand the task. press any key to continue.</p>",32,,,,,,,,
html-keyboard-response,44,160664,775.4699997603893,"<p>You will see a list of words and colored squares in the following task.<p><p>Press the spacebar whenever you see a GREEN square.<p><p>Do not press a key if the square is RED<p><p>Press the spacebar to continue.</p>",32,,,,,,,,
html-keyboard-response,45,163167,null,"<div style=""font-size:60px;"">+</div>",null,,,,,,,,
html-keyboard-response,46,163668,null,"HAPPY<img id = ""stim"" ><div class = red_square id = ""topsquare"" ></div><img id = ""stim"" ><div class = red_square  id = ""bottomsquare"" ></div>",null,word_square,response,0,none,true,,,
html-keyboard-response,47,165170,null,"HAPPY",null,word,,,,,HAPPY,,
html-keyboard-response,48,165523,351.4399994164705,"COLD<img id = ""stim"" ><div class = green_square id = ""topsquare"" ></div><img id = ""stim"" ><div class = green_square  id = ""bottomsquare"" ></div>",32,word_square,response,1,Space,true,,,
html-keyboard-response,49,167024,null,"COLD",null,word,,,,,COLD,,
html-keyboard-response,50,167412,387.1799996122718,"HEAVY<img id = ""stim"" ><div class = green_square id = ""topsquare"" ></div><img id = ""stim"" ><div class = green_square  id = ""bottomsquare"" ></div>",32,word_square,response,1,Space,true,,,
html-keyboard-response,51,168913,null,"HEAVY",null,word,,,,,HEAVY,,
html-keyboard-response,52,169414,null,"FUNNY<img id = ""stim"" ><div class = red_square id = ""topsquare"" ></div><img id = ""stim"" ><div class = red_square  id = ""bottomsquare"" ></div>",null,word_square,response,0,none,true,,,
html-keyboard-response,53,170916,null,"FUNNY",null,word,,,,,FUNNY,,
html-keyboard-response,54,171319,402.6999995112419,"SCARY<img id = ""stim"" ><div class = green_square id = ""topsquare"" ></div><img id = ""stim"" ><div class = green_square  id = ""bottomsquare"" ></div>",32,word_square,response,1,Space,true,,,
html-keyboard-response,55,172820,null,"SCARY",null,word,,,,,SCARY,,
html-keyboard-response,56,173270,449.0899993106723,"PEACEFUL<img id = ""stim"" ><div class = green_square id = ""topsquare"" ></div><img id = ""stim"" ><div class = green_square  id = ""bottomsquare"" ></div>",32,word_square,response,1,Space,true,,,
html-keyboard-response,57,174772,null,"PEACEFUL",null,word,,,,,PEACEFUL,,
html-keyboard-response,58,175273,null,"LITTLE<img id = ""stim"" ><div class = red_square id = ""topsquare"" ></div><img id = ""stim"" ><div class = red_square  id = ""bottomsquare"" ></div>",null,word_square,response,0,none,true,,,
html-keyboard-response,59,176774,null,"LITTLE",null,word,,,,,LITTLE,,
html-keyboard-response,60,177275,null,"TIRED<img id = ""stim"" ><div class = red_square id = ""topsquare"" ></div><img id = ""stim"" ><div class = red_square  id = ""bottomsquare"" ></div>",null,word_square,response,0,none,true,,,
html-keyboard-response,61,178776,null,"TIRED",null,word,,,,,TIRED,,
html-keyboard-response,62,179278,null,"ENTERTAINING<img id = ""stim"" ><div class = red_square id = ""topsquare"" ></div><img id = ""stim"" ><div class = red_square  id = ""bottomsquare"" ></div>",null,word_square,response,0,none,true,,,
html-keyboard-response,63,180781,null,"ENTERTAINING",null,word,,,,,ENTERTAINING,,
html-keyboard-response,64,181176,394.255000166595,"GRATEFUL<img id = ""stim"" ><div class = green_square id = ""topsquare"" ></div><img id = ""stim"" ><div class = green_square  id = ""bottomsquare"" ></div>",32,word_square,response,1,Space,true,,,
html-keyboard-response,65,182677,null,"GRATEFUL",null,word,,,,,GRATEFUL,,
html-keyboard-response,66,183179,null,"LOUD<img id = ""stim"" ><div class = red_square id = ""topsquare"" ></div><img id = ""stim"" ><div class = red_square  id = ""bottomsquare"" ></div>",null,word_square,response,0,none,true,,,
html-keyboard-response,67,184682,null,"LOUD",null,word,,,,,LOUD,,
html-keyboard-response,68,185027,344.32000014930964,"SMART<img id = ""stim"" ><div class = green_square id = ""topsquare"" ></div><img id = ""stim"" ><div class = green_square  id = ""bottomsquare"" ></div>",32,word_square,response,1,Space,true,,,
html-keyboard-response,69,186529,null,"SMART",null,word,,,,,SMART,,
html-keyboard-response,70,186967,435.95500010997057,"SMOOTH<img id = ""stim"" ><div class = green_square id = ""topsquare"" ></div><img id = ""stim"" ><div class = green_square  id = ""bottomsquare"" ></div>",32,word_square,response,1,Space,true,,,
html-keyboard-response,71,188468,null,"SMOOTH",null,word,,,,,SMOOTH,,
html-keyboard-response,72,188970,null,"DISHONEST<img id = ""stim"" ><div class = red_square id = ""topsquare"" ></div><img id = ""stim"" ><div class = red_square  id = ""bottomsquare"" ></div>",null,word_square,response,0,none,true,,,
html-keyboard-response,73,190472,null,"DISHONEST",null,word,,,,,DISHONEST,,
html-keyboard-response,74,190798,325.0399995595217,"WEALTHY<img id = ""stim"" ><div class = green_square id = ""topsquare"" ></div><img id = ""stim"" ><div class = green_square  id = ""bottomsquare"" ></div>",32,word_square,response,1,Space,true,,,
html-keyboard-response,75,192300,null,"WEALTHY",null,word,,,,,WEALTHY,,
html-keyboard-response,76,192802,null,"BEAUTIFUL<img id = ""stim"" ><div class = red_square id = ""topsquare"" ></div><img id = ""stim"" ><div class = red_square  id = ""bottomsquare"" ></div>",null,word_square,response,0,none,true,,,
html-keyboard-response,77,194304,null,"BEAUTIFUL",null,word,,,,,BEAUTIFUL,,
html-keyboard-response,78,194807,null,"DREARY<img id = ""stim"" ><div class = red_square id = ""topsquare"" ></div><img id = ""stim"" ><div class = red_square  id = ""bottomsquare"" ></div>",null,word_square,response,0,none,true,,,
html-keyboard-response,79,196312,null,"DREARY",null,word,,,,,DREARY,,
html-keyboard-response,80,196661,348.38000033050776,"PLAYFUL<img id = ""stim"" ><div class = green_square id = ""topsquare"" ></div><img id = ""stim"" ><div class = green_square  id = ""bottomsquare"" ></div>",32,word_square,response,1,Space,true,,,
html-keyboard-response,81,198163,null,"PLAYFUL",null,word,,,,,PLAYFUL,,
html-keyboard-response,82,202908,4743.599999696016,"<p> Good job! You responded correctly to 100% of the GREEN squares.</p>
                  <p>Be sure to keep your accuracy above 80%</p>
                  <p>Press any key to begin the math and recall sections. Thank you!</p>",32,,,,,,,,
call-function,83,202908,,"",,,,,,,,,
html-keyboard-response,84,203010,null,"",null,,,,,,,,
math-period,85,208516,10406.944999471307,"",,,,,,,,,4
html-keyboard-response,86,208617,null,"",null,,,,,,,,
math-period,87,213288,9107.514999806881,"",,,,,,,,,0
html-keyboard-response,88,213389,null,"",null,,,,,,,,
math-period,89,214760,2601.314999163151,"",,,,,,,,,2
html-keyboard-response,90,214863,null,"",null,,,,,,,,
math-period,91,217666,5482.344999909401,"",,,,,,,,,1
html-keyboard-response,92,217768,null,"",null,,,,,,,,
math-period,93,219318,3000.669999048114,"",,,,,,,,,2
html-keyboard-response,94,219421,null,"",null,,,,,,,,
math-period,95,222542,11042.38999914378,"",,,,,,,,,4
html-keyboard-response,96,222643,null,"",null,,,,,,,,
math-period,97,225254,5097.960000857711,"",,,,,,,,,4
html-keyboard-response,98,225355,null,"",null,,,,,,,,
math-period,99,226911,null,"",,,,,,,,,
html-keyboard-response,100,227912,null,"Recall Period!",null,,,,,,,,
call-function,101,227912,,"",,,,,,,,,
html-keyboard-response,102,228013,null,"",null,,,,,,,,
recall-period,103,233910,27681.05999659747,"",,,,,,,,,smooth
html-keyboard-response,104,234012,null,"",null,,,,,,,,
recall-period,105,237080,14429.324998520315,"",,,,,,,,,wind
html-keyboard-response,106,237181,null,"",null,,,,,,,,
recall-period,107,239594,12983.324998058379,"",,,,,,,,,glare
html-keyboard-response,108,239697,null,"",null,,,,,,,,
recall-period,109,242684,11022.584998980165,"",,,,,,,,,bus
html-keyboard-response,110,242787,null,"",null,,,,,,,,
recall-period,111,245794,16422.28500265628,"",,,,,,,,,shine
html-keyboard-response,112,245896,null,"",null,,,,,,,,
recall-period,113,249167,17955.145000480115,"",,,,,,,,,happy
html-keyboard-response,114,249270,null,"",null,,,,,,,,
recall-period,115,250114,2729.7699972987175,"",,,,,,,,,sad
html-keyboard-response,116,250215,null,"",null,,,,,,,,
recall-period,117,251543,4701.929999515414,"",,,,,,,,,mad
html-keyboard-response,118,251644,null,"",null,,,,,,,,
recall-period,119,257874,35984.28999911994,"",,,,,,,,,level
html-keyboard-response,120,257976,null,"",null,,,,,,,,
recall-period,121,262761,22764.740001410246,"",,,,,,,,,love
html-keyboard-response,122,262863,null,"",null,,,,,,,,
recall-period,123,274797,70154.95999902487,"",,,,,,,,,child
html-keyboard-response,124,274898,null,"",null,,,,,,,,
recall-period,125,277094,12806.635000742972,"",,,,,,,,,garden
html-keyboard-response,126,277195,null,"",null,,,,,,,,
recall-period,127,281718,17183.9000005275,"",,,,,,,,,try
html-keyboard-response,128,281820,null,"",null,,,,,,,,
recall-period,129,293528,46144.74000222981,"",,,,,,,,,sad
html-keyboard-response,130,293630,null,"",null,,,,,,,,
recall-period,131,302914,null,"",,,,,,,,,
html-keyboard-response,132,303417,null,"Time's Up!",null,,,,,,,,
html-keyboard-response,133,306621,3202.9100004583597,"<p>We will now begin the experiment!<p><p>Please try to remember all words from each list.<p><p>Press the spacebar whenever you see a GREEN square.<p><p><p><p>Press the spacebar to begin.</p>",32,,,,,,,,
html-keyboard-response,134,308555,1432.510000653565,"<div style=""font-size:48px;"">Press any key to begin list 1 of 24 </div>",32,,,,,,,,
html-keyboard-response,135,311057,null,"<div style=""font-size:60px;"">+</div>",null,,,,,,,,
html-keyboard-response,136,311559,null,"SHINGLE<img id = ""stim"" ><div class = red_square id = ""topsquare"" ></div><img id = ""stim"" ><div class = red_square  id = ""bottomsquare"" ></div>",null,word_square,response,0,none,true,,,
html-keyboard-response,137,313061,null,"SHINGLE",null,word,,,,, 'SHINGLE',,
html-keyboard-response,138,313537,475.4050001502037,"BARLEY<img id = ""stim"" ><div class = green_square id = ""topsquare"" ></div><img id = ""stim"" ><div class = green_square  id = ""bottomsquare"" ></div>",32,word_square,response,1,Space,true,,,
html-keyboard-response,139,315039,null,"BARLEY",null,word,,,,, 'BARLEY',,
html-keyboard-response,140,315541,null,"POISON<img id = ""stim"" ><div class = green_square id = ""topsquare"" ></div><img id = ""stim"" ><div class = green_square  id = ""bottomsquare"" ></div>",null,word_square,response,1,Space,false,,,
html-keyboard-response,141,317043,null,"POISON",null,word,,,,, 'POISON',,
html-keyboard-response,142,317544,null,"WARDROBE<img id = ""stim"" ><div class = red_square id = ""topsquare"" ></div><img id = ""stim"" ><div class = red_square  id = ""bottomsquare"" ></div>",null,word_square,response,0,none,true,,,
html-keyboard-response,143,319046,null,"WARDROBE",null,word,,,,, 'WARDROBE',,
html-keyboard-response,144,319547,null,"BLUEJAY<img id = ""stim"" ><div class = red_square id = ""topsquare"" ></div><img id = ""stim"" ><div class = red_square  id = ""bottomsquare"" ></div>",null,word_square,response,0,none,true,,,
html-keyboard-response,145,321049,null,"BLUEJAY",null,word,,,,, 'BLUEJAY',,
html-keyboard-response,146,321417,366.5800001472235,"SEAFOOD<img id = ""stim"" ><div class = green_square id = ""topsquare"" ></div><img id = ""stim"" ><div class = green_square  id = ""bottomsquare"" ></div>",32,word_square,response,1,Space,true,,,
html-keyboard-response,147,322918,null,"SEAFOOD",null,word,,,,, 'SEAFOOD',,
html-keyboard-response,148,323420,null,"OX<img id = ""stim"" ><div class = red_square id = ""topsquare"" ></div><img id = ""stim"" ><div class = red_square  id = ""bottomsquare"" ></div>",null,word_square,response,0,none,true,,,
html-keyboard-response,149,324921,null,"OX",null,word,,,,, 'OX',,
html-keyboard-response,150,325339,417.31000039726496,"LOBBY<img id = ""stim"" ><div class = green_square id = ""topsquare"" ></div><img id = ""stim"" ><div class = green_square  id = ""bottomsquare"" ></div>",32,word_square,response,1,Space,true,,,
html-keyboard-response,151,326841,null,"LOBBY",null,word,,,,, 'LOBBY',,
html-keyboard-response,152,327226,383.56999959796667,"CARPET<img id = ""stim"" ><div class = green_square id = ""topsquare"" ></div><img id = ""stim"" ><div class = green_square  id = ""bottomsquare"" ></div>",32,word_square,response,1,Space,true,,,
html-keyboard-response,153,328728,null,"CARPET",null,word,,,,, 'CARPET',,
html-keyboard-response,154,329230,null,"MOTOR<img id = ""stim"" ><div class = red_square id = ""topsquare"" ></div><img id = ""stim"" ><div class = red_square  id = ""bottomsquare"" ></div>",null,word_square,response,0,none,true,,,
html-keyboard-response,155,330733,null,"MOTOR",null,word,,,,, 'MOTOR',,
html-keyboard-response,156,331234,null,"PEDAL<img id = ""stim"" ><div class = red_square id = ""topsquare"" ></div><img id = ""stim"" ><div class = red_square  id = ""bottomsquare"" ></div>",null,word_square,response,0,none,true,,,
html-keyboard-response,157,332736,null,"PEDAL",null,word,,,,, 'PEDAL',,
html-keyboard-response,158,333087,349.77000020444393,"PRIEST<img id = ""stim"" ><div class = green_square id = ""topsquare"" ></div><img id = ""stim"" ><div class = green_square  id = ""bottomsquare"" ></div>",32,word_square,response,1,Space,true,,,
html-keyboard-response,159,334588,null,"PRIEST",null,word,,,,, 'PRIEST',,
html-keyboard-response,160,335089,null,"BROOK<img id = ""stim"" ><div class = red_square id = ""topsquare"" ></div><img id = ""stim"" ><div class = red_square  id = ""bottomsquare"" ></div>",null,word_square,response,0,none,true,,,
html-keyboard-response,161,336591,null,"BROOK",null,word,,,,, 'BROOK',,
html-keyboard-response,162,336967,374.8349994421005,"PUDDLE<img id = ""stim"" ><div class = green_square id = ""topsquare"" ></div><img id = ""stim"" ><div class = green_square  id = ""bottomsquare"" ></div>",32,word_square,response,1,Space,true,,,
html-keyboard-response,163,338469,null,"PUDDLE",null,word,,,,, 'PUDDLE',,
html-keyboard-response,164,338893,423.11500012874603,"FAUCET<img id = ""stim"" ><div class = green_square id = ""topsquare"" ></div><img id = ""stim"" ><div class = green_square  id = ""bottomsquare"" ></div>",32,word_square,response,1,Space,true,,,
html-keyboard-response,165,340394,null,"FAUCET",null,word,,,,, 'FAUCET',,
html-keyboard-response,166,340896,null,"HUMAN<img id = ""stim"" ><div class = red_square id = ""topsquare"" ></div><img id = ""stim"" ><div class = red_square  id = ""bottomsquare"" ></div>",null,word_square,response,0,none,true,,,
html-keyboard-response,167,342397,null,"HUMAN",null,word,,,,, 'HUMAN',,
html-keyboard-response,168,342899,null,"BODY<img id = ""stim"" ><div class = red_square id = ""topsquare"" ></div><img id = ""stim"" ><div class = red_square  id = ""bottomsquare"" ></div>",null,word_square,response,0,none,true,,,
html-keyboard-response,169,344400,null,"BODY",null,word,,,,, 'BODY',,
html-keyboard-response,170,344802,401.7749996855855,"TULIP<img id = ""stim"" ><div class = green_square id = ""topsquare"" ></div><img id = ""stim"" ><div class = green_square  id = ""bottomsquare"" ></div>",32,word_square,response,1,Space,true,,,
html-keyboard-response,171,346304,null,"TULIP",null,word,,,,, 'TULIP',,
call-function,172,346305,,"",,,,,,,,,
html-keyboard-response,173,346406,null,"",null,,,,,,,,
math-period,174,348547,4096.355000510812,"",,,,,,,,,2
html-keyboard-response,175,348648,null,"",null,,,,,,,,
math-period,176,350168,2899.504999630153,"",,,,,,,,,3
html-keyboard-response,177,350270,null,"",null,,,,,,,,
math-period,178,353119,5573.609999381006,"",,,,,,,,,1
html-keyboard-response,179,353221,null,"",null,,,,,,,,
math-period,180,355311,4094.1449999809265,"",,,,,,,,,1
html-keyboard-response,181,355412,null,"",null,,,,,,,,
math-period,182,356501,2095.6600001081824,"",,,,,,,,,2
html-keyboard-response,183,356603,null,"",null,,,,,,,,
math-period,184,358384,3497.7000011131167,"",,,,,,,,,1
html-keyboard-response,185,358485,null,"",null,,,,,,,,
math-period,186,361093,5111.645000986755,"",,,,,,,,,1
html-keyboard-response,187,361194,null,"",null,,,,,,,,
math-period,188,362741,3008.990000002086,"",,,,,,,,,3
html-keyboard-response,189,362843,null,"",null,,,,,,,,
math-period,190,364397,3024.9600000679493,"",,,,,,,,,4
html-keyboard-response,191,364500,null,"",null,,,,,,,,
math-period,192,368507,7892.049999907613,"",,,,,,,,,5
html-keyboard-response,193,368608,null,"",null,,,,,,,,
math-period,194,370305,null,"",,,,,,,,,
html-keyboard-response,195,371307,null,"Recall Period!",null,,,,,,,,
call-function,196,371308,,"",,,,,,,,,
html-keyboard-response,197,371410,null,"",null,,,,,,,,
recall-period,198,372751,6932.8500013798475,"",,,,,,,,,bluejay
html-keyboard-response,199,372852,null,"",null,,,,,,,,
recall-period,200,374008,5039.159998297691,"",,,,,,,,,human
html-keyboard-response,201,374110,null,"",null,,,,,,,,
recall-period,202,374512,1077.8250005096197,"",,,,,,,,,bird
html-keyboard-response,203,374613,null,"",null,,,,,,,,
recall-period,204,378153,13123.329998925328,"",,,,,,,,,sky
html-keyboard-response,205,378254,null,"",null,,,,,,,,
recall-period,206,381963,20918.97999867797,"",,,,,,,,,grove
html-keyboard-response,207,382064,null,"",null,,,,,,,,
recall-period,208,382993,4272.845001891255,"",,,,,,,,,garden
html-keyboard-response,209,383094,null,"",null,,,,,,,,
recall-period,210,384800,6532.080001197755,"",,,,,,,,,lily
html-keyboard-response,211,384902,null,"",null,,,,,,,,
recall-period,212,387510,16803.860001266003,"",,,,,,,,,flower
html-keyboard-response,213,387612,null,"",null,,,,,,,,
recall-period,214,389965,14102.310001850128,"",,,,,,,,,church
html-keyboard-response,215,390066,null,"",null,,,,,,,,
recall-period,216,390681,2189.6900022402406,"",,,,,,,,,house
html-keyboard-response,217,390782,null,"",null,,,,,,,,
recall-period,218,391776,4675.639998167753,"",,,,,,,,,mouse
html-keyboard-response,219,391878,null,"",null,,,,,,,,
recall-period,220,395146,18193.335000425577,"",,,,,,,,,tears
html-keyboard-response,221,395248,null,"",null,,,,,,,,
recall-period,222,398236,16533.9299980551,"",,,,,,,,,heart
html-keyboard-response,223,398337,null,"",null,,,,,,,,
recall-period,224,413853,91423.19999821484,"",,,,,,,,,smile
html-keyboard-response,225,413955,null,"",null,,,,,,,,
recall-period,226,426021,59207.6749978587,"",,,,,,,,,rain
html-keyboard-response,227,426122,null,"",null,,,,,,,,
recall-period,228,426879,3482.2550006210804,"",,,,,,,,,water
html-keyboard-response,229,426980,null,"",null,,,,,,,,
recall-period,230,446309,null,"",,,,,,,,,
html-keyboard-response,231,446812,null,"Time's Up!",null,,,,,,,,
html-keyboard-response,232,451358,4545.549999922514,"<p> Good job! You responded correctly to 97% of the GREEN squares.</p>
                  <p>Be sure to keep your accuracy above 80%</p>
                  <p>Press any key to continue the experiment. Thank you!</p>",32,,,,,,,,
html-keyboard-response,233,453976,2617.1949999406934,"<div style=""font-size:48px;"">Press any key to begin list 2 of 24 </div>",32,,,,,,,,
html-keyboard-response,234,456479,null,"<div style=""font-size:60px;"">+</div>",null,,,,,,,,
html-keyboard-response,235,456981,null,"BUILDING<img id = ""stim"" ><div class = red_square id = ""topsquare"" ></div><img id = ""stim"" ><div class = red_square  id = ""bottomsquare"" ></div>",null,word_square,response,0,none,true,,,
html-keyboard-response,236,458482,null,"BUILDING",null,word,,,,, 'BUILDING',,
html-keyboard-response,237,458927,443.3200005441904,"ASIA<img id = ""stim"" ><div class = green_square id = ""topsquare"" ></div><img id = ""stim"" ><div class = green_square  id = ""bottomsquare"" ></div>",32,word_square,response,1,Space,true,,,
html-keyboard-response,238,460428,null,"ASIA",null,word,,,,, 'ASIA',,
html-keyboard-response,239,460850,421.40999995172024,"LIZARD<img id = ""stim"" ><div class = green_square id = ""topsquare"" ></div><img id = ""stim"" ><div class = green_square  id = ""bottomsquare"" ></div>",32,word_square,response,1,Space,true,,,
html-keyboard-response,240,462352,null,"LIZARD",null,word,,,,, 'LIZARD',,
html-keyboard-response,241,462854,null,"SHORTS<img id = ""stim"" ><div class = red_square id = ""topsquare"" ></div><img id = ""stim"" ><div class = red_square  id = ""bottomsquare"" ></div>",null,word_square,response,0,none,true,,,
html-keyboard-response,242,464355,null,"SHORTS",null,word,,,,, 'SHORTS',,
html-keyboard-response,243,464857,null,"SCARECROW<img id = ""stim"" ><div class = red_square id = ""topsquare"" ></div><img id = ""stim"" ><div class = red_square  id = ""bottomsquare"" ></div>",null,word_square,response,0,none,true,,,
html-keyboard-response,244,466358,null,"SCARECROW",null,word,,,,, 'SCARECROW',,
html-keyboard-response,245,466805,446.5800002217293,"CASKET<img id = ""stim"" ><div class = green_square id = ""topsquare"" ></div><img id = ""stim"" ><div class = green_square  id = ""bottomsquare"" ></div>",32,word_square,response,1,Space,true,,,
html-keyboard-response,246,468307,null,"CASKET",null,word,,,,, 'CASKET',,
html-keyboard-response,247,468809,null,"TOMBSTONE<img id = ""stim"" ><div class = red_square id = ""topsquare"" ></div><img id = ""stim"" ><div class = red_square  id = ""bottomsquare"" ></div>",null,word_square,response,0,none,true,,,
html-keyboard-response,248,470311,null,"TOMBSTONE",null,word,,,,, 'TOMBSTONE',,
html-keyboard-response,249,470751,438.8950001448393,"TEAPOT<img id = ""stim"" ><div class = green_square id = ""topsquare"" ></div><img id = ""stim"" ><div class = green_square  id = ""bottomsquare"" ></div>",32,word_square,response,1,Space,true,,,
html-keyboard-response,250,472252,null,"TEAPOT",null,word,,,,, 'TEAPOT',,
html-keyboard-response,251,472692,439.53500036150217,"SEASHORE<img id = ""stim"" ><div class = green_square id = ""topsquare"" ></div><img id = ""stim"" ><div class = green_square  id = ""bottomsquare"" ></div>",32,word_square,response,1,Space,true,,,
html-keyboard-response,252,474194,null,"SEASHORE",null,word,,,,, 'SEASHORE',,
html-keyboard-response,253,474696,null,"FOLDER<img id = ""stim"" ><div class = red_square id = ""topsquare"" ></div><img id = ""stim"" ><div class = red_square  id = ""bottomsquare"" ></div>",null,word_square,response,0,none,true,,,
html-keyboard-response,254,476197,null,"FOLDER",null,word,,,,, 'FOLDER',,
html-keyboard-response,255,476700,null,"COBBLER<img id = ""stim"" ><div class = red_square id = ""topsquare"" ></div><img id = ""stim"" ><div class = red_square  id = ""bottomsquare"" ></div>",null,word_square,response,0,none,true,,,
html-keyboard-response,256,478202,null,"COBBLER",null,word,,,,, 'COBBLER',,
html-keyboard-response,257,478621,418.0399999022484,"POCKET<img id = ""stim"" ><div class = green_square id = ""topsquare"" ></div><img id = ""stim"" ><div class = green_square  id = ""bottomsquare"" ></div>",32,word_square,response,1,Space,true,,,
html-keyboard-response,258,480123,null,"POCKET",null,word,,,,, 'POCKET',,
html-keyboard-response,259,480624,null,"PARROT<img id = ""stim"" ><div class = red_square id = ""topsquare"" ></div><img id = ""stim"" ><div class = red_square  id = ""bottomsquare"" ></div>",null,word_square,response,0,none,true,,,
html-keyboard-response,260,482126,null,"PARROT",null,word,,,,, 'PARROT',,
html-keyboard-response,261,482505,377.5100000202656,"SPRINKLE<img id = ""stim"" ><div class = green_square id = ""topsquare"" ></div><img id = ""stim"" ><div class = green_square  id = ""bottomsquare"" ></div>",32,word_square,response,1,Space,true,,,
html-keyboard-response,262,484005,null,"SPRINKLE",null,word,,,,, 'SPRINKLE',,
html-keyboard-response,263,484424,417.88499988615513,"NECKLACE<img id = ""stim"" ><div class = green_square id = ""topsquare"" ></div><img id = ""stim"" ><div class = green_square  id = ""bottomsquare"" ></div>",32,word_square,response,1,Space,true,,,
html-keyboard-response,264,485926,null,"NECKLACE",null,word,,,,, 'NECKLACE',,
html-keyboard-response,265,486428,null,"RATTLE<img id = ""stim"" ><div class = red_square id = ""topsquare"" ></div><img id = ""stim"" ><div class = red_square  id = ""bottomsquare"" ></div>",null,word_square,response,0,none,true,,,
html-keyboard-response,266,487930,null,"RATTLE",null,word,,,,, 'RATTLE',,
html-keyboard-response,267,488432,null,"POSTAGE<img id = ""stim"" ><div class = red_square id = ""topsquare"" ></div><img id = ""stim"" ><div class = red_square  id = ""bottomsquare"" ></div>",null,word_square,response,0,none,true,,,
html-keyboard-response,268,489935,null,"POSTAGE",null,word,,,,, 'POSTAGE',,
html-keyboard-response,269,490373,437.3599998652935,"PACKAGE<img id = ""stim"" ><div class = green_square id = ""topsquare"" ></div><img id = ""stim"" ><div class = green_square  id = ""bottomsquare"" ></div>",32,word_square,response,1,Space,true,,,
html-keyboard-response,270,491874,null,"PACKAGE",null,word,,,,, 'PACKAGE',,
call-function,271,491875,,"",,,,,,,,,
html-keyboard-response,272,491976,null,"",null,,,,,,,,
math-period,273,493970,3664.1099993139505,"",,,,,,,,,3
html-keyboard-response,274,494073,null,"",null,,,,,,,,
math-period,275,495826,3404.3050007894635,"",,,,,,,,,3
html-keyboard-response,276,495928,null,"",null,,,,,,,,
math-period,277,498234,4384.824998676777,"",,,,,,,,,0
html-keyboard-response,278,498336,null,"",null,,,,,,,,
math-period,279,500354,3835.840000770986,"",,,,,,,,,0
html-keyboard-response,280,500456,null,"",null,,,,,,,,
math-period,281,502468,3943.6850007623434,"",,,,,,,,,1
html-keyboard-response,282,502570,null,"",null,,,,,,,,
math-period,283,503474,1707.2199992835522,"",,,,,,,,,3
html-keyboard-response,284,503576,null,"",null,,,,,,,,
math-period,285,505780,4285.890000872314,"",,,,,,,,,4
html-keyboard-response,286,505881,null,"",null,,,,,,,,
math-period,287,508168,4440.2850000187755,"",,,,,,,,,2
html-keyboard-response,288,508269,null,"",null,,,,,,,,
math-period,289,509500,2360.110000707209,"",,,,,,,,,3
html-keyboard-response,290,509601,null,"",null,,,,,,,,
math-period,291,510774,2202.4249993264675,"",,,,,,,,,2
html-keyboard-response,292,510877,null,"",null,,,,,,,,
math-period,293,511878,1862.1249990537763,"",,,,,,,,,3
html-keyboard-response,294,511979,null,"",null,,,,,,,,
math-period,295,513718,3335.5099987238646,"",,,,,,,,,2
html-keyboard-response,296,513820,null,"",null,,,,,,,,
math-period,297,515876,1953.7549996748567,"",,,,,,,,,4
html-keyboard-response,298,516878,null,"Recall Period!",null,,,,,,,,
call-function,299,516878,,"",,,,,,,,,
html-keyboard-response,300,516981,null,"",null,,,,,,,,
recall-period,301,519110,10441.014999523759,"",,,,,,,,,Asia
html-keyboard-response,302,519212,null,"",null,,,,,,,,
recall-period,303,520185,4466.4900014176965,"",,,,,,,,,grave
html-keyboard-response,304,520287,null,"",null,,,,,,,,
recall-period,305,522058,11579.38499841839,"",,,,,,,,,morning
html-keyboard-response,306,522160,null,"",null,,,,,,,,
recall-period,307,524880,18861.95499729365,"",,,,,,,,,package
html-keyboard-response,308,524982,null,"",null,,,,,,,,
recall-period,309,526402,6261.655000969768,"",,,,,,,,,land
html-keyboard-response,310,526504,null,"",null,,,,,,,,
recall-period,311,530436,30483.285000547767,"",,,,,,,,,cemetary
html-keyboard-response,312,530538,null,"",null,,,,,,,,
recall-period,313,533571,19801.859999075532,"",,,,,,,,,flower
html-keyboard-response,314,533672,null,"",null,,,,,,,,
recall-period,315,543954,89538.02499733865,"",,,,,,,,,starling
html-keyboard-response,316,544056,null,"",null,,,,,,,,
recall-period,317,555451,88720.119997859,"",,,,,,,,,morning
html-keyboard-response,318,555553,null,"",null,,,,,,,,
recall-period,319,565178,56582.36499875784,"",,,,,,,,,paper
html-keyboard-response,320,565279,null,"",null,,,,,,,,
recall-period,321,566499,5843.81000045687,"",,,,,,,,,pencil
html-keyboard-response,322,566600,null,"",null,,,,,,,,
recall-period,323,591880,null,"",,,,,,,,,
html-keyboard-response,324,592382,null,"Time's Up!",null,,,,,,,,
html-keyboard-response,325,595092,2709.1549998149276,"<p> Good job! You responded correctly to 98% of the GREEN squares.</p>
                  <p>Be sure to keep your accuracy above 80%</p>
                  <p>Press any key to continue the experiment. Thank you!</p>",32,,,,,,,,
html-keyboard-response,326,595785,692.4699991941452,"<div style=""font-size:48px;"">Press any key to begin list 3 of 24 </div>",13,,,,,,,,
html-keyboard-response,327,598289,null,"<div style=""font-size:60px;"">+</div>",null,,,,,,,,
html-keyboard-response,328,598772,482.73999989032745,"CROOK<img id = ""stim"" ><div class = green_square id = ""topsquare"" ></div><img id = ""stim"" ><div class = green_square  id = ""bottomsquare"" ></div>",32,word_square,response,1,Space,true,,,
html-keyboard-response,329,600275,null,"CROOK",null,word,,,,, 'CROOK',,
html-keyboard-response,330,600777,null,"LUGGAGE<img id = ""stim"" ><div class = red_square id = ""topsquare"" ></div><img id = ""stim"" ><div class = red_square  id = ""bottomsquare"" ></div>",null,word_square,response,0,none,true,,,
html-keyboard-response,331,602279,null,"LUGGAGE",null,word,,,,, 'LUGGAGE',,
html-keyboard-response,332,602780,null,"WRIST<img id = ""stim"" ><div class = red_square id = ""topsquare"" ></div><img id = ""stim"" ><div class = red_square  id = ""bottomsquare"" ></div>",null,word_square,response,0,none,true,,,
html-keyboard-response,333,604283,null,"WRIST",null,word,,,,, 'WRIST',,
html-keyboard-response,334,604675,390.1800001040101,"CHIPMUNK<img id = ""stim"" ><div class = green_square id = ""topsquare"" ></div><img id = ""stim"" ><div class = green_square  id = ""bottomsquare"" ></div>",32,word_square,response,1,Space,true,,,
html-keyboard-response,335,606176,null,"CHIPMUNK",null,word,,,,, 'CHIPMUNK',,
html-keyboard-response,336,606547,370.1349999755621,"CARTON<img id = ""stim"" ><div class = green_square id = ""topsquare"" ></div><img id = ""stim"" ><div class = green_square  id = ""bottomsquare"" ></div>",32,word_square,response,1,Space,true,,,
html-keyboard-response,337,608048,null,"CARTON",null,word,,,,, 'CARTON',,
html-keyboard-response,338,608550,null,"HORSE<img id = ""stim"" ><div class = red_square id = ""topsquare"" ></div><img id = ""stim"" ><div class = red_square  id = ""bottomsquare"" ></div>",null,word_square,response,0,none,true,,,
html-keyboard-response,339,610051,null,"HORSE",null,word,,,,, 'HORSE',,
html-keyboard-response,340,610412,360.5250008404255,"BATHTUB<img id = ""stim"" ><div class = green_square id = ""topsquare"" ></div><img id = ""stim"" ><div class = green_square  id = ""bottomsquare"" ></div>",32,word_square,response,1,Space,true,,,
html-keyboard-response,341,611914,null,"BATHTUB",null,word,,,,, 'BATHTUB',,
html-keyboard-response,342,612417,null,"VAMPIRE<img id = ""stim"" ><div class = red_square id = ""topsquare"" ></div><img id = ""stim"" ><div class = red_square  id = ""bottomsquare"" ></div>",null,word_square,response,0,none,true,,,
html-keyboard-response,343,613919,null,"VAMPIRE",null,word,,,,, 'VAMPIRE',,
html-keyboard-response,344,614421,null,"PARENT<img id = ""stim"" ><div class = red_square id = ""topsquare"" ></div><img id = ""stim"" ><div class = red_square  id = ""bottomsquare"" ></div>",null,word_square,response,0,none,true,,,
html-keyboard-response,345,615923,null,"PARENT",null,word,,,,, 'PARENT',,
html-keyboard-response,346,616310,386.3200005143881,"SISTER<img id = ""stim"" ><div class = green_square id = ""topsquare"" ></div><img id = ""stim"" ><div class = green_square  id = ""bottomsquare"" ></div>",32,word_square,response,1,Space,true,,,
html-keyboard-response,347,617813,null,"SISTER",null,word,,,,, 'SISTER',,
html-keyboard-response,348,618279,465.28999973088503,"CRYSTAL<img id = ""stim"" ><div class = green_square id = ""topsquare"" ></div><img id = ""stim"" ><div class = green_square  id = ""bottomsquare"" ></div>",32,word_square,response,1,Space,true,,,
html-keyboard-response,349,619781,null,"CRYSTAL",null,word,,,,, 'CRYSTAL',,
html-keyboard-response,350,620282,null,"POPCORN<img id = ""stim"" ><div class = red_square id = ""topsquare"" ></div><img id = ""stim"" ><div class = red_square  id = ""bottomsquare"" ></div>",null,word_square,response,0,none,true,,,
html-keyboard-response,351,621784,null,"POPCORN",null,word,,,,, 'POPCORN',,
html-keyboard-response,352,622228,442.79500003904104,"COCOON<img id = ""stim"" ><div class = green_square id = ""topsquare"" ></div><img id = ""stim"" ><div class = green_square  id = ""bottomsquare"" ></div>",32,word_square,response,1,Space,true,,,
html-keyboard-response,353,623729,null,"COCOON",null,word,,,,, 'COCOON',,
html-keyboard-response,354,624231,null,"FINGER<img id = ""stim"" ><div class = red_square id = ""topsquare"" ></div><img id = ""stim"" ><div class = red_square  id = ""bottomsquare"" ></div>",null,word_square,response,0,none,true,,,
html-keyboard-response,355,625734,null,"FINGER",null,word,,,,, 'FINGER',,
html-keyboard-response,356,626236,null,"REPORT<img id = ""stim"" ><div class = red_square id = ""topsquare"" ></div><img id = ""stim"" ><div class = red_square  id = ""bottomsquare"" ></div>",null,word_square,response,0,none,true,,,
html-keyboard-response,357,627737,null,"REPORT",null,word,,,,, 'REPORT',,
html-keyboard-response,358,628151,412.13000006973743,"NOTEBOOK<img id = ""stim"" ><div class = green_square id = ""topsquare"" ></div><img id = ""stim"" ><div class = green_square  id = ""bottomsquare"" ></div>",32,word_square,response,1,Space,true,,,
html-keyboard-response,359,629652,null,"NOTEBOOK",null,word,,,,, 'NOTEBOOK',,
html-keyboard-response,360,630118,464.51999992132187,"TUNNEL<img id = ""stim"" ><div class = green_square id = ""topsquare"" ></div><img id = ""stim"" ><div class = green_square  id = ""bottomsquare"" ></div>",32,word_square,response,1,Space,true,,,
html-keyboard-response,361,631620,null,"TUNNEL",null,word,,,,, 'TUNNEL',,
html-keyboard-response,362,632121,null,"SALMON<img id = ""stim"" ><div class = red_square id = ""topsquare"" ></div><img id = ""stim"" ><div class = red_square  id = ""bottomsquare"" ></div>",null,word_square,response,0,none,true,,,
html-keyboard-response,363,633623,null,"SALMON",null,word,,,,, 'SALMON',,
call-function,364,633623,,"",,,,,,,,,
html-keyboard-response,365,633725,null,"",null,,,,,,,,
math-period,366,636014,3897.3399996757507,"",,,,,,,,,3
html-keyboard-response,367,636115,null,"",null,,,,,,,,
math-period,368,638120,3540.394999086857,"",,,,,,,,,6
html-keyboard-response,369,638222,null,"",null,,,,,,,,
math-period,370,642726,8827.51499954611,"",,,,,,,,,5
html-keyboard-response,371,642827,null,"",null,,,,,,,,
math-period,372,644682,3516.270000487566,"",,,,,,,,,2
html-keyboard-response,373,644785,null,"",null,,,,,,,,
math-period,374,647011,4346.500000916421,"",,,,,,,,,4
html-keyboard-response,375,647113,null,"",null,,,,,,,,
math-period,376,651602,8818.380000069737,"",,,,,,,,,5
html-keyboard-response,377,651704,null,"",null,,,,,,,,
math-period,378,652667,1824.5650008320808,"",,,,,,,,,3
html-keyboard-response,379,652769,null,"",null,,,,,,,,
math-period,380,655834,5915.3449991717935,"",,,,,,,,,4
html-keyboard-response,381,655936,null,"",null,,,,,,,,
math-period,382,657408,2819.2499997094274,"",,,,,,,,,5
html-keyboard-response,383,657510,null,"",null,,,,,,,,
math-period,384,657625,null,"",,,,,,,,,
html-keyboard-response,385,658628,null,"Recall Period!",null,,,,,,,,
call-function,386,658628,,"",,,,,,,,,
html-keyboard-response,387,658730,null,"",null,,,,,,,,
recall-period,388,660868,14313.534998334944,"",,,,,,,,,crystal
html-keyboard-response,389,660970,null,"",null,,,,,,,,
recall-period,390,661671,2350.2150010317564,"",,,,,,,,,fish
html-keyboard-response,391,661772,null,"",null,,,,,,,,
recall-period,392,663042,6477.419998496771,"",,,,,,,,,salmon
html-keyboard-response,393,663144,null,"",null,,,,,,,,
recall-period,394,666158,21328.28999683261,"",,,,,,,,,notebook
html-keyboard-response,395,666259,null,"",null,,,,,,,,
recall-period,396,668050,10229.774996638298,"",,,,,,,,,muffin
html-keyboard-response,397,668153,null,"",null,,,,,,,,
recall-period,398,672971,22968.260002322495,"",,,,,,,,,rock
html-keyboard-response,399,673073,null,"",null,,,,,,,,
recall-period,400,703996,212829.72999755293,"",,,,,,,,,pillow
html-keyboard-response,401,704101,null,"",null,,,,,,,,
recall-period,402,733631,null,"",,,,,,,,,
html-keyboard-response,403,734133,null,"Time's Up!",null,,,,,,,,
html-keyboard-response,404,736053,1919.0699998289347,"<p> Good job! You responded correctly to 99% of the GREEN squares.</p>
                  <p>Be sure to keep your accuracy above 80%</p>
                  <p>Press any key to continue the experiment. Thank you!</p>",32,,,,,,,,
html-keyboard-response,405,736859,804.9000008031726,"<div style=""font-size:48px;"">Press any key to begin list 4 of 24 </div>",13,,,,,,,,
html-keyboard-response,406,739362,null,"<div style=""font-size:60px;"">+</div>",null,,,,,,,,
html-keyboard-response,407,739825,460.4200003668666,"LOVER<img id = ""stim"" ><div class = green_square id = ""topsquare"" ></div><img id = ""stim"" ><div class = green_square  id = ""bottomsquare"" ></div>",32,word_square,response,1,Space,true,,,
html-keyboard-response,408,741326,null,"LOVER",null,word,,,,, 'LOVER',,
html-keyboard-response,409,741828,null,"BROTHER<img id = ""stim"" ><div class = red_square id = ""topsquare"" ></div><img id = ""stim"" ><div class = red_square  id = ""bottomsquare"" ></div>",null,word_square,response,0,none,true,,,
html-keyboard-response,410,743330,null,"BROTHER",null,word,,,,, 'BROTHER',,
html-keyboard-response,411,743832,null,"LOUNGE<img id = ""stim"" ><div class = red_square id = ""topsquare"" ></div><img id = ""stim"" ><div class = red_square  id = ""bottomsquare"" ></div>",null,word_square,response,0,none,true,,,
html-keyboard-response,412,745334,null,"LOUNGE",null,word,,,,, 'LOUNGE',,
html-keyboard-response,413,745775,440.34000020474195,"APRON<img id = ""stim"" ><div class = green_square id = ""topsquare"" ></div><img id = ""stim"" ><div class = green_square  id = ""bottomsquare"" ></div>",32,word_square,response,1,Space,true,,,
html-keyboard-response,414,747277,null,"APRON",null,word,,,,, 'APRON',,
html-keyboard-response,415,747770,492.31499992311,"STOVE<img id = ""stim"" ><div class = green_square id = ""topsquare"" ></div><img id = ""stim"" ><div class = green_square  id = ""bottomsquare"" ></div>",32,word_square,response,1,Space,true,,,
html-keyboard-response,416,749272,null,"STOVE",null,word,,,,, 'STOVE',,
html-keyboard-response,417,749774,null,"GAZELLE<img id = ""stim"" ><div class = red_square id = ""topsquare"" ></div><img id = ""stim"" ><div class = red_square  id = ""bottomsquare"" ></div>",null,word_square,response,0,none,true,,,
html-keyboard-response,418,751276,null,"GAZELLE",null,word,,,,, 'GAZELLE',,
html-keyboard-response,419,751623,345.99499963223934,"WAITRESS<img id = ""stim"" ><div class = green_square id = ""topsquare"" ></div><img id = ""stim"" ><div class = green_square  id = ""bottomsquare"" ></div>",32,word_square,response,1,Space,true,,,
html-keyboard-response,420,753125,null,"WAITRESS",null,word,,,,, 'WAITRESS',,
html-keyboard-response,421,753627,null,"MARBLE<img id = ""stim"" ><div class = red_square id = ""topsquare"" ></div><img id = ""stim"" ><div class = red_square  id = ""bottomsquare"" ></div>",null,word_square,response,0,none,true,,,
html-keyboard-response,422,755129,null,"MARBLE",null,word,,,,, 'MARBLE',,
html-keyboard-response,423,755630,null,"JOINT<img id = ""stim"" ><div class = red_square id = ""topsquare"" ></div><img id = ""stim"" ><div class = red_square  id = ""bottomsquare"" ></div>",null,word_square,response,0,none,true,,,
html-keyboard-response,424,757133,null,"JOINT",null,word,,,,, 'JOINT',,
html-keyboard-response,425,757521,387.61499989777803,"ANTLER<img id = ""stim"" ><div class = green_square id = ""topsquare"" ></div><img id = ""stim"" ><div class = green_square  id = ""bottomsquare"" ></div>",32,word_square,response,1,Space,true,,,
html-keyboard-response,426,759023,null,"ANTLER",null,word,,,,, 'ANTLER',,
html-keyboard-response,427,759494,468.7550002709031,"YARD<img id = ""stim"" ><div class = green_square id = ""topsquare"" ></div><img id = ""stim"" ><div class = green_square  id = ""bottomsquare"" ></div>",32,word_square,response,1,Space,true,,,
html-keyboard-response,428,760997,null,"YARD",null,word,,,,, 'YARD',,
html-keyboard-response,429,761498,null,"BUNNY<img id = ""stim"" ><div class = red_square id = ""topsquare"" ></div><img id = ""stim"" ><div class = red_square  id = ""bottomsquare"" ></div>",null,word_square,response,0,none,true,,,
html-keyboard-response,430,763001,null,"BUNNY",null,word,,,,, 'BUNNY',,
html-keyboard-response,431,763409,407.41000045090914,"DOORBELL<img id = ""stim"" ><div class = green_square id = ""topsquare"" ></div><img id = ""stim"" ><div class = green_square  id = ""bottomsquare"" ></div>",32,word_square,response,1,Space,true,,,
html-keyboard-response,432,764910,null,"DOORBELL",null,word,,,,, 'DOORBELL',,
html-keyboard-response,433,765411,null,"PLAZA<img id = ""stim"" ><div class = red_square id = ""topsquare"" ></div><img id = ""stim"" ><div class = red_square  id = ""bottomsquare"" ></div>",null,word_square,response,0,none,true,,,
html-keyboard-response,434,766913,null,"PLAZA",null,word,,,,, 'PLAZA',,
html-keyboard-response,435,767415,null,"CASHIER<img id = ""stim"" ><div class = red_square id = ""topsquare"" ></div><img id = ""stim"" ><div class = red_square  id = ""bottomsquare"" ></div>",null,word_square,response,0,none,true,,,
html-keyboard-response,436,768918,null,"CASHIER",null,word,,,,, 'CASHIER',,
html-keyboard-response,437,769267,347.33999986201525,"LITTER<img id = ""stim"" ><div class = green_square id = ""topsquare"" ></div><img id = ""stim"" ><div class = green_square  id = ""bottomsquare"" ></div>",32,word_square,response,1,Space,true,,,
html-keyboard-response,438,770768,null,"LITTER",null,word,,,,, 'LITTER',,
html-keyboard-response,439,771208,439.1699992120266,"MARKET<img id = ""stim"" ><div class = green_square id = ""topsquare"" ></div><img id = ""stim"" ><div class = green_square  id = ""bottomsquare"" ></div>",32,word_square,response,1,Space,true,,,
html-keyboard-response,440,772710,null,"MARKET",null,word,,,,, 'MARKET',,
html-keyboard-response,441,773212,null,"BUTLER<img id = ""stim"" ><div class = red_square id = ""topsquare"" ></div><img id = ""stim"" ><div class = red_square  id = ""bottomsquare"" ></div>",null,word_square,response,0,none,true,,,
html-keyboard-response,442,774714,null,"BUTLER",null,word,,,,, 'BUTLER',,
call-function,443,774714,,"",,,,,,,,,
html-keyboard-response,444,774816,null,"",null,,,,,,,,
math-period,445,776873,3965.5899992212653,"",,,,,,,,,5
html-keyboard-response,446,776974,null,"",null,,,,,,,,
math-period,447,779547,4975.164999254048,"",,,,,,,,,4
html-keyboard-response,448,779649,null,"",null,,,,,,,,
math-period,449,785091,10730.065000243485,"",,,,,,,,,4
html-keyboard-response,450,785193,null,"",null,,,,,,,,
math-period,451,787723,4894.945000298321,"",,,,,,,,,5
html-keyboard-response,452,787825,null,"",null,,,,,,,,
math-period,453,789697,3639.4799994304776,"",,,,,,,,,5
html-keyboard-response,454,789798,null,"",null,,,,,,,,
math-period,455,791652,3648.1800004839897,"",,,,,,,,,5
html-keyboard-response,456,791755,null,"",null,,,,,,,,
math-period,457,792989,2385.8300000429153,"",,,,,,,,,5
html-keyboard-response,458,793091,null,"",null,,,,,,,,
math-period,459,796095,5903.730000369251,"",,,,,,,,,4
html-keyboard-response,460,796197,null,"",null,,,,,,,,
math-period,461,798709,4914.359998889267,"",,,,,,,,,5
html-keyboard-response,462,798815,null,"",null,,,,,,,,
math-period,463,798817,null,"",,,,,,,,,
html-keyboard-response,464,799819,null,"Recall Period!",null,,,,,,,,
call-function,465,799819,,"",,,,,,,,,
html-keyboard-response,466,799921,null,"",null,,,,,,,,
recall-period,467,801490,7161.100001074374,"",,,,,,,,,waitress
html-keyboard-response,468,801592,null,"",null,,,,,,,,
recall-period,469,803095,5612.7900024876,"",,,,,,,,,market
html-keyboard-response,470,803200,null,"",null,,,,,,,,
recall-period,471,817576,84975.98000057042,"",,,,,,,,,child
html-keyboard-response,472,817678,null,"",null,,,,,,,,
recall-period,473,820639,16086.775003001094,"",,,,,,,,,stove
html-keyboard-response,474,820741,null,"",null,,,,,,,,
recall-period,475,821889,6125.584999099374,"",,,,,,,,,hamper
html-keyboard-response,476,821991,null,"",null,,,,,,,,
recall-period,477,823779,11369.8849985376,"",,,,,,,,,cabinet
html-keyboard-response,478,823881,null,"",null,,,,,,,,
recall-period,479,824909,4870.940000750124,"",,,,,,,,,lover
html-keyboard-response,480,825011,null,"",null,,,,,,,,
recall-period,481,826363,8723.995002917945,"",,,,,,,,,brother
html-keyboard-response,482,826464,null,"",null,,,,,,,,
recall-period,483,859013,288819.5650028065,"",,,,,,,,,daughter
html-keyboard-response,484,859116,null,"",null,,,,,,,,
recall-period,485,860245,5864.909997209907,"",,,,,,,,,family
html-keyboard-response,486,860347,null,"",null,,,,,,,,
recall-period,487,874820,null,"",,,,,,,,,
html-keyboard-response,488,875321,null,"Time's Up!",null,,,,,,,,
html-keyboard-response,489,876836,1513.5449999943376,"<p> Good job! You responded correctly to 99% of the GREEN squares.</p>
                  <p>Be sure to keep your accuracy above 80%</p>
                  <p>Press any key to continue the experiment. Thank you!</p>",32,,,,,,,,
html-keyboard-response,490,877721,884.2399995774031,"<div style=""font-size:48px;"">Press any key to begin list 5 of 24 </div>",13,,,,,,,,
html-keyboard-response,491,880223,null,"<div style=""font-size:60px;"">+</div>",null,,,,,,,,
html-keyboard-response,492,880725,null,"SNAIL<img id = ""stim"" ><div class = red_square id = ""topsquare"" ></div><img id = ""stim"" ><div class = red_square  id = ""bottomsquare"" ></div>",null,word_square,response,0,none,true,,,
html-keyboard-response,493,882227,null,"SNAIL",null,word,,,,, 'SNAIL',,
html-keyboard-response,494,882729,null,"TRACTOR<img id = ""stim"" ><div class = red_square id = ""topsquare"" ></div><img id = ""stim"" ><div class = red_square  id = ""bottomsquare"" ></div>",null,word_square,response,0,none,true,,,
html-keyboard-response,495,884231,null,"TRACTOR",null,word,,,,, 'TRACTOR',,
html-keyboard-response,496,884655,423.09499997645617,"SKUNK<img id = ""stim"" ><div class = green_square id = ""topsquare"" ></div><img id = ""stim"" ><div class = green_square  id = ""bottomsquare"" ></div>",32,word_square,response,1,Space,true,,,
html-keyboard-response,497,886157,null,"SKUNK",null,word,,,,, 'SKUNK',,
html-keyboard-response,498,886659,null,"SUGAR<img id = ""stim"" ><div class = red_square id = ""topsquare"" ></div><img id = ""stim"" ><div class = red_square  id = ""bottomsquare"" ></div>",null,word_square,response,0,none,true,,,
html-keyboard-response,499,888161,null,"SUGAR",null,word,,,,, 'SUGAR',,
html-keyboard-response,500,888618,456.2550000846386,"COSTUME<img id = ""stim"" ><div class = green_square id = ""topsquare"" ></div><img id = ""stim"" ><div class = green_square  id = ""bottomsquare"" ></div>",32,word_square,response,1,Space,true,,,
html-keyboard-response,501,890119,null,"COSTUME",null,word,,,,, 'COSTUME',,
html-keyboard-response,502,890621,null,"FARMER<img id = ""stim"" ><div class = red_square id = ""topsquare"" ></div><img id = ""stim"" ><div class = red_square  id = ""bottomsquare"" ></div>",null,word_square,response,0,none,true,,,
html-keyboard-response,503,892123,null,"FARMER",null,word,,,,, 'FARMER',,
html-keyboard-response,504,892533,409.59500055760145,"JURY<img id = ""stim"" ><div class = green_square id = ""topsquare"" ></div><img id = ""stim"" ><div class = green_square  id = ""bottomsquare"" ></div>",32,word_square,response,1,Space,true,,,
html-keyboard-response,505,894035,null,"JURY",null,word,,,,, 'JURY',,
html-keyboard-response,506,894537,null,"HAWK<img id = ""stim"" ><div class = red_square id = ""topsquare"" ></div><img id = ""stim"" ><div class = red_square  id = ""bottomsquare"" ></div>",null,word_square,response,0,none,true,,,
html-keyboard-response,507,896039,null,"HAWK",null,word,,,,, 'HAWK',,
html-keyboard-response,508,896541,null,"PATROL<img id = ""stim"" ><div class = red_square id = ""topsquare"" ></div><img id = ""stim"" ><div class = red_square  id = ""bottomsquare"" ></div>",null,word_square,response,0,none,true,,,
html-keyboard-response,509,898044,null,"PATROL",null,word,,,,, 'PATROL',,
html-keyboard-response,510,898429,383.5350004956126,"POLICE<img id = ""stim"" ><div class = green_square id = ""topsquare"" ></div><img id = ""stim"" ><div class = green_square  id = ""bottomsquare"" ></div>",32,word_square,response,1,Space,true,,,
html-keyboard-response,511,899930,null,"POLICE",null,word,,,,, 'POLICE',,
html-keyboard-response,512,900432,null,"CHAPEL<img id = ""stim"" ><div class = green_square id = ""topsquare"" ></div><img id = ""stim"" ><div class = green_square  id = ""bottomsquare"" ></div>",null,word_square,response,1,Space,false,,,
html-keyboard-response,513,901933,null,"CHAPEL",null,word,,,,, 'CHAPEL',,
html-keyboard-response,514,902435,null,"DOG<img id = ""stim"" ><div class = red_square id = ""topsquare"" ></div><img id = ""stim"" ><div class = red_square  id = ""bottomsquare"" ></div>",null,word_square,response,0,none,true,,,
html-keyboard-response,515,903936,null,"DOG",null,word,,,,, 'DOG',,
html-keyboard-response,516,904225,287.9250003024936,"CAFE<img id = ""stim"" ><div class = red_square id = ""topsquare"" ></div><img id = ""stim"" ><div class = red_square  id = ""bottomsquare"" ></div>",32,word_square,response,0,none,false,,,
html-keyboard-response,517,905726,null,"CAFE",null,word,,,,, 'CAFE',,
html-keyboard-response,518,906170,443.52000020444393,"PERSON<img id = ""stim"" ><div class = green_square id = ""topsquare"" ></div><img id = ""stim"" ><div class = green_square  id = ""bottomsquare"" ></div>",32,word_square,response,1,Space,true,,,
html-keyboard-response,519,907672,null,"PERSON",null,word,,,,, 'PERSON',,
html-keyboard-response,520,908167,494.0649997442961,"TRIBE<img id = ""stim"" ><div class = green_square id = ""topsquare"" ></div><img id = ""stim"" ><div class = green_square  id = ""bottomsquare"" ></div>",32,word_square,response,1,Space,true,,,
html-keyboard-response,521,909669,null,"TRIBE",null,word,,,,, 'TRIBE',,
html-keyboard-response,522,910171,null,"NOMAD<img id = ""stim"" ><div class = red_square id = ""topsquare"" ></div><img id = ""stim"" ><div class = red_square  id = ""bottomsquare"" ></div>",null,word_square,response,0,none,true,,,
html-keyboard-response,523,911673,null,"NOMAD",null,word,,,,, 'NOMAD',,
html-keyboard-response,524,912117,443.9300000667572,"CREEK<img id = ""stim"" ><div class = green_square id = ""topsquare"" ></div><img id = ""stim"" ><div class = green_square  id = ""bottomsquare"" ></div>",32,word_square,response,1,Space,true,,,
html-keyboard-response,525,913620,null,"CREEK",null,word,,,,, 'CREEK',,
html-keyboard-response,526,914025,404.21499963849783,"TURTLE<img id = ""stim"" ><div class = green_square id = ""topsquare"" ></div><img id = ""stim"" ><div class = green_square  id = ""bottomsquare"" ></div>",32,word_square,response,1,Space,true,,,
html-keyboard-response,527,915527,null,"TURTLE",null,word,,,,, 'TURTLE',,
call-function,528,915527,,"",,,,,,,,,
html-keyboard-response,529,915629,null,"",null,,,,,,,,
math-period,530,917902,4403.449999168515,"",,,,,,,,,2
html-keyboard-response,531,918004,null,"",null,,,,,,,,
math-period,532,919708,3326.5499994158745,"",,,,,,,,,2
html-keyboard-response,533,919811,null,"",null,,,,,,,,
math-period,534,920973,2241.419999860227,"",,,,,,,,,3
html-keyboard-response,535,921075,null,"",null,,,,,,,,
math-period,536,923374,4496.760000474751,"",,,,,,,,,4
html-keyboard-response,537,923476,null,"",null,,,,,,,,
math-period,538,925056,3078.4099996089935,"",,,,,,,,,3
html-keyboard-response,539,925157,null,"",null,,,,,,,,
math-period,540,927421,4443.289999850094,"",,,,,,,,,2
html-keyboard-response,541,927523,null,"",null,,,,,,,,
math-period,542,930216,5304.9200009554625,"",,,,,,,,,2
html-keyboard-response,543,930318,null,"",null,,,,,,,,
math-period,544,931832,2906.8400003015995,"",,,,,,,,,4
html-keyboard-response,545,931935,null,"",null,,,,,,,,
math-period,546,934009,4043.460000306368,"",,,,,,,,,5
html-keyboard-response,547,934112,null,"",null,,,,,,,,
math-period,548,935502,2659.8700005561113,"",,,,,,,,,4
html-keyboard-response,549,935604,null,"",null,,,,,,,,
math-period,550,937428,3546.8949992209673,"",,,,,,,,,4
html-keyboard-response,551,937529,null,"",null,,,,,,,,
math-period,552,938958,2713.755000382662,"",,,,,,,,,6
html-keyboard-response,553,939060,null,"",null,,,,,,,,
math-period,554,939529,null,"",,,,,,,,,
html-keyboard-response,555,940530,null,"Recall Period!",null,,,,,,,,
call-function,556,940530,,"",,,,,,,,,
html-keyboard-response,557,940633,null,"",null,,,,,,,,
recall-period,558,941711,5281.535003334284,"",,,,,,,,,farmer
html-keyboard-response,559,941813,null,"",null,,,,,,,,
recall-period,560,942720,3458.9299969375134,"",,,,,,,,,creek
html-keyboard-response,561,942822,null,"",null,,,,,,,,
recall-period,562,944508,9653.729999437928,"",,,,,,,,,turtle
html-keyboard-response,563,944610,null,"",null,,,,,,,,
recall-period,564,945263,2126.795002259314,"",,,,,,,,,hawk
html-keyboard-response,565,945365,null,"",null,,,,,,,,
recall-period,566,952049,50940.03999698907,"",,,,,,,,,janitor
html-keyboard-response,567,952151,null,"",null,,,,,,,,
recall-period,568,960048,49986.34000401944,"",,,,,,,,,harbor
html-keyboard-response,569,960149,null,"",null,,,,,,,,
recall-period,570,962425,10409.429998137057,"",,,,,,,,,boat
html-keyboard-response,571,962526,null,"",null,,,,,,,,
recall-period,572,1015531,null,"",,,,,,,,,
html-keyboard-response,573,1016034,null,"Time's Up!",null,,,,,,,,
html-keyboard-response,574,1017096,1061.514999717474,"<p> Good job! You responded correctly to 97% of the GREEN squares.</p>
                  <p>Be sure to keep your accuracy above 80%</p>
                  <p>Press any key to continue the experiment. Thank you!</p>",32,,,,,,,,
html-keyboard-response,575,1017809,711.3399999216199,"<div style=""font-size:48px;"">Press any key to begin list 6 of 24 </div>",32,,,,,,,,
html-keyboard-response,576,1020310,null,"<div style=""font-size:60px;"">+</div>",null,,,,,,,,
html-keyboard-response,577,1020813,null,"PROTON<img id = ""stim"" ><div class = red_square id = ""topsquare"" ></div><img id = ""stim"" ><div class = red_square  id = ""bottomsquare"" ></div>",null,word_square,response,0,none,true,,,
html-keyboard-response,578,1022315,null,"PROTON",null,word,,,,, 'PROTON',,
html-keyboard-response,579,1022816,null,"THREAD<img id = ""stim"" ><div class = red_square id = ""topsquare"" ></div><img id = ""stim"" ><div class = red_square  id = ""bottomsquare"" ></div>",null,word_square,response,0,none,true,,,
html-keyboard-response,580,1024319,null,"THREAD",null,word,,,,, 'THREAD',,
html-keyboard-response,581,1024773,453.3449998125434,"YARN<img id = ""stim"" ><div class = green_square id = ""topsquare"" ></div><img id = ""stim"" ><div class = green_square  id = ""bottomsquare"" ></div>",32,word_square,response,1,Space,true,,,
html-keyboard-response,582,1026275,null,"YARN",null,word,,,,, 'YARN',,
html-keyboard-response,583,1026777,null,"FLASK<img id = ""stim"" ><div class = red_square id = ""topsquare"" ></div><img id = ""stim"" ><div class = red_square  id = ""bottomsquare"" ></div>",null,word_square,response,0,none,true,,,
html-keyboard-response,584,1028279,null,"FLASK",null,word,,,,, 'FLASK',,
html-keyboard-response,585,1028781,null,"FOSSIL<img id = ""stim"" ><div class = green_square id = ""topsquare"" ></div><img id = ""stim"" ><div class = green_square  id = ""bottomsquare"" ></div>",null,word_square,response,1,Space,false,,,
html-keyboard-response,586,1030283,null,"FOSSIL",null,word,,,,, 'FOSSIL',,
html-keyboard-response,587,1030785,null,"PEBBLE<img id = ""stim"" ><div class = red_square id = ""topsquare"" ></div><img id = ""stim"" ><div class = red_square  id = ""bottomsquare"" ></div>",null,word_square,response,0,none,true,,,
html-keyboard-response,588,1032287,null,"PEBBLE",null,word,,,,, 'PEBBLE',,
html-keyboard-response,589,1032702,414.2950000241399,"COOKBOOK<img id = ""stim"" ><div class = green_square id = ""topsquare"" ></div><img id = ""stim"" ><div class = green_square  id = ""bottomsquare"" ></div>",32,word_square,response,1,Space,true,,,
html-keyboard-response,590,1034206,null,"COOKBOOK",null,word,,,,, 'COOKBOOK',,
html-keyboard-response,591,1034708,null,"RAILROAD<img id = ""stim"" ><div class = red_square id = ""topsquare"" ></div><img id = ""stim"" ><div class = red_square  id = ""bottomsquare"" ></div>",null,word_square,response,0,none,true,,,
html-keyboard-response,592,1036210,null,"RAILROAD",null,word,,,,, 'RAILROAD',,
html-keyboard-response,593,1036712,null,"FLESH<img id = ""stim"" ><div class = red_square id = ""topsquare"" ></div><img id = ""stim"" ><div class = red_square  id = ""bottomsquare"" ></div>",null,word_square,response,0,none,true,,,
html-keyboard-response,594,1038214,null,"FLESH",null,word,,,,, 'FLESH',,
html-keyboard-response,595,1038606,391.3050005212426,"WINDSHIELD<img id = ""stim"" ><div class = green_square id = ""topsquare"" ></div><img id = ""stim"" ><div class = green_square  id = ""bottomsquare"" ></div>",32,word_square,response,1,Space,true,,,
html-keyboard-response,596,1040108,null,"WINDSHIELD",null,word,,,,, 'WINDSHIELD',,
html-keyboard-response,597,1040553,444.4650001823902,"SAUSAGE<img id = ""stim"" ><div class = green_square id = ""topsquare"" ></div><img id = ""stim"" ><div class = green_square  id = ""bottomsquare"" ></div>",32,word_square,response,1,Space,true,,,
html-keyboard-response,598,1042055,null,"SAUSAGE",null,word,,,,, 'SAUSAGE',,
html-keyboard-response,599,1042557,null,"ADULT<img id = ""stim"" ><div class = red_square id = ""topsquare"" ></div><img id = ""stim"" ><div class = red_square  id = ""bottomsquare"" ></div>",null,word_square,response,0,none,true,,,
html-keyboard-response,600,1044058,null,"ADULT",null,word,,,,, 'ADULT',,
html-keyboard-response,601,1044561,null,"GHETTO<img id = ""stim"" ><div class = red_square id = ""topsquare"" ></div><img id = ""stim"" ><div class = red_square  id = ""bottomsquare"" ></div>",null,word_square,response,0,none,true,,,
html-keyboard-response,602,1046062,null,"GHETTO",null,word,,,,, 'GHETTO',,
html-keyboard-response,603,1046454,391.5450004860759,"HOOD<img id = ""stim"" ><div class = green_square id = ""topsquare"" ></div><img id = ""stim"" ><div class = green_square  id = ""bottomsquare"" ></div>",32,word_square,response,1,Space,true,,,
html-keyboard-response,604,1047956,null,"HOOD",null,word,,,,, 'HOOD',,
html-keyboard-response,605,1048404,447.1699995920062,"THIMBLE<img id = ""stim"" ><div class = green_square id = ""topsquare"" ></div><img id = ""stim"" ><div class = green_square  id = ""bottomsquare"" ></div>",32,word_square,response,1,Space,true,,,
html-keyboard-response,606,1049906,null,"THIMBLE",null,word,,,,, 'THIMBLE',,
html-keyboard-response,607,1050408,null,"STONE<img id = ""stim"" ><div class = red_square id = ""topsquare"" ></div><img id = ""stim"" ><div class = red_square  id = ""bottomsquare"" ></div>",null,word_square,response,0,none,true,,,
html-keyboard-response,608,1051911,null,"STONE",null,word,,,,, 'STONE',,
html-keyboard-response,609,1052287,375.54999999701977,"COBWEB<img id = ""stim"" ><div class = green_square id = ""topsquare"" ></div><img id = ""stim"" ><div class = green_square  id = ""bottomsquare"" ></div>",32,word_square,response,1,Space,true,,,
html-keyboard-response,610,1053789,null,"COBWEB",null,word,,,,, 'COBWEB',,
html-keyboard-response,611,1054163,372.47500009834766,"FARM<img id = ""stim"" ><div class = green_square id = ""topsquare"" ></div><img id = ""stim"" ><div class = green_square  id = ""bottomsquare"" ></div>",32,word_square,response,1,Space,true,,,
html-keyboard-response,612,1055665,null,"FARM",null,word,,,,, 'FARM',,
call-function,613,1055666,,"",,,,,,,,,
html-keyboard-response,614,1055768,null,"",null,,,,,,,,
math-period,615,1057364,3111.685000360012,"",,,,,,,,,4
html-keyboard-response,616,1057466,null,"",null,,,,,,,,
math-period,617,1061550,8085.479999892414,"",,,,,,,,,4
html-keyboard-response,618,1061653,null,"",null,,,,,,,,
math-period,619,1062588,1785.505000501871,"",,,,,,,,,3
html-keyboard-response,620,1062689,null,"",null,,,,,,,,
math-period,621,1064630,3799.8150000348687,"",,,,,,,,,3
html-keyboard-response,622,1064732,null,"",null,,,,,,,,
math-period,623,1066026,2445.8049992099404,"",,,,,,,,,3
html-keyboard-response,624,1066128,null,"",null,,,,,,,,
math-period,625,1068626,4913.654998876154,"",,,,,,,,,3
html-keyboard-response,626,1068728,null,"",null,,,,,,,,
math-period,627,1069906,2275.0149983912706,"",,,,,,,,,2
html-keyboard-response,628,1070008,null,"",null,,,,,,,,
math-period,629,1071720,3340.289999730885,"",,,,,,,,,2
html-keyboard-response,630,1071822,null,"",null,,,,,,,,
math-period,631,1072740,1777.5799985975027,"",,,,,,,,,3
html-keyboard-response,632,1072841,null,"",null,,,,,,,,
math-period,633,1074646,3528.4100007265806,"",,,,,,,,,4
html-keyboard-response,634,1074747,null,"",null,,,,,,,,
math-period,635,1075862,2105.5300012230873,"",,,,,,,,,5
html-keyboard-response,636,1075965,null,"",null,,,,,,,,
math-period,637,1076948,1882.5700003653765,"",,,,,,,,,3
html-keyboard-response,638,1077050,null,"",null,,,,,,,,
math-period,639,1078428,2655.094999819994,"",,,,,,,,,5
html-keyboard-response,640,1078531,null,"",null,,,,,,,,
math-period,641,1079578,2033.2049997523427,"",,,,,,,,,5
html-keyboard-response,642,1079679,null,"",null,,,,,,,,
math-period,643,1079681,null,"",,,,,,,,,
html-keyboard-response,644,1080683,null,"Recall Period!",null,,,,,,,,
call-function,645,1080683,,"",,,,,,,,,
html-keyboard-response,646,1080784,null,"",null,,,,,,,,
recall-period,647,1082249,8511.854999698699,"",,,,,,,,,farmer
html-keyboard-response,648,1082351,null,"",null,,,,,,,,
recall-period,649,1083204,2341.6249994188547,"",,,,,,,,,farm
html-keyboard-response,650,1083306,null,"",null,,,,,,,,
recall-period,651,1084870,10690.5099991709,"",,,,,,,,,windshield
html-keyboard-response,652,1084972,null,"",null,,,,,,,,
recall-period,653,1085798,2920.2000023797154,"",,,,,,,,,hood
html-keyboard-response,654,1085900,null,"",null,,,,,,,,
recall-period,655,1090130,31106.734996661544,"",,,,,,,,,scraper
html-keyboard-response,656,1090232,null,"",null,,,,,,,,
recall-period,657,1097661,62296.33499775082,"",,,,,,,,,railroad
html-keyboard-response,658,1097762,null,"",null,,,,,,,,
recall-period,659,1098903,4943.585000932217,"",,,,,,,,,human
html-keyboard-response,660,1099005,null,"",null,,,,,,,,
recall-period,661,1099587,1779.089999385178,"",,,,,,,,,car
html-keyboard-response,662,1099688,null,"",null,,,,,,,,
recall-period,663,1130889,185611.3350028172,"",,,,,,,,,dream
html-keyboard-response,664,1130991,null,"",null,,,,,,,,
recall-period,665,1132259,4525.1699993386865,"",,,,,,,,,sea
html-keyboard-response,666,1132362,null,"",null,,,,,,,,
recall-period,667,1155685,null,"",,,,,,,,,
html-keyboard-response,668,1156187,null,"Time's Up!",null,,,,,,,,
html-keyboard-response,669,1157339,1150.620000436902,"<p> Good job! You responded correctly to 97% of the GREEN squares.</p>
                  <p>Be sure to keep your accuracy above 80%</p>
                  <p>Press any key to continue the experiment. Thank you!</p>",32,,,,,,,,
html-keyboard-response,670,1158295,955.6500008329749,"<div style=""font-size:48px;"">Press any key to begin list 7 of 24 </div>",32,,,,,,,,
html-keyboard-response,671,1160798,null,"<div style=""font-size:60px;"">+</div>",null,,,,,,,,
html-keyboard-response,672,1161239,439.7849999368191,"VILLAIN<img id = ""stim"" ><div class = green_square id = ""topsquare"" ></div><img id = ""stim"" ><div class = green_square  id = ""bottomsquare"" ></div>",32,word_square,response,1,Space,true,,,
html-keyboard-response,673,1162740,null,"VILLAIN",null,word,,,,, 'VILLAIN',,
html-keyboard-response,674,1163185,443.9300000667572,"BRIDE<img id = ""stim"" ><div class = green_square id = ""topsquare"" ></div><img id = ""stim"" ><div class = green_square  id = ""bottomsquare"" ></div>",32,word_square,response,1,Space,true,,,
html-keyboard-response,675,1164687,null,"BRIDE",null,word,,,,, 'BRIDE',,
html-keyboard-response,676,1165189,null,"COOKIE<img id = ""stim"" ><div class = red_square id = ""topsquare"" ></div><img id = ""stim"" ><div class = red_square  id = ""bottomsquare"" ></div>",null,word_square,response,0,none,true,,,
html-keyboard-response,677,1166690,null,"COOKIE",null,word,,,,, 'COOKIE',,
html-keyboard-response,678,1167096,404.7699999064207,"CHICKEN<img id = ""stim"" ><div class = green_square id = ""topsquare"" ></div><img id = ""stim"" ><div class = green_square  id = ""bottomsquare"" ></div>",32,word_square,response,1,Space,true,,,
html-keyboard-response,679,1168598,null,"CHICKEN",null,word,,,,, 'CHICKEN',,
html-keyboard-response,680,1169101,null,"BARREL<img id = ""stim"" ><div class = red_square id = ""topsquare"" ></div><img id = ""stim"" ><div class = red_square  id = ""bottomsquare"" ></div>",null,word_square,response,0,none,true,,,
html-keyboard-response,681,1170604,null,"BARREL",null,word,,,,, 'BARREL',,
html-keyboard-response,682,1170963,357.6899999752641,"CRUTCH<img id = ""stim"" ><div class = green_square id = ""topsquare"" ></div><img id = ""stim"" ><div class = green_square  id = ""bottomsquare"" ></div>",32,word_square,response,1,Space,true,,,
html-keyboard-response,683,1172465,null,"CRUTCH",null,word,,,,, 'CRUTCH',,
html-keyboard-response,684,1172968,null,"FOOT<img id = ""stim"" ><div class = red_square id = ""topsquare"" ></div><img id = ""stim"" ><div class = red_square  id = ""bottomsquare"" ></div>",null,word_square,response,0,none,true,,,
html-keyboard-response,685,1174470,null,"FOOT",null,word,,,,, 'FOOT',,
html-keyboard-response,686,1174901,430.04999961704016,"BUCKLE<img id = ""stim"" ><div class = green_square id = ""topsquare"" ></div><img id = ""stim"" ><div class = green_square  id = ""bottomsquare"" ></div>",32,word_square,response,1,Space,true,,,
html-keyboard-response,687,1176404,null,"BUCKLE",null,word,,,,, 'BUCKLE',,
html-keyboard-response,688,1176815,409.3599999323487,"PORPOISE<img id = ""stim"" ><div class = green_square id = ""topsquare"" ></div><img id = ""stim"" ><div class = green_square  id = ""bottomsquare"" ></div>",32,word_square,response,1,Space,true,,,
html-keyboard-response,689,1178317,null,"PORPOISE",null,word,,,,, 'PORPOISE',,
html-keyboard-response,690,1178821,null,"GUITAR<img id = ""stim"" ><div class = red_square id = ""topsquare"" ></div><img id = ""stim"" ><div class = red_square  id = ""bottomsquare"" ></div>",null,word_square,response,0,none,true,,,
html-keyboard-response,691,1180322,null,"GUITAR",null,word,,,,, 'GUITAR',,
html-keyboard-response,692,1180823,null,"SHELTER<img id = ""stim"" ><div class = red_square id = ""topsquare"" ></div><img id = ""stim"" ><div class = red_square  id = ""bottomsquare"" ></div>",null,word_square,response,0,none,true,,,
html-keyboard-response,693,1182326,null,"SHELTER",null,word,,,,, 'SHELTER',,
html-keyboard-response,694,1182700,373.5750000923872,"KLEENEX<img id = ""stim"" ><div class = green_square id = ""topsquare"" ></div><img id = ""stim"" ><div class = green_square  id = ""bottomsquare"" ></div>",32,word_square,response,1,Space,true,,,
html-keyboard-response,695,1184202,null,"KLEENEX",null,word,,,,, 'KLEENEX',,
html-keyboard-response,696,1184623,419.2850003018975,"CATCHER<img id = ""stim"" ><div class = green_square id = ""topsquare"" ></div><img id = ""stim"" ><div class = green_square  id = ""bottomsquare"" ></div>",32,word_square,response,1,Space,true,,,
html-keyboard-response,697,1186124,null,"CATCHER",null,word,,,,, 'CATCHER',,
html-keyboard-response,698,1186627,null,"SURGEON<img id = ""stim"" ><div class = red_square id = ""topsquare"" ></div><img id = ""stim"" ><div class = red_square  id = ""bottomsquare"" ></div>",null,word_square,response,0,none,true,,,
html-keyboard-response,699,1188128,null,"SURGEON",null,word,,,,, 'SURGEON',,
html-keyboard-response,700,1188630,null,"WHISTLE<img id = ""stim"" ><div class = red_square id = ""topsquare"" ></div><img id = ""stim"" ><div class = red_square  id = ""bottomsquare"" ></div>",null,word_square,response,0,none,true,,,
html-keyboard-response,701,1190131,null,"WHISTLE",null,word,,,,, 'WHISTLE',,
html-keyboard-response,702,1190461,328.4650007262826,"DRAWER<img id = ""stim"" ><div class = green_square id = ""topsquare"" ></div><img id = ""stim"" ><div class = green_square  id = ""bottomsquare"" ></div>",32,word_square,response,1,Space,true,,,
html-keyboard-response,703,1191962,null,"DRAWER",null,word,,,,, 'DRAWER',,
html-keyboard-response,704,1192464,null,"HONEY<img id = ""stim"" ><div class = red_square id = ""topsquare"" ></div><img id = ""stim"" ><div class = red_square  id = ""bottomsquare"" ></div>",null,word_square,response,0,none,true,,,
html-keyboard-response,705,1193967,null,"HONEY",null,word,,,,, 'HONEY',,
html-keyboard-response,706,1194469,null,"MUSTARD<img id = ""stim"" ><div class = red_square id = ""topsquare"" ></div><img id = ""stim"" ><div class = red_square  id = ""bottomsquare"" ></div>",null,word_square,response,0,none,true,,,
html-keyboard-response,707,1195971,null,"MUSTARD",null,word,,,,, 'MUSTARD',,
call-function,708,1195972,,"",,,,,,,,,
html-keyboard-response,709,1196073,null,"",null,,,,,,,,
math-period,710,1197951,3636.0799996182323,"",,,,,,,,,4
html-keyboard-response,711,1198053,null,"",null,,,,,,,,
math-period,712,1199571,2935.599999502301,"",,,,,,,,,3
html-keyboard-response,713,1199673,null,"",null,,,,,,,,
math-period,714,1202053,4637.199999764562,"",,,,,,,,,4
html-keyboard-response,715,1202155,null,"",null,,,,,,,,
math-period,716,1203771,3148.5699992626905,"",,,,,,,,,3
html-keyboard-response,717,1203872,null,"",null,,,,,,,,
math-period,718,1205729,3630.255000665784,"",,,,,,,,,5
html-keyboard-response,719,1205830,null,"",null,,,,,,,,
math-period,720,1207531,3300.2249989658594,"",,,,,,,,,3
html-keyboard-response,721,1207634,null,"",null,,,,,,,,
math-period,722,1209383,3034.2400008812547,"",,,,,,,,,6
html-keyboard-response,723,1209485,null,"",null,,,,,,,,
math-period,724,1210471,1869.5299988612533,"",,,,,,,,,3
html-keyboard-response,725,1210573,null,"",null,,,,,,,,
math-period,726,1212495,3626.600000075996,"",,,,,,,,,5
html-keyboard-response,727,1212596,null,"",null,,,,,,,,
math-period,728,1213561,1826.7900003120303,"",,,,,,,,,3
html-keyboard-response,729,1213663,null,"",null,,,,,,,,
math-period,730,1216125,4821.94499950856,"",,,,,,,,,2
html-keyboard-response,731,1216226,null,"",null,,,,,,,,
math-period,732,1218289,4021.6350005939603,"",,,,,,,,,3
html-keyboard-response,733,1218390,null,"",null,,,,,,,,
math-period,734,1219973,null,"",,,,,,,,,
html-keyboard-response,735,1220977,null,"Recall Period!",null,,,,,,,,
call-function,736,1220977,,"",,,,,,,,,
html-keyboard-response,737,1221079,null,"",null,,,,,,,,
recall-period,738,1222568,6853.869997896254,"",,,,,,,,,bride
html-keyboard-response,739,1222670,null,"",null,,,,,,,,
recall-period,740,1226183,26590.740006417036,"",,,,,,,,,villain
html-keyboard-response,741,1226286,null,"",null,,,,,,,,
recall-period,742,1230081,21456.7650007084,"",,,,,,,,,lover
html-keyboard-response,743,1230183,null,"",null,,,,,,,,
recall-period,744,1233569,15388.065000995994,"",,,,,,,,,warp
html-keyboard-response,745,1233671,null,"",null,,,,,,,,
recall-period,746,1236999,18778.094998560846,"",,,,,,,,,route
html-keyboard-response,747,1237101,null,"",null,,,,,,,,
recall-period,748,1238709,9279.160000383854,"",,,,,,,,,bridge
html-keyboard-response,749,1238810,null,"",null,,,,,,,,
recall-period,750,1242063,15037.28000074625,"",,,,,,,,,pool
html-keyboard-response,751,1242165,null,"",null,,,,,,,,
recall-period,752,1278524,144667.1099998057,"",,,,,,,,,cow
html-keyboard-response,753,1278626,null,"",null,,,,,,,,
recall-period,754,1280356,8906.969998031855,"",,,,,,,,,clasp
html-keyboard-response,755,1280458,null,"",null,,,,,,,,
recall-period,756,1295978,null,"",,,,,,,,,
html-keyboard-response,757,1296481,null,"Time's Up!",null,,,,,,,,
html-keyboard-response,758,1297836,1354.1799997910857,"<p> Good job! You responded correctly to 97% of the GREEN squares.</p>
                  <p>Be sure to keep your accuracy above 80%</p>
                  <p>Press any key to continue the experiment. Thank you!</p>",32,,,,,,,,
html-keyboard-response,759,1298442,605.3700000047684,"<div style=""font-size:48px;"">Press any key to begin list 8 of 24 </div>",32,,,,,,,,
html-keyboard-response,760,1300944,null,"<div style=""font-size:60px;"">+</div>",null,,,,,,,,
html-keyboard-response,761,1301446,null,"BELT<img id = ""stim"" ><div class = green_square id = ""topsquare"" ></div><img id = ""stim"" ><div class = green_square  id = ""bottomsquare"" ></div>",null,word_square,response,1,Space,false,,,
html-keyboard-response,762,1302947,null,"BELT",null,word,,,,, 'BELT',,
html-keyboard-response,763,1303356,407.77499973773956,"PREACHER<img id = ""stim"" ><div class = green_square id = ""topsquare"" ></div><img id = ""stim"" ><div class = green_square  id = ""bottomsquare"" ></div>",32,word_square,response,1,Space,true,,,
html-keyboard-response,764,1304858,null,"PREACHER",null,word,,,,, 'PREACHER',,
html-keyboard-response,765,1305360,null,"IDOL<img id = ""stim"" ><div class = red_square id = ""topsquare"" ></div><img id = ""stim"" ><div class = red_square  id = ""bottomsquare"" ></div>",null,word_square,response,0,none,true,,,
html-keyboard-response,766,1306862,null,"IDOL",null,word,,,,, 'IDOL',,
html-keyboard-response,767,1307233,370.690000243485,"SOCKET<img id = ""stim"" ><div class = green_square id = ""topsquare"" ></div><img id = ""stim"" ><div class = green_square  id = ""bottomsquare"" ></div>",32,word_square,response,1,Space,true,,,
html-keyboard-response,768,1308735,null,"SOCKET",null,word,,,,, 'SOCKET',,
html-keyboard-response,769,1309238,null,"DIVER<img id = ""stim"" ><div class = red_square id = ""topsquare"" ></div><img id = ""stim"" ><div class = red_square  id = ""bottomsquare"" ></div>",null,word_square,response,0,none,true,,,
html-keyboard-response,770,1310740,null,"DIVER",null,word,,,,, 'DIVER',,
html-keyboard-response,771,1311108,366.8700000271201,"WINDOW<img id = ""stim"" ><div class = green_square id = ""topsquare"" ></div><img id = ""stim"" ><div class = green_square  id = ""bottomsquare"" ></div>",32,word_square,response,1,Space,true,,,
html-keyboard-response,772,1312610,null,"WINDOW",null,word,,,,, 'WINDOW',,
html-keyboard-response,773,1313111,null,"MARINE<img id = ""stim"" ><div class = red_square id = ""topsquare"" ></div><img id = ""stim"" ><div class = red_square  id = ""bottomsquare"" ></div>",null,word_square,response,0,none,true,,,
html-keyboard-response,774,1314612,null,"MARINE",null,word,,,,, 'MARINE',,
html-keyboard-response,775,1315060,447.3349992185831,"ATTIC<img id = ""stim"" ><div class = green_square id = ""topsquare"" ></div><img id = ""stim"" ><div class = green_square  id = ""bottomsquare"" ></div>",32,word_square,response,1,Space,true,,,
html-keyboard-response,776,1316562,null,"ATTIC",null,word,,,,, 'ATTIC',,
html-keyboard-response,777,1316974,411.74499969929457,"SALESMAN<img id = ""stim"" ><div class = green_square id = ""topsquare"" ></div><img id = ""stim"" ><div class = green_square  id = ""bottomsquare"" ></div>",32,word_square,response,1,Space,true,,,
html-keyboard-response,778,1318476,null,"SALESMAN",null,word,,,,, 'SALESMAN',,
html-keyboard-response,779,1318978,null,"STREAM<img id = ""stim"" ><div class = red_square id = ""topsquare"" ></div><img id = ""stim"" ><div class = red_square  id = ""bottomsquare"" ></div>",null,word_square,response,0,none,true,,,
html-keyboard-response,780,1320480,null,"STREAM",null,word,,,,, 'STREAM',,
html-keyboard-response,781,1320982,null,"HAMMER<img id = ""stim"" ><div class = red_square id = ""topsquare"" ></div><img id = ""stim"" ><div class = red_square  id = ""bottomsquare"" ></div>",null,word_square,response,0,none,true,,,
html-keyboard-response,782,1322484,null,"HAMMER",null,word,,,,, 'HAMMER',,
html-keyboard-response,783,1322857,371.77000008523464,"TUTU<img id = ""stim"" ><div class = green_square id = ""topsquare"" ></div><img id = ""stim"" ><div class = green_square  id = ""bottomsquare"" ></div>",32,word_square,response,1,Space,true,,,
html-keyboard-response,784,1324359,null,"TUTU",null,word,,,,, 'TUTU',,
html-keyboard-response,785,1324796,435.66500023007393,"XEROX<img id = ""stim"" ><div class = green_square id = ""topsquare"" ></div><img id = ""stim"" ><div class = green_square  id = ""bottomsquare"" ></div>",32,word_square,response,1,Space,true,,,
html-keyboard-response,786,1326298,null,"XEROX",null,word,,,,, 'XEROX',,
html-keyboard-response,787,1326801,null,"WRENCH<img id = ""stim"" ><div class = red_square id = ""topsquare"" ></div><img id = ""stim"" ><div class = red_square  id = ""bottomsquare"" ></div>",null,word_square,response,0,none,true,,,
html-keyboard-response,788,1328303,null,"WRENCH",null,word,,,,, 'WRENCH',,
html-keyboard-response,789,1328805,null,"HATCHET<img id = ""stim"" ><div class = red_square id = ""topsquare"" ></div><img id = ""stim"" ><div class = red_square  id = ""bottomsquare"" ></div>",null,word_square,response,0,none,true,,,
html-keyboard-response,790,1330307,null,"HATCHET",null,word,,,,, 'HATCHET',,
html-keyboard-response,791,1330684,375.75000058859587,"STRANGER<img id = ""stim"" ><div class = green_square id = ""topsquare"" ></div><img id = ""stim"" ><div class = green_square  id = ""bottomsquare"" ></div>",32,word_square,response,1,Space,true,,,
html-keyboard-response,792,1332185,null,"STRANGER",null,word,,,,, 'STRANGER',,
html-keyboard-response,793,1332687,null,"GLASS<img id = ""stim"" ><div class = red_square id = ""topsquare"" ></div><img id = ""stim"" ><div class = red_square  id = ""bottomsquare"" ></div>",null,word_square,response,0,none,true,,,
html-keyboard-response,794,1334191,null,"GLASS",null,word,,,,, 'GLASS',,
html-keyboard-response,795,1334693,null,"BLUEPRINT<img id = ""stim"" ><div class = red_square id = ""topsquare"" ></div><img id = ""stim"" ><div class = red_square  id = ""bottomsquare"" ></div>",null,word_square,response,0,none,true,,,
html-keyboard-response,796,1336198,null,"BLUEPRINT",null,word,,,,, 'BLUEPRINT',,
call-function,797,1336202,,"",,,,,,,,,
html-keyboard-response,798,1336305,null,"",null,,,,,,,,
math-period,799,1338085,3438.2800003513694,"",,,,,,,,,2
html-keyboard-response,800,1338186,null,"",null,,,,,,,,
math-period,801,1339021,1567.514999769628,"",,,,,,,,,3
html-keyboard-response,802,1339124,null,"",null,,,,,,,,
math-period,803,1341291,4245.2400010079145,"",,,,,,,,,4
html-keyboard-response,804,1341394,null,"",null,,,,,,,,
math-period,805,1342607,2285.3050008416176,"",,,,,,,,,6
html-keyboard-response,806,1342708,null,"",null,,,,,,,,
math-period,807,1344087,2673.0150002986193,"",,,,,,,,,3
html-keyboard-response,808,1344190,null,"",null,,,,,,,,
math-period,809,1346155,2997.1600007265806,"",,,,,,,,,3
html-keyboard-response,810,1346257,null,"",null,,,,,,,,
math-period,811,1347499,2321.419999934733,"",,,,,,,,,6
html-keyboard-response,812,1347601,null,"",null,,,,,,,,
math-period,813,1349111,2899.100000038743,"",,,,,,,,,4
html-keyboard-response,814,1349216,null,"",null,,,,,,,,
math-period,815,1351299,4084.445000626147,"",,,,,,,,,3
html-keyboard-response,816,1351402,null,"",null,,,,,,,,
math-period,817,1352543,2161.229998804629,"",,,,,,,,,4
html-keyboard-response,818,1352646,null,"",null,,,,,,,,
math-period,819,1353673,1971.0799995809793,"",,,,,,,,,5
html-keyboard-response,820,1353774,null,"",null,,,,,,,,
math-period,821,1355179,2728.3250000327826,"",,,,,,,,,2
html-keyboard-response,822,1355281,null,"",null,,,,,,,,
math-period,823,1356437,2112.2050005942583,"",,,,,,,,,6
html-keyboard-response,824,1356540,null,"",null,,,,,,,,
math-period,825,1357583,1943.0600004270673,"",,,,,,,,,4
html-keyboard-response,826,1357687,null,"",null,,,,,,,,
math-period,827,1359401,3308.550000190735,"",,,,,,,,,4
html-keyboard-response,828,1359503,null,"",null,,,,,,,,
math-period,829,1360203,null,"",,,,,,,,,
html-keyboard-response,830,1361205,null,"Recall Period!",null,,,,,,,,
call-function,831,1361206,,"",,,,,,,,,
html-keyboard-response,832,1361308,null,"",null,,,,,,,,
recall-period,833,1362093,2677.794998511672,"",,,,,,,,,tutu
html-keyboard-response,834,1362196,null,"",null,,,,,,,,
recall-period,835,1367437,29429.844999685884,"",,,,,,,,,stone
html-keyboard-response,836,1367540,null,"",null,,,,,,,,
recall-period,837,1371345,27526.259997859597,"",,,,,,,,,crystal
html-keyboard-response,838,1371447,null,"",null,,,,,,,,
recall-period,839,1372067,2018.2299986481667,"",,,,,,,,,fish
html-keyboard-response,840,1372168,null,"",null,,,,,,,,
recall-period,841,1376525,28957.794999703765,"",,,,,,,,,flower
html-keyboard-response,842,1376627,null,"",null,,,,,,,,
recall-period,843,1377271,2408.6749982088804,"",,,,,,,,,rose
html-keyboard-response,844,1377372,null,"",null,,,,,,,,
recall-period,845,1393118,194615.75499922037,"",,,,,,,,,lavendar
html-keyboard-response,846,1393220,null,"",null,,,,,,,,
recall-period,847,1394989,9266.960001550615,"",,,,,,,,,regal
html-keyboard-response,848,1395091,null,"",null,,,,,,,,
recall-period,849,1436208,null,"",,,,,,,,,
html-keyboard-response,850,1436710,null,"Time's Up!",null,,,,,,,,
html-keyboard-response,851,1438493,1781.924999319017,"<p> Good job! You responded correctly to 97% of the GREEN squares.</p>
                  <p>Be sure to keep your accuracy above 80%</p>
                  <p>Press any key to continue the experiment. Thank you!</p>",32,,,,,,,,
html-keyboard-response,852,1441960,3465.830000117421,"<div style=""font-size:48px;"">Press any key to begin list 9 of 24 </div>",32,,,,,,,,
html-keyboard-response,853,1444463,null,"<div style=""font-size:60px;"">+</div>",null,,,,,,,,
html-keyboard-response,854,1444965,null,"SERVER<img id = ""stim"" ><div class = red_square id = ""topsquare"" ></div><img id = ""stim"" ><div class = red_square  id = ""bottomsquare"" ></div>",null,word_square,response,0,none,true,,,
html-keyboard-response,855,1446467,null,"SERVER",null,word,,,,, 'SERVER',,
html-keyboard-response,856,1446968,null,"CLIPPERS<img id = ""stim"" ><div class = red_square id = ""topsquare"" ></div><img id = ""stim"" ><div class = red_square  id = ""bottomsquare"" ></div>",null,word_square,response,0,none,true,,,
html-keyboard-response,857,1448470,null,"CLIPPERS",null,word,,,,, 'CLIPPERS',,
html-keyboard-response,858,1448888,417.47500002384186,"BATHROOM<img id = ""stim"" ><div class = green_square id = ""topsquare"" ></div><img id = ""stim"" ><div class = green_square  id = ""bottomsquare"" ></div>",32,word_square,response,1,Space,true,,,
html-keyboard-response,859,1450391,null,"BATHROOM",null,word,,,,, 'BATHROOM',,
html-keyboard-response,860,1450892,null,"CLAM<img id = ""stim"" ><div class = red_square id = ""topsquare"" ></div><img id = ""stim"" ><div class = red_square  id = ""bottomsquare"" ></div>",null,word_square,response,0,none,true,,,
html-keyboard-response,861,1452394,null,"CLAM",null,word,,,,, 'CLAM',,
html-keyboard-response,862,1452773,378.3550001680851,"SLOPE<img id = ""stim"" ><div class = green_square id = ""topsquare"" ></div><img id = ""stim"" ><div class = green_square  id = ""bottomsquare"" ></div>",32,word_square,response,1,Space,true,,,
html-keyboard-response,863,1454274,null,"SLOPE",null,word,,,,, 'SLOPE',,
html-keyboard-response,864,1454776,null,"SUMMIT<img id = ""stim"" ><div class = red_square id = ""topsquare"" ></div><img id = ""stim"" ><div class = red_square  id = ""bottomsquare"" ></div>",null,word_square,response,0,none,true,,,
html-keyboard-response,865,1456278,null,"SUMMIT",null,word,,,,, 'SUMMIT',,
html-keyboard-response,866,1456780,null,"SNOB<img id = ""stim"" ><div class = red_square id = ""topsquare"" ></div><img id = ""stim"" ><div class = red_square  id = ""bottomsquare"" ></div>",null,word_square,response,0,none,true,,,
html-keyboard-response,867,1458283,null,"SNOB",null,word,,,,, 'SNOB',,
html-keyboard-response,868,1458665,380.59499952942133,"CABOOSE<img id = ""stim"" ><div class = green_square id = ""topsquare"" ></div><img id = ""stim"" ><div class = green_square  id = ""bottomsquare"" ></div>",32,word_square,response,1,Space,true,,,
html-keyboard-response,869,1460167,null,"CABOOSE",null,word,,,,, 'CABOOSE',,
html-keyboard-response,870,1460582,414.6450003609061,"PISTON<img id = ""stim"" ><div class = green_square id = ""topsquare"" ></div><img id = ""stim"" ><div class = green_square  id = ""bottomsquare"" ></div>",32,word_square,response,1,Space,true,,,
html-keyboard-response,871,1462085,null,"PISTON",null,word,,,,, 'PISTON',,
html-keyboard-response,872,1462587,null,"CAPE<img id = ""stim"" ><div class = red_square id = ""topsquare"" ></div><img id = ""stim"" ><div class = red_square  id = ""bottomsquare"" ></div>",null,word_square,response,0,none,true,,,
html-keyboard-response,873,1464089,null,"CAPE",null,word,,,,, 'CAPE',,
html-keyboard-response,874,1464420,329.2349996045232,"OFFICE<img id = ""stim"" ><div class = green_square id = ""topsquare"" ></div><img id = ""stim"" ><div class = green_square  id = ""bottomsquare"" ></div>",32,word_square,response,1,Space,true,,,
html-keyboard-response,875,1465922,null,"OFFICE",null,word,,,,, 'OFFICE',,
html-keyboard-response,876,1466276,353.3600000664592,"ROBOT<img id = ""stim"" ><div class = green_square id = ""topsquare"" ></div><img id = ""stim"" ><div class = green_square  id = ""bottomsquare"" ></div>",32,word_square,response,1,Space,true,,,
html-keyboard-response,877,1467777,null,"ROBOT",null,word,,,,, 'ROBOT',,
html-keyboard-response,878,1468130,352.11999993771315,"DART<img id = ""stim"" ><div class = green_square id = ""topsquare"" ></div><img id = ""stim"" ><div class = green_square  id = ""bottomsquare"" ></div>",32,word_square,response,1,Space,true,,,
html-keyboard-response,879,1469632,null,"DART",null,word,,,,, 'DART',,
html-keyboard-response,880,1470133,null,"WAITER<img id = ""stim"" ><div class = red_square id = ""topsquare"" ></div><img id = ""stim"" ><div class = red_square  id = ""bottomsquare"" ></div>",null,word_square,response,0,none,true,,,
html-keyboard-response,881,1471636,null,"WAITER",null,word,,,,, 'WAITER',,
html-keyboard-response,882,1472032,393.1700000539422,"SHEARS<img id = ""stim"" ><div class = green_square id = ""topsquare"" ></div><img id = ""stim"" ><div class = green_square  id = ""bottomsquare"" ></div>",32,word_square,response,1,Space,true,,,
html-keyboard-response,883,1473533,null,"SHEARS",null,word,,,,, 'SHEARS',,
html-keyboard-response,884,1474036,null,"TAVERN<img id = ""stim"" ><div class = red_square id = ""topsquare"" ></div><img id = ""stim"" ><div class = red_square  id = ""bottomsquare"" ></div>",null,word_square,response,0,none,true,,,
html-keyboard-response,885,1475537,null,"TAVERN",null,word,,,,, 'TAVERN',,
html-keyboard-response,886,1476039,null,"CRAB<img id = ""stim"" ><div class = red_square id = ""topsquare"" ></div><img id = ""stim"" ><div class = red_square  id = ""bottomsquare"" ></div>",null,word_square,response,0,none,true,,,
html-keyboard-response,887,1477540,null,"CRAB",null,word,,,,, 'CRAB',,
html-keyboard-response,888,1477921,379.82000038027763,"FLEET<img id = ""stim"" ><div class = green_square id = ""topsquare"" ></div><img id = ""stim"" ><div class = green_square  id = ""bottomsquare"" ></div>",32,word_square,response,1,Space,true,,,
html-keyboard-response,889,1479423,null,"FLEET",null,word,,,,, 'FLEET',,
call-function,890,1479425,,"",,,,,,,,,
html-keyboard-response,891,1479527,null,"",null,,,,,,,,
math-period,892,1481658,4116.350000724196,"",,,,,,,,,2
html-keyboard-response,893,1481761,null,"",null,,,,,,,,
math-period,894,1482534,1447.079999372363,"",,,,,,,,,3
html-keyboard-response,895,1482636,null,"",null,,,,,,,,
math-period,896,1483776,2159.824999049306,"",,,,,,,,,6
html-keyboard-response,897,1483878,null,"",null,,,,,,,,
math-period,898,1485810,3778.4050004556775,"",,,,,,,,,4
html-keyboard-response,899,1485912,null,"",null,,,,,,,,
math-period,900,1486786,1667.8599994629622,"",,,,,,,,,3
html-keyboard-response,901,1486889,null,"",null,,,,,,,,
math-period,902,1487751,1618.9300008118153,"",,,,,,,,,3
html-keyboard-response,903,1487852,null,"",null,,,,,,,,
math-period,904,1489875,6926.159999333322,"",,,,,,,,,3
html-keyboard-response,905,1489977,null,"",null,,,,,,,,
math-period,906,1490920,1805.0549989566207,"",,,,,,,,,4
html-keyboard-response,907,1491021,null,"",null,,,,,,,,
math-period,908,1491995,1884.6650002524257,"",,,,,,,,,5
html-keyboard-response,909,1492097,null,"",null,,,,,,,,
math-period,910,1493208,2161.7350010201335,"",,,,,,,,,4
html-keyboard-response,911,1493310,null,"",null,,,,,,,,
math-period,912,1494154,1627.3499997332692,"",,,,,,,,,3
html-keyboard-response,913,1494257,null,"",null,,,,,,,,
math-period,914,1495875,3151.8050003796816,"",,,,,,,,,2
html-keyboard-response,915,1495976,null,"",null,,,,,,,,
math-period,916,1497775,3495.395001024008,"",,,,,,,,,3
html-keyboard-response,917,1497877,null,"",null,,,,,,,,
math-period,918,1499213,2449.3650002405047,"",,,,,,,,,6
html-keyboard-response,919,1499315,null,"",null,,,,,,,,
math-period,920,1500387,2001.0549994185567,"",,,,,,,,,5
html-keyboard-response,921,1500489,null,"",null,,,,,,,,
math-period,922,1501473,1906.7100007086992,"",,,,,,,,,5
html-keyboard-response,923,1501575,null,"",null,,,,,,,,
math-period,924,1503022,2811.129999347031,"",,,,,,,,,3
html-keyboard-response,925,1503123,null,"",null,,,,,,,,
math-period,926,1503425,null,"",,,,,,,,,
html-keyboard-response,927,1504429,null,"Recall Period!",null,,,,,,,,
call-function,928,1504430,,"",,,,,,,,,
html-keyboard-response,929,1504532,null,"",null,,,,,,,,
recall-period,930,1505477,3822.2899986431003,"",,,,,,,,,slope
html-keyboard-response,931,1505578,null,"",null,,,,,,,,
recall-period,932,1506783,5594.805001281202,"",,,,,,,,,cavern
html-keyboard-response,933,1506885,null,"",null,,,,,,,,
recall-period,934,1508611,9449.90000128746,"",,,,,,,,,tavern
html-keyboard-response,935,1508712,null,"",null,,,,,,,,
recall-period,936,1511495,15703.094996511936,"",,,,,,,,,cave
html-keyboard-response,937,1511597,null,"",null,,,,,,,,
recall-period,938,1522497,73982.69500397146,"",,,,,,,,,plight
html-keyboard-response,939,1522599,null,"",null,,,,,,,,
recall-period,940,1523481,4260.44999808073,"",,,,,,,,,flight
html-keyboard-response,941,1523583,null,"",null,,,,,,,,
recall-period,942,1525259,8963.5049989447,"",,,,,,,,,night
html-keyboard-response,943,1525362,null,"",null,,,,,,,,
recall-period,944,1563567,228042.48999804258,"",,,,,,,,,fence
html-keyboard-response,945,1563669,null,"",null,,,,,,,,
recall-period,946,1564967,4723.21000136435,"",,,,,,,,,cat
html-keyboard-response,947,1565069,null,"",null,,,,,,,,
recall-period,948,1579431,null,"",,,,,,,,,
html-keyboard-response,949,1579934,null,"Time's Up!",null,,,,,,,,
html-keyboard-response,950,1581101,1165.789999999106,"<p> Good job! You responded correctly to 97% of the GREEN squares.</p>
                  <p>Be sure to keep your accuracy above 80%</p>
                  <p>Press any key to continue the experiment. Thank you!</p>",32,,,,,,,,
html-keyboard-response,951,1582226,1124.0250002592802,"<div style=""font-size:48px;"">Press any key to begin list 10 of 24 </div>",32,,,,,,,,
html-keyboard-response,952,1584728,null,"<div style=""font-size:60px;"">+</div>",null,,,,,,,,
html-keyboard-response,953,1585230,null,"CAMEL<img id = ""stim"" ><div class = red_square id = ""topsquare"" ></div><img id = ""stim"" ><div class = red_square  id = ""bottomsquare"" ></div>",null,word_square,response,0,none,true,,,
html-keyboard-response,954,1586730,null,"CAMEL",null,word,,,,, 'CAMEL',,
html-keyboard-response,955,1587232,null,"CIGAR<img id = ""stim"" ><div class = red_square id = ""topsquare"" ></div><img id = ""stim"" ><div class = red_square  id = ""bottomsquare"" ></div>",null,word_square,response,0,none,true,,,
html-keyboard-response,956,1588735,null,"CIGAR",null,word,,,,, 'CIGAR',,
html-keyboard-response,957,1589172,434.8200000822544,"SERPENT<img id = ""stim"" ><div class = green_square id = ""topsquare"" ></div><img id = ""stim"" ><div class = green_square  id = ""bottomsquare"" ></div>",32,word_square,response,1,Space,true,,,
html-keyboard-response,958,1590675,null,"SERPENT",null,word,,,,, 'SERPENT',,
html-keyboard-response,959,1591177,null,"STAIRS<img id = ""stim"" ><div class = red_square id = ""topsquare"" ></div><img id = ""stim"" ><div class = red_square  id = ""bottomsquare"" ></div>",null,word_square,response,0,none,true,,,
html-keyboard-response,960,1592678,null,"STAIRS",null,word,,,,, 'STAIRS',,
