trial_type,trial_index,time_elapsed,rt,stimulus,key_press,test_part,task,targ_cond,correctKeyCode,correct,word,value,response
pavlovia,0,654,,"",,,,,,,,,
external-html,1,113405,112643.60500000112,"",,,,,,,,,
html-keyboard-response,2,153265,39855.6150000004,"Welcome to the experiment. Press any key to begin.",13,,,,,,,,
html-keyboard-response,3,160140,6872.824999998556,"<p>You will see a list of words and colored squares in the following task.<p><p>Press the spacebar whenever you see a red square.<p><p>Do not press a key if the square is green<p><p>Press the spacebar to continue.</p>",32,,,,,,,,
html-keyboard-response,4,166821,6171.560000002501,"<p>Please try to remember as many of the words as you can, and try to think about the meaning of each word as it appears.<p><p>After the detection and encoding task you will be asked to solve some math problems for 24 seconds.<p> Please solve as many problems as you can in the time given. <p>",32,,,,,,,,
html-keyboard-response,5,174478,7154.199999997218,"After solving the math problems, you will be asked to type in as many words <p>from the previous list as you can remember for 75 seconds.<p> If you finish recalling before the 75 seconds are up,<p> just sit tight and try to think of any more words you could have missed. <p><p>We will begin with a brief practice session<p>Press the spacebar to begin the practice.</p>",32,,,,,,,,
html-keyboard-response,6,177004,null,"<div style=""font-size:60px;"">+</div>",null,,,,,,,,
html-keyboard-response,7,177516,null,"HAPPY<img id = ""stim"" ><div class = green_square id = ""topsquare"" ></div><img id = ""stim"" ><div class = green_square  id = ""bottomsquare"" ></div>",null,word_square,prac_response,0,none,true,,,
html-keyboard-response,8,179027,null,"HAPPY",null,word,,,,,HAPPY,,
html-keyboard-response,9,179529,null,"COLD<img id = ""stim"" ><div class = red_square id = ""topsquare"" ></div><img id = ""stim"" ><div class = red_square  id = ""bottomsquare"" ></div>",null,word_square,prac_response,1,Space,false,,,
html-keyboard-response,10,181042,null,"COLD",null,word,,,,,COLD,,
html-keyboard-response,11,181557,null,"HEAVY<img id = ""stim"" ><div class = red_square id = ""topsquare"" ></div><img id = ""stim"" ><div class = red_square  id = ""bottomsquare"" ></div>",null,word_square,prac_response,1,Space,false,,,
html-keyboard-response,12,183064,null,"HEAVY",null,word,,,,,HEAVY,,
html-keyboard-response,13,183566,null,"FUNNY<img id = ""stim"" ><div class = green_square id = ""topsquare"" ></div><img id = ""stim"" ><div class = green_square  id = ""bottomsquare"" ></div>",null,word_square,prac_response,0,none,true,,,
html-keyboard-response,14,185078,null,"FUNNY",null,word,,,,,FUNNY,,
html-keyboard-response,15,185580,null,"SCARY<img id = ""stim"" ><div class = red_square id = ""topsquare"" ></div><img id = ""stim"" ><div class = red_square  id = ""bottomsquare"" ></div>",null,word_square,prac_response,1,Space,false,,,
html-keyboard-response,16,187082,null,"SCARY",null,word,,,,,SCARY,,
html-keyboard-response,17,187583,null,"PEACEFUL<img id = ""stim"" ><div class = red_square id = ""topsquare"" ></div><img id = ""stim"" ><div class = red_square  id = ""bottomsquare"" ></div>",null,word_square,prac_response,1,Space,false,,,
html-keyboard-response,18,189099,null,"PEACEFUL",null,word,,,,,PEACEFUL,,
html-keyboard-response,19,189606,null,"LITTLE<img id = ""stim"" ><div class = green_square id = ""topsquare"" ></div><img id = ""stim"" ><div class = green_square  id = ""bottomsquare"" ></div>",null,word_square,prac_response,0,none,true,,,
html-keyboard-response,20,191117,null,"LITTLE",null,word,,,,,LITTLE,,
html-keyboard-response,21,191630,null,"TIRED<img id = ""stim"" ><div class = green_square id = ""topsquare"" ></div><img id = ""stim"" ><div class = green_square  id = ""bottomsquare"" ></div>",null,word_square,prac_response,0,none,true,,,
html-keyboard-response,22,193142,null,"TIRED",null,word,,,,,TIRED,,
html-keyboard-response,23,193648,null,"ENTERTAINING<img id = ""stim"" ><div class = green_square id = ""topsquare"" ></div><img id = ""stim"" ><div class = green_square  id = ""bottomsquare"" ></div>",null,word_square,prac_response,0,none,true,,,
html-keyboard-response,24,195150,null,"ENTERTAINING",null,word,,,,,ENTERTAINING,,
html-keyboard-response,25,195652,null,"GRATEFUL<img id = ""stim"" ><div class = red_square id = ""topsquare"" ></div><img id = ""stim"" ><div class = red_square  id = ""bottomsquare"" ></div>",null,word_square,prac_response,1,Space,false,,,
html-keyboard-response,26,197155,null,"GRATEFUL",null,word,,,,,GRATEFUL,,
html-keyboard-response,27,197671,null,"LOUD<img id = ""stim"" ><div class = green_square id = ""topsquare"" ></div><img id = ""stim"" ><div class = green_square  id = ""bottomsquare"" ></div>",null,word_square,prac_response,0,none,true,,,
html-keyboard-response,28,199184,null,"LOUD",null,word,,,,,LOUD,,
html-keyboard-response,29,199689,null,"SMART<img id = ""stim"" ><div class = red_square id = ""topsquare"" ></div><img id = ""stim"" ><div class = red_square  id = ""bottomsquare"" ></div>",null,word_square,prac_response,1,Space,false,,,
html-keyboard-response,30,201196,null,"SMART",null,word,,,,,SMART,,
html-keyboard-response,31,201711,null,"SMOOTH<img id = ""stim"" ><div class = red_square id = ""topsquare"" ></div><img id = ""stim"" ><div class = red_square  id = ""bottomsquare"" ></div>",null,word_square,prac_response,1,Space,false,,,
html-keyboard-response,32,203220,null,"SMOOTH",null,word,,,,,SMOOTH,,
html-keyboard-response,33,203724,null,"DISHONEST<img id = ""stim"" ><div class = green_square id = ""topsquare"" ></div><img id = ""stim"" ><div class = green_square  id = ""bottomsquare"" ></div>",null,word_square,prac_response,0,none,true,,,
html-keyboard-response,34,205238,null,"DISHONEST",null,word,,,,,DISHONEST,,
html-keyboard-response,35,205740,416.3449999978184,"WEALTHY<img id = ""stim"" ><div class = red_square id = ""topsquare"" ></div><img id = ""stim"" ><div class = red_square  id = ""bottomsquare"" ></div>",32,word_square,prac_response,1,Space,true,,,
html-keyboard-response,36,207253,null,"WEALTHY",null,word,,,,,WEALTHY,,
html-keyboard-response,37,207757,null,"BEAUTIFUL<img id = ""stim"" ><div class = green_square id = ""topsquare"" ></div><img id = ""stim"" ><div class = green_square  id = ""bottomsquare"" ></div>",null,word_square,prac_response,0,none,true,,,
html-keyboard-response,38,209258,null,"BEAUTIFUL",null,word,,,,,BEAUTIFUL,,
html-keyboard-response,39,209760,null,"DREARY<img id = ""stim"" ><div class = green_square id = ""topsquare"" ></div><img id = ""stim"" ><div class = green_square  id = ""bottomsquare"" ></div>",null,word_square,prac_response,0,none,true,,,
html-keyboard-response,40,211268,null,"DREARY",null,word,,,,,DREARY,,
html-keyboard-response,41,211770,null,"PLAYFUL<img id = ""stim"" ><div class = red_square id = ""topsquare"" ></div><img id = ""stim"" ><div class = red_square  id = ""bottomsquare"" ></div>",null,word_square,prac_response,1,Space,false,,,
html-keyboard-response,42,213283,null,"PLAYFUL",null,word,,,,,PLAYFUL,,
html-keyboard-response,43,224755,11469.430000001012,"<p> Uh oh. You responded correctly on 56% of the red squares.</p>
                  <p>We need you keep your accuracy above 80%</p>
                  <p>We're going to try once more to make sure you understand the task. press any key to continue.</p>",32,,,,,,,,
html-keyboard-response,44,242674,17918.21500000151,"<p>You will see a list of words and colored squares in the following task.<p><p>Press the spacebar whenever you see a red square.<p><p>Do not press a key if the square is green<p><p>Press the spacebar to continue.</p>",32,,,,,,,,
html-keyboard-response,45,245202,null,"<div style=""font-size:60px;"">+</div>",null,,,,,,,,
html-keyboard-response,46,245704,null,"HAPPY<img id = ""stim"" ><div class = green_square id = ""topsquare"" ></div><img id = ""stim"" ><div class = green_square  id = ""bottomsquare"" ></div>",null,word_square,response,0,none,true,,,
html-keyboard-response,47,247208,null,"HAPPY",null,word,,,,,HAPPY,,
html-keyboard-response,48,247634,425.1700000022538,"COLD<img id = ""stim"" ><div class = red_square id = ""topsquare"" ></div><img id = ""stim"" ><div class = red_square  id = ""bottomsquare"" ></div>",32,word_square,response,1,Space,true,,,
html-keyboard-response,49,249148,null,"COLD",null,word,,,,,COLD,,
html-keyboard-response,50,249577,428.2199999979639,"HEAVY<img id = ""stim"" ><div class = red_square id = ""topsquare"" ></div><img id = ""stim"" ><div class = red_square  id = ""bottomsquare"" ></div>",32,word_square,response,1,Space,true,,,
html-keyboard-response,51,251083,null,"HEAVY",null,word,,,,,HEAVY,,
html-keyboard-response,52,251599,null,"FUNNY<img id = ""stim"" ><div class = green_square id = ""topsquare"" ></div><img id = ""stim"" ><div class = green_square  id = ""bottomsquare"" ></div>",null,word_square,response,0,none,true,,,
html-keyboard-response,53,253110,null,"FUNNY",null,word,,,,,FUNNY,,
html-keyboard-response,54,253589,477.74999999819556,"SCARY<img id = ""stim"" ><div class = red_square id = ""topsquare"" ></div><img id = ""stim"" ><div class = red_square  id = ""bottomsquare"" ></div>",32,word_square,response,1,Space,true,,,
html-keyboard-response,55,255099,null,"SCARY",null,word,,,,,SCARY,,
html-keyboard-response,56,255612,null,"PEACEFUL<img id = ""stim"" ><div class = red_square id = ""topsquare"" ></div><img id = ""stim"" ><div class = red_square  id = ""bottomsquare"" ></div>",null,word_square,response,1,Space,false,,,
html-keyboard-response,57,257114,null,"PEACEFUL",null,word,,,,,PEACEFUL,,
html-keyboard-response,58,257630,null,"LITTLE<img id = ""stim"" ><div class = green_square id = ""topsquare"" ></div><img id = ""stim"" ><div class = green_square  id = ""bottomsquare"" ></div>",null,word_square,response,0,none,true,,,
html-keyboard-response,59,259134,null,"LITTLE",null,word,,,,,LITTLE,,
html-keyboard-response,60,259643,null,"TIRED<img id = ""stim"" ><div class = green_square id = ""topsquare"" ></div><img id = ""stim"" ><div class = green_square  id = ""bottomsquare"" ></div>",null,word_square,response,0,none,true,,,
html-keyboard-response,61,261157,null,"TIRED",null,word,,,,,TIRED,,
html-keyboard-response,62,261661,null,"ENTERTAINING<img id = ""stim"" ><div class = green_square id = ""topsquare"" ></div><img id = ""stim"" ><div class = green_square  id = ""bottomsquare"" ></div>",null,word_square,response,0,none,true,,,
html-keyboard-response,63,263178,null,"ENTERTAINING",null,word,,,,,ENTERTAINING,,
html-keyboard-response,64,263583,404.4099999992177,"GRATEFUL<img id = ""stim"" ><div class = red_square id = ""topsquare"" ></div><img id = ""stim"" ><div class = red_square  id = ""bottomsquare"" ></div>",32,word_square,response,1,Space,true,,,
html-keyboard-response,65,265087,null,"GRATEFUL",null,word,,,,,GRATEFUL,,
html-keyboard-response,66,265589,null,"LOUD<img id = ""stim"" ><div class = green_square id = ""topsquare"" ></div><img id = ""stim"" ><div class = green_square  id = ""bottomsquare"" ></div>",null,word_square,response,0,none,true,,,
html-keyboard-response,67,267103,null,"LOUD",null,word,,,,,LOUD,,
html-keyboard-response,68,267510,406.00500000070315,"SMART<img id = ""stim"" ><div class = red_square id = ""topsquare"" ></div><img id = ""stim"" ><div class = red_square  id = ""bottomsquare"" ></div>",32,word_square,response,1,Space,true,,,
html-keyboard-response,69,269019,null,"SMART",null,word,,,,,SMART,,
html-keyboard-response,70,269424,403.1600000016624,"SMOOTH<img id = ""stim"" ><div class = red_square id = ""topsquare"" ></div><img id = ""stim"" ><div class = red_square  id = ""bottomsquare"" ></div>",32,word_square,response,1,Space,true,,,
html-keyboard-response,71,270935,null,"SMOOTH",null,word,,,,,SMOOTH,,
html-keyboard-response,72,271448,null,"DISHONEST<img id = ""stim"" ><div class = green_square id = ""topsquare"" ></div><img id = ""stim"" ><div class = green_square  id = ""bottomsquare"" ></div>",null,word_square,response,0,none,true,,,
html-keyboard-response,73,272964,null,"DISHONEST",null,word,,,,,DISHONEST,,
html-keyboard-response,74,273351,385.36499999830266,"WEALTHY<img id = ""stim"" ><div class = red_square id = ""topsquare"" ></div><img id = ""stim"" ><div class = red_square  id = ""bottomsquare"" ></div>",32,word_square,response,1,Space,true,,,
html-keyboard-response,75,274860,null,"WEALTHY",null,word,,,,,WEALTHY,,
html-keyboard-response,76,275375,null,"BEAUTIFUL<img id = ""stim"" ><div class = green_square id = ""topsquare"" ></div><img id = ""stim"" ><div class = green_square  id = ""bottomsquare"" ></div>",null,word_square,response,0,none,true,,,
html-keyboard-response,77,276883,null,"BEAUTIFUL",null,word,,,,,BEAUTIFUL,,
html-keyboard-response,78,277386,null,"DREARY<img id = ""stim"" ><div class = green_square id = ""topsquare"" ></div><img id = ""stim"" ><div class = green_square  id = ""bottomsquare"" ></div>",null,word_square,response,0,none,true,,,
html-keyboard-response,79,278887,null,"DREARY",null,word,,,,,DREARY,,
html-keyboard-response,80,279250,359.40499999927124,"PLAYFUL<img id = ""stim"" ><div class = red_square id = ""topsquare"" ></div><img id = ""stim"" ><div class = red_square  id = ""bottomsquare"" ></div>",32,word_square,response,1,Space,true,,,
html-keyboard-response,81,280757,null,"PLAYFUL",null,word,,,,,PLAYFUL,,
html-keyboard-response,82,301465,20706.514999998035,"<p> Good job! You responded correctly to 94% of the red squares.</p>
                  <p>Be sure to keep your accuracy above 80%</p>
                  <p>Press any key to begin the math and recall sections. Thank you!</p>",13,,,,,,,,
call-function,83,301466,,"",,,,,,,,,
html-keyboard-response,84,301568,null,"",null,,,,,,,,
math-period,85,306452,8304.129999996861,"",,,,,,,,,5
html-keyboard-response,86,306562,null,"",null,,,,,,,,
math-period,87,308463,3419.099999999162,"",,,,,,,,,1
html-keyboard-response,88,308565,null,"",null,,,,,,,,
math-period,89,310114,2824.6949999993085,"",,,,,,,,,6
html-keyboard-response,90,310230,null,"",null,,,,,,,,
math-period,91,311844,3015.575000001234,"",,,,,,,,,4
html-keyboard-response,92,311953,null,"",null,,,,,,,,
math-period,93,313194,2213.159999999334,"",,,,,,,,,5
html-keyboard-response,94,313300,null,"",null,,,,,,,,
math-period,95,314717,2698.0399999993388,"",,,,,,,,,3
html-keyboard-response,96,314833,null,"",null,,,,,,,,
math-period,97,316598,3373.8899999989662,"",,,,,,,,,1
html-keyboard-response,98,316702,null,"",null,,,,,,,,
math-period,99,318273,2936.664999997476,"",,,,,,,,,2
html-keyboard-response,100,318376,null,"",null,,,,,,,,
math-period,101,321350,5160.275000002002,"",,,,,,,,,1
html-keyboard-response,102,321466,null,"",null,,,,,,,,
math-period,103,323039,2989.479999996489,"",,,,,,,,,2
html-keyboard-response,104,323148,null,"",null,,,,,,,,
math-period,105,324838,3242.9499999999534,"",,,,,,,,,4
html-keyboard-response,106,324942,null,"",null,,,,,,,,
math-period,107,325470,null,"",,,,,,,,,
html-keyboard-response,108,326476,null,"Recall Period!",null,,,,,,,,
call-function,109,326477,,"",,,,,,,,,
html-keyboard-response,110,326592,null,"",null,,,,,,,,
recall-period,111,335986,119647.50000001729,"",,,,,,,,,beautiful
html-keyboard-response,112,336096,null,"",null,,,,,,,,
recall-period,113,338256,9557.66000001313,"",,,,,,,,,wealthy
html-keyboard-response,114,338363,null,"",null,,,,,,,,
recall-period,115,340613,12391.109999993118,"",,,,,,,,,little
html-keyboard-response,116,340721,null,"",null,,,,,,,,
recall-period,117,373831,255341.18499998655,"",,,,,,,,,strange
html-keyboard-response,118,373942,null,"",null,,,,,,,,
recall-period,119,401484,null,"",,,,,,,,,
html-keyboard-response,120,401990,null,"Time's Up!",null,,,,,,,,
html-keyboard-response,121,419075,17083.880000001984,"<p>We will now begin the experiment!<p><p>Please try to remember all words from each list.<p><p>Press the spacebar whenever you see a red square.<p><p><p><p>Press the spacebar to begin.</p>",32,,,,,,,,
html-keyboard-response,122,423612,4035.8500000002095,"<div style=""font-size:48px;"">Press any key to begin list 1 of 24 </div>",32,,,,,,,,
html-keyboard-response,123,426118,null,"<div style=""font-size:60px;"">+</div>",null,,,,,,,,
html-keyboard-response,124,426630,null,"SATURN<img id = ""stim"" ><div class = green_square id = ""topsquare"" ></div><img id = ""stim"" ><div class = green_square  id = ""bottomsquare"" ></div>",null,word_square,response,0,none,true,,,
html-keyboard-response,125,428143,null,"SATURN",null,word,,,,, 'SATURN',,
html-keyboard-response,126,428588,444.1999999980908,"MESSAGE<img id = ""stim"" ><div class = red_square id = ""topsquare"" ></div><img id = ""stim"" ><div class = red_square  id = ""bottomsquare"" ></div>",32,word_square,response,1,Space,true,,,
html-keyboard-response,127,430099,null,"MESSAGE",null,word,,,,, 'MESSAGE',,
html-keyboard-response,128,430614,null,"CAMEL<img id = ""stim"" ><div class = red_square id = ""topsquare"" ></div><img id = ""stim"" ><div class = red_square  id = ""bottomsquare"" ></div>",null,word_square,response,1,Space,false,,,
html-keyboard-response,129,432121,null,"CAMEL",null,word,,,,, 'CAMEL',,
html-keyboard-response,130,432633,null,"KLEENEX<img id = ""stim"" ><div class = green_square id = ""topsquare"" ></div><img id = ""stim"" ><div class = green_square  id = ""bottomsquare"" ></div>",null,word_square,response,0,none,true,,,
html-keyboard-response,131,434145,null,"KLEENEX",null,word,,,,, 'KLEENEX',,
html-keyboard-response,132,434660,null,"BINDER<img id = ""stim"" ><div class = green_square id = ""topsquare"" ></div><img id = ""stim"" ><div class = green_square  id = ""bottomsquare"" ></div>",null,word_square,response,0,none,true,,,
html-keyboard-response,133,436164,null,"BINDER",null,word,,,,, 'BINDER',,
html-keyboard-response,134,436479,313.7299999980023,"FRAME<img id = ""stim"" ><div class = red_square id = ""topsquare"" ></div><img id = ""stim"" ><div class = red_square  id = ""bottomsquare"" ></div>",32,word_square,response,1,Space,true,,,
html-keyboard-response,135,437982,null,"FRAME",null,word,,,,, 'FRAME',,
html-keyboard-response,136,438491,null,"HANDCUFFS<img id = ""stim"" ><div class = green_square id = ""topsquare"" ></div><img id = ""stim"" ><div class = green_square  id = ""bottomsquare"" ></div>",null,word_square,response,0,none,true,,,
html-keyboard-response,137,440006,null,"HANDCUFFS",null,word,,,,, 'HANDCUFFS',,
html-keyboard-response,138,440391,384.2050000021118,"MOTEL<img id = ""stim"" ><div class = red_square id = ""topsquare"" ></div><img id = ""stim"" ><div class = red_square  id = ""bottomsquare"" ></div>",32,word_square,response,1,Space,true,,,
html-keyboard-response,139,441900,null,"MOTEL",null,word,,,,, 'MOTEL',,
html-keyboard-response,140,442416,null,"PAVEMENT<img id = ""stim"" ><div class = green_square id = ""topsquare"" ></div><img id = ""stim"" ><div class = green_square  id = ""bottomsquare"" ></div>",null,word_square,response,0,none,true,,,
html-keyboard-response,141,443928,null,"PAVEMENT",null,word,,,,, 'PAVEMENT',,
html-keyboard-response,142,444434,null,"SLEEVE<img id = ""stim"" ><div class = green_square id = ""topsquare"" ></div><img id = ""stim"" ><div class = green_square  id = ""bottomsquare"" ></div>",null,word_square,response,0,none,true,,,
html-keyboard-response,143,445942,null,"SLEEVE",null,word,,,,, 'SLEEVE',,
html-keyboard-response,144,446311,368.1299999988987,"CROOK<img id = ""stim"" ><div class = red_square id = ""topsquare"" ></div><img id = ""stim"" ><div class = red_square  id = ""bottomsquare"" ></div>",32,word_square,response,1,Space,true,,,
html-keyboard-response,145,447813,null,"CROOK",null,word,,,,, 'CROOK',,
html-keyboard-response,146,448220,405.5399999998044,"BELLY<img id = ""stim"" ><div class = red_square id = ""topsquare"" ></div><img id = ""stim"" ><div class = red_square  id = ""bottomsquare"" ></div>",32,word_square,response,1,Space,true,,,
html-keyboard-response,147,449735,null,"BELLY",null,word,,,,, 'BELLY',,
html-keyboard-response,148,450248,null,"BARREL<img id = ""stim"" ><div class = green_square id = ""topsquare"" ></div><img id = ""stim"" ><div class = green_square  id = ""bottomsquare"" ></div>",null,word_square,response,0,none,true,,,
html-keyboard-response,149,451758,null,"BARREL",null,word,,,,, 'BARREL',,
html-keyboard-response,150,452264,null,"DRAWING<img id = ""stim"" ><div class = green_square id = ""topsquare"" ></div><img id = ""stim"" ><div class = green_square  id = ""bottomsquare"" ></div>",null,word_square,response,0,none,true,,,
html-keyboard-response,151,453778,null,"DRAWING",null,word,,,,, 'DRAWING',,
html-keyboard-response,152,454129,350.0099999982631,"CRACKER<img id = ""stim"" ><div class = red_square id = ""topsquare"" ></div><img id = ""stim"" ><div class = red_square  id = ""bottomsquare"" ></div>",32,word_square,response,1,Space,true,,,
html-keyboard-response,153,455632,null,"CRACKER",null,word,,,,, 'CRACKER',,
html-keyboard-response,154,456136,null,"TABLET<img id = ""stim"" ><div class = green_square id = ""topsquare"" ></div><img id = ""stim"" ><div class = green_square  id = ""bottomsquare"" ></div>",null,word_square,response,0,none,true,,,
html-keyboard-response,155,457641,null,"TABLET",null,word,,,,, 'TABLET',,
html-keyboard-response,156,458028,385.825000001234,"PEACH<img id = ""stim"" ><div class = red_square id = ""topsquare"" ></div><img id = ""stim"" ><div class = red_square  id = ""bottomsquare"" ></div>",32,word_square,response,1,Space,true,,,
html-keyboard-response,157,459534,null,"PEACH",null,word,,,,, 'PEACH',,
html-keyboard-response,158,460037,null,"FRUIT<img id = ""stim"" ><div class = red_square id = ""topsquare"" ></div><img id = ""stim"" ><div class = red_square  id = ""bottomsquare"" ></div>",null,word_square,response,1,Space,false,,,
html-keyboard-response,159,461550,null,"FRUIT",null,word,,,,, 'FRUIT',,
call-function,160,461551,,"",,,,,,,,,
html-keyboard-response,161,461652,null,"",null,,,,,,,,
math-period,162,464603,5040.715000006428,"",,,,,,,,,1
html-keyboard-response,163,464714,null,"",null,,,,,,,,
math-period,164,466365,3181.5049999968614,"",,,,,,,,,5
html-keyboard-response,165,466476,null,"",null,,,,,,,,
math-period,166,467787,2513.1000000038184,"",,,,,,,,,2
html-keyboard-response,167,467902,null,"",null,,,,,,,,
math-period,168,469106,2290.750000000058,"",,,,,,,,,2
html-keyboard-response,169,469210,null,"",null,,,,,,,,
math-period,170,470350,2058.1600000005565,"",,,,,,,,,2
html-keyboard-response,171,470461,null,"",null,,,,,,,,
math-period,172,472172,3136.065000002389,"",,,,,,,,,4
html-keyboard-response,173,472274,null,"",null,,,,,,,,
math-period,174,473692,2601.57000000251,"",,,,,,,,,5
html-keyboard-response,175,473799,null,"",null,,,,,,,,
math-period,176,474841,1931.6099999996368,"",,,,,,,,,4
html-keyboard-response,177,474955,null,"",null,,,,,,,,
math-period,178,476245,2377.580000003916,"",,,,,,,,,2
html-keyboard-response,179,476361,null,"",null,,,,,,,,
math-period,180,477564,2181.7950000004494,"",,,,,,,,,3
html-keyboard-response,181,477677,null,"",null,,,,,,,,
math-period,182,479161,2820.9850000020233,"",,,,,,,,,2
html-keyboard-response,183,479271,null,"",null,,,,,,,,
math-period,184,481224,3773.324999998382,"",,,,,,,,,1
html-keyboard-response,185,481335,null,"",null,,,,,,,,
math-period,186,482728,2647.1449999989127,"",,,,,,,,,1
html-keyboard-response,187,482838,null,"",null,,,,,,,,
math-period,188,483887,1941.0699999971548,"",,,,,,,,,2
html-keyboard-response,189,483991,null,"",null,,,,,,,,
math-period,190,485302,2474.725000003702,"",,,,,,,,,5
html-keyboard-response,191,485404,null,"",null,,,,,,,,
math-period,192,485567,null,"",,,,,,,,,
html-keyboard-response,193,486574,null,"Recall Period!",null,,,,,,,,
call-function,194,486575,,"",,,,,,,,,
html-keyboard-response,195,486677,null,"",null,,,,,,,,
recall-period,196,489078,2400.369999999355,"",,,,,,,,,
html-keyboard-response,197,489186,null,"",null,,,,,,,,
recall-period,198,491046,7987.424999988172,"",,,,,,,,,camel
html-keyboard-response,199,491162,null,"",null,,,,,,,,
recall-period,200,505027,92167.15000000835,"",,,,,,,,,saturn
html-keyboard-response,201,505139,null,"",null,,,,,,,,
recall-period,202,515412,87876.62999999156,"",,,,,,,,,kleenex
html-keyboard-response,203,515514,null,"",null,,,,,,,,
recall-period,204,523606,56175.7349999937,"",,,,,,,,,message
html-keyboard-response,205,523708,null,"",null,,,,,,,,
recall-period,206,530788,45842.22500001488,"",,,,,,,,,belly
html-keyboard-response,207,530900,null,"",null,,,,,,,,
recall-period,208,549470,125520.31000002171,"",,,,,,,,,barrier
html-keyboard-response,209,549572,null,"",null,,,,,,,,
recall-period,210,558785,28587.04000001226,"",,,,,,,,,cracker
html-keyboard-response,211,558887,null,"",null,,,,,,,,
recall-period,212,561578,null,"",,,,,,,,,
html-keyboard-response,213,562080,null,"Time's Up!",null,,,,,,,,
html-keyboard-response,214,566828,4746.0749999991385,"<p> Good job! You responded correctly to 92% of the red squares.</p>
                  <p>Be sure to keep your accuracy above 80%</p>
                  <p>Press any key to continue the experiment. Thank you!</p>",13,,,,,,,,
html-keyboard-response,215,569090,2261.800000000163,"<div style=""font-size:48px;"">Press any key to begin list 2 of 24 </div>",13,,,,,,,,
html-keyboard-response,216,571601,null,"<div style=""font-size:60px;"">+</div>",null,,,,,,,,
html-keyboard-response,217,572104,null,"CAPTIVE<img id = ""stim"" ><div class = green_square id = ""topsquare"" ></div><img id = ""stim"" ><div class = green_square  id = ""bottomsquare"" ></div>",null,word_square,response,0,none,true,,,
html-keyboard-response,218,573606,null,"CAPTIVE",null,word,,,,, 'CAPTIVE',,
html-keyboard-response,219,574107,null,"BUREAU<img id = ""stim"" ><div class = red_square id = ""topsquare"" ></div><img id = ""stim"" ><div class = red_square  id = ""bottomsquare"" ></div>",null,word_square,response,1,Space,false,,,
html-keyboard-response,220,575611,null,"BUREAU",null,word,,,,, 'BUREAU',,
html-keyboard-response,221,575871,258.8099999993574,"TOURIST<img id = ""stim"" ><div class = red_square id = ""topsquare"" ></div><img id = ""stim"" ><div class = red_square  id = ""bottomsquare"" ></div>",32,word_square,response,1,Space,true,,,
html-keyboard-response,222,577373,null,"TOURIST",null,word,,,,, 'TOURIST',,
html-keyboard-response,223,577891,null,"CABLE<img id = ""stim"" ><div class = green_square id = ""topsquare"" ></div><img id = ""stim"" ><div class = green_square  id = ""bottomsquare"" ></div>",null,word_square,response,0,none,true,,,
html-keyboard-response,224,579394,null,"CABLE",null,word,,,,, 'CABLE',,
html-keyboard-response,225,579908,null,"HUSBAND<img id = ""stim"" ><div class = green_square id = ""topsquare"" ></div><img id = ""stim"" ><div class = green_square  id = ""bottomsquare"" ></div>",null,word_square,response,0,none,true,,,
html-keyboard-response,226,581420,null,"HUSBAND",null,word,,,,, 'HUSBAND',,
html-keyboard-response,227,581696,274.4750000019558,"WIFE<img id = ""stim"" ><div class = red_square id = ""topsquare"" ></div><img id = ""stim"" ><div class = red_square  id = ""bottomsquare"" ></div>",32,word_square,response,1,Space,true,,,
html-keyboard-response,228,583207,null,"WIFE",null,word,,,,, 'WIFE',,
html-keyboard-response,229,583717,null,"NAPKIN<img id = ""stim"" ><div class = green_square id = ""topsquare"" ></div><img id = ""stim"" ><div class = green_square  id = ""bottomsquare"" ></div>",null,word_square,response,0,none,true,,,
html-keyboard-response,230,585225,null,"NAPKIN",null,word,,,,, 'NAPKIN',,
html-keyboard-response,231,585518,291.89000000047963,"PENGUIN<img id = ""stim"" ><div class = red_square id = ""topsquare"" ></div><img id = ""stim"" ><div class = red_square  id = ""bottomsquare"" ></div>",32,word_square,response,1,Space,true,,,
html-keyboard-response,232,587024,null,"PENGUIN",null,word,,,,, 'PENGUIN',,
html-keyboard-response,233,587540,null,"DRAGON<img id = ""stim"" ><div class = green_square id = ""topsquare"" ></div><img id = ""stim"" ><div class = green_square  id = ""bottomsquare"" ></div>",null,word_square,response,0,none,true,,,
html-keyboard-response,234,589044,null,"DRAGON",null,word,,,,, 'DRAGON',,
html-keyboard-response,235,589546,null,"OATMEAL<img id = ""stim"" ><div class = green_square id = ""topsquare"" ></div><img id = ""stim"" ><div class = green_square  id = ""bottomsquare"" ></div>",null,word_square,response,0,none,true,,,
html-keyboard-response,236,591054,null,"OATMEAL",null,word,,,,, 'OATMEAL',,
html-keyboard-response,237,591380,324.45999999984633,"TIGER<img id = ""stim"" ><div class = red_square id = ""topsquare"" ></div><img id = ""stim"" ><div class = red_square  id = ""bottomsquare"" ></div>",32,word_square,response,1,Space,true,,,
html-keyboard-response,238,592893,null,"TIGER",null,word,,,,, 'TIGER',,
html-keyboard-response,239,593270,375.3900000010617,"ARMY<img id = ""stim"" ><div class = red_square id = ""topsquare"" ></div><img id = ""stim"" ><div class = red_square  id = ""bottomsquare"" ></div>",32,word_square,response,1,Space,true,,,
html-keyboard-response,240,594780,null,"ARMY",null,word,,,,, 'ARMY',,
html-keyboard-response,241,595285,null,"DRILL<img id = ""stim"" ><div class = green_square id = ""topsquare"" ></div><img id = ""stim"" ><div class = green_square  id = ""bottomsquare"" ></div>",null,word_square,response,0,none,true,,,
html-keyboard-response,242,596792,null,"DRILL",null,word,,,,, 'DRILL',,
html-keyboard-response,243,597295,null,"PLIERS<img id = ""stim"" ><div class = green_square id = ""topsquare"" ></div><img id = ""stim"" ><div class = green_square  id = ""bottomsquare"" ></div>",null,word_square,response,0,none,true,,,
html-keyboard-response,244,598802,null,"PLIERS",null,word,,,,, 'PLIERS',,
html-keyboard-response,245,599094,291.04999999981374,"FIELD<img id = ""stim"" ><div class = red_square id = ""topsquare"" ></div><img id = ""stim"" ><div class = red_square  id = ""bottomsquare"" ></div>",32,word_square,response,1,Space,true,,,
html-keyboard-response,246,600595,null,"FIELD",null,word,,,,, 'FIELD',,
html-keyboard-response,247,601102,null,"GOBLIN<img id = ""stim"" ><div class = green_square id = ""topsquare"" ></div><img id = ""stim"" ><div class = green_square  id = ""bottomsquare"" ></div>",null,word_square,response,0,none,true,,,
html-keyboard-response,248,602617,null,"GOBLIN",null,word,,,,, 'GOBLIN',,
html-keyboard-response,249,602985,366.51999999955297,"CHAPEL<img id = ""stim"" ><div class = red_square id = ""topsquare"" ></div><img id = ""stim"" ><div class = red_square  id = ""bottomsquare"" ></div>",32,word_square,response,1,Space,true,,,
html-keyboard-response,250,604491,null,"CHAPEL",null,word,,,,, 'CHAPEL',,
html-keyboard-response,251,604811,318.16500000061933,"CROSS<img id = ""stim"" ><div class = red_square id = ""topsquare"" ></div><img id = ""stim"" ><div class = red_square  id = ""bottomsquare"" ></div>",32,word_square,response,1,Space,true,,,
html-keyboard-response,252,606315,null,"CROSS",null,word,,,,, 'CROSS',,
call-function,253,606316,,"",,,,,,,,,
html-keyboard-response,254,606417,null,"",null,,,,,,,,
math-period,255,608421,3451.2149999974063,"",,,,,,,,,3
html-keyboard-response,256,608526,null,"",null,,,,,,,,
math-period,257,609377,1597.0699999962235,"",,,,,,,,,2
html-keyboard-response,258,609479,null,"",null,,,,,,,,
math-period,259,610925,2672.56499999715,"",,,,,,,,,2
html-keyboard-response,260,611030,null,"",null,,,,,,,,
math-period,261,612224,2247.164999997127,"",,,,,,,,,2
html-keyboard-response,262,612327,null,"",null,,,,,,,,
math-period,263,613911,3031.2699999994365,"",,,,,,,,,1
html-keyboard-response,264,614023,null,"",null,,,,,,,,
math-period,265,616121,3950.2149999971734,"",,,,,,,,,0
html-keyboard-response,266,616222,null,"",null,,,,,,,,
math-period,267,618226,3938.734999999637,"",,,,,,,,,2
html-keyboard-response,268,618327,null,"",null,,,,,,,,
math-period,269,619268,1785.3950000025798,"",,,,,,,,,2
html-keyboard-response,270,619370,null,"",null,,,,,,,,
math-period,271,620802,2610.7449999980163,"",,,,,,,,,5
html-keyboard-response,272,620910,null,"",null,,,,,,,,
math-period,273,622368,2810.9400000030873,"",,,,,,,,,1
html-keyboard-response,274,622471,null,"",null,,,,,,,,
math-period,275,623749,2388.129999999306,"",,,,,,,,,6
html-keyboard-response,276,623851,null,"",null,,,,,,,,
math-period,277,625022,2245.464999999851,"",,,,,,,,,5
html-keyboard-response,278,625124,null,"",null,,,,,,,,
math-period,279,625991,1634.0349999991013,"",,,,,,,,,3
html-keyboard-response,280,626106,null,"",null,,,,,,,,
math-period,281,629128,5768.830000000889,"",,,,,,,,,0
html-keyboard-response,282,629229,null,"",null,,,,,,,,
math-period,283,630330,null,"",,,,,,,,,
html-keyboard-response,284,631344,null,"Recall Period!",null,,,,,,,,
call-function,285,631345,,"",,,,,,,,,
html-keyboard-response,286,631456,null,"",null,,,,,,,,
recall-period,287,636622,31390.57000001101,"",,,,,,,,,goblin
html-keyboard-response,288,636734,null,"",null,,,,,,,,
recall-period,289,642189,54925.44000001089,"",,,,,,,,,field
html-keyboard-response,290,642303,null,"",null,,,,,,,,
recall-period,291,652540,57477.549999995856,"",,,,,,,,,cable
html-keyboard-response,292,652642,null,"",null,,,,,,,,
recall-period,293,667069,102988.6800000018,"",,,,,,,,,penguin
html-keyboard-response,294,667171,null,"",null,,,,,,,,
recall-period,295,681237,68417.24999999139,"",,,,,,,,,book
html-keyboard-response,296,681339,null,"",null,,,,,,,,
recall-period,297,706353,null,"",,,,,,,,,
html-keyboard-response,298,706854,null,"Time's Up!",null,,,,,,,,
html-keyboard-response,299,709662,2806.8600000006845,"<p> Good job! You responded correctly to 93% of the red squares.</p>
                  <p>Be sure to keep your accuracy above 80%</p>
                  <p>Press any key to continue the experiment. Thank you!</p>",13,,,,,,,,
html-keyboard-response,300,710658,994.4250000007451,"<div style=""font-size:48px;"">Press any key to begin list 3 of 24 </div>",13,,,,,,,,
html-keyboard-response,301,713178,null,"<div style=""font-size:60px;"">+</div>",null,,,,,,,,
html-keyboard-response,302,713637,457.1649999998044,"SEAGULL<img id = ""stim"" ><div class = red_square id = ""topsquare"" ></div><img id = ""stim"" ><div class = red_square  id = ""bottomsquare"" ></div>",32,word_square,response,1,Space,true,,,
html-keyboard-response,303,715152,null,"SEAGULL",null,word,,,,, 'SEAGULL',,
html-keyboard-response,304,715658,null,"TORCH<img id = ""stim"" ><div class = green_square id = ""topsquare"" ></div><img id = ""stim"" ><div class = green_square  id = ""bottomsquare"" ></div>",null,word_square,response,0,none,true,,,
html-keyboard-response,305,717164,null,"TORCH",null,word,,,,, 'TORCH',,
html-keyboard-response,306,717666,null,"HEEL<img id = ""stim"" ><div class = green_square id = ""topsquare"" ></div><img id = ""stim"" ><div class = green_square  id = ""bottomsquare"" ></div>",null,word_square,response,0,none,true,,,
html-keyboard-response,307,719173,null,"HEEL",null,word,,,,, 'HEEL',,
html-keyboard-response,308,719479,304.5749999983236,"SOFA<img id = ""stim"" ><div class = red_square id = ""topsquare"" ></div><img id = ""stim"" ><div class = red_square  id = ""bottomsquare"" ></div>",32,word_square,response,1,Space,true,,,
html-keyboard-response,309,720986,null,"SOFA",null,word,,,,, 'SOFA',,
html-keyboard-response,310,721308,321.3550000000978,"GANGSTER<img id = ""stim"" ><div class = red_square id = ""topsquare"" ></div><img id = ""stim"" ><div class = red_square  id = ""bottomsquare"" ></div>",32,word_square,response,1,Space,true,,,
html-keyboard-response,311,722823,null,"GANGSTER",null,word,,,,, 'GANGSTER',,
html-keyboard-response,312,723338,null,"CONVICT<img id = ""stim"" ><div class = green_square id = ""topsquare"" ></div><img id = ""stim"" ><div class = green_square  id = ""bottomsquare"" ></div>",null,word_square,response,0,none,true,,,
html-keyboard-response,313,724845,null,"CONVICT",null,word,,,,, 'CONVICT',,
html-keyboard-response,314,725205,358.98500000254717,"OUTLAW<img id = ""stim"" ><div class = red_square id = ""topsquare"" ></div><img id = ""stim"" ><div class = red_square  id = ""bottomsquare"" ></div>",32,word_square,response,1,Space,true,,,
html-keyboard-response,315,726712,null,"OUTLAW",null,word,,,,, 'OUTLAW',,
html-keyboard-response,316,727215,null,"PARROT<img id = ""stim"" ><div class = green_square id = ""topsquare"" ></div><img id = ""stim"" ><div class = green_square  id = ""bottomsquare"" ></div>",null,word_square,response,0,none,true,,,
html-keyboard-response,317,728731,null,"PARROT",null,word,,,,, 'PARROT',,
html-keyboard-response,318,729046,313.965000001248,"ANKLE<img id = ""stim"" ><div class = red_square id = ""topsquare"" ></div><img id = ""stim"" ><div class = red_square  id = ""bottomsquare"" ></div>",32,word_square,response,1,Space,true,,,
html-keyboard-response,319,730558,null,"ANKLE",null,word,,,,, 'ANKLE',,
html-keyboard-response,320,731014,454.9650000007823,"DRAWER<img id = ""stim"" ><div class = red_square id = ""topsquare"" ></div><img id = ""stim"" ><div class = red_square  id = ""bottomsquare"" ></div>",32,word_square,response,1,Space,true,,,
html-keyboard-response,321,732522,null,"DRAWER",null,word,,,,, 'DRAWER',,
html-keyboard-response,322,733030,null,"HUMAN<img id = ""stim"" ><div class = green_square id = ""topsquare"" ></div><img id = ""stim"" ><div class = green_square  id = ""bottomsquare"" ></div>",null,word_square,response,0,none,true,,,
html-keyboard-response,323,734545,null,"HUMAN",null,word,,,,, 'HUMAN',,
html-keyboard-response,324,735047,null,"BRACELET<img id = ""stim"" ><div class = green_square id = ""topsquare"" ></div><img id = ""stim"" ><div class = green_square  id = ""bottomsquare"" ></div>",null,word_square,response,0,none,true,,,
html-keyboard-response,325,736553,null,"BRACELET",null,word,,,,, 'BRACELET',,
html-keyboard-response,326,736875,321.3099999993574,"FOX<img id = ""stim"" ><div class = red_square id = ""topsquare"" ></div><img id = ""stim"" ><div class = red_square  id = ""bottomsquare"" ></div>",32,word_square,response,1,Space,true,,,
html-keyboard-response,327,738387,null,"FOX",null,word,,,,, 'FOX',,
html-keyboard-response,328,738728,339.93000000191387,"SUMMIT<img id = ""stim"" ><div class = red_square id = ""topsquare"" ></div><img id = ""stim"" ><div class = red_square  id = ""bottomsquare"" ></div>",32,word_square,response,1,Space,true,,,
html-keyboard-response,329,740235,null,"SUMMIT",null,word,,,,, 'SUMMIT',,
html-keyboard-response,330,740742,null,"YARN<img id = ""stim"" ><div class = green_square id = ""topsquare"" ></div><img id = ""stim"" ><div class = green_square  id = ""bottomsquare"" ></div>",null,word_square,response,0,none,true,,,
html-keyboard-response,331,742250,null,"YARN",null,word,,,,, 'YARN',,
html-keyboard-response,332,742588,336.8300000000745,"LEG<img id = ""stim"" ><div class = red_square id = ""topsquare"" ></div><img id = ""stim"" ><div class = red_square  id = ""bottomsquare"" ></div>",32,word_square,response,1,Space,true,,,
html-keyboard-response,333,744097,null,"LEG",null,word,,,,, 'LEG',,
html-keyboard-response,334,744602,null,"SERGEANT<img id = ""stim"" ><div class = green_square id = ""topsquare"" ></div><img id = ""stim"" ><div class = green_square  id = ""bottomsquare"" ></div>",null,word_square,response,0,none,true,,,
html-keyboard-response,335,746111,null,"SERGEANT",null,word,,,,, 'SERGEANT',,
html-keyboard-response,336,746614,null,"LOVER<img id = ""stim"" ><div class = green_square id = ""topsquare"" ></div><img id = ""stim"" ><div class = green_square  id = ""bottomsquare"" ></div>",null,word_square,response,0,none,true,,,
html-keyboard-response,337,748122,null,"LOVER",null,word,,,,, 'LOVER',,
call-function,338,748123,,"",,,,,,,,,
html-keyboard-response,339,748233,null,"",null,,,,,,,,
math-period,340,751225,4798.094999994733,"",,,,,,,,,5
html-keyboard-response,341,751337,null,"",null,,,,,,,,
math-period,342,752759,2270.2250000038184,"",,,,,,,,,4
html-keyboard-response,343,752860,null,"",null,,,,,,,,
math-period,344,754555,3161.3849999994272,"",,,,,,,,,4
html-keyboard-response,345,754670,null,"",null,,,,,,,,
math-period,346,755524,1602.4700000016019,"",,,,,,,,,2
html-keyboard-response,347,755633,null,"",null,,,,,,,,
math-period,348,756839,2282.930000001099,"",,,,,,,,,1
html-keyboard-response,349,756941,null,"",null,,,,,,,,
math-period,350,761372,8534.520000001066,"",,,,,,,,,3
html-keyboard-response,351,761473,null,"",null,,,,,,,,
math-period,352,764159,5022.66500000027,"",,,,,,,,,3
html-keyboard-response,353,764260,null,"",null,,,,,,,,
math-period,354,765396,2153.9499999997206,"",,,,,,,,,2
html-keyboard-response,355,765498,null,"",null,,,,,,,,
math-period,356,767547,3299.42999999912,"",,,,,,,,,3
html-keyboard-response,357,767650,null,"",null,,,,,,,,
math-period,358,770185,4227.78999999736,"",,,,,,,,,4
html-keyboard-response,359,770288,null,"",null,,,,,,,,
math-period,360,771622,2442.820000000065,"",,,,,,,,,1
html-keyboard-response,361,771727,null,"",null,,,,,,,,
math-period,362,772136,null,"",,,,,,,,,
html-keyboard-response,363,773149,null,"Recall Period!",null,,,,,,,,
call-function,364,773149,,"",,,,,,,,,
html-keyboard-response,365,773259,null,"",null,,,,,,,,
recall-period,366,776068,2808.529999998398,"",,,,,,,,,
html-keyboard-response,367,776170,null,"",null,,,,,,,,
recall-period,368,833469,563642.0299999837,"",,,,,,,,,husband
html-keyboard-response,369,833579,null,"",null,,,,,,,,
recall-period,370,839277,62539.61999997776,"",,,,,,,,,table
html-keyboard-response,371,839380,null,"",null,,,,,,,,
recall-period,372,848158,null,"",,,,,,,,,
html-keyboard-response,373,848660,null,"Time's Up!",null,,,,,,,,
html-keyboard-response,374,850720,2057.360000002547,"<p> Good job! You responded correctly to 94% of the red squares.</p>
                  <p>Be sure to keep your accuracy above 80%</p>
                  <p>Press any key to continue the experiment. Thank you!</p>",13,,,,,,,,
html-keyboard-response,375,851609,888.3150000000605,"<div style=""font-size:48px;"">Press any key to begin list 4 of 24 </div>",13,,,,,,,,
html-keyboard-response,376,854141,null,"<div style=""font-size:60px;"">+</div>",null,,,,,,,,
html-keyboard-response,377,854585,442.0849999987986,"POCKET<img id = ""stim"" ><div class = red_square id = ""topsquare"" ></div><img id = ""stim"" ><div class = red_square  id = ""bottomsquare"" ></div>",32,word_square,response,1,Space,true,,,
html-keyboard-response,378,856093,null,"POCKET",null,word,,,,, 'POCKET',,
html-keyboard-response,379,856598,null,"RIFLE<img id = ""stim"" ><div class = green_square id = ""topsquare"" ></div><img id = ""stim"" ><div class = green_square  id = ""bottomsquare"" ></div>",null,word_square,response,0,none,true,,,
html-keyboard-response,380,858113,null,"RIFLE",null,word,,,,, 'RIFLE',,
html-keyboard-response,381,858629,null,"CASKET<img id = ""stim"" ><div class = green_square id = ""topsquare"" ></div><img id = ""stim"" ><div class = green_square  id = ""bottomsquare"" ></div>",null,word_square,response,0,none,true,,,
html-keyboard-response,382,860132,null,"CASKET",null,word,,,,, 'CASKET',,
html-keyboard-response,383,860562,428.45999999926426,"SCAPEGOAT<img id = ""stim"" ><div class = red_square id = ""topsquare"" ></div><img id = ""stim"" ><div class = red_square  id = ""bottomsquare"" ></div>",32,word_square,response,1,Space,true,,,
html-keyboard-response,384,862078,null,"SCAPEGOAT",null,word,,,,, 'SCAPEGOAT',,
html-keyboard-response,385,862557,478.00999999884516,"NEUTRON<img id = ""stim"" ><div class = red_square id = ""topsquare"" ></div><img id = ""stim"" ><div class = red_square  id = ""bottomsquare"" ></div>",32,word_square,response,1,Space,true,,,
html-keyboard-response,386,864071,null,"NEUTRON",null,word,,,,, 'NEUTRON',,
html-keyboard-response,387,864576,null,"SUNRISE<img id = ""stim"" ><div class = green_square id = ""topsquare"" ></div><img id = ""stim"" ><div class = green_square  id = ""bottomsquare"" ></div>",null,word_square,response,0,none,true,,,
html-keyboard-response,388,866088,null,"SUNRISE",null,word,,,,, 'SUNRISE',,
html-keyboard-response,389,866440,350.4399999983143,"SUNSET<img id = ""stim"" ><div class = red_square id = ""topsquare"" ></div><img id = ""stim"" ><div class = red_square  id = ""bottomsquare"" ></div>",32,word_square,response,1,Space,true,,,
html-keyboard-response,390,867951,null,"SUNSET",null,word,,,,, 'SUNSET',,
html-keyboard-response,391,868465,null,"ATOM<img id = ""stim"" ><div class = green_square id = ""topsquare"" ></div><img id = ""stim"" ><div class = green_square  id = ""bottomsquare"" ></div>",null,word_square,response,0,none,true,,,
html-keyboard-response,392,869972,null,"ATOM",null,word,,,,, 'ATOM',,
html-keyboard-response,393,870326,352.43999999866355,"PISTON<img id = ""stim"" ><div class = red_square id = ""topsquare"" ></div><img id = ""stim"" ><div class = red_square  id = ""bottomsquare"" ></div>",32,word_square,response,1,Space,true,,,
html-keyboard-response,394,871836,null,"PISTON",null,word,,,,, 'PISTON',,
html-keyboard-response,395,872311,473.47000000078697,"HANDBAG<img id = ""stim"" ><div class = red_square id = ""topsquare"" ></div><img id = ""stim"" ><div class = red_square  id = ""bottomsquare"" ></div>",32,word_square,response,1,Space,true,,,
html-keyboard-response,396,873821,null,"HANDBAG",null,word,,,,, 'HANDBAG',,
html-keyboard-response,397,874329,null,"SENATE<img id = ""stim"" ><div class = green_square id = ""topsquare"" ></div><img id = ""stim"" ><div class = green_square  id = ""bottomsquare"" ></div>",null,word_square,response,0,none,true,,,
html-keyboard-response,398,875841,null,"SENATE",null,word,,,,, 'SENATE',,
html-keyboard-response,399,876352,null,"BIBLE<img id = ""stim"" ><div class = green_square id = ""topsquare"" ></div><img id = ""stim"" ><div class = green_square  id = ""bottomsquare"" ></div>",null,word_square,response,0,none,true,,,
html-keyboard-response,400,877859,null,"BIBLE",null,word,,,,, 'BIBLE',,
html-keyboard-response,401,878280,419.07500000169966,"SQUIRREL<img id = ""stim"" ><div class = red_square id = ""topsquare"" ></div><img id = ""stim"" ><div class = red_square  id = ""bottomsquare"" ></div>",32,word_square,response,1,Space,true,,,
html-keyboard-response,402,879783,null,"SQUIRREL",null,word,,,,, 'SQUIRREL',,
html-keyboard-response,403,880288,null,"LADY<img id = ""stim"" ><div class = red_square id = ""topsquare"" ></div><img id = ""stim"" ><div class = red_square  id = ""bottomsquare"" ></div>",null,word_square,response,1,Space,false,,,
html-keyboard-response,404,881798,null,"LADY",null,word,,,,, 'LADY',,
html-keyboard-response,405,882303,null,"PAPER<img id = ""stim"" ><div class = green_square id = ""topsquare"" ></div><img id = ""stim"" ><div class = green_square  id = ""bottomsquare"" ></div>",null,word_square,response,0,none,true,,,
html-keyboard-response,406,883807,null,"PAPER",null,word,,,,, 'PAPER',,
html-keyboard-response,407,884199,390.69499999831896,"ANCHOR<img id = ""stim"" ><div class = red_square id = ""topsquare"" ></div><img id = ""stim"" ><div class = red_square  id = ""bottomsquare"" ></div>",32,word_square,response,1,Space,true,,,
html-keyboard-response,408,885714,null,"ANCHOR",null,word,,,,, 'ANCHOR',,
html-keyboard-response,409,886219,null,"CARPET<img id = ""stim"" ><div class = green_square id = ""topsquare"" ></div><img id = ""stim"" ><div class = green_square  id = ""bottomsquare"" ></div>",null,word_square,response,0,none,true,,,
html-keyboard-response,410,887735,null,"CARPET",null,word,,,,, 'CARPET',,
html-keyboard-response,411,888250,null,"ZEBRA<img id = ""stim"" ><div class = green_square id = ""topsquare"" ></div><img id = ""stim"" ><div class = green_square  id = ""bottomsquare"" ></div>",null,word_square,response,0,none,true,,,
html-keyboard-response,412,889760,null,"ZEBRA",null,word,,,,, 'ZEBRA',,
call-function,413,889761,,"",,,,,,,,,
html-keyboard-response,414,889870,null,"",null,,,,,,,,
math-period,415,895218,15707.784999998636,"",,,,,,,,,4
html-keyboard-response,416,895320,null,"",null,,,,,,,,
math-period,417,897036,3149.410000001779,"",,,,,,,,,5
html-keyboard-response,418,897149,null,"",null,,,,,,,,
math-period,419,899240,4010.2850000002654,"",,,,,,,,,4
html-keyboard-response,420,899341,null,"",null,,,,,,,,
math-period,421,901529,4129.454999998561,"",,,,,,,,,4
html-keyboard-response,422,901645,null,"",null,,,,,,,,
math-period,423,902823,2132.5449999967823,"",,,,,,,,,3
html-keyboard-response,424,902925,null,"",null,,,,,,,,
math-period,425,904033,2093.600000000093,"",,,,,,,,,1
html-keyboard-response,426,904135,null,"",null,,,,,,,,
math-period,427,905645,2910.994999998482,"",,,,,,,,,2
html-keyboard-response,428,905748,null,"",null,,,,,,,,
math-period,429,907559,3526.444999995758,"",,,,,,,,,2
html-keyboard-response,430,907661,null,"",null,,,,,,,,
math-period,431,908708,1970.9599999987986,"",,,,,,,,,3
html-keyboard-response,432,908811,null,"",null,,,,,,,,
math-period,433,910038,2302.6549999995623,"",,,,,,,,,1
html-keyboard-response,434,910141,null,"",null,,,,,,,,
math-period,435,911632,2884.0000000017462,"",,,,,,,,,2
html-keyboard-response,436,911734,null,"",null,,,,,,,,
math-period,437,913653,3720.9500000027474,"",,,,,,,,,1
html-keyboard-response,438,913761,null,"",null,,,,,,,,
math-period,439,913764,null,"",,,,,,,,,
html-keyboard-response,440,914777,null,"Recall Period!",null,,,,,,,,
call-function,441,914778,,"",,,,,,,,,
html-keyboard-response,442,914891,null,"",null,,,,,,,,
recall-period,443,918540,26037.085000014165,"",,,,,,,,,scapegoat
html-keyboard-response,444,918641,null,"",null,,,,,,,,
recall-period,445,920024,6696.340000002296,"",,,,,,,,,pocket
html-keyboard-response,446,920132,null,"",null,,,,,,,,
recall-period,447,921396,4019.8349999993807,"",,,,,,,,,rifle
html-keyboard-response,448,921507,null,"",null,,,,,,,,
recall-period,449,933962,237743.7300000362,"",,,,,,,,,piston
html-keyboard-response,450,934074,null,"",null,,,,,,,,
recall-period,451,988494,270037.65999999107,"",,,,,,,,,lady
html-keyboard-response,452,988606,null,"",null,,,,,,,,
recall-period,453,989780,null,"",,,,,,,,,
html-keyboard-response,454,990282,null,"Time's Up!",null,,,,,,,,
html-keyboard-response,455,992821,2536.9449999998324,"<p> Good job! You responded correctly to 94% of the red squares.</p>
                  <p>Be sure to keep your accuracy above 80%</p>
                  <p>Press any key to continue the experiment. Thank you!</p>",32,,,,,,,,
html-keyboard-response,456,993922,1099.7249999999767,"<div style=""font-size:48px;"">Press any key to begin list 5 of 24 </div>",32,,,,,,,,
html-keyboard-response,457,996444,null,"<div style=""font-size:60px;"">+</div>",null,,,,,,,,
html-keyboard-response,458,996954,null,"DIAMOND<img id = ""stim"" ><div class = green_square id = ""topsquare"" ></div><img id = ""stim"" ><div class = green_square  id = ""bottomsquare"" ></div>",null,word_square,response,0,none,true,,,
html-keyboard-response,459,998459,null,"DIAMOND",null,word,,,,, 'DIAMOND',,
html-keyboard-response,460,998969,null,"MONKEY<img id = ""stim"" ><div class = green_square id = ""topsquare"" ></div><img id = ""stim"" ><div class = green_square  id = ""bottomsquare"" ></div>",null,word_square,response,0,none,true,,,
html-keyboard-response,461,1000481,null,"MONKEY",null,word,,,,, 'MONKEY',,
html-keyboard-response,462,1000876,393.739999999525,"WORKER<img id = ""stim"" ><div class = red_square id = ""topsquare"" ></div><img id = ""stim"" ><div class = red_square  id = ""bottomsquare"" ></div>",32,word_square,response,1,Space,true,,,
html-keyboard-response,463,1002382,null,"WORKER",null,word,,,,, 'WORKER',,
html-keyboard-response,464,1002823,439.88500000338536,"SNAKE<img id = ""stim"" ><div class = red_square id = ""topsquare"" ></div><img id = ""stim"" ><div class = red_square  id = ""bottomsquare"" ></div>",32,word_square,response,1,Space,true,,,
html-keyboard-response,465,1004334,null,"SNAKE",null,word,,,,, 'SNAKE',,
html-keyboard-response,466,1004844,null,"FLESH<img id = ""stim"" ><div class = green_square id = ""topsquare"" ></div><img id = ""stim"" ><div class = green_square  id = ""bottomsquare"" ></div>",null,word_square,response,0,none,true,,,
html-keyboard-response,467,1006347,null,"FLESH",null,word,,,,, 'FLESH',,
html-keyboard-response,468,1006742,393.51499999978114,"ELK<img id = ""stim"" ><div class = red_square id = ""topsquare"" ></div><img id = ""stim"" ><div class = red_square  id = ""bottomsquare"" ></div>",32,word_square,response,1,Space,true,,,
html-keyboard-response,469,1008250,null,"ELK",null,word,,,,, 'ELK',,
html-keyboard-response,470,1008756,null,"QUARTER<img id = ""stim"" ><div class = green_square id = ""topsquare"" ></div><img id = ""stim"" ><div class = green_square  id = ""bottomsquare"" ></div>",null,word_square,response,0,none,true,,,
html-keyboard-response,471,1010268,null,"QUARTER",null,word,,,,, 'QUARTER',,
html-keyboard-response,472,1010614,344.2250000007916,"UNCLE<img id = ""stim"" ><div class = red_square id = ""topsquare"" ></div><img id = ""stim"" ><div class = red_square  id = ""bottomsquare"" ></div>",32,word_square,response,1,Space,true,,,
html-keyboard-response,473,1012127,null,"UNCLE",null,word,,,,, 'UNCLE',,
html-keyboard-response,474,1012637,null,"COBRA<img id = ""stim"" ><div class = green_square id = ""topsquare"" ></div><img id = ""stim"" ><div class = green_square  id = ""bottomsquare"" ></div>",null,word_square,response,0,none,true,,,
html-keyboard-response,475,1014149,null,"COBRA",null,word,,,,, 'COBRA',,
html-keyboard-response,476,1014651,null,"PIGMENT<img id = ""stim"" ><div class = green_square id = ""topsquare"" ></div><img id = ""stim"" ><div class = green_square  id = ""bottomsquare"" ></div>",null,word_square,response,0,none,true,,,
html-keyboard-response,477,1016163,null,"PIGMENT",null,word,,,,, 'PIGMENT',,
html-keyboard-response,478,1016470,305.7599999993108,"LEADER<img id = ""stim"" ><div class = red_square id = ""topsquare"" ></div><img id = ""stim"" ><div class = red_square  id = ""bottomsquare"" ></div>",32,word_square,response,1,Space,true,,,
html-keyboard-response,479,1017983,null,"LEADER",null,word,,,,, 'LEADER',,
html-keyboard-response,480,1018496,null,"MACHINE<img id = ""stim"" ><div class = green_square id = ""topsquare"" ></div><img id = ""stim"" ><div class = green_square  id = ""bottomsquare"" ></div>",null,word_square,response,0,none,true,,,
html-keyboard-response,481,1020000,null,"MACHINE",null,word,,,,, 'MACHINE',,
html-keyboard-response,482,1020502,null,"ROBOT<img id = ""stim"" ><div class = green_square id = ""topsquare"" ></div><img id = ""stim"" ><div class = green_square  id = ""bottomsquare"" ></div>",null,word_square,response,0,none,true,,,
html-keyboard-response,483,1022008,null,"ROBOT",null,word,,,,, 'ROBOT',,
html-keyboard-response,484,1022359,349.4649999993853,"ICEBERG<img id = ""stim"" ><div class = red_square id = ""topsquare"" ></div><img id = ""stim"" ><div class = red_square  id = ""bottomsquare"" ></div>",32,word_square,response,1,Space,true,,,
html-keyboard-response,485,1023862,null,"ICEBERG",null,word,,,,, 'ICEBERG',,
html-keyboard-response,486,1024288,424.09500000206754,"BUCKET<img id = ""stim"" ><div class = red_square id = ""topsquare"" ></div><img id = ""stim"" ><div class = red_square  id = ""bottomsquare"" ></div>",32,word_square,response,1,Space,true,,,
html-keyboard-response,487,1025798,null,"BUCKET",null,word,,,,, 'BUCKET',,
html-keyboard-response,488,1026307,null,"DESSERT<img id = ""stim"" ><div class = green_square id = ""topsquare"" ></div><img id = ""stim"" ><div class = green_square  id = ""bottomsquare"" ></div>",null,word_square,response,0,none,true,,,
html-keyboard-response,489,1027820,null,"DESSERT",null,word,,,,, 'DESSERT',,
html-keyboard-response,490,1028132,310.1600000008475,"LAGOON<img id = ""stim"" ><div class = red_square id = ""topsquare"" ></div><img id = ""stim"" ><div class = red_square  id = ""bottomsquare"" ></div>",32,word_square,response,1,Space,true,,,
html-keyboard-response,491,1029643,null,"LAGOON",null,word,,,,, 'LAGOON',,
html-keyboard-response,492,1030084,439.2100000004284,"DOCK<img id = ""stim"" ><div class = red_square id = ""topsquare"" ></div><img id = ""stim"" ><div class = red_square  id = ""bottomsquare"" ></div>",32,word_square,response,1,Space,true,,,
html-keyboard-response,493,1031598,null,"DOCK",null,word,,,,, 'DOCK',,
call-function,494,1031599,,"",,,,,,,,,
html-keyboard-response,495,1031702,null,"",null,,,,,,,,
math-period,496,1034117,4041.1849999983096,"",,,,,,,,,4
html-keyboard-response,497,1034233,null,"",null,,,,,,,,
math-period,498,1035106,1611.849999997532,"",,,,,,,,,3
html-keyboard-response,499,1035208,null,"",null,,,,,,,,
math-period,500,1036344,2027.0899999997346,"",,,,,,,,,5
html-keyboard-response,501,1036446,null,"",null,,,,,,,,
math-period,502,1037704,2307.5350000036415,"",,,,,,,,,6
html-keyboard-response,503,1037806,null,"",null,,,,,,,,
math-period,504,1038948,1982.3249999971595,"",,,,,,,,,3
html-keyboard-response,505,1039060,null,"",null,,,,,,,,
math-period,506,1040124,2025.2499999988358,"",,,,,,,,,2
html-keyboard-response,507,1040226,null,"",null,,,,,,,,
math-period,508,1042313,4014.4850000031292,"",,,,,,,,,0
html-keyboard-response,509,1042416,null,"",null,,,,,,,,
math-period,510,1043998,3065.3550000061514,"",,,,,,,,,1
html-keyboard-response,511,1044113,null,"",null,,,,,,,,
math-period,512,1045281,2259.9900000022026,"",,,,,,,,,1
html-keyboard-response,513,1045397,null,"",null,,,,,,,,
math-period,514,1046684,2431.9650000033434,"",,,,,,,,,2
html-keyboard-response,515,1046788,null,"",null,,,,,,,,
math-period,516,1048162,2572.425000002142,"",,,,,,,,,4
html-keyboard-response,517,1048276,null,"",null,,,,,,,,
math-period,518,1050049,3356.5849999978673,"",,,,,,,,,1
html-keyboard-response,519,1050152,null,"",null,,,,,,,,
math-period,520,1051500,2461.3450000034645,"",,,,,,,,,4
html-keyboard-response,521,1051602,null,"",null,,,,,,,,
math-period,522,1052790,2211.3449999997392,"",,,,,,,,,6
html-keyboard-response,523,1052893,null,"",null,,,,,,,,
math-period,524,1053759,1638.975000001723,"",,,,,,,,,3
html-keyboard-response,525,1053865,null,"",null,,,,,,,,
math-period,526,1054750,1662.0250000015367,"",,,,,,,,,2
html-keyboard-response,527,1054857,null,"",null,,,,,,,,
math-period,528,1055602,null,"",,,,,,,,,
html-keyboard-response,529,1056615,null,"Recall Period!",null,,,,,,,,
call-function,530,1056616,,"",,,,,,,,,
html-keyboard-response,531,1056718,null,"",null,,,,,,,,
recall-period,532,1068719,80156.9999999879,"",,,,,,,,,lagoon
html-keyboard-response,533,1068835,null,"",null,,,,,,,,
recall-period,534,1073935,62104.274999987334,"",,,,,,,,,iceberg
html-keyboard-response,535,1074040,null,"",null,,,,,,,,
recall-period,536,1077627,19050.68000001507,"",,,,,,,,,woman
html-keyboard-response,537,1077729,null,"",null,,,,,,,,
recall-period,538,1086185,81718.6549999963,"",,,,,,,,,dragon
html-keyboard-response,539,1086293,null,"",null,,,,,,,,
recall-period,540,1131632,null,"",,,,,,,,,
html-keyboard-response,541,1132136,null,"Time's Up!",null,,,,,,,,
html-keyboard-response,542,1135296,3158.0800000012387,"<p> Good job! You responded correctly to 95% of the red squares.</p>
                  <p>Be sure to keep your accuracy above 80%</p>
                  <p>Press any key to continue the experiment. Thank you!</p>",32,,,,,,,,
html-keyboard-response,543,1136780,1483.0499999988824,"<div style=""font-size:48px;"">Press any key to begin list 6 of 24 </div>",32,,,,,,,,
html-keyboard-response,544,1139305,null,"<div style=""font-size:60px;"">+</div>",null,,,,,,,,
html-keyboard-response,545,1139820,null,"ORGAN<img id = ""stim"" ><div class = green_square id = ""topsquare"" ></div><img id = ""stim"" ><div class = green_square  id = ""bottomsquare"" ></div>",null,word_square,response,0,none,true,,,
html-keyboard-response,546,1141334,null,"ORGAN",null,word,,,,, 'ORGAN',,
html-keyboard-response,547,1141838,null,"NICKEL<img id = ""stim"" ><div class = green_square id = ""topsquare"" ></div><img id = ""stim"" ><div class = green_square  id = ""bottomsquare"" ></div>",null,word_square,response,0,none,true,,,
html-keyboard-response,548,1143345,null,"NICKEL",null,word,,,,, 'NICKEL',,
html-keyboard-response,549,1143849,null,"INFANT<img id = ""stim"" ><div class = red_square id = ""topsquare"" ></div><img id = ""stim"" ><div class = red_square  id = ""bottomsquare"" ></div>",null,word_square,response,1,Space,false,,,
html-keyboard-response,550,1145366,null,"INFANT",null,word,,,,, 'INFANT',,
html-keyboard-response,551,1145811,443.24499999848194,"COTTAGE<img id = ""stim"" ><div class = red_square id = ""topsquare"" ></div><img id = ""stim"" ><div class = red_square  id = ""bottomsquare"" ></div>",32,word_square,response,1,Space,true,,,
html-keyboard-response,552,1147323,null,"COTTAGE",null,word,,,,, 'COTTAGE',,
html-keyboard-response,553,1147837,null,"LETTER<img id = ""stim"" ><div class = green_square id = ""topsquare"" ></div><img id = ""stim"" ><div class = green_square  id = ""bottomsquare"" ></div>",null,word_square,response,0,none,true,,,
html-keyboard-response,554,1149339,null,"LETTER",null,word,,,,, 'LETTER',,
html-keyboard-response,555,1149750,409.31500000087544,"LASER<img id = ""stim"" ><div class = red_square id = ""topsquare"" ></div><img id = ""stim"" ><div class = red_square  id = ""bottomsquare"" ></div>",32,word_square,response,1,Space,true,,,
html-keyboard-response,556,1151254,null,"LASER",null,word,,,,, 'LASER',,
html-keyboard-response,557,1151770,null,"PENCIL<img id = ""stim"" ><div class = green_square id = ""topsquare"" ></div><img id = ""stim"" ><div class = green_square  id = ""bottomsquare"" ></div>",null,word_square,response,0,none,true,,,
html-keyboard-response,558,1153273,null,"PENCIL",null,word,,,,, 'PENCIL',,
html-keyboard-response,559,1153543,269.0649999966845,"MARKET<img id = ""stim"" ><div class = red_square id = ""topsquare"" ></div><img id = ""stim"" ><div class = red_square  id = ""bottomsquare"" ></div>",32,word_square,response,1,Space,true,,,
html-keyboard-response,560,1155052,null,"MARKET",null,word,,,,, 'MARKET',,
html-keyboard-response,561,1155555,null,"PANTHER<img id = ""stim"" ><div class = green_square id = ""topsquare"" ></div><img id = ""stim"" ><div class = green_square  id = ""bottomsquare"" ></div>",null,word_square,response,0,none,true,,,
html-keyboard-response,562,1157065,null,"PANTHER",null,word,,,,, 'PANTHER',,
html-keyboard-response,563,1157577,null,"TOASTER<img id = ""stim"" ><div class = green_square id = ""topsquare"" ></div><img id = ""stim"" ><div class = green_square  id = ""bottomsquare"" ></div>",null,word_square,response,0,none,true,,,
html-keyboard-response,564,1159095,null,"TOASTER",null,word,,,,, 'TOASTER',,
html-keyboard-response,565,1159486,390.4000000001397,"CARRIAGE<img id = ""stim"" ><div class = red_square id = ""topsquare"" ></div><img id = ""stim"" ><div class = red_square  id = ""bottomsquare"" ></div>",32,word_square,response,1,Space,true,,,
html-keyboard-response,566,1160989,null,"CARRIAGE",null,word,,,,, 'CARRIAGE',,
html-keyboard-response,567,1161492,null,"BRICK<img id = ""stim"" ><div class = green_square id = ""topsquare"" ></div><img id = ""stim"" ><div class = green_square  id = ""bottomsquare"" ></div>",null,word_square,response,0,none,true,,,
html-keyboard-response,568,1162999,null,"BRICK",null,word,,,,, 'BRICK',,
html-keyboard-response,569,1163512,null,"HAMPER<img id = ""stim"" ><div class = green_square id = ""topsquare"" ></div><img id = ""stim"" ><div class = green_square  id = ""bottomsquare"" ></div>",null,word_square,response,0,none,true,,,
html-keyboard-response,570,1165028,null,"HAMPER",null,word,,,,, 'HAMPER',,
html-keyboard-response,571,1165478,448.7950000001583,"COSTUME<img id = ""stim"" ><div class = red_square id = ""topsquare"" ></div><img id = ""stim"" ><div class = red_square  id = ""bottomsquare"" ></div>",32,word_square,response,1,Space,true,,,
html-keyboard-response,572,1166995,null,"COSTUME",null,word,,,,, 'COSTUME',,
html-keyboard-response,573,1167486,488.84000000194646,"BENCH<img id = ""stim"" ><div class = red_square id = ""topsquare"" ></div><img id = ""stim"" ><div class = red_square  id = ""bottomsquare"" ></div>",32,word_square,response,1,Space,true,,,
html-keyboard-response,574,1168994,null,"BENCH",null,word,,,,, 'BENCH',,
html-keyboard-response,575,1169506,null,"TAXI<img id = ""stim"" ><div class = green_square id = ""topsquare"" ></div><img id = ""stim"" ><div class = green_square  id = ""bottomsquare"" ></div>",null,word_square,response,0,none,true,,,
html-keyboard-response,576,1171023,null,"TAXI",null,word,,,,, 'TAXI',,
html-keyboard-response,577,1171451,426.9500000011176,"DRIVER<img id = ""stim"" ><div class = red_square id = ""topsquare"" ></div><img id = ""stim"" ><div class = red_square  id = ""bottomsquare"" ></div>",32,word_square,response,1,Space,true,,,
html-keyboard-response,578,1172958,null,"DRIVER",null,word,,,,, 'DRIVER',,
html-keyboard-response,579,1173461,null,"COLESLAW<img id = ""stim"" ><div class = red_square id = ""topsquare"" ></div><img id = ""stim"" ><div class = red_square  id = ""bottomsquare"" ></div>",null,word_square,response,1,Space,false,,,
html-keyboard-response,580,1174978,null,"COLESLAW",null,word,,,,, 'COLESLAW',,
call-function,581,1174980,,"",,,,,,,,,
html-keyboard-response,582,1175082,null,"",null,,,,,,,,
math-period,583,1177952,5033.429999999469,"",,,,,,,,,4
html-keyboard-response,584,1178054,null,"",null,,,,,,,,
math-period,585,1179082,1932.984999999404,"",,,,,,,,,4
html-keyboard-response,586,1179198,null,"",null,,,,,,,,
math-period,587,1180197,1843.364999996964,"",,,,,,,,,3
html-keyboard-response,588,1180300,null,"",null,,,,,,,,
math-period,589,1181862,3015.529999997001,"",,,,,,,,,2
html-keyboard-response,590,1181965,null,"",null,,,,,,,,
math-period,591,1183686,3175.4550000042655,"",,,,,,,,,0
html-keyboard-response,592,1183798,null,"",null,,,,,,,,
math-period,593,1185188,2623.520000001183,"",,,,,,,,,2
html-keyboard-response,594,1185290,null,"",null,,,,,,,,
math-period,595,1186307,1938.350000000326,"",,,,,,,,,3
html-keyboard-response,596,1186416,null,"",null,,,,,,,,
math-period,597,1188208,3432.1449999990873,"",,,,,,,,,1
html-keyboard-response,598,1188311,null,"",null,,,,,,,,
math-period,599,1189496,2234.820000001695,"",,,,,,,,,6
html-keyboard-response,600,1189604,null,"",null,,,,,,,,
math-period,601,1190797,2271.075000004377,"",,,,,,,,,1
html-keyboard-response,602,1190904,null,"",null,,,,,,,,
math-period,603,1192180,2466.254999998957,"",,,,,,,,,2
html-keyboard-response,604,1192291,null,"",null,,,,,,,,
math-period,605,1193621,2582.129999994999,"",,,,,,,,,2
html-keyboard-response,606,1193724,null,"",null,,,,,,,,
math-period,607,1195453,2947.385000003036,"",,,,,,,,,2
html-keyboard-response,608,1195556,null,"",null,,,,,,,,
math-period,609,1196562,1920.154999999795,"",,,,,,,,,4
html-keyboard-response,610,1196670,null,"",null,,,,,,,,
math-period,611,1198146,2742.520000003511,"",,,,,,,,,4
html-keyboard-response,612,1198254,null,"",null,,,,,,,,
math-period,613,1198989,null,"",,,,,,,,,
html-keyboard-response,614,1199995,null,"Recall Period!",null,,,,,,,,
call-function,615,1199996,,"",,,,,,,,,
html-keyboard-response,616,1200099,null,"",null,,,,,,,,
recall-period,617,1205936,30839.820000000764,"",,,,,,,,,coleslaw
html-keyboard-response,618,1206038,null,"",null,,,,,,,,
recall-period,619,1207325,5727.42499999376,"",,,,,,,,,infant
html-keyboard-response,620,1207429,null,"",null,,,,,,,,
recall-period,621,1210967,27127.675000019604,"",,,,,,,,,cottage
html-keyboard-response,622,1211070,null,"",null,,,,,,,,
recall-period,623,1213354,11558.920000006212,"",,,,,,,,,bench
html-keyboard-response,624,1213461,null,"",null,,,,,,,,
recall-period,625,1240949,451224.284999985,"",,,,,,,,,worker
html-keyboard-response,626,1241051,null,"",null,,,,,,,,
recall-period,627,1275002,null,"",,,,,,,,,
html-keyboard-response,628,1275505,null,"Time's Up!",null,,,,,,,,
html-keyboard-response,629,1277739,2231.7750000001397,"<p> Good job! You responded correctly to 94% of the red squares.</p>
                  <p>Be sure to keep your accuracy above 80%</p>
                  <p>Press any key to continue the experiment. Thank you!</p>",13,,,,,,,,
html-keyboard-response,630,1280475,2734.4300000004005,"<div style=""font-size:48px;"">Press any key to begin list 7 of 24 </div>",32,,,,,,,,
html-keyboard-response,631,1282985,null,"<div style=""font-size:60px;"">+</div>",null,,,,,,,,
html-keyboard-response,632,1283417,429.94000000180677,"SPOON<img id = ""stim"" ><div class = red_square id = ""topsquare"" ></div><img id = ""stim"" ><div class = red_square  id = ""bottomsquare"" ></div>",32,word_square,response,1,Space,true,,,
html-keyboard-response,633,1284929,null,"SPOON",null,word,,,,, 'SPOON',,
html-keyboard-response,634,1285369,438.9850000005681,"JUDGE<img id = ""stim"" ><div class = red_square id = ""topsquare"" ></div><img id = ""stim"" ><div class = red_square  id = ""bottomsquare"" ></div>",32,word_square,response,1,Space,true,,,
html-keyboard-response,635,1286879,null,"JUDGE",null,word,,,,, 'JUDGE',,
html-keyboard-response,636,1287389,null,"PORK<img id = ""stim"" ><div class = green_square id = ""topsquare"" ></div><img id = ""stim"" ><div class = green_square  id = ""bottomsquare"" ></div>",null,word_square,response,0,none,true,,,
html-keyboard-response,637,1288894,null,"PORK",null,word,,,,, 'PORK',,
html-keyboard-response,638,1289396,null,"CAPE<img id = ""stim"" ><div class = green_square id = ""topsquare"" ></div><img id = ""stim"" ><div class = green_square  id = ""bottomsquare"" ></div>",null,word_square,response,0,none,true,,,
html-keyboard-response,639,1290911,null,"CAPE",null,word,,,,, 'CAPE',,
html-keyboard-response,640,1291278,365.2600000023376,"BLADE<img id = ""stim"" ><div class = red_square id = ""topsquare"" ></div><img id = ""stim"" ><div class = red_square  id = ""bottomsquare"" ></div>",32,word_square,response,1,Space,true,,,
html-keyboard-response,641,1292788,null,"BLADE",null,word,,,,, 'BLADE',,
html-keyboard-response,642,1293297,null,"DRESS<img id = ""stim"" ><div class = green_square id = ""topsquare"" ></div><img id = ""stim"" ><div class = green_square  id = ""bottomsquare"" ></div>",null,word_square,response,0,none,true,,,
html-keyboard-response,643,1294802,null,"DRESS",null,word,,,,, 'DRESS',,
html-keyboard-response,644,1295193,389.7149999975227,"RIVER<img id = ""stim"" ><div class = red_square id = ""topsquare"" ></div><img id = ""stim"" ><div class = red_square  id = ""bottomsquare"" ></div>",32,word_square,response,1,Space,true,,,
html-keyboard-response,645,1296703,null,"RIVER",null,word,,,,, 'RIVER',,
html-keyboard-response,646,1297210,null,"DIVER<img id = ""stim"" ><div class = green_square id = ""topsquare"" ></div><img id = ""stim"" ><div class = green_square  id = ""bottomsquare"" ></div>",null,word_square,response,0,none,true,,,
html-keyboard-response,647,1298715,null,"DIVER",null,word,,,,, 'DIVER',,
html-keyboard-response,648,1299090,373.1799999985378,"BASEBALL<img id = ""stim"" ><div class = red_square id = ""topsquare"" ></div><img id = ""stim"" ><div class = red_square  id = ""bottomsquare"" ></div>",32,word_square,response,1,Space,true,,,
html-keyboard-response,649,1300607,null,"BASEBALL",null,word,,,,, 'BASEBALL',,
html-keyboard-response,650,1300974,364.8900000008289,"OZONE<img id = ""stim"" ><div class = red_square id = ""topsquare"" ></div><img id = ""stim"" ><div class = red_square  id = ""bottomsquare"" ></div>",32,word_square,response,1,Space,true,,,
html-keyboard-response,651,1302483,null,"OZONE",null,word,,,,, 'OZONE',,
html-keyboard-response,652,1302990,null,"FOUNTAIN<img id = ""stim"" ><div class = green_square id = ""topsquare"" ></div><img id = ""stim"" ><div class = green_square  id = ""bottomsquare"" ></div>",null,word_square,response,0,none,true,,,
html-keyboard-response,653,1304507,null,"FOUNTAIN",null,word,,,,, 'FOUNTAIN',,
html-keyboard-response,654,1304858,348.48499999847263,"ROOSTER<img id = ""stim"" ><div class = red_square id = ""topsquare"" ></div><img id = ""stim"" ><div class = red_square  id = ""bottomsquare"" ></div>",32,word_square,response,1,Space,true,,,
html-keyboard-response,655,1306367,null,"ROOSTER",null,word,,,,, 'ROOSTER',,
html-keyboard-response,656,1306722,353.68499999819323,"MOUNTAIN<img id = ""stim"" ><div class = red_square id = ""topsquare"" ></div><img id = ""stim"" ><div class = red_square  id = ""bottomsquare"" ></div>",32,word_square,response,1,Space,true,,,
html-keyboard-response,657,1308232,null,"MOUNTAIN",null,word,,,,, 'MOUNTAIN',,
html-keyboard-response,658,1308741,null,"ROACH<img id = ""stim"" ><div class = green_square id = ""topsquare"" ></div><img id = ""stim"" ><div class = green_square  id = ""bottomsquare"" ></div>",null,word_square,response,0,none,true,,,
html-keyboard-response,659,1310251,null,"ROACH",null,word,,,,, 'ROACH',,
html-keyboard-response,660,1310766,null,"ROBIN<img id = ""stim"" ><div class = green_square id = ""topsquare"" ></div><img id = ""stim"" ><div class = green_square  id = ""bottomsquare"" ></div>",null,word_square,response,0,none,true,,,
html-keyboard-response,661,1312272,null,"ROBIN",null,word,,,,, 'ROBIN',,
html-keyboard-response,662,1312610,335.8100000002887,"WINDOW<img id = ""stim"" ><div class = red_square id = ""topsquare"" ></div><img id = ""stim"" ><div class = red_square  id = ""bottomsquare"" ></div>",32,word_square,response,1,Space,true,,,
html-keyboard-response,663,1314115,null,"WINDOW",null,word,,,,, 'WINDOW',,
html-keyboard-response,664,1314624,null,"GLASS<img id = ""stim"" ><div class = green_square id = ""topsquare"" ></div><img id = ""stim"" ><div class = green_square  id = ""bottomsquare"" ></div>",null,word_square,response,0,none,true,,,
html-keyboard-response,665,1316138,null,"GLASS",null,word,,,,, 'GLASS',,
html-keyboard-response,666,1316647,null,"DART<img id = ""stim"" ><div class = green_square id = ""topsquare"" ></div><img id = ""stim"" ><div class = green_square  id = ""bottomsquare"" ></div>",null,word_square,response,0,none,true,,,
html-keyboard-response,667,1318161,null,"DART",null,word,,,,, 'DART',,
call-function,668,1318162,,"",,,,,,,,,
html-keyboard-response,669,1318264,null,"",null,,,,,,,,
math-period,670,1321886,6496.40000000014,"",,,,,,,,,0
html-keyboard-response,671,1321996,null,"",null,,,,,,,,
math-period,672,1323209,2256.794999997597,"",,,,,,,,,5
html-keyboard-response,673,1323311,null,"",null,,,,,,,,
math-period,674,1324857,2882.2799999981653,"",,,,,,,,,5
html-keyboard-response,675,1324968,null,"",null,,,,,,,,
math-period,676,1326201,2272.025000005495,"",,,,,,,,,6
html-keyboard-response,677,1326302,null,"",null,,,,,,,,
math-period,678,1327566,2416.7999999988824,"",,,,,,,,,2
html-keyboard-response,679,1327682,null,"",null,,,,,,,,
math-period,680,1329740,3179.3699999980163,"",,,,,,,,,2
html-keyboard-response,681,1329847,null,"",null,,,,,,,,
math-period,682,1331303,2702.6350000051316,"",,,,,,,,,5
html-keyboard-response,683,1331412,null,"",null,,,,,,,,
math-period,684,1332718,2448.194999997271,"",,,,,,,,,5
html-keyboard-response,685,1332835,null,"",null,,,,,,,,
math-period,686,1334077,2225.135000000475,"",,,,,,,,,1
html-keyboard-response,687,1334179,null,"",null,,,,,,,,
math-period,688,1335427,2374.694999998668,"",,,,,,,,,5
html-keyboard-response,689,1335529,null,"",null,,,,,,,,
math-period,690,1336784,2315.0999999998603,"",,,,,,,,,3
html-keyboard-response,691,1336891,null,"",null,,,,,,,,
math-period,692,1338609,3159.4799999981187,"",,,,,,,,,3
html-keyboard-response,693,1338721,null,"",null,,,,,,,,
math-period,694,1340126,2738.4600000004284,"",,,,,,,,,2
html-keyboard-response,695,1340228,null,"",null,,,,,,,,
math-period,696,1341371,2181.8449999992736,"",,,,,,,,,5
html-keyboard-response,697,1341479,null,"",null,,,,,,,,
math-period,698,1342179,null,"",,,,,,,,,
html-keyboard-response,699,1343196,null,"Recall Period!",null,,,,,,,,
call-function,700,1343197,,"",,,,,,,,,
html-keyboard-response,701,1343299,null,"",null,,,,,,,,
recall-period,702,1346725,13884.799999995856,"",,,,,,,,,pork
html-keyboard-response,703,1346836,null,"",null,,,,,,,,
recall-period,704,1349144,12410.015000004321,"",,,,,,,,,rooster
html-keyboard-response,705,1349258,null,"",null,,,,,,,,
recall-period,706,1352334,11163.055000008317,"",,,,,,,,,judge
html-keyboard-response,707,1352436,null,"",null,,,,,,,,
recall-period,708,1356162,20190.744999997085,"",,,,,,,,,river
html-keyboard-response,709,1356272,null,"",null,,,,,,,,
recall-period,710,1358581,17557.465000020107,"",,,,,,,,,diver
html-keyboard-response,711,1358683,null,"",null,,,,,,,,
recall-period,712,1374384,76737.70000000182,"",,,,,,,,,port
html-keyboard-response,713,1374497,null,"",null,,,,,,,,
recall-period,714,1418198,null,"",,,,,,,,,
html-keyboard-response,715,1418716,null,"Time's Up!",null,,,,,,,,
html-keyboard-response,716,1422102,3384.6200000008103,"<p> Good job! You responded correctly to 95% of the red squares.</p>
                  <p>Be sure to keep your accuracy above 80%</p>
                  <p>Press any key to continue the experiment. Thank you!</p>",32,,,,,,,,
html-keyboard-response,717,1423845,1741.1799999971408,"<div style=""font-size:48px;"">Press any key to begin list 8 of 24 </div>",32,,,,,,,,
html-keyboard-response,718,1426355,null,"<div style=""font-size:60px;"">+</div>",null,,,,,,,,
html-keyboard-response,719,1426745,388.6050000002142,"AIRCRAFT<img id = ""stim"" ><div class = red_square id = ""topsquare"" ></div><img id = ""stim"" ><div class = red_square  id = ""bottomsquare"" ></div>",32,word_square,response,1,Space,true,,,
html-keyboard-response,720,1428261,null,"AIRCRAFT",null,word,,,,, 'AIRCRAFT',,
html-keyboard-response,721,1428654,391.2899999995716,"FOREST<img id = ""stim"" ><div class = red_square id = ""topsquare"" ></div><img id = ""stim"" ><div class = red_square  id = ""bottomsquare"" ></div>",32,word_square,response,1,Space,true,,,
html-keyboard-response,722,1430170,null,"FOREST",null,word,,,,, 'FOREST',,
html-keyboard-response,723,1430675,null,"TURTLE<img id = ""stim"" ><div class = green_square id = ""topsquare"" ></div><img id = ""stim"" ><div class = green_square  id = ""bottomsquare"" ></div>",null,word_square,response,0,none,true,,,
html-keyboard-response,724,1432191,null,"TURTLE",null,word,,,,, 'TURTLE',,
html-keyboard-response,725,1432701,null,"OYSTER<img id = ""stim"" ><div class = green_square id = ""topsquare"" ></div><img id = ""stim"" ><div class = green_square  id = ""bottomsquare"" ></div>",null,word_square,response,0,none,true,,,
html-keyboard-response,726,1434216,null,"OYSTER",null,word,,,,, 'OYSTER',,
html-keyboard-response,727,1434626,407.7499999983702,"GLASSES<img id = ""stim"" ><div class = red_square id = ""topsquare"" ></div><img id = ""stim"" ><div class = red_square  id = ""bottomsquare"" ></div>",32,word_square,response,1,Space,true,,,
html-keyboard-response,728,1436135,null,"GLASSES",null,word,,,,, 'GLASSES',,
html-keyboard-response,729,1436643,null,"DOLPHIN<img id = ""stim"" ><div class = green_square id = ""topsquare"" ></div><img id = ""stim"" ><div class = green_square  id = ""bottomsquare"" ></div>",null,word_square,response,0,none,true,,,
html-keyboard-response,730,1438148,null,"DOLPHIN",null,word,,,,, 'DOLPHIN',,
html-keyboard-response,731,1438491,341.4849999973085,"CATTLE<img id = ""stim"" ><div class = red_square id = ""topsquare"" ></div><img id = ""stim"" ><div class = red_square  id = ""bottomsquare"" ></div>",32,word_square,response,1,Space,true,,,
html-keyboard-response,732,1440002,null,"CATTLE",null,word,,,,, 'CATTLE',,
html-keyboard-response,733,1440515,null,"CHURCH<img id = ""stim"" ><div class = green_square id = ""topsquare"" ></div><img id = ""stim"" ><div class = green_square  id = ""bottomsquare"" ></div>",null,word_square,response,0,none,true,,,
html-keyboard-response,734,1442021,null,"CHURCH",null,word,,,,, 'CHURCH',,
html-keyboard-response,735,1442427,404.0349999994505,"FOOTBALL<img id = ""stim"" ><div class = red_square id = ""topsquare"" ></div><img id = ""stim"" ><div class = red_square  id = ""bottomsquare"" ></div>",32,word_square,response,1,Space,true,,,
html-keyboard-response,736,1443942,null,"FOOTBALL",null,word,,,,, 'FOOTBALL',,
html-keyboard-response,737,1444366,422.535000001546,"GAZELLE<img id = ""stim"" ><div class = red_square id = ""topsquare"" ></div><img id = ""stim"" ><div class = red_square  id = ""bottomsquare"" ></div>",32,word_square,response,1,Space,true,,,
html-keyboard-response,738,1445870,null,"GAZELLE",null,word,,,,, 'GAZELLE',,
html-keyboard-response,739,1446380,null,"FIREPLACE<img id = ""stim"" ><div class = green_square id = ""topsquare"" ></div><img id = ""stim"" ><div class = green_square  id = ""bottomsquare"" ></div>",null,word_square,response,0,none,true,,,
html-keyboard-response,740,1447893,null,"FIREPLACE",null,word,,,,, 'FIREPLACE',,
html-keyboard-response,741,1448235,340.11000000103377,"CIRCUS<img id = ""stim"" ><div class = red_square id = ""topsquare"" ></div><img id = ""stim"" ><div class = red_square  id = ""bottomsquare"" ></div>",32,word_square,response,1,Space,true,,,
html-keyboard-response,742,1449742,null,"CIRCUS",null,word,,,,, 'CIRCUS',,
html-keyboard-response,743,1450114,370.83500000135973,"MAMMAL<img id = ""stim"" ><div class = red_square id = ""topsquare"" ></div><img id = ""stim"" ><div class = red_square  id = ""bottomsquare"" ></div>",32,word_square,response,1,Space,true,,,
html-keyboard-response,744,1451630,null,"MAMMAL",null,word,,,,, 'MAMMAL',,
html-keyboard-response,745,1452135,null,"PAINTING<img id = ""stim"" ><div class = green_square id = ""topsquare"" ></div><img id = ""stim"" ><div class = green_square  id = ""bottomsquare"" ></div>",null,word_square,response,0,none,true,,,
html-keyboard-response,746,1453652,null,"PAINTING",null,word,,,,, 'PAINTING',,
html-keyboard-response,747,1454164,null,"BANDIT<img id = ""stim"" ><div class = green_square id = ""topsquare"" ></div><img id = ""stim"" ><div class = green_square  id = ""bottomsquare"" ></div>",null,word_square,response,0,none,true,,,
html-keyboard-response,748,1455672,null,"BANDIT",null,word,,,,, 'BANDIT',,
html-keyboard-response,749,1456009,335.6149999999907,"MISSILE<img id = ""stim"" ><div class = red_square id = ""topsquare"" ></div><img id = ""stim"" ><div class = red_square  id = ""bottomsquare"" ></div>",32,word_square,response,1,Space,true,,,
html-keyboard-response,750,1457514,null,"MISSILE",null,word,,,,, 'MISSILE',,
html-keyboard-response,751,1458024,null,"ROCKET<img id = ""stim"" ><div class = green_square id = ""topsquare"" ></div><img id = ""stim"" ><div class = green_square  id = ""bottomsquare"" ></div>",null,word_square,response,0,none,true,,,
html-keyboard-response,752,1459533,null,"ROCKET",null,word,,,,, 'ROCKET',,
html-keyboard-response,753,1460036,null,"CONCRETE<img id = ""stim"" ><div class = green_square id = ""topsquare"" ></div><img id = ""stim"" ><div class = green_square  id = ""bottomsquare"" ></div>",null,word_square,response,0,none,true,,,
html-keyboard-response,754,1461544,null,"CONCRETE",null,word,,,,, 'CONCRETE',,
call-function,755,1461545,,"",,,,,,,,,
html-keyboard-response,756,1461652,null,"",null,,,,,,,,
math-period,757,1463586,3425.3600000012666,"",,,,,,,,,1
html-keyboard-response,758,1463692,null,"",null,,,,,,,,
math-period,759,1465264,2971.1800000004005,"",,,,,,,,,2
html-keyboard-response,760,1465366,null,"",null,,,,,,,,
math-period,761,1466439,1938.0199999976903,"",,,,,,,,,3
html-keyboard-response,762,1466551,null,"",null,,,,,,,,
math-period,763,1467371,1507.6899999983143,"",,,,,,,,,4
html-keyboard-response,764,1467486,null,"",null,,,,,,,,
math-period,765,1470465,5807.885000002105,"",,,,,,,,,3
html-keyboard-response,766,1470567,null,"",null,,,,,,,,
math-period,767,1472391,3423.2449999977835,"",,,,,,,,,0
html-keyboard-response,768,1472493,null,"",null,,,,,,,,
math-period,769,1473520,1916.3399999963585,"",,,,,,,,,3
html-keyboard-response,770,1473622,null,"",null,,,,,,,,
math-period,771,1475039,2664.930000002729,"",,,,,,,,,2
html-keyboard-response,772,1475142,null,"",null,,,,,,,,
math-period,773,1476837,3079.2300000027753,"",,,,,,,,,4
html-keyboard-response,774,1476952,null,"",null,,,,,,,,
math-period,775,1478444,2798.499999997206,"",,,,,,,,,4
html-keyboard-response,776,1478546,null,"",null,,,,,,,,
math-period,777,1479550,1899.0599999993574,"",,,,,,,,,2
html-keyboard-response,778,1479652,null,"",null,,,,,,,,
math-period,779,1481384,3244.0949999981094,"",,,,,,,,,5
html-keyboard-response,780,1481498,null,"",null,,,,,,,,
math-period,781,1482605,2116.254999997327,"",,,,,,,,,5
html-keyboard-response,782,1482707,null,"",null,,,,,,,,
math-period,783,1484589,3553.5600000005215,"",,,,,,,,,5
html-keyboard-response,784,1484701,null,"",null,,,,,,,,
math-period,785,1485556,null,"",,,,,,,,,
html-keyboard-response,786,1486567,null,"Recall Period!",null,,,,,,,,
call-function,787,1486568,,"",,,,,,,,,
html-keyboard-response,788,1486675,null,"",null,,,,,,,,
recall-period,789,1489711,17490.699999997858,"",,,,,,,,,oyster
html-keyboard-response,790,1489825,null,"",null,,,,,,,,
recall-period,791,1492069,11933.459999986459,"",,,,,,,,,glasses
html-keyboard-response,792,1492183,null,"",null,,,,,,,,
recall-period,793,1500234,63078.94500000775,"",,,,,,,,,aircraft
html-keyboard-response,794,1500336,null,"",null,,,,,,,,
recall-period,795,1504054,36425.77999998443,"",,,,,,,,,dolphin
html-keyboard-response,796,1504171,null,"",null,,,,,,,,
recall-period,797,1548918,308622.86499999417,"",,,,,,,,,church
html-keyboard-response,798,1549022,null,"",null,,,,,,,,
recall-period,799,1558340,61336.48000000487,"",,,,,,,,,cattle
html-keyboard-response,800,1558455,null,"",null,,,,,,,,
recall-period,801,1561573,null,"",,,,,,,,,
html-keyboard-response,802,1562082,null,"Time's Up!",null,,,,,,,,
html-keyboard-response,803,1563489,1404.9899999990594,"<p> Good job! You responded correctly to 96% of the red squares.</p>
                  <p>Be sure to keep your accuracy above 80%</p>
                  <p>Press any key to continue the experiment. Thank you!</p>",13,,,,,,,,
html-keyboard-response,804,1564266,776.0249999992084,"<div style=""font-size:48px;"">Press any key to begin list 9 of 24 </div>",32,,,,,,,,
html-keyboard-response,805,1566782,null,"<div style=""font-size:60px;"">+</div>",null,,,,,,,,
html-keyboard-response,806,1567285,null,"GALLON<img id = ""stim"" ><div class = green_square id = ""topsquare"" ></div><img id = ""stim"" ><div class = green_square  id = ""bottomsquare"" ></div>",null,word_square,response,0,none,true,,,
html-keyboard-response,807,1568796,null,"GALLON",null,word,,,,, 'GALLON',,
html-keyboard-response,808,1569311,null,"BATHTUB<img id = ""stim"" ><div class = green_square id = ""topsquare"" ></div><img id = ""stim"" ><div class = green_square  id = ""bottomsquare"" ></div>",null,word_square,response,0,none,true,,,
html-keyboard-response,809,1570823,null,"BATHTUB",null,word,,,,, 'BATHTUB',,
html-keyboard-response,810,1571231,406.17999999807216,"SINK<img id = ""stim"" ><div class = red_square id = ""topsquare"" ></div><img id = ""stim"" ><div class = red_square  id = ""bottomsquare"" ></div>",32,word_square,response,1,Space,true,,,
html-keyboard-response,811,1572744,null,"SINK",null,word,,,,, 'SINK',,
html-keyboard-response,812,1573225,479.91000000201166,"FLIPPER<img id = ""stim"" ><div class = red_square id = ""topsquare"" ></div><img id = ""stim"" ><div class = red_square  id = ""bottomsquare"" ></div>",32,word_square,response,1,Space,true,,,
html-keyboard-response,813,1574734,null,"FLIPPER",null,word,,,,, 'FLIPPER',,
html-keyboard-response,814,1575239,null,"ADULT<img id = ""stim"" ><div class = green_square id = ""topsquare"" ></div><img id = ""stim"" ><div class = green_square  id = ""bottomsquare"" ></div>",null,word_square,response,0,none,true,,,
html-keyboard-response,815,1576753,null,"ADULT",null,word,,,,, 'ADULT',,
html-keyboard-response,816,1577158,402.5849999997299,"STAIRS<img id = ""stim"" ><div class = red_square id = ""topsquare"" ></div><img id = ""stim"" ><div class = red_square  id = ""bottomsquare"" ></div>",32,word_square,response,1,Space,true,,,
html-keyboard-response,817,1578667,null,"STAIRS",null,word,,,,, 'STAIRS',,
html-keyboard-response,818,1579069,400.86999999778345,"BEETLE<img id = ""stim"" ><div class = red_square id = ""topsquare"" ></div><img id = ""stim"" ><div class = red_square  id = ""bottomsquare"" ></div>",32,word_square,response,1,Space,true,,,
html-keyboard-response,819,1580577,null,"BEETLE",null,word,,,,, 'BEETLE',,
html-keyboard-response,820,1581094,null,"KITCHEN<img id = ""stim"" ><div class = green_square id = ""topsquare"" ></div><img id = ""stim"" ><div class = green_square  id = ""bottomsquare"" ></div>",null,word_square,response,0,none,true,,,
html-keyboard-response,821,1582608,null,"KITCHEN",null,word,,,,, 'KITCHEN',,
html-keyboard-response,822,1583126,null,"TROUT<img id = ""stim"" ><div class = green_square id = ""topsquare"" ></div><img id = ""stim"" ><div class = green_square  id = ""bottomsquare"" ></div>",null,word_square,response,0,none,true,,,
html-keyboard-response,823,1584636,null,"TROUT",null,word,,,,, 'TROUT',,
html-keyboard-response,824,1585003,364.9650000007823,"TILE<img id = ""stim"" ><div class = red_square id = ""topsquare"" ></div><img id = ""stim"" ><div class = red_square  id = ""bottomsquare"" ></div>",32,word_square,response,1,Space,true,,,
html-keyboard-response,825,1586520,null,"TILE",null,word,,,,, 'TILE',,
html-keyboard-response,826,1587026,null,"GROUND<img id = ""stim"" ><div class = green_square id = ""topsquare"" ></div><img id = ""stim"" ><div class = green_square  id = ""bottomsquare"" ></div>",null,word_square,response,0,none,true,,,
html-keyboard-response,827,1588537,null,"GROUND",null,word,,,,, 'GROUND',,
html-keyboard-response,828,1589055,null,"CARROT<img id = ""stim"" ><div class = green_square id = ""topsquare"" ></div><img id = ""stim"" ><div class = green_square  id = ""bottomsquare"" ></div>",null,word_square,response,0,none,true,,,
html-keyboard-response,829,1590569,null,"CARROT",null,word,,,,, 'CARROT',,
html-keyboard-response,830,1590902,331.2449999975506,"TREASURE<img id = ""stim"" ><div class = red_square id = ""topsquare"" ></div><img id = ""stim"" ><div class = red_square  id = ""bottomsquare"" ></div>",32,word_square,response,1,Space,true,,,
html-keyboard-response,831,1592412,null,"TREASURE",null,word,,,,, 'TREASURE',,
html-keyboard-response,832,1592914,null,"PUDDLE<img id = ""stim"" ><div class = green_square id = ""topsquare"" ></div><img id = ""stim"" ><div class = green_square  id = ""bottomsquare"" ></div>",null,word_square,response,0,none,true,,,
html-keyboard-response,833,1594418,null,"PUDDLE",null,word,,,,, 'PUDDLE',,
html-keyboard-response,834,1594818,398.0499999995809,"HIGHWAY<img id = ""stim"" ><div class = red_square id = ""topsquare"" ></div><img id = ""stim"" ><div class = red_square  id = ""bottomsquare"" ></div>",32,word_square,response,1,Space,true,,,
html-keyboard-response,835,1596333,null,"HIGHWAY",null,word,,,,, 'HIGHWAY',,
html-keyboard-response,836,1596680,345.4549999986775,"VICTOR<img id = ""stim"" ><div class = red_square id = ""topsquare"" ></div><img id = ""stim"" ><div class = red_square  id = ""bottomsquare"" ></div>",32,word_square,response,1,Space,true,,,
html-keyboard-response,837,1598197,null,"VICTOR",null,word,,,,, 'VICTOR',,
html-keyboard-response,838,1598707,null,"QUAIL<img id = ""stim"" ><div class = green_square id = ""topsquare"" ></div><img id = ""stim"" ><div class = green_square  id = ""bottomsquare"" ></div>",null,word_square,response,0,none,true,,,
html-keyboard-response,839,1600224,null,"QUAIL",null,word,,,,, 'QUAIL',,
html-keyboard-response,840,1600591,365.3950000007171,"CANAL<img id = ""stim"" ><div class = red_square id = ""topsquare"" ></div><img id = ""stim"" ><div class = red_square  id = ""bottomsquare"" ></div>",32,word_square,response,1,Space,true,,,
html-keyboard-response,841,1602100,null,"CANAL",null,word,,,,, 'CANAL',,
call-function,842,1602101,,"",,,,,,,,,
html-keyboard-response,843,1602210,null,"",null,,,,,,,,
math-period,844,1604729,3956.4099999950267,"",,,,,,,,,3
html-keyboard-response,845,1604832,null,"",null,,,,,,,,
math-period,846,1605714,1588.345000000205,"",,,,,,,,,4
html-keyboard-response,847,1605817,null,"",null,,,,,,,,
math-period,848,1608775,5737.04000000027,"",,,,,,,,,3
html-keyboard-response,849,1608887,null,"",null,,,,,,,,
math-period,850,1610074,2259.6149999990594,"",,,,,,,,,1
html-keyboard-response,851,1610189,null,"",null,,,,,,,,
math-period,852,1611216,1786.584999994142,"",,,,,,,,,2
html-keyboard-response,853,1611319,null,"",null,,,,,,,,
math-period,854,1613114,3190.5999999979977,"",,,,,,,,,2
html-keyboard-response,855,1613217,null,"",null,,,,,,,,
math-period,856,1614413,2304.555000002496,"",,,,,,,,,1
html-keyboard-response,857,1614515,null,"",null,,,,,,,,
math-period,858,1616149,2920.6550000016578,"",,,,,,,,,6
html-keyboard-response,859,1616252,null,"",null,,,,,,,,
math-period,860,1617304,1888.7299999985844,"",,,,,,,,,4
html-keyboard-response,861,1617407,null,"",null,,,,,,,,
math-period,862,1618999,2591.899999999441,"",,,,,,,,,6
html-keyboard-response,863,1619101,null,"",null,,,,,,,,
math-period,864,1620600,2881.495000001276,"",,,,,,,,,2
html-keyboard-response,865,1620716,null,"",null,,,,,,,,
math-period,866,1621959,2326.869999997318,"",,,,,,,,,1
html-keyboard-response,867,1622070,null,"",null,,,,,,,,
math-period,868,1623471,2656.425000000978,"",,,,,,,,,5
html-keyboard-response,869,1623579,null,"",null,,,,,,,,
math-period,870,1624466,1656.910000001546,"",,,,,,,,,3
html-keyboard-response,871,1624570,null,"",null,,,,,,,,
math-period,872,1626101,1510.2650000008289,"",,,,,,,,,4
html-keyboard-response,873,1627116,null,"Recall Period!",null,,,,,,,,
call-function,874,1627117,,"",,,,,,,,,
html-keyboard-response,875,1627230,null,"",null,,,,,,,,
recall-period,876,1634396,47191.049999989336,"",,,,,,,,,candle
html-keyboard-response,877,1634513,null,"",null,,,,,,,,
recall-period,878,1638620,28059.385000000242,"",,,,,,,,,ocean
html-keyboard-response,879,1638730,null,"",null,,,,,,,,
recall-period,880,1702117,null,"",,,,,,,,,
html-keyboard-response,881,1702635,null,"Time's Up!",null,,,,,,,,
html-keyboard-response,882,1703924,1287.0899999979883,"<p> Good job! You responded correctly to 96% of the red squares.</p>
                  <p>Be sure to keep your accuracy above 80%</p>
                  <p>Press any key to continue the experiment. Thank you!</p>",13,,,,,,,,
html-keyboard-response,883,1706222,2296.3650000018533,"<div style=""font-size:48px;"">Press any key to begin list 10 of 24 </div>",32,,,,,,,,
html-keyboard-response,884,1708733,null,"<div style=""font-size:60px;"">+</div>",null,,,,,,,,
html-keyboard-response,885,1709236,null,"SHARK<img id = ""stim"" ><div class = green_square id = ""topsquare"" ></div><img id = ""stim"" ><div class = green_square  id = ""bottomsquare"" ></div>",null,word_square,response,0,none,true,,,
html-keyboard-response,886,1710741,null,"SHARK",null,word,,,,, 'SHARK',,
html-keyboard-response,887,1711244,null,"SAILOR<img id = ""stim"" ><div class = green_square id = ""topsquare"" ></div><img id = ""stim"" ><div class = green_square  id = ""bottomsquare"" ></div>",null,word_square,response,0,none,true,,,
html-keyboard-response,888,1712748,null,"SAILOR",null,word,,,,, 'SAILOR',,
html-keyboard-response,889,1713115,365.72499999962747,"BLUEPRINT<img id = ""stim"" ><div class = red_square id = ""topsquare"" ></div><img id = ""stim"" ><div class = red_square  id = ""bottomsquare"" ></div>",32,word_square,response,1,Space,true,,,
html-keyboard-response,890,1714628,null,"BLUEPRINT",null,word,,,,, 'BLUEPRINT',,
html-keyboard-response,891,1714993,363.74500000244007,"PATROL<img id = ""stim"" ><div class = red_square id = ""topsquare"" ></div><img id = ""stim"" ><div class = red_square  id = ""bottomsquare"" ></div>",32,word_square,response,1,Space,true,,,
html-keyboard-response,892,1716503,null,"PATROL",null,word,,,,, 'PATROL',,
html-keyboard-response,893,1717021,null,"HAYSTACK<img id = ""stim"" ><div class = green_square id = ""topsquare"" ></div><img id = ""stim"" ><div class = green_square  id = ""bottomsquare"" ></div>",null,word_square,response,0,none,true,,,
html-keyboard-response,894,1718529,null,"HAYSTACK",null,word,,,,, 'HAYSTACK',,
html-keyboard-response,895,1718946,415.4400000006426,"PORCH<img id = ""stim"" ><div class = red_square id = ""topsquare"" ></div><img id = ""stim"" ><div class = red_square  id = ""bottomsquare"" ></div>",32,word_square,response,1,Space,true,,,
html-keyboard-response,896,1720461,null,"PORCH",null,word,,,,, 'PORCH',,
html-keyboard-response,897,1720949,487.35499999765307,"YACHT<img id = ""stim"" ><div class = red_square id = ""topsquare"" ></div><img id = ""stim"" ><div class = red_square  id = ""bottomsquare"" ></div>",32,word_square,response,1,Space,true,,,
html-keyboard-response,898,1722459,null,"YACHT",null,word,,,,, 'YACHT',,
html-keyboard-response,899,1722975,null,"POND<img id = ""stim"" ><div class = green_square id = ""topsquare"" ></div><img id = ""stim"" ><div class = green_square  id = ""bottomsquare"" ></div>",null,word_square,response,0,none,true,,,
html-keyboard-response,900,1724485,null,"POND",null,word,,,,, 'POND',,
html-keyboard-response,901,1724996,null,"CANVAS<img id = ""stim"" ><div class = green_square id = ""topsquare"" ></div><img id = ""stim"" ><div class = green_square  id = ""bottomsquare"" ></div>",null,word_square,response,0,none,true,,,
html-keyboard-response,902,1726501,null,"CANVAS",null,word,,,,, 'CANVAS',,
html-keyboard-response,903,1726895,392.7999999979511,"TABLE<img id = ""stim"" ><div class = red_square id = ""topsquare"" ></div><img id = ""stim"" ><div class = red_square  id = ""bottomsquare"" ></div>",32,word_square,response,1,Space,true,,,
html-keyboard-response,904,1728398,null,"TABLE",null,word,,,,, 'TABLE',,
html-keyboard-response,905,1728901,null,"COUCH<img id = ""stim"" ><div class = green_square id = ""topsquare"" ></div><img id = ""stim"" ><div class = green_square  id = ""bottomsquare"" ></div>",null,word_square,response,0,none,true,,,
html-keyboard-response,906,1730407,null,"COUCH",null,word,,,,, 'COUCH',,
html-keyboard-response,907,1730925,null,"LAPEL<img id = ""stim"" ><div class = green_square id = ""topsquare"" ></div><img id = ""stim"" ><div class = green_square  id = ""bottomsquare"" ></div>",null,word_square,response,0,none,true,,,
html-keyboard-response,908,1732428,null,"LAPEL",null,word,,,,, 'LAPEL',,
html-keyboard-response,909,1732830,400.10500000067987,"COCOON<img id = ""stim"" ><div class = red_square id = ""topsquare"" ></div><img id = ""stim"" ><div class = red_square  id = ""bottomsquare"" ></div>",32,word_square,response,1,Space,true,,,
html-keyboard-response,910,1734339,null,"COCOON",null,word,,,,, 'COCOON',,
html-keyboard-response,911,1734841,null,"JACKET<img id = ""stim"" ><div class = green_square id = ""topsquare"" ></div><img id = ""stim"" ><div class = green_square  id = ""bottomsquare"" ></div>",null,word_square,response,0,none,true,,,
html-keyboard-response,912,1736353,null,"JACKET",null,word,,,,, 'JACKET',,
html-keyboard-response,913,1736775,420.3799999994226,"CLAM<img id = ""stim"" ><div class = red_square id = ""topsquare"" ></div><img id = ""stim"" ><div class = red_square  id = ""bottomsquare"" ></div>",32,word_square,response,1,Space,true,,,
html-keyboard-response,914,1738281,null,"CLAM",null,word,,,,, 'CLAM',,
html-keyboard-response,915,1738765,482.8700000036042,"RAFT<img id = ""stim"" ><div class = red_square id = ""topsquare"" ></div><img id = ""stim"" ><div class = red_square  id = ""bottomsquare"" ></div>",32,word_square,response,1,Space,true,,,
html-keyboard-response,916,1740268,null,"RAFT",null,word,,,,, 'RAFT',,
html-keyboard-response,917,1740773,null,"ELBOW<img id = ""stim"" ><div class = green_square id = ""topsquare"" ></div><img id = ""stim"" ><div class = green_square  id = ""bottomsquare"" ></div>",null,word_square,response,0,none,true,,,
html-keyboard-response,918,1742283,null,"ELBOW",null,word,,,,, 'ELBOW',,
