trial_type,trial_index,time_elapsed,rt,stimulus,key_press,test_part,task,targ_cond,correctKeyCode,correct,word,value,response
pavlovia,0,376,,"",,,,,,,,,
external-html,1,3955,3563,"",,,,,,,,,
html-keyboard-response,2,5415,1457,"Welcome to the experiment. Press any key to begin.",32,,,,,,,,
html-keyboard-response,3,12555,7137,"<p>You will see a list of words and colored squares in the following task.<p><p>Press the spacebar whenever you see a red square.<p><p>Do not press a key if the square is green<p><p>Press the spacebar to continue.</p>",32,,,,,,,,
html-keyboard-response,4,78792,65735,"<p>Please try to remember as many of the words as you can, and try to think about the meaning of each word as it appears.<p><p>After the detection and encoding task you will be asked to solve some math problems for 24 seconds.<p> Please solve as many problems as you can in the time given. <p>",32,,,,,,,,
html-keyboard-response,5,97212,17916,"After solving the math problems, you will be asked to type in as many words <p>from the previous list as you can remember for 75 seconds.<p> If you finish recalling before the 75 seconds are up,<p> just sit tight and try to think of any more words you could have missed. <p><p>We will begin with a brief practice session<p>Press the spacebar to begin the practice.</p>",32,,,,,,,,
html-keyboard-response,6,99714,null,"<div style=""font-size:60px;"">+</div>",null,,,,,,,,
html-keyboard-response,7,100218,null,"HAPPY<img id = ""stim"" ><div class = green_square id = ""topsquare"" ></div><img id = ""stim"" ><div class = green_square  id = ""bottomsquare"" ></div>",null,word_square,prac_response,0,none,true,,,
html-keyboard-response,8,101719,null,"HAPPY",null,word,,,,,HAPPY,,
html-keyboard-response,9,102221,null,"COLD<img id = ""stim"" ><div class = red_square id = ""topsquare"" ></div><img id = ""stim"" ><div class = red_square  id = ""bottomsquare"" ></div>",null,word_square,prac_response,1,Space,false,,,
html-keyboard-response,10,103723,null,"COLD",null,word,,,,,COLD,,
html-keyboard-response,11,104225,null,"HEAVY<img id = ""stim"" ><div class = red_square id = ""topsquare"" ></div><img id = ""stim"" ><div class = red_square  id = ""bottomsquare"" ></div>",null,word_square,prac_response,1,Space,false,,,
html-keyboard-response,12,105727,null,"HEAVY",null,word,,,,,HEAVY,,
html-keyboard-response,13,106228,null,"FUNNY<img id = ""stim"" ><div class = green_square id = ""topsquare"" ></div><img id = ""stim"" ><div class = green_square  id = ""bottomsquare"" ></div>",null,word_square,prac_response,0,none,true,,,
html-keyboard-response,14,107730,null,"FUNNY",null,word,,,,,FUNNY,,
html-keyboard-response,15,108232,null,"SCARY<img id = ""stim"" ><div class = red_square id = ""topsquare"" ></div><img id = ""stim"" ><div class = red_square  id = ""bottomsquare"" ></div>",null,word_square,prac_response,1,Space,false,,,
html-keyboard-response,16,109734,null,"SCARY",null,word,,,,,SCARY,,
html-keyboard-response,17,110236,333,"PEACEFUL<img id = ""stim"" ><div class = red_square id = ""topsquare"" ></div><img id = ""stim"" ><div class = red_square  id = ""bottomsquare"" ></div>",32,word_square,prac_response,1,Space,true,,,
html-keyboard-response,18,111737,null,"PEACEFUL",null,word,,,,,PEACEFUL,,
html-keyboard-response,19,112239,null,"LITTLE<img id = ""stim"" ><div class = green_square id = ""topsquare"" ></div><img id = ""stim"" ><div class = green_square  id = ""bottomsquare"" ></div>",null,word_square,prac_response,0,none,true,,,
html-keyboard-response,20,113741,null,"LITTLE",null,word,,,,,LITTLE,,
html-keyboard-response,21,114244,467,"TIRED<img id = ""stim"" ><div class = green_square id = ""topsquare"" ></div><img id = ""stim"" ><div class = green_square  id = ""bottomsquare"" ></div>",32,word_square,prac_response,0,none,true,,,
html-keyboard-response,22,115745,null,"TIRED",null,word,,,,,TIRED,,
html-keyboard-response,23,116247,450,"ENTERTAINING<img id = ""stim"" ><div class = green_square id = ""topsquare"" ></div><img id = ""stim"" ><div class = green_square  id = ""bottomsquare"" ></div>",32,word_square,prac_response,0,none,true,,,
html-keyboard-response,24,117749,null,"ENTERTAINING",null,word,,,,,ENTERTAINING,,
html-keyboard-response,25,118251,435,"GRATEFUL<img id = ""stim"" ><div class = red_square id = ""topsquare"" ></div><img id = ""stim"" ><div class = red_square  id = ""bottomsquare"" ></div>",32,word_square,prac_response,1,Space,true,,,
html-keyboard-response,26,119751,null,"GRATEFUL",null,word,,,,,GRATEFUL,,
html-keyboard-response,27,120254,385,"LOUD<img id = ""stim"" ><div class = green_square id = ""topsquare"" ></div><img id = ""stim"" ><div class = green_square  id = ""bottomsquare"" ></div>",32,word_square,prac_response,0,none,true,,,
html-keyboard-response,28,121756,null,"LOUD",null,word,,,,,LOUD,,
html-keyboard-response,29,122258,437,"SMART<img id = ""stim"" ><div class = red_square id = ""topsquare"" ></div><img id = ""stim"" ><div class = red_square  id = ""bottomsquare"" ></div>",32,word_square,prac_response,1,Space,true,,,
html-keyboard-response,30,123759,null,"SMART",null,word,,,,,SMART,,
html-keyboard-response,31,124260,null,"SMOOTH<img id = ""stim"" ><div class = red_square id = ""topsquare"" ></div><img id = ""stim"" ><div class = red_square  id = ""bottomsquare"" ></div>",null,word_square,prac_response,1,Space,false,,,
html-keyboard-response,32,125762,null,"SMOOTH",null,word,,,,,SMOOTH,,
html-keyboard-response,33,126264,345,"DISHONEST<img id = ""stim"" ><div class = green_square id = ""topsquare"" ></div><img id = ""stim"" ><div class = green_square  id = ""bottomsquare"" ></div>",32,word_square,prac_response,0,none,true,,,
html-keyboard-response,34,127766,null,"DISHONEST",null,word,,,,,DISHONEST,,
html-keyboard-response,35,128267,null,"WEALTHY<img id = ""stim"" ><div class = red_square id = ""topsquare"" ></div><img id = ""stim"" ><div class = red_square  id = ""bottomsquare"" ></div>",null,word_square,prac_response,1,Space,false,,,
html-keyboard-response,36,129769,null,"WEALTHY",null,word,,,,,WEALTHY,,
html-keyboard-response,37,130271,null,"BEAUTIFUL<img id = ""stim"" ><div class = green_square id = ""topsquare"" ></div><img id = ""stim"" ><div class = green_square  id = ""bottomsquare"" ></div>",null,word_square,prac_response,0,none,true,,,
html-keyboard-response,38,131773,null,"BEAUTIFUL",null,word,,,,,BEAUTIFUL,,
html-keyboard-response,39,132275,null,"DREARY<img id = ""stim"" ><div class = green_square id = ""topsquare"" ></div><img id = ""stim"" ><div class = green_square  id = ""bottomsquare"" ></div>",null,word_square,prac_response,0,none,true,,,
html-keyboard-response,40,133776,null,"DREARY",null,word,,,,,DREARY,,
html-keyboard-response,41,134278,null,"PLAYFUL<img id = ""stim"" ><div class = red_square id = ""topsquare"" ></div><img id = ""stim"" ><div class = red_square  id = ""bottomsquare"" ></div>",null,word_square,prac_response,1,Space,false,,,
html-keyboard-response,42,135780,null,"PLAYFUL",null,word,,,,,PLAYFUL,,
html-keyboard-response,43,143319,7538,"<p> Uh oh. You responded correctly on 67% of the red squares.</p>
                  <p>We need you keep your accuracy above 80%</p>
                  <p>We're going to try once more to make sure you understand the task. press any key to continue.</p>",32,,,,,,,,
html-keyboard-response,44,152649,9328,"<p>You will see a list of words and colored squares in the following task.<p><p>Press the spacebar whenever you see a red square.<p><p>Do not press a key if the square is green<p><p>Press the spacebar to continue.</p>",32,,,,,,,,
html-keyboard-response,45,155151,null,"<div style=""font-size:60px;"">+</div>",null,,,,,,,,
html-keyboard-response,46,155653,null,"HAPPY<img id = ""stim"" ><div class = green_square id = ""topsquare"" ></div><img id = ""stim"" ><div class = green_square  id = ""bottomsquare"" ></div>",null,word_square,response,0,none,true,,,
html-keyboard-response,47,157154,null,"HAPPY",null,word,,,,,HAPPY,,
html-keyboard-response,48,157507,351,"COLD<img id = ""stim"" ><div class = red_square id = ""topsquare"" ></div><img id = ""stim"" ><div class = red_square  id = ""bottomsquare"" ></div>",32,word_square,response,1,Space,true,,,
html-keyboard-response,49,159009,null,"COLD",null,word,,,,,COLD,,
html-keyboard-response,50,159511,null,"HEAVY<img id = ""stim"" ><div class = red_square id = ""topsquare"" ></div><img id = ""stim"" ><div class = red_square  id = ""bottomsquare"" ></div>",null,word_square,response,1,Space,false,,,
html-keyboard-response,51,161012,null,"HEAVY",null,word,,,,,HEAVY,,
html-keyboard-response,52,161514,null,"FUNNY<img id = ""stim"" ><div class = green_square id = ""topsquare"" ></div><img id = ""stim"" ><div class = green_square  id = ""bottomsquare"" ></div>",null,word_square,response,0,none,true,,,
html-keyboard-response,53,163016,null,"FUNNY",null,word,,,,,FUNNY,,
html-keyboard-response,54,163329,312,"SCARY<img id = ""stim"" ><div class = red_square id = ""topsquare"" ></div><img id = ""stim"" ><div class = red_square  id = ""bottomsquare"" ></div>",32,word_square,response,1,Space,true,,,
html-keyboard-response,55,164830,null,"SCARY",null,word,,,,,SCARY,,
html-keyboard-response,56,165215,382,"PEACEFUL<img id = ""stim"" ><div class = red_square id = ""topsquare"" ></div><img id = ""stim"" ><div class = red_square  id = ""bottomsquare"" ></div>",32,word_square,response,1,Space,true,,,
html-keyboard-response,57,166717,null,"PEACEFUL",null,word,,,,,PEACEFUL,,
html-keyboard-response,58,167218,487,"LITTLE<img id = ""stim"" ><div class = green_square id = ""topsquare"" ></div><img id = ""stim"" ><div class = green_square  id = ""bottomsquare"" ></div>",32,word_square,response,0,none,true,,,
html-keyboard-response,59,168720,null,"LITTLE",null,word,,,,,LITTLE,,
html-keyboard-response,60,169221,null,"TIRED<img id = ""stim"" ><div class = green_square id = ""topsquare"" ></div><img id = ""stim"" ><div class = green_square  id = ""bottomsquare"" ></div>",null,word_square,response,0,none,true,,,
html-keyboard-response,61,170723,null,"TIRED",null,word,,,,,TIRED,,
html-keyboard-response,62,171225,null,"ENTERTAINING<img id = ""stim"" ><div class = green_square id = ""topsquare"" ></div><img id = ""stim"" ><div class = green_square  id = ""bottomsquare"" ></div>",null,word_square,response,0,none,true,,,
html-keyboard-response,63,172727,null,"ENTERTAINING",null,word,,,,,ENTERTAINING,,
html-keyboard-response,64,173087,358,"GRATEFUL<img id = ""stim"" ><div class = red_square id = ""topsquare"" ></div><img id = ""stim"" ><div class = red_square  id = ""bottomsquare"" ></div>",32,word_square,response,1,Space,true,,,
html-keyboard-response,65,174589,null,"GRATEFUL",null,word,,,,,GRATEFUL,,
html-keyboard-response,66,175090,null,"LOUD<img id = ""stim"" ><div class = green_square id = ""topsquare"" ></div><img id = ""stim"" ><div class = green_square  id = ""bottomsquare"" ></div>",null,word_square,response,0,none,true,,,
html-keyboard-response,67,176592,null,"LOUD",null,word,,,,,LOUD,,
html-keyboard-response,68,176984,391,"SMART<img id = ""stim"" ><div class = red_square id = ""topsquare"" ></div><img id = ""stim"" ><div class = red_square  id = ""bottomsquare"" ></div>",32,word_square,response,1,Space,true,,,
html-keyboard-response,69,178486,null,"SMART",null,word,,,,,SMART,,
html-keyboard-response,70,178907,419,"SMOOTH<img id = ""stim"" ><div class = red_square id = ""topsquare"" ></div><img id = ""stim"" ><div class = red_square  id = ""bottomsquare"" ></div>",32,word_square,response,1,Space,true,,,
html-keyboard-response,71,180409,null,"SMOOTH",null,word,,,,,SMOOTH,,
html-keyboard-response,72,180911,null,"DISHONEST<img id = ""stim"" ><div class = green_square id = ""topsquare"" ></div><img id = ""stim"" ><div class = green_square  id = ""bottomsquare"" ></div>",null,word_square,response,0,none,true,,,
html-keyboard-response,73,182412,null,"DISHONEST",null,word,,,,,DISHONEST,,
html-keyboard-response,74,182771,357,"WEALTHY<img id = ""stim"" ><div class = red_square id = ""topsquare"" ></div><img id = ""stim"" ><div class = red_square  id = ""bottomsquare"" ></div>",32,word_square,response,1,Space,true,,,
html-keyboard-response,75,184273,null,"WEALTHY",null,word,,,,,WEALTHY,,
html-keyboard-response,76,184774,null,"BEAUTIFUL<img id = ""stim"" ><div class = green_square id = ""topsquare"" ></div><img id = ""stim"" ><div class = green_square  id = ""bottomsquare"" ></div>",null,word_square,response,0,none,true,,,
html-keyboard-response,77,186276,null,"BEAUTIFUL",null,word,,,,,BEAUTIFUL,,
html-keyboard-response,78,186778,null,"DREARY<img id = ""stim"" ><div class = green_square id = ""topsquare"" ></div><img id = ""stim"" ><div class = green_square  id = ""bottomsquare"" ></div>",null,word_square,response,0,none,true,,,
html-keyboard-response,79,188279,null,"DREARY",null,word,,,,,DREARY,,
html-keyboard-response,80,188660,379,"PLAYFUL<img id = ""stim"" ><div class = red_square id = ""topsquare"" ></div><img id = ""stim"" ><div class = red_square  id = ""bottomsquare"" ></div>",32,word_square,response,1,Space,true,,,
html-keyboard-response,81,190163,null,"PLAYFUL",null,word,,,,,PLAYFUL,,
html-keyboard-response,82,203988,13825,"<p> Good job! You responded correctly to 94% of the red squares.</p>
                  <p>Be sure to keep your accuracy above 80%</p>
                  <p>Press any key to begin the math and recall sections. Thank you!</p>",32,,,,,,,,
call-function,83,203989,,"",,,,,,,,,
html-keyboard-response,84,204092,null,"",null,,,,,,,,
math-period,85,217765,24062,"",,,,,,,,,3numpad
html-keyboard-response,86,217868,null,"",null,,,,,,,,
math-period,87,223020,9672,"",,,,,,,,,4
html-keyboard-response,88,223122,null,"",null,,,,,,,,
math-period,89,225652,4917,"",,,,,,,,,4
html-keyboard-response,90,225754,null,"",null,,,,,,,,
math-period,91,227584,3405,"",,,,,,,,,4
html-keyboard-response,92,227687,null,"",null,,,,,,,,
math-period,93,227990,null,"",,,,,,,,,
html-keyboard-response,94,228992,null,"Recall Period!",null,,,,,,,,
call-function,95,228993,,"",,,,,,,,,
html-keyboard-response,96,229094,null,"",null,,,,,,,,
recall-period,97,232453,23754,"",,,,,,,,,Playful
html-keyboard-response,98,232555,null,"",null,,,,,,,,
recall-period,99,239311,38362,"",,,,,,,,,Dreary
html-keyboard-response,100,239413,null,"",null,,,,,,,,
recall-period,101,242160,13947,"",,,,,,,,,Heavy
html-keyboard-response,102,242262,null,"",null,,,,,,,,
recall-period,103,246261,32289,"",,,,,,,,,Beautiful
html-keyboard-response,104,246362,null,"",null,,,,,,,,
recall-period,105,248462,12610,"",,,,,,,,,Playful
html-keyboard-response,106,248564,null,"",null,,,,,,,,
recall-period,107,269238,139979,"",,,,,,,,,Happy
html-keyboard-response,108,269340,null,"",null,,,,,,,,
recall-period,109,271082,8127,"",,,,,,,,,Joyful
html-keyboard-response,110,271184,null,"",null,,,,,,,,
recall-period,111,286683,90549,"",,,,,,,,,Cold
html-keyboard-response,112,286784,null,"",null,,,,,,,,
recall-period,113,303993,14489,"",,,,,,,,,
html-keyboard-response,114,304495,null,"Time's Up!",null,,,,,,,,
html-keyboard-response,115,313011,8514,"<p>We will now begin the experiment!<p><p>Please try to remember all words from each list.<p><p>Press the spacebar whenever you see a red square.<p><p><p><p>Press the spacebar to begin.</p>",32,,,,,,,,
html-keyboard-response,116,316160,2647,"<div style=""font-size:48px;"">Press any key to begin list 1 of 24 </div>",32,,,,,,,,
html-keyboard-response,117,318661,null,"<div style=""font-size:60px;"">+</div>",null,,,,,,,,
html-keyboard-response,118,319164,null,"GHETTO<img id = ""stim"" ><div class = green_square id = ""topsquare"" ></div><img id = ""stim"" ><div class = green_square  id = ""bottomsquare"" ></div>",null,word_square,response,0,none,true,,,
html-keyboard-response,119,320665,null,"GHETTO",null,word,,,,, 'GHETTO',,
html-keyboard-response,120,321160,493,"TEAPOT<img id = ""stim"" ><div class = red_square id = ""topsquare"" ></div><img id = ""stim"" ><div class = red_square  id = ""bottomsquare"" ></div>",32,word_square,response,1,Space,true,,,
html-keyboard-response,121,322662,null,"TEAPOT",null,word,,,,, 'TEAPOT',,
html-keyboard-response,122,323163,null,"STOCKING<img id = ""stim"" ><div class = green_square id = ""topsquare"" ></div><img id = ""stim"" ><div class = green_square  id = ""bottomsquare"" ></div>",null,word_square,response,0,none,true,,,
html-keyboard-response,123,324664,null,"STOCKING",null,word,,,,, 'STOCKING',,
html-keyboard-response,124,325088,421,"BROTHER<img id = ""stim"" ><div class = red_square id = ""topsquare"" ></div><img id = ""stim"" ><div class = red_square  id = ""bottomsquare"" ></div>",32,word_square,response,1,Space,true,,,
html-keyboard-response,125,326589,null,"BROTHER",null,word,,,,, 'BROTHER',,
html-keyboard-response,126,327091,null,"CONVICT<img id = ""stim"" ><div class = green_square id = ""topsquare"" ></div><img id = ""stim"" ><div class = green_square  id = ""bottomsquare"" ></div>",null,word_square,response,0,none,true,,,
html-keyboard-response,127,328593,null,"CONVICT",null,word,,,,, 'CONVICT',,
html-keyboard-response,128,329001,406,"CAPTIVE<img id = ""stim"" ><div class = red_square id = ""topsquare"" ></div><img id = ""stim"" ><div class = red_square  id = ""bottomsquare"" ></div>",32,word_square,response,1,Space,true,,,
html-keyboard-response,129,330504,null,"CAPTIVE",null,word,,,,, 'CAPTIVE',,
html-keyboard-response,130,330986,480,"LAPEL<img id = ""stim"" ><div class = red_square id = ""topsquare"" ></div><img id = ""stim"" ><div class = red_square  id = ""bottomsquare"" ></div>",32,word_square,response,1,Space,true,,,
html-keyboard-response,131,332487,null,"LAPEL",null,word,,,,, 'LAPEL',,
html-keyboard-response,132,332989,null,"CURTAIN<img id = ""stim"" ><div class = green_square id = ""topsquare"" ></div><img id = ""stim"" ><div class = green_square  id = ""bottomsquare"" ></div>",null,word_square,response,0,none,true,,,
html-keyboard-response,133,334490,null,"CURTAIN",null,word,,,,, 'CURTAIN',,
html-keyboard-response,134,334973,482,"ROD<img id = ""stim"" ><div class = green_square id = ""topsquare"" ></div><img id = ""stim"" ><div class = green_square  id = ""bottomsquare"" ></div>",32,word_square,response,0,none,false,,,
html-keyboard-response,135,336475,null,"ROD",null,word,,,,, 'ROD',,
html-keyboard-response,136,336903,426,"JACKET<img id = ""stim"" ><div class = red_square id = ""topsquare"" ></div><img id = ""stim"" ><div class = red_square  id = ""bottomsquare"" ></div>",32,word_square,response,1,Space,true,,,
html-keyboard-response,137,338405,null,"JACKET",null,word,,,,, 'JACKET',,
html-keyboard-response,138,338906,null,"SWIMMER<img id = ""stim"" ><div class = red_square id = ""topsquare"" ></div><img id = ""stim"" ><div class = red_square  id = ""bottomsquare"" ></div>",null,word_square,response,1,Space,false,,,
html-keyboard-response,139,340408,null,"SWIMMER",null,word,,,,, 'SWIMMER',,
html-keyboard-response,140,340910,null,"SLIDE<img id = ""stim"" ><div class = green_square id = ""topsquare"" ></div><img id = ""stim"" ><div class = green_square  id = ""bottomsquare"" ></div>",null,word_square,response,0,none,true,,,
html-keyboard-response,141,342412,null,"SLIDE",null,word,,,,, 'SLIDE',,
html-keyboard-response,142,342913,null,"FRANCE<img id = ""stim"" ><div class = green_square id = ""topsquare"" ></div><img id = ""stim"" ><div class = green_square  id = ""bottomsquare"" ></div>",null,word_square,response,0,none,true,,,
html-keyboard-response,143,344415,null,"FRANCE",null,word,,,,, 'FRANCE',,
html-keyboard-response,144,344917,null,"PLAID<img id = ""stim"" ><div class = red_square id = ""topsquare"" ></div><img id = ""stim"" ><div class = red_square  id = ""bottomsquare"" ></div>",null,word_square,response,1,Space,false,,,
html-keyboard-response,145,346419,null,"PLAID",null,word,,,,, 'PLAID',,
html-keyboard-response,146,346921,null,"ATHLETE<img id = ""stim"" ><div class = green_square id = ""topsquare"" ></div><img id = ""stim"" ><div class = green_square  id = ""bottomsquare"" ></div>",null,word_square,response,0,none,true,,,
html-keyboard-response,147,348423,null,"ATHLETE",null,word,,,,, 'ATHLETE',,
html-keyboard-response,148,348924,null,"SIBLING<img id = ""stim"" ><div class = green_square id = ""topsquare"" ></div><img id = ""stim"" ><div class = green_square  id = ""bottomsquare"" ></div>",null,word_square,response,0,none,true,,,
html-keyboard-response,149,350426,null,"SIBLING",null,word,,,,, 'SIBLING',,
html-keyboard-response,150,350872,444,"COUNTRY<img id = ""stim"" ><div class = red_square id = ""topsquare"" ></div><img id = ""stim"" ><div class = red_square  id = ""bottomsquare"" ></div>",32,word_square,response,1,Space,true,,,
html-keyboard-response,151,352373,null,"COUNTRY",null,word,,,,, 'COUNTRY',,
html-keyboard-response,152,352875,null,"CASHIER<img id = ""stim"" ><div class = red_square id = ""topsquare"" ></div><img id = ""stim"" ><div class = red_square  id = ""bottomsquare"" ></div>",null,word_square,response,1,Space,false,,,
html-keyboard-response,153,354377,null,"CASHIER",null,word,,,,, 'CASHIER',,
call-function,154,354377,,"",,,,,,,,,
html-keyboard-response,155,354479,null,"",null,,,,,,,,
math-period,156,365916,22438,"",,,,,,,,,1
html-keyboard-response,157,366017,null,"",null,,,,,,,,
math-period,158,370885,17201,"",,,,,,,,,5
html-keyboard-response,159,370987,null,"",null,,,,,,,,
math-period,160,376977,17581,"",,,,,,,,,5
html-keyboard-response,161,377079,null,"",null,,,,,,,,
math-period,162,378379,null,"",,,,,,,,,
html-keyboard-response,163,379381,null,"Recall Period!",null,,,,,,,,
call-function,164,379381,,"",,,,,,,,,
html-keyboard-response,165,379482,null,"",null,,,,,,,,
recall-period,166,382565,18718,"",,,,,,,,,Ghetto
html-keyboard-response,167,382666,null,"",null,,,,,,,,
recall-period,168,384127,6818,"",,,,,,,,,teapot
html-keyboard-response,169,384229,null,"",null,,,,,,,,
recall-period,170,386701,12647,"",,,,,,,,,france
html-keyboard-response,171,386803,null,"",null,,,,,,,,
recall-period,172,387867,4268,"",,,,,,,,,plaid
html-keyboard-response,173,387969,null,"",null,,,,,,,,
recall-period,174,392749,18344,"",,,,,,,,,country
html-keyboard-response,175,392851,null,"",null,,,,,,,,
recall-period,176,434805,248787,"",,,,,,,,,lapel
html-keyboard-response,177,434906,null,"",null,,,,,,,,
recall-period,178,441044,28172,"",,,,,,,,,vase
html-keyboard-response,179,441146,null,"",null,,,,,,,,
recall-period,180,446420,33681,"",,,,,,,,,jacket
html-keyboard-response,181,446521,null,"",null,,,,,,,,
recall-period,182,454382,null,"",,,,,,,,,
html-keyboard-response,183,454884,null,"Time's Up!",null,,,,,,,,
html-keyboard-response,184,462485,7598,"<p> Good job! You responded correctly to 86% of the red squares.</p>
                  <p>Be sure to keep your accuracy above 80%</p>
                  <p>Press any key to continue the experiment. Thank you!</p>",32,,,,,,,,
html-keyboard-response,185,465924,3438,"<div style=""font-size:48px;"">Press any key to begin list 2 of 24 </div>",32,,,,,,,,
html-keyboard-response,186,468426,null,"<div style=""font-size:60px;"">+</div>",null,,,,,,,,
html-keyboard-response,187,468928,null,"CRIB<img id = ""stim"" ><div class = green_square id = ""topsquare"" ></div><img id = ""stim"" ><div class = green_square  id = ""bottomsquare"" ></div>",null,word_square,response,0,none,true,,,
html-keyboard-response,188,470430,null,"CRIB",null,word,,,,, 'CRIB',,
html-keyboard-response,189,470870,439,"ROCKET<img id = ""stim"" ><div class = red_square id = ""topsquare"" ></div><img id = ""stim"" ><div class = red_square  id = ""bottomsquare"" ></div>",32,word_square,response,1,Space,true,,,
html-keyboard-response,190,472372,null,"ROCKET",null,word,,,,, 'ROCKET',,
html-keyboard-response,191,472874,null,"HIKER<img id = ""stim"" ><div class = green_square id = ""topsquare"" ></div><img id = ""stim"" ><div class = green_square  id = ""bottomsquare"" ></div>",null,word_square,response,0,none,true,,,
html-keyboard-response,192,474375,null,"HIKER",null,word,,,,, 'HIKER',,
html-keyboard-response,193,474792,414,"SUMMIT<img id = ""stim"" ><div class = red_square id = ""topsquare"" ></div><img id = ""stim"" ><div class = red_square  id = ""bottomsquare"" ></div>",32,word_square,response,1,Space,true,,,
html-keyboard-response,194,476294,null,"SUMMIT",null,word,,,,, 'SUMMIT',,
html-keyboard-response,195,476795,null,"ATTIRE<img id = ""stim"" ><div class = green_square id = ""topsquare"" ></div><img id = ""stim"" ><div class = green_square  id = ""bottomsquare"" ></div>",null,word_square,response,0,none,true,,,
html-keyboard-response,196,478297,null,"ATTIRE",null,word,,,,, 'ATTIRE',,
html-keyboard-response,197,478799,null,"JOURNAL<img id = ""stim"" ><div class = red_square id = ""topsquare"" ></div><img id = ""stim"" ><div class = red_square  id = ""bottomsquare"" ></div>",null,word_square,response,1,Space,false,,,
html-keyboard-response,198,480301,null,"JOURNAL",null,word,,,,, 'JOURNAL',,
html-keyboard-response,199,480803,null,"BENCH<img id = ""stim"" ><div class = red_square id = ""topsquare"" ></div><img id = ""stim"" ><div class = red_square  id = ""bottomsquare"" ></div>",null,word_square,response,1,Space,false,,,
html-keyboard-response,200,482304,null,"BENCH",null,word,,,,, 'BENCH',,
html-keyboard-response,201,482806,null,"LEMON<img id = ""stim"" ><div class = green_square id = ""topsquare"" ></div><img id = ""stim"" ><div class = green_square  id = ""bottomsquare"" ></div>",null,word_square,response,0,none,true,,,
html-keyboard-response,202,484308,null,"LEMON",null,word,,,,, 'LEMON',,
html-keyboard-response,203,484810,null,"ISLAND<img id = ""stim"" ><div class = green_square id = ""topsquare"" ></div><img id = ""stim"" ><div class = green_square  id = ""bottomsquare"" ></div>",null,word_square,response,0,none,true,,,
html-keyboard-response,204,486311,null,"ISLAND",null,word,,,,, 'ISLAND',,
html-keyboard-response,205,486784,471,"CAMEL<img id = ""stim"" ><div class = red_square id = ""topsquare"" ></div><img id = ""stim"" ><div class = red_square  id = ""bottomsquare"" ></div>",32,word_square,response,1,Space,true,,,
html-keyboard-response,206,488286,null,"CAMEL",null,word,,,,, 'CAMEL',,
html-keyboard-response,207,488787,null,"STAIRS<img id = ""stim"" ><div class = red_square id = ""topsquare"" ></div><img id = ""stim"" ><div class = red_square  id = ""bottomsquare"" ></div>",null,word_square,response,1,Space,false,,,
html-keyboard-response,208,490289,null,"STAIRS",null,word,,,,, 'STAIRS',,
html-keyboard-response,209,490791,null,"COD<img id = ""stim"" ><div class = green_square id = ""topsquare"" ></div><img id = ""stim"" ><div class = green_square  id = ""bottomsquare"" ></div>",null,word_square,response,0,none,true,,,
html-keyboard-response,210,492293,null,"COD",null,word,,,,, 'COD',,
html-keyboard-response,211,492795,null,"DAISY<img id = ""stim"" ><div class = green_square id = ""topsquare"" ></div><img id = ""stim"" ><div class = green_square  id = ""bottomsquare"" ></div>",null,word_square,response,0,none,true,,,
html-keyboard-response,212,494296,null,"DAISY",null,word,,,,, 'DAISY',,
html-keyboard-response,213,494672,374,"OZONE<img id = ""stim"" ><div class = red_square id = ""topsquare"" ></div><img id = ""stim"" ><div class = red_square  id = ""bottomsquare"" ></div>",32,word_square,response,1,Space,true,,,
html-keyboard-response,214,496174,null,"OZONE",null,word,,,,, 'OZONE',,
html-keyboard-response,215,496675,null,"HAMMER<img id = ""stim"" ><div class = green_square id = ""topsquare"" ></div><img id = ""stim"" ><div class = green_square  id = ""bottomsquare"" ></div>",null,word_square,response,0,none,true,,,
html-keyboard-response,216,498177,null,"HAMMER",null,word,,,,, 'HAMMER',,
html-keyboard-response,217,498679,null,"BLUEJAY<img id = ""stim"" ><div class = green_square id = ""topsquare"" ></div><img id = ""stim"" ><div class = green_square  id = ""bottomsquare"" ></div>",null,word_square,response,0,none,true,,,
html-keyboard-response,218,500180,null,"BLUEJAY",null,word,,,,, 'BLUEJAY',,
html-keyboard-response,219,500593,411,"COUSIN<img id = ""stim"" ><div class = red_square id = ""topsquare"" ></div><img id = ""stim"" ><div class = red_square  id = ""bottomsquare"" ></div>",32,word_square,response,1,Space,true,,,
html-keyboard-response,220,502096,null,"COUSIN",null,word,,,,, 'COUSIN',,
html-keyboard-response,221,502597,null,"SUSPECT<img id = ""stim"" ><div class = red_square id = ""topsquare"" ></div><img id = ""stim"" ><div class = red_square  id = ""bottomsquare"" ></div>",null,word_square,response,1,Space,false,,,
html-keyboard-response,222,504099,null,"SUSPECT",null,word,,,,, 'SUSPECT',,
call-function,223,504101,,"",,,,,,,,,
html-keyboard-response,224,504201,null,"",null,,,,,,,,
math-period,225,509282,9799,"",,,,,,,,,2
html-keyboard-response,226,509383,null,"",null,,,,,,,,
math-period,227,513036,12002,"",,,,,,,,,5
html-keyboard-response,228,513137,null,"",null,,,,,,,,
math-period,229,513540,401,"",,,,,,,,,
html-keyboard-response,230,513642,null,"",null,,,,,,,,
math-period,231,520372,13180,"",,,,,,,,,3
html-keyboard-response,232,520473,null,"",null,,,,,,,,
math-period,233,524348,7608,"",,,,,,,,,4
html-keyboard-response,234,524449,null,"",null,,,,,,,,
math-period,235,526367,3322,"",,,,,,,,,2
html-keyboard-response,236,526470,null,"",null,,,,,,,,
math-period,237,528100,null,"",,,,,,,,,
html-keyboard-response,238,529102,null,"Recall Period!",null,,,,,,,,
call-function,239,529102,,"",,,,,,,,,
html-keyboard-response,240,529205,null,"",null,,,,,,,,
recall-period,241,531685,15489,"",,,,,,,,,Bluejay
html-keyboard-response,242,531787,null,"",null,,,,,,,,
recall-period,243,533793,6618,"",,,,,,,,,cousin
html-keyboard-response,244,533895,null,"",null,,,,,,,,
recall-period,245,535084,5172,"",,,,,,,,,hiker
html-keyboard-response,246,535186,null,"",null,,,,,,,,
recall-period,247,537141,6101,"",,,,,,,,,summit
html-keyboard-response,248,537243,null,"",null,,,,,,,,
recall-period,249,553464,95052,"",,,,,,,,,ozone
html-keyboard-response,250,553565,null,"",null,,,,,,,,
recall-period,251,604103,null,"",,,,,,,,,
html-keyboard-response,252,604605,null,"Time's Up!",null,,,,,,,,
html-keyboard-response,253,609116,4509,"<p> Good job! You responded correctly to 83% of the red squares.</p>
                  <p>Be sure to keep your accuracy above 80%</p>
                  <p>Press any key to continue the experiment. Thank you!</p>",13,,,,,,,,
html-keyboard-response,254,611404,2286,"<div style=""font-size:48px;"">Press any key to begin list 3 of 24 </div>",32,,,,,,,,
html-keyboard-response,255,613907,null,"<div style=""font-size:60px;"">+</div>",null,,,,,,,,
html-keyboard-response,256,614408,null,"COSTUME<img id = ""stim"" ><div class = red_square id = ""topsquare"" ></div><img id = ""stim"" ><div class = red_square  id = ""bottomsquare"" ></div>",null,word_square,response,1,Space,false,,,
html-keyboard-response,257,615910,null,"COSTUME",null,word,,,,, 'COSTUME',,
html-keyboard-response,258,616412,null,"DECK<img id = ""stim"" ><div class = green_square id = ""topsquare"" ></div><img id = ""stim"" ><div class = green_square  id = ""bottomsquare"" ></div>",null,word_square,response,0,none,true,,,
html-keyboard-response,259,617913,null,"DECK",null,word,,,,, 'DECK',,
html-keyboard-response,260,618289,373,"TRUCK<img id = ""stim"" ><div class = red_square id = ""topsquare"" ></div><img id = ""stim"" ><div class = red_square  id = ""bottomsquare"" ></div>",32,word_square,response,1,Space,true,,,
html-keyboard-response,261,619790,null,"TRUCK",null,word,,,,, 'TRUCK',,
html-keyboard-response,262,620292,null,"MUSTARD<img id = ""stim"" ><div class = green_square id = ""topsquare"" ></div><img id = ""stim"" ><div class = green_square  id = ""bottomsquare"" ></div>",null,word_square,response,0,none,true,,,
html-keyboard-response,263,621794,null,"MUSTARD",null,word,,,,, 'MUSTARD',,
html-keyboard-response,264,622225,430,"BLANKET<img id = ""stim"" ><div class = red_square id = ""topsquare"" ></div><img id = ""stim"" ><div class = red_square  id = ""bottomsquare"" ></div>",32,word_square,response,1,Space,true,,,
html-keyboard-response,265,623726,null,"BLANKET",null,word,,,,, 'BLANKET',,
html-keyboard-response,266,624228,null,"DRESS<img id = ""stim"" ><div class = green_square id = ""topsquare"" ></div><img id = ""stim"" ><div class = green_square  id = ""bottomsquare"" ></div>",null,word_square,response,0,none,true,,,
html-keyboard-response,267,625730,null,"DRESS",null,word,,,,, 'DRESS',,
html-keyboard-response,268,626232,null,"LACE<img id = ""stim"" ><div class = green_square id = ""topsquare"" ></div><img id = ""stim"" ><div class = green_square  id = ""bottomsquare"" ></div>",null,word_square,response,0,none,true,,,
html-keyboard-response,269,627734,null,"LACE",null,word,,,,, 'LACE',,
html-keyboard-response,270,628236,null,"GLASS<img id = ""stim"" ><div class = red_square id = ""topsquare"" ></div><img id = ""stim"" ><div class = red_square  id = ""bottomsquare"" ></div>",null,word_square,response,1,Space,false,,,
html-keyboard-response,271,629737,null,"GLASS",null,word,,,,, 'GLASS',,
html-keyboard-response,272,630230,492,"WINDOW<img id = ""stim"" ><div class = red_square id = ""topsquare"" ></div><img id = ""stim"" ><div class = red_square  id = ""bottomsquare"" ></div>",32,word_square,response,1,Space,true,,,
html-keyboard-response,273,631732,null,"WINDOW",null,word,,,,, 'WINDOW',,
html-keyboard-response,274,632234,null,"MERMAID<img id = ""stim"" ><div class = green_square id = ""topsquare"" ></div><img id = ""stim"" ><div class = green_square  id = ""bottomsquare"" ></div>",null,word_square,response,0,none,true,,,
html-keyboard-response,275,633735,null,"MERMAID",null,word,,,,, 'MERMAID',,
html-keyboard-response,276,634239,null,"STAPLE<img id = ""stim"" ><div class = green_square id = ""topsquare"" ></div><img id = ""stim"" ><div class = green_square  id = ""bottomsquare"" ></div>",null,word_square,response,0,none,true,,,
html-keyboard-response,277,635740,null,"STAPLE",null,word,,,,, 'STAPLE',,
html-keyboard-response,278,636180,438,"SOCKET<img id = ""stim"" ><div class = red_square id = ""topsquare"" ></div><img id = ""stim"" ><div class = red_square  id = ""bottomsquare"" ></div>",32,word_square,response,1,Space,true,,,
html-keyboard-response,279,637683,null,"SOCKET",null,word,,,,, 'SOCKET',,
html-keyboard-response,280,638122,438,"RODENT<img id = ""stim"" ><div class = red_square id = ""topsquare"" ></div><img id = ""stim"" ><div class = red_square  id = ""bottomsquare"" ></div>",32,word_square,response,1,Space,true,,,
html-keyboard-response,281,639624,null,"RODENT",null,word,,,,, 'RODENT',,
html-keyboard-response,282,640125,null,"DESSERT<img id = ""stim"" ><div class = green_square id = ""topsquare"" ></div><img id = ""stim"" ><div class = green_square  id = ""bottomsquare"" ></div>",null,word_square,response,0,none,true,,,
html-keyboard-response,283,641628,null,"DESSERT",null,word,,,,, 'DESSERT',,
html-keyboard-response,284,642130,null,"SUGAR<img id = ""stim"" ><div class = red_square id = ""topsquare"" ></div><img id = ""stim"" ><div class = red_square  id = ""bottomsquare"" ></div>",null,word_square,response,1,Space,false,,,
html-keyboard-response,285,643631,null,"SUGAR",null,word,,,,, 'SUGAR',,
html-keyboard-response,286,644064,431,"RIVER<img id = ""stim"" ><div class = red_square id = ""topsquare"" ></div><img id = ""stim"" ><div class = red_square  id = ""bottomsquare"" ></div>",32,word_square,response,1,Space,true,,,
html-keyboard-response,287,645566,null,"RIVER",null,word,,,,, 'RIVER',,
html-keyboard-response,288,646068,null,"CRYSTAL<img id = ""stim"" ><div class = green_square id = ""topsquare"" ></div><img id = ""stim"" ><div class = green_square  id = ""bottomsquare"" ></div>",null,word_square,response,0,none,true,,,
html-keyboard-response,289,647569,null,"CRYSTAL",null,word,,,,, 'CRYSTAL',,
html-keyboard-response,290,648071,null,"MOTEL<img id = ""stim"" ><div class = green_square id = ""topsquare"" ></div><img id = ""stim"" ><div class = green_square  id = ""bottomsquare"" ></div>",null,word_square,response,0,none,true,,,
html-keyboard-response,291,649574,null,"MOTEL",null,word,,,,, 'MOTEL',,
call-function,292,649574,,"",,,,,,,,,
html-keyboard-response,293,649675,null,"",null,,,,,,,,
math-period,294,653232,6768,"",,,,,,,,,2
html-keyboard-response,295,653333,null,"",null,,,,,,,,
math-period,296,656158,5214,"",,,,,,,,,3
html-keyboard-response,297,656260,null,"",null,,,,,,,,
math-period,298,658954,4504,"",,,,,,,,,1
html-keyboard-response,299,659056,null,"",null,,,,,,,,
math-period,300,661318,3842,"",,,,,,,,,5
html-keyboard-response,301,661420,null,"",null,,,,,,,,
math-period,302,664062,5142,"",,,,,,,,,1
html-keyboard-response,303,664163,null,"",null,,,,,,,,
math-period,304,667780,5310,"",,,,,,,,,3
html-keyboard-response,305,667882,null,"",null,,,,,,,,
math-period,306,669781,3457,"",,,,,,,,,2
html-keyboard-response,307,669882,null,"",null,,,,,,,,
math-period,308,672003,3799,"",,,,,,,,,4
html-keyboard-response,309,672105,null,"",null,,,,,,,,
math-period,310,673576,null,"",,,,,,,,,
html-keyboard-response,311,674578,null,"Recall Period!",null,,,,,,,,
call-function,312,674579,,"",,,,,,,,,
html-keyboard-response,313,674680,null,"",null,,,,,,,,
recall-period,314,678394,17502,"",,,,,,,,,Lace
html-keyboard-response,315,678496,null,"",null,,,,,,,,
recall-period,316,680304,9316,"",,,,,,,,,Dessert
html-keyboard-response,317,680405,null,"",null,,,,,,,,
recall-period,318,718574,188502,"",,,,,,,,,crib
html-keyboard-response,319,718675,null,"",null,,,,,,,,
recall-period,320,749580,null,"",,,,,,,,,
html-keyboard-response,321,750082,null,"Time's Up!",null,,,,,,,,
html-keyboard-response,322,756960,6876,"<p> Good job! You responded correctly to 83% of the red squares.</p>
                  <p>Be sure to keep your accuracy above 80%</p>
                  <p>Press any key to continue the experiment. Thank you!</p>",32,,,,,,,,
html-keyboard-response,323,761054,4093,"<div style=""font-size:48px;"">Press any key to begin list 4 of 24 </div>",32,,,,,,,,
html-keyboard-response,324,763556,null,"<div style=""font-size:60px;"">+</div>",null,,,,,,,,
html-keyboard-response,325,763988,431,"POCKET<img id = ""stim"" ><div class = red_square id = ""topsquare"" ></div><img id = ""stim"" ><div class = red_square  id = ""bottomsquare"" ></div>",32,word_square,response,1,Space,true,,,
html-keyboard-response,326,765489,null,"POCKET",null,word,,,,, 'POCKET',,
html-keyboard-response,327,765992,null,"GREASE<img id = ""stim"" ><div class = green_square id = ""topsquare"" ></div><img id = ""stim"" ><div class = green_square  id = ""bottomsquare"" ></div>",null,word_square,response,0,none,true,,,
html-keyboard-response,328,767493,null,"GREASE",null,word,,,,, 'GREASE',,
html-keyboard-response,329,767911,416,"PLUTO<img id = ""stim"" ><div class = red_square id = ""topsquare"" ></div><img id = ""stim"" ><div class = red_square  id = ""bottomsquare"" ></div>",32,word_square,response,1,Space,true,,,
html-keyboard-response,330,769413,null,"PLUTO",null,word,,,,, 'PLUTO',,
html-keyboard-response,331,769914,null,"POISON<img id = ""stim"" ><div class = green_square id = ""topsquare"" ></div><img id = ""stim"" ><div class = green_square  id = ""bottomsquare"" ></div>",null,word_square,response,0,none,true,,,
html-keyboard-response,332,771417,null,"POISON",null,word,,,,, 'POISON',,
html-keyboard-response,333,771895,476,"FRAME<img id = ""stim"" ><div class = red_square id = ""topsquare"" ></div><img id = ""stim"" ><div class = red_square  id = ""bottomsquare"" ></div>",32,word_square,response,1,Space,true,,,
html-keyboard-response,334,773397,null,"FRAME",null,word,,,,, 'FRAME',,
html-keyboard-response,335,773899,null,"BANKER<img id = ""stim"" ><div class = green_square id = ""topsquare"" ></div><img id = ""stim"" ><div class = green_square  id = ""bottomsquare"" ></div>",null,word_square,response,0,none,true,,,
html-keyboard-response,336,775401,null,"BANKER",null,word,,,,, 'BANKER',,
html-keyboard-response,337,775903,null,"SCARF<img id = ""stim"" ><div class = green_square id = ""topsquare"" ></div><img id = ""stim"" ><div class = green_square  id = ""bottomsquare"" ></div>",null,word_square,response,0,none,true,,,
html-keyboard-response,338,777404,null,"SCARF",null,word,,,,, 'SCARF',,
html-keyboard-response,339,777833,428,"PUMPKIN<img id = ""stim"" ><div class = red_square id = ""topsquare"" ></div><img id = ""stim"" ><div class = red_square  id = ""bottomsquare"" ></div>",32,word_square,response,1,Space,true,,,
html-keyboard-response,340,779336,null,"PUMPKIN",null,word,,,,, 'PUMPKIN',,
html-keyboard-response,341,779838,null,"PORTRAIT<img id = ""stim"" ><div class = red_square id = ""topsquare"" ></div><img id = ""stim"" ><div class = red_square  id = ""bottomsquare"" ></div>",null,word_square,response,1,Space,false,,,
html-keyboard-response,342,781339,null,"PORTRAIT",null,word,,,,, 'PORTRAIT',,
html-keyboard-response,343,781841,null,"SCULPTURE<img id = ""stim"" ><div class = green_square id = ""topsquare"" ></div><img id = ""stim"" ><div class = green_square  id = ""bottomsquare"" ></div>",null,word_square,response,0,none,true,,,
html-keyboard-response,344,783343,null,"SCULPTURE",null,word,,,,, 'SCULPTURE',,
html-keyboard-response,345,783675,331,"DRAWING<img id = ""stim"" ><div class = green_square id = ""topsquare"" ></div><img id = ""stim"" ><div class = green_square  id = ""bottomsquare"" ></div>",32,word_square,response,0,none,false,,,
html-keyboard-response,346,785178,null,"DRAWING",null,word,,,,, 'DRAWING',,
html-keyboard-response,347,785679,null,"BUTCHER<img id = ""stim"" ><div class = red_square id = ""topsquare"" ></div><img id = ""stim"" ><div class = red_square  id = ""bottomsquare"" ></div>",null,word_square,response,1,Space,false,,,
html-keyboard-response,348,787181,null,"BUTCHER",null,word,,,,, 'BUTCHER',,
html-keyboard-response,349,787683,null,"SAUSAGE<img id = ""stim"" ><div class = red_square id = ""topsquare"" ></div><img id = ""stim"" ><div class = red_square  id = ""bottomsquare"" ></div>",null,word_square,response,1,Space,false,,,
html-keyboard-response,350,789185,null,"SAUSAGE",null,word,,,,, 'SAUSAGE',,
html-keyboard-response,351,789687,null,"LANDSCAPE<img id = ""stim"" ><div class = green_square id = ""topsquare"" ></div><img id = ""stim"" ><div class = green_square  id = ""bottomsquare"" ></div>",null,word_square,response,0,none,true,,,
html-keyboard-response,352,791188,null,"LANDSCAPE",null,word,,,,, 'LANDSCAPE',,
html-keyboard-response,353,791524,334,"SUITE<img id = ""stim"" ><div class = red_square id = ""topsquare"" ></div><img id = ""stim"" ><div class = red_square  id = ""bottomsquare"" ></div>",32,word_square,response,1,Space,true,,,
html-keyboard-response,354,793025,null,"SUITE",null,word,,,,, 'SUITE',,
html-keyboard-response,355,793527,null,"FREEZER<img id = ""stim"" ><div class = red_square id = ""topsquare"" ></div><img id = ""stim"" ><div class = red_square  id = ""bottomsquare"" ></div>",null,word_square,response,1,Space,false,,,
html-keyboard-response,356,795029,null,"FREEZER",null,word,,,,, 'FREEZER',,
html-keyboard-response,357,795530,null,"LITTER<img id = ""stim"" ><div class = green_square id = ""topsquare"" ></div><img id = ""stim"" ><div class = green_square  id = ""bottomsquare"" ></div>",null,word_square,response,0,none,true,,,
html-keyboard-response,358,797032,null,"LITTER",null,word,,,,, 'LITTER',,
html-keyboard-response,359,797534,null,"THIEF<img id = ""stim"" ><div class = green_square id = ""topsquare"" ></div><img id = ""stim"" ><div class = green_square  id = ""bottomsquare"" ></div>",null,word_square,response,0,none,true,,,
html-keyboard-response,360,799036,null,"THIEF",null,word,,,,, 'THIEF',,
call-function,361,799037,,"",,,,,,,,,
html-keyboard-response,362,799139,null,"",null,,,,,,,,
math-period,363,802313,5654,"",,,,,,,,,6
html-keyboard-response,364,802415,null,"",null,,,,,,,,
math-period,365,807751,25142,"",,,,,,,,,3
html-keyboard-response,366,807854,null,"",null,,,,,,,,
math-period,367,810572,4869,"",,,,,,,,,5
html-keyboard-response,368,810674,null,"",null,,,,,,,,
math-period,369,812405,3234,"",,,,,,,,,5
html-keyboard-response,370,812507,null,"",null,,,,,,,,
math-period,371,814936,4389,"",,,,,,,,,6
html-keyboard-response,372,815037,null,"",null,,,,,,,,
math-period,373,818719,12007,"",,,,,,,,,2
html-keyboard-response,374,818821,null,"",null,,,,,,,,
math-period,375,821133,4200,"",,,,,,,,,4
html-keyboard-response,376,821235,null,"",null,,,,,,,,
math-period,377,823039,null,"",,,,,,,,,
html-keyboard-response,378,824041,null,"Recall Period!",null,,,,,,,,
call-function,379,824041,,"",,,,,,,,,
html-keyboard-response,380,824143,null,"",null,,,,,,,,
recall-period,381,825965,8242,"",,,,,,,,,pluto
html-keyboard-response,382,826067,null,"",null,,,,,,,,
recall-period,383,827357,6077,"",,,,,,,,,pocket
html-keyboard-response,384,827459,null,"",null,,,,,,,,
recall-period,385,829293,8370,"",,,,,,,,,poison
html-keyboard-response,386,829394,null,"",null,,,,,,,,
recall-period,387,846275,114808,"",,,,,,,,,grease
html-keyboard-response,388,846376,null,"",null,,,,,,,,
recall-period,389,899043,null,"",,,,,,,,,
html-keyboard-response,390,899545,null,"Time's Up!",null,,,,,,,,
html-keyboard-response,391,903859,4313,"<p> Good job! You responded correctly to 81% of the red squares.</p>
                  <p>Be sure to keep your accuracy above 80%</p>
                  <p>Press any key to continue the experiment. Thank you!</p>",32,,,,,,,,
html-keyboard-response,392,905309,1449,"<div style=""font-size:48px;"">Press any key to begin list 5 of 24 </div>",32,,,,,,,,
html-keyboard-response,393,907811,null,"<div style=""font-size:60px;"">+</div>",null,,,,,,,,
html-keyboard-response,394,908312,null,"WHISTLE<img id = ""stim"" ><div class = green_square id = ""topsquare"" ></div><img id = ""stim"" ><div class = green_square  id = ""bottomsquare"" ></div>",null,word_square,response,0,none,true,,,
html-keyboard-response,395,909814,null,"WHISTLE",null,word,,,,, 'WHISTLE',,
html-keyboard-response,396,910316,null,"BASEMENT<img id = ""stim"" ><div class = green_square id = ""topsquare"" ></div><img id = ""stim"" ><div class = green_square  id = ""bottomsquare"" ></div>",null,word_square,response,0,none,true,,,
html-keyboard-response,397,911818,null,"BASEMENT",null,word,,,,, 'BASEMENT',,
html-keyboard-response,398,912247,428,"CELLAR<img id = ""stim"" ><div class = red_square id = ""topsquare"" ></div><img id = ""stim"" ><div class = red_square  id = ""bottomsquare"" ></div>",32,word_square,response,1,Space,true,,,
html-keyboard-response,399,913748,null,"CELLAR",null,word,,,,, 'CELLAR',,
html-keyboard-response,400,914250,null,"YACHT<img id = ""stim"" ><div class = green_square id = ""topsquare"" ></div><img id = ""stim"" ><div class = green_square  id = ""bottomsquare"" ></div>",null,word_square,response,0,none,true,,,
html-keyboard-response,401,915753,null,"YACHT",null,word,,,,, 'YACHT',,
html-keyboard-response,402,916254,null,"TOURIST<img id = ""stim"" ><div class = red_square id = ""topsquare"" ></div><img id = ""stim"" ><div class = red_square  id = ""bottomsquare"" ></div>",null,word_square,response,1,Space,false,,,
html-keyboard-response,403,917756,null,"TOURIST",null,word,,,,, 'TOURIST',,
html-keyboard-response,404,918258,null,"NAPKIN<img id = ""stim"" ><div class = green_square id = ""topsquare"" ></div><img id = ""stim"" ><div class = green_square  id = ""bottomsquare"" ></div>",null,word_square,response,0,none,true,,,
html-keyboard-response,405,919760,null,"NAPKIN",null,word,,,,, 'NAPKIN',,
html-keyboard-response,406,920261,null,"SHARK<img id = ""stim"" ><div class = green_square id = ""topsquare"" ></div><img id = ""stim"" ><div class = green_square  id = ""bottomsquare"" ></div>",null,word_square,response,0,none,true,,,
html-keyboard-response,407,921764,null,"SHARK",null,word,,,,, 'SHARK',,
html-keyboard-response,408,922266,null,"ROACH<img id = ""stim"" ><div class = red_square id = ""topsquare"" ></div><img id = ""stim"" ><div class = red_square  id = ""bottomsquare"" ></div>",null,word_square,response,1,Space,false,,,
html-keyboard-response,409,923768,null,"ROACH",null,word,,,,, 'ROACH',,
html-keyboard-response,410,924269,null,"TIMBER<img id = ""stim"" ><div class = red_square id = ""topsquare"" ></div><img id = ""stim"" ><div class = red_square  id = ""bottomsquare"" ></div>",null,word_square,response,1,Space,false,,,
html-keyboard-response,411,925770,null,"TIMBER",null,word,,,,, 'TIMBER',,
html-keyboard-response,412,926273,null,"TEACHER<img id = ""stim"" ><div class = green_square id = ""topsquare"" ></div><img id = ""stim"" ><div class = green_square  id = ""bottomsquare"" ></div>",null,word_square,response,0,none,true,,,
html-keyboard-response,413,927774,null,"TEACHER",null,word,,,,, 'TEACHER',,
html-keyboard-response,414,928276,null,"LETTUCE<img id = ""stim"" ><div class = green_square id = ""topsquare"" ></div><img id = ""stim"" ><div class = green_square  id = ""bottomsquare"" ></div>",null,word_square,response,0,none,true,,,
html-keyboard-response,415,929778,null,"LETTUCE",null,word,,,,, 'LETTUCE',,
html-keyboard-response,416,930280,null,"FRAGRANCE<img id = ""stim"" ><div class = red_square id = ""topsquare"" ></div><img id = ""stim"" ><div class = red_square  id = ""bottomsquare"" ></div>",null,word_square,response,1,Space,false,,,
html-keyboard-response,417,931782,null,"FRAGRANCE",null,word,,,,, 'FRAGRANCE',,
html-keyboard-response,418,932284,null,"OINTMENT<img id = ""stim"" ><div class = green_square id = ""topsquare"" ></div><img id = ""stim"" ><div class = green_square  id = ""bottomsquare"" ></div>",null,word_square,response,0,none,true,,,
html-keyboard-response,419,933786,null,"OINTMENT",null,word,,,,, 'OINTMENT',,
html-keyboard-response,420,934163,375,"HANDCUFFS<img id = ""stim"" ><div class = red_square id = ""topsquare"" ></div><img id = ""stim"" ><div class = red_square  id = ""bottomsquare"" ></div>",32,word_square,response,1,Space,true,,,
html-keyboard-response,421,935664,null,"HANDCUFFS",null,word,,,,, 'HANDCUFFS',,
html-keyboard-response,422,936138,472,"WINGS<img id = ""stim"" ><div class = red_square id = ""topsquare"" ></div><img id = ""stim"" ><div class = red_square  id = ""bottomsquare"" ></div>",32,word_square,response,1,Space,true,,,
html-keyboard-response,423,937640,null,"WINGS",null,word,,,,, 'WINGS',,
html-keyboard-response,424,937992,350,"PUPIL<img id = ""stim"" ><div class = red_square id = ""topsquare"" ></div><img id = ""stim"" ><div class = red_square  id = ""bottomsquare"" ></div>",32,word_square,response,1,Space,true,,,
html-keyboard-response,425,939494,null,"PUPIL",null,word,,,,, 'PUPIL',,
html-keyboard-response,426,939997,null,"TURNIP<img id = ""stim"" ><div class = green_square id = ""topsquare"" ></div><img id = ""stim"" ><div class = green_square  id = ""bottomsquare"" ></div>",null,word_square,response,0,none,true,,,
html-keyboard-response,427,941498,null,"TURNIP",null,word,,,,, 'TURNIP',,
html-keyboard-response,428,941893,394,"FLOWER<img id = ""stim"" ><div class = red_square id = ""topsquare"" ></div><img id = ""stim"" ><div class = red_square  id = ""bottomsquare"" ></div>",32,word_square,response,1,Space,true,,,
html-keyboard-response,429,943394,null,"FLOWER",null,word,,,,, 'FLOWER',,
call-function,430,943395,,"",,,,,,,,,
html-keyboard-response,431,943497,null,"",null,,,,,,,,
math-period,432,945351,3181,"",,,,,,,,,3
html-keyboard-response,433,945452,null,"",null,,,,,,,,
math-period,434,948736,9678,"",,,,,,,,,5
html-keyboard-response,435,948839,null,"",null,,,,,,,,
math-period,436,951268,4469,"",,,,,,,,,5
html-keyboard-response,437,951370,null,"",null,,,,,,,,
math-period,438,953935,4359,"",,,,,,,,,2
html-keyboard-response,439,954036,null,"",null,,,,,,,,
math-period,440,958962,17202,"",,,,,,,,,2
html-keyboard-response,441,959065,null,"",null,,,,,,,,
math-period,442,960757,2757,"",,,,,,,,,3
html-keyboard-response,443,960858,null,"",null,,,,,,,,
math-period,444,965898,8483,"",,,,,,,,,3
html-keyboard-response,445,966000,null,"",null,,,,,,,,
math-period,446,967196,2270,"",,,,,,,,,3
html-keyboard-response,447,967298,null,"",null,,,,,,,,
math-period,448,967394,null,"",,,,,,,,,
html-keyboard-response,449,968396,null,"Recall Period!",null,,,,,,,,
call-function,450,968398,,"",,,,,,,,,
html-keyboard-response,451,968499,null,"",null,,,,,,,,
recall-period,452,970853,17540,"",,,,,,,,,lettuce
html-keyboard-response,453,970955,null,"",null,,,,,,,,
recall-period,454,972442,8677,"",,,,,,,,,fragrance
html-keyboard-response,455,972545,null,"",null,,,,,,,,
recall-period,456,973805,6833,"",,,,,,,,,basement
html-keyboard-response,457,973907,null,"",null,,,,,,,,
recall-period,458,975555,4482,"",,,,,,,,,cellar
html-keyboard-response,459,975657,null,"",null,,,,,,,,
recall-period,460,977454,5874,"",,,,,,,,,yact
html-keyboard-response,461,977556,null,"",null,,,,,,,,
recall-period,462,979007,7149,"",,,,,,,,,tourist
html-keyboard-response,463,979108,null,"",null,,,,,,,,
recall-period,464,984410,42873,"",,,,,,,,,handcuffs
html-keyboard-response,465,984513,null,"",null,,,,,,,,
recall-period,466,989606,28461,"",,,,,,,,,shark
html-keyboard-response,467,989708,null,"",null,,,,,,,,
recall-period,468,1034472,351403,"",,,,,,,,,tourist
html-keyboard-response,469,1034574,null,"",null,,,,,,,,
recall-period,470,1043399,null,"",,,,,,,,,
html-keyboard-response,471,1043900,null,"Time's Up!",null,,,,,,,,
html-keyboard-response,472,1048366,4463,"<p> Good job! You responded correctly to 81% of the red squares.</p>
                  <p>Be sure to keep your accuracy above 80%</p>
                  <p>Press any key to continue the experiment. Thank you!</p>",32,,,,,,,,
html-keyboard-response,473,1062344,13976,"<div style=""font-size:48px;"">Press any key to begin list 6 of 24 </div>",32,,,,,,,,
html-keyboard-response,474,1064846,null,"<div style=""font-size:60px;"">+</div>",null,,,,,,,,
html-keyboard-response,475,1065348,null,"BUREAU<img id = ""stim"" ><div class = green_square id = ""topsquare"" ></div><img id = ""stim"" ><div class = green_square  id = ""bottomsquare"" ></div>",null,word_square,response,0,none,true,,,
html-keyboard-response,476,1066850,null,"BUREAU",null,word,,,,, 'BUREAU',,
html-keyboard-response,477,1067351,null,"SKUNK<img id = ""stim"" ><div class = green_square id = ""topsquare"" ></div><img id = ""stim"" ><div class = green_square  id = ""bottomsquare"" ></div>",null,word_square,response,0,none,true,,,
html-keyboard-response,478,1068854,null,"SKUNK",null,word,,,,, 'SKUNK',,
html-keyboard-response,479,1069355,null,"MAPLE<img id = ""stim"" ><div class = red_square id = ""topsquare"" ></div><img id = ""stim"" ><div class = red_square  id = ""bottomsquare"" ></div>",null,word_square,response,1,Space,false,,,
html-keyboard-response,480,1070857,null,"MAPLE",null,word,,,,, 'MAPLE',,
html-keyboard-response,481,1071359,null,"LUMBER<img id = ""stim"" ><div class = green_square id = ""topsquare"" ></div><img id = ""stim"" ><div class = green_square  id = ""bottomsquare"" ></div>",null,word_square,response,0,none,true,,,
html-keyboard-response,482,1072861,null,"LUMBER",null,word,,,,, 'LUMBER',,
html-keyboard-response,483,1073363,null,"VILLAIN<img id = ""stim"" ><div class = red_square id = ""topsquare"" ></div><img id = ""stim"" ><div class = red_square  id = ""bottomsquare"" ></div>",null,word_square,response,1,Space,false,,,
html-keyboard-response,484,1074865,null,"VILLAIN",null,word,,,,, 'VILLAIN',,
html-keyboard-response,485,1075367,null,"BACKBONE<img id = ""stim"" ><div class = green_square id = ""topsquare"" ></div><img id = ""stim"" ><div class = green_square  id = ""bottomsquare"" ></div>",null,word_square,response,0,none,true,,,
html-keyboard-response,486,1076869,null,"BACKBONE",null,word,,,,, 'BACKBONE',,
html-keyboard-response,487,1077370,null,"COBBLER<img id = ""stim"" ><div class = green_square id = ""topsquare"" ></div><img id = ""stim"" ><div class = green_square  id = ""bottomsquare"" ></div>",null,word_square,response,0,none,true,,,
html-keyboard-response,488,1078872,null,"COBBLER",null,word,,,,, 'COBBLER',,
html-keyboard-response,489,1079375,null,"RIFLE<img id = ""stim"" ><div class = red_square id = ""topsquare"" ></div><img id = ""stim"" ><div class = red_square  id = ""bottomsquare"" ></div>",null,word_square,response,1,Space,false,,,
html-keyboard-response,490,1080876,null,"RIFLE",null,word,,,,, 'RIFLE',,
html-keyboard-response,491,1081342,465,"PISTOL<img id = ""stim"" ><div class = red_square id = ""topsquare"" ></div><img id = ""stim"" ><div class = red_square  id = ""bottomsquare"" ></div>",32,word_square,response,1,Space,true,,,
html-keyboard-response,492,1082843,null,"PISTOL",null,word,,,,, 'PISTOL',,
html-keyboard-response,493,1083345,null,"MAILMAN<img id = ""stim"" ><div class = green_square id = ""topsquare"" ></div><img id = ""stim"" ><div class = green_square  id = ""bottomsquare"" ></div>",null,word_square,response,0,none,true,,,
html-keyboard-response,494,1084847,null,"MAILMAN",null,word,,,,, 'MAILMAN',,
html-keyboard-response,495,1085349,null,"SEAL<img id = ""stim"" ><div class = green_square id = ""topsquare"" ></div><img id = ""stim"" ><div class = green_square  id = ""bottomsquare"" ></div>",null,word_square,response,0,none,true,,,
html-keyboard-response,496,1086851,null,"SEAL",null,word,,,,, 'SEAL',,
html-keyboard-response,497,1087353,null,"CIGAR<img id = ""stim"" ><div class = red_square id = ""topsquare"" ></div><img id = ""stim"" ><div class = red_square  id = ""bottomsquare"" ></div>",null,word_square,response,1,Space,false,,,
html-keyboard-response,498,1088855,null,"CIGAR",null,word,,,,, 'CIGAR',,
html-keyboard-response,499,1089357,null,"JOKER<img id = ""stim"" ><div class = green_square id = ""topsquare"" ></div><img id = ""stim"" ><div class = green_square  id = ""bottomsquare"" ></div>",null,word_square,response,0,none,true,,,
html-keyboard-response,500,1090859,null,"JOKER",null,word,,,,, 'JOKER',,
html-keyboard-response,501,1091266,406,"HONEY<img id = ""stim"" ><div class = red_square id = ""topsquare"" ></div><img id = ""stim"" ><div class = red_square  id = ""bottomsquare"" ></div>",32,word_square,response,1,Space,true,,,
html-keyboard-response,502,1092767,null,"HONEY",null,word,,,,, 'HONEY',,
html-keyboard-response,503,1093270,null,"COLESLAW<img id = ""stim"" ><div class = red_square id = ""topsquare"" ></div><img id = ""stim"" ><div class = red_square  id = ""bottomsquare"" ></div>",null,word_square,response,1,Space,false,,,
html-keyboard-response,504,1094771,null,"COLESLAW",null,word,,,,, 'COLESLAW',,
html-keyboard-response,505,1095164,391,"FOLDER<img id = ""stim"" ><div class = red_square id = ""topsquare"" ></div><img id = ""stim"" ><div class = red_square  id = ""bottomsquare"" ></div>",32,word_square,response,1,Space,true,,,
html-keyboard-response,506,1096666,null,"FOLDER",null,word,,,,, 'FOLDER',,
html-keyboard-response,507,1097168,null,"DWARF<img id = ""stim"" ><div class = green_square id = ""topsquare"" ></div><img id = ""stim"" ><div class = green_square  id = ""bottomsquare"" ></div>",null,word_square,response,0,none,true,,,
html-keyboard-response,508,1098669,null,"DWARF",null,word,,,,, 'DWARF',,
html-keyboard-response,509,1099128,457,"RACKET<img id = ""stim"" ><div class = red_square id = ""topsquare"" ></div><img id = ""stim"" ><div class = red_square  id = ""bottomsquare"" ></div>",32,word_square,response,1,Space,true,,,
html-keyboard-response,510,1100630,null,"RACKET",null,word,,,,, 'RACKET',,
call-function,511,1100631,,"",,,,,,,,,
html-keyboard-response,512,1100732,null,"",null,,,,,,,,
math-period,513,1102378,2861,"",,,,,,,,,2
html-keyboard-response,514,1102479,null,"",null,,,,,,,,
math-period,515,1104389,3677,"",,,,,,,,,2
html-keyboard-response,516,1104491,null,"",null,,,,,,,,
math-period,517,1105432,1795,"",,,,,,,,,2
html-keyboard-response,518,1105534,null,"",null,,,,,,,,
math-period,519,1107064,2920,"",,,,,,,,,2
html-keyboard-response,520,1107165,null,"",null,,,,,,,,
math-period,521,1110318,10524,"",,,,,,,,,5
html-keyboard-response,522,1110419,null,"",null,,,,,,,,
math-period,523,1112706,4055,"",,,,,,,,,4
html-keyboard-response,524,1112808,null,"",null,,,,,,,,
math-period,525,1114734,3404,"",,,,,,,,,3
html-keyboard-response,526,1114836,null,"",null,,,,,,,,
math-period,527,1117034,4234,"",,,,,,,,,5
html-keyboard-response,528,1117135,null,"",null,,,,,,,,
math-period,529,1119082,3730,"",,,,,,,,,1
html-keyboard-response,530,1119183,null,"",null,,,,,,,,
math-period,531,1124025,9494,"",,,,,,,,,0
html-keyboard-response,532,1124127,null,"",null,,,,,,,,
math-period,533,1124632,null,"",,,,,,,,,
html-keyboard-response,534,1125633,null,"Recall Period!",null,,,,,,,,
call-function,535,1125633,,"",,,,,,,,,
html-keyboard-response,536,1125735,null,"",null,,,,,,,,
recall-period,537,1126660,3598,"",,,,,,,,,rifle
html-keyboard-response,538,1126762,null,"",null,,,,,,,,
recall-period,539,1128048,5148,"",,,,,,,,,pistol
html-keyboard-response,540,1128149,null,"",null,,,,,,,,
recall-period,541,1134376,39630,"",,,,,,,,,beureau
html-keyboard-response,542,1134478,null,"",null,,,,,,,,
recall-period,543,1136709,10733,"",,,,,,,,,skunk
html-keyboard-response,544,1136812,null,"",null,,,,,,,,
recall-period,545,1138360,5606,"",,,,,,,,,dwarf
html-keyboard-response,546,1138462,null,"",null,,,,,,,,
recall-period,547,1139884,5306,"",,,,,,,,,cigar
html-keyboard-response,548,1139985,null,"",null,,,,,,,,
recall-period,549,1141260,4872,"",,,,,,,,,maple
html-keyboard-response,550,1141362,null,"",null,,,,,,,,
recall-period,551,1156496,115090,"",,,,,,,,,villain
html-keyboard-response,552,1156597,null,"",null,,,,,,,,
recall-period,553,1163055,35211,"",,,,,,,,,pluto
html-keyboard-response,554,1163157,null,"",null,,,,,,,,
recall-period,555,1175931,97754,"",,,,,,,,,dresser
html-keyboard-response,556,1176033,null,"",null,,,,,,,,
recall-period,557,1180488,20293,"",,,,,,,,,wood
html-keyboard-response,558,1180589,null,"",null,,,,,,,,
recall-period,559,1200635,null,"",,,,,,,,,
html-keyboard-response,560,1201137,null,"Time's Up!",null,,,,,,,,
html-keyboard-response,561,1206961,5822,"<p> Uh oh. You responded correctly on 79% of the red squares.</p>
                  <p>We need you keep your accuracy above 80%</p>
                  <p>Press any key to continue the experiment. Thank you!</p>",32,,,,,,,,
html-keyboard-response,562,1209496,2534,"<div style=""font-size:48px;"">Press any key to begin list 7 of 24 </div>",32,,,,,,,,
html-keyboard-response,563,1211999,null,"<div style=""font-size:60px;"">+</div>",null,,,,,,,,
html-keyboard-response,564,1212501,null,"GALLON<img id = ""stim"" ><div class = red_square id = ""topsquare"" ></div><img id = ""stim"" ><div class = red_square  id = ""bottomsquare"" ></div>",null,word_square,response,1,Space,false,,,
html-keyboard-response,565,1214003,null,"GALLON",null,word,,,,, 'GALLON',,
html-keyboard-response,566,1214433,429,"TAVERN<img id = ""stim"" ><div class = red_square id = ""topsquare"" ></div><img id = ""stim"" ><div class = red_square  id = ""bottomsquare"" ></div>",32,word_square,response,1,Space,true,,,
html-keyboard-response,567,1215934,null,"TAVERN",null,word,,,,, 'TAVERN',,
html-keyboard-response,568,1216437,null,"APPLE<img id = ""stim"" ><div class = green_square id = ""topsquare"" ></div><img id = ""stim"" ><div class = green_square  id = ""bottomsquare"" ></div>",null,word_square,response,0,none,true,,,
html-keyboard-response,569,1217939,null,"APPLE",null,word,,,,, 'APPLE',,
html-keyboard-response,570,1218373,432,"ORANGE<img id = ""stim"" ><div class = red_square id = ""topsquare"" ></div><img id = ""stim"" ><div class = red_square  id = ""bottomsquare"" ></div>",32,word_square,response,1,Space,true,,,
html-keyboard-response,571,1219874,null,"ORANGE",null,word,,,,, 'ORANGE',,
html-keyboard-response,572,1220376,null,"MONGOOSE<img id = ""stim"" ><div class = green_square id = ""topsquare"" ></div><img id = ""stim"" ><div class = green_square  id = ""bottomsquare"" ></div>",null,word_square,response,0,none,true,,,
html-keyboard-response,573,1221878,null,"MONGOOSE",null,word,,,,, 'MONGOOSE',,
html-keyboard-response,574,1222231,351,"HORSE<img id = ""stim"" ><div class = red_square id = ""topsquare"" ></div><img id = ""stim"" ><div class = red_square  id = ""bottomsquare"" ></div>",32,word_square,response,1,Space,true,,,
html-keyboard-response,575,1223732,null,"HORSE",null,word,,,,, 'HORSE',,
html-keyboard-response,576,1224235,null,"DONKEY<img id = ""stim"" ><div class = red_square id = ""topsquare"" ></div><img id = ""stim"" ><div class = red_square  id = ""bottomsquare"" ></div>",null,word_square,response,1,Space,false,,,
html-keyboard-response,577,1225736,null,"DONKEY",null,word,,,,, 'DONKEY',,
html-keyboard-response,578,1226238,null,"BRACES<img id = ""stim"" ><div class = green_square id = ""topsquare"" ></div><img id = ""stim"" ><div class = green_square  id = ""bottomsquare"" ></div>",null,word_square,response,0,none,true,,,
html-keyboard-response,579,1227740,null,"BRACES",null,word,,,,, 'BRACES',,
html-keyboard-response,580,1228242,null,"BEAVER<img id = ""stim"" ><div class = green_square id = ""topsquare"" ></div><img id = ""stim"" ><div class = green_square  id = ""bottomsquare"" ></div>",null,word_square,response,0,none,true,,,
html-keyboard-response,581,1229744,null,"BEAVER",null,word,,,,, 'BEAVER',,
html-keyboard-response,582,1230151,405,"COOK<img id = ""stim"" ><div class = red_square id = ""topsquare"" ></div><img id = ""stim"" ><div class = red_square  id = ""bottomsquare"" ></div>",32,word_square,response,1,Space,true,,,
html-keyboard-response,583,1231653,null,"COOK",null,word,,,,, 'COOK',,
html-keyboard-response,584,1232135,480,"ELK<img id = ""stim"" ><div class = red_square id = ""topsquare"" ></div><img id = ""stim"" ><div class = red_square  id = ""bottomsquare"" ></div>",32,word_square,response,1,Space,true,,,
html-keyboard-response,585,1233637,null,"ELK",null,word,,,,, 'ELK',,
html-keyboard-response,586,1234139,null,"COOKBOOK<img id = ""stim"" ><div class = green_square id = ""topsquare"" ></div><img id = ""stim"" ><div class = green_square  id = ""bottomsquare"" ></div>",null,word_square,response,0,none,true,,,
html-keyboard-response,587,1235640,null,"COOKBOOK",null,word,,,,, 'COOKBOOK',,
html-keyboard-response,588,1235992,351,"HIGHWAY<img id = ""stim"" ><div class = red_square id = ""topsquare"" ></div><img id = ""stim"" ><div class = red_square  id = ""bottomsquare"" ></div>",32,word_square,response,1,Space,true,,,
html-keyboard-response,589,1237495,null,"HIGHWAY",null,word,,,,, 'HIGHWAY',,
html-keyboard-response,590,1237996,null,"SALAD<img id = ""stim"" ><div class = green_square id = ""topsquare"" ></div><img id = ""stim"" ><div class = green_square  id = ""bottomsquare"" ></div>",null,word_square,response,0,none,true,,,
html-keyboard-response,591,1239499,null,"SALAD",null,word,,,,, 'SALAD',,
html-keyboard-response,592,1239847,347,"LETTER<img id = ""stim"" ><div class = green_square id = ""topsquare"" ></div><img id = ""stim"" ><div class = green_square  id = ""bottomsquare"" ></div>",32,word_square,response,0,none,false,,,
html-keyboard-response,593,1241348,null,"LETTER",null,word,,,,, 'LETTER',,
html-keyboard-response,594,1241850,null,"LOBBY<img id = ""stim"" ><div class = green_square id = ""topsquare"" ></div><img id = ""stim"" ><div class = green_square  id = ""bottomsquare"" ></div>",null,word_square,response,0,none,true,,,
html-keyboard-response,595,1243352,null,"LOBBY",null,word,,,,, 'LOBBY',,
html-keyboard-response,596,1243854,null,"PASTRY<img id = ""stim"" ><div class = red_square id = ""topsquare"" ></div><img id = ""stim"" ><div class = red_square  id = ""bottomsquare"" ></div>",null,word_square,response,1,Space,false,,,
html-keyboard-response,597,1245356,null,"PASTRY",null,word,,,,, 'PASTRY',,
html-keyboard-response,598,1245858,null,"JOINT<img id = ""stim"" ><div class = green_square id = ""topsquare"" ></div><img id = ""stim"" ><div class = green_square  id = ""bottomsquare"" ></div>",null,word_square,response,0,none,true,,,
html-keyboard-response,599,1247359,null,"JOINT",null,word,,,,, 'JOINT',,
call-function,600,1247360,,"",,,,,,,,,
html-keyboard-response,601,1247462,null,"",null,,,,,,,,
math-period,602,1249557,3744,"",,,,,,,,,1
html-keyboard-response,603,1249659,null,"",null,,,,,,,,
math-period,604,1254993,10527,"",,,,,,,,,1
html-keyboard-response,605,1255095,null,"",null,,,,,,,,
math-period,606,1256225,2009,"",,,,,,,,,2
html-keyboard-response,607,1256327,null,"",null,,,,,,,,
math-period,608,1259298,10276,"",,,,,,,,,5
html-keyboard-response,609,1259400,null,"",null,,,,,,,,
math-period,610,1261247,3153,"",,,,,,,,,4
html-keyboard-response,611,1261349,null,"",null,,,,,,,,
math-period,612,1265325,7632,"",,,,,,,,,3
html-keyboard-response,613,1265427,null,"",null,,,,,,,,
math-period,614,1267305,3357,"",,,,,,,,,3
html-keyboard-response,615,1267407,null,"",null,,,,,,,,
math-period,616,1269773,4285,"",,,,,,,,,2
html-keyboard-response,617,1269875,null,"",null,,,,,,,,
math-period,618,1271064,2212,"",,,,,,,,,2
html-keyboard-response,619,1271166,null,"",null,,,,,,,,
math-period,620,1271362,null,"",,,,,,,,,
html-keyboard-response,621,1272364,null,"Recall Period!",null,,,,,,,,
call-function,622,1272365,,"",,,,,,,,,
html-keyboard-response,623,1272467,null,"",null,,,,,,,,
recall-period,624,1274202,7894,"",,,,,,,,,gallon
html-keyboard-response,625,1274304,null,"",null,,,,,,,,
recall-period,626,1276003,6304,"",,,,,,,,,tavern
html-keyboard-response,627,1276105,null,"",null,,,,,,,,
recall-period,628,1279479,14687,"",,,,,,,,,apple
html-keyboard-response,629,1279581,null,"",null,,,,,,,,
recall-period,630,1280958,5904,"",,,,,,,,,orange
html-keyboard-response,631,1281060,null,"",null,,,,,,,,
recall-period,632,1284961,13802,"",,,,,,,,,elk
html-keyboard-response,633,1285062,null,"",null,,,,,,,,
recall-period,634,1288056,16634,"",,,,,,,,,highway
html-keyboard-response,635,1288158,null,"",null,,,,,,,,
recall-period,636,1290284,11625,"",,,,,,,,,donkey
html-keyboard-response,637,1290387,null,"",null,,,,,,,,
recall-period,638,1293249,12664,"",,,,,,,,,horse
html-keyboard-response,639,1293351,null,"",null,,,,,,,,
recall-period,640,1295898,7493,"",,,,,,,,,pastry
html-keyboard-response,641,1296000,null,"",null,,,,,,,,
recall-period,642,1305470,53129,"",,,,,,,,,joint
html-keyboard-response,643,1305573,null,"",null,,,,,,,,
recall-period,644,1347366,116192,"",,,,,,,,,
html-keyboard-response,645,1347867,null,"Time's Up!",null,,,,,,,,
html-keyboard-response,646,1353848,5980,"<p> Uh oh. You responded correctly on 79% of the red squares.</p>
                  <p>We need you keep your accuracy above 80%</p>
                  <p>Press any key to continue the experiment. Thank you!</p>",32,,,,,,,,
html-keyboard-response,647,1355886,2036,"<div style=""font-size:48px;"">Press any key to begin list 8 of 24 </div>",32,,,,,,,,
html-keyboard-response,648,1358388,null,"<div style=""font-size:60px;"">+</div>",null,,,,,,,,
html-keyboard-response,649,1358826,436,"MONKEY<img id = ""stim"" ><div class = red_square id = ""topsquare"" ></div><img id = ""stim"" ><div class = red_square  id = ""bottomsquare"" ></div>",32,word_square,response,1,Space,true,,,
html-keyboard-response,650,1360328,null,"MONKEY",null,word,,,,, 'MONKEY',,
html-keyboard-response,651,1360830,null,"SHORTCAKE<img id = ""stim"" ><div class = red_square id = ""topsquare"" ></div><img id = ""stim"" ><div class = red_square  id = ""bottomsquare"" ></div>",null,word_square,response,1,Space,false,,,
html-keyboard-response,652,1362332,null,"SHORTCAKE",null,word,,,,, 'SHORTCAKE',,
html-keyboard-response,653,1362833,null,"MAILBOX<img id = ""stim"" ><div class = green_square id = ""topsquare"" ></div><img id = ""stim"" ><div class = green_square  id = ""bottomsquare"" ></div>",null,word_square,response,0,none,true,,,
html-keyboard-response,654,1364335,null,"MAILBOX",null,word,,,,, 'MAILBOX',,
html-keyboard-response,655,1364838,null,"SERGEANT<img id = ""stim"" ><div class = red_square id = ""topsquare"" ></div><img id = ""stim"" ><div class = red_square  id = ""bottomsquare"" ></div>",null,word_square,response,1,Space,false,,,
html-keyboard-response,656,1366340,null,"SERGEANT",null,word,,,,, 'SERGEANT',,
html-keyboard-response,657,1366841,null,"ASIA<img id = ""stim"" ><div class = green_square id = ""topsquare"" ></div><img id = ""stim"" ><div class = green_square  id = ""bottomsquare"" ></div>",null,word_square,response,0,none,true,,,
html-keyboard-response,658,1368343,null,"ASIA",null,word,,,,, 'ASIA',,
html-keyboard-response,659,1368844,499,"CROSS<img id = ""stim"" ><div class = red_square id = ""topsquare"" ></div><img id = ""stim"" ><div class = red_square  id = ""bottomsquare"" ></div>",32,word_square,response,1,Space,true,,,
html-keyboard-response,660,1370346,null,"CROSS",null,word,,,,, 'CROSS',,
html-keyboard-response,661,1370824,477,"CHAPEL<img id = ""stim"" ><div class = red_square id = ""topsquare"" ></div><img id = ""stim"" ><div class = red_square  id = ""bottomsquare"" ></div>",32,word_square,response,1,Space,true,,,
html-keyboard-response,662,1372326,null,"CHAPEL",null,word,,,,, 'CHAPEL',,
html-keyboard-response,663,1372828,null,"SALESMAN<img id = ""stim"" ><div class = green_square id = ""topsquare"" ></div><img id = ""stim"" ><div class = green_square  id = ""bottomsquare"" ></div>",null,word_square,response,0,none,true,,,
html-keyboard-response,664,1374330,null,"SALESMAN",null,word,,,,, 'SALESMAN',,
html-keyboard-response,665,1374832,null,"ATOM<img id = ""stim"" ><div class = green_square id = ""topsquare"" ></div><img id = ""stim"" ><div class = green_square  id = ""bottomsquare"" ></div>",null,word_square,response,0,none,true,,,
html-keyboard-response,666,1376334,null,"ATOM",null,word,,,,, 'ATOM',,
html-keyboard-response,667,1376836,null,"ROBIN<img id = ""stim"" ><div class = red_square id = ""topsquare"" ></div><img id = ""stim"" ><div class = red_square  id = ""bottomsquare"" ></div>",null,word_square,response,1,Space,false,,,
html-keyboard-response,668,1378338,null,"ROBIN",null,word,,,,, 'ROBIN',,
html-keyboard-response,669,1378800,460,"CORAL<img id = ""stim"" ><div class = red_square id = ""topsquare"" ></div><img id = ""stim"" ><div class = red_square  id = ""bottomsquare"" ></div>",32,word_square,response,1,Space,true,,,
html-keyboard-response,670,1380301,null,"CORAL",null,word,,,,, 'CORAL',,
html-keyboard-response,671,1380803,null,"WAX<img id = ""stim"" ><div class = green_square id = ""topsquare"" ></div><img id = ""stim"" ><div class = green_square  id = ""bottomsquare"" ></div>",null,word_square,response,0,none,true,,,
html-keyboard-response,672,1382305,null,"WAX",null,word,,,,, 'WAX',,
html-keyboard-response,673,1382690,383,"WALNUT<img id = ""stim"" ><div class = red_square id = ""topsquare"" ></div><img id = ""stim"" ><div class = red_square  id = ""bottomsquare"" ></div>",32,word_square,response,1,Space,true,,,
html-keyboard-response,674,1384192,null,"WALNUT",null,word,,,,, 'WALNUT',,
html-keyboard-response,675,1384693,null,"DAUGHTER<img id = ""stim"" ><div class = green_square id = ""topsquare"" ></div><img id = ""stim"" ><div class = green_square  id = ""bottomsquare"" ></div>",null,word_square,response,0,none,true,,,
html-keyboard-response,676,1386195,null,"DAUGHTER",null,word,,,,, 'DAUGHTER',,
html-keyboard-response,677,1386697,null,"APRON<img id = ""stim"" ><div class = green_square id = ""topsquare"" ></div><img id = ""stim"" ><div class = green_square  id = ""bottomsquare"" ></div>",null,word_square,response,0,none,true,,,
html-keyboard-response,678,1388199,null,"APRON",null,word,,,,, 'APRON',,
html-keyboard-response,679,1388702,null,"PLAQUE<img id = ""stim"" ><div class = green_square id = ""topsquare"" ></div><img id = ""stim"" ><div class = green_square  id = ""bottomsquare"" ></div>",null,word_square,response,0,none,true,,,
html-keyboard-response,680,1390204,null,"PLAQUE",null,word,,,,, 'PLAQUE',,
html-keyboard-response,681,1390706,null,"TOASTER<img id = ""stim"" ><div class = red_square id = ""topsquare"" ></div><img id = ""stim"" ><div class = red_square  id = ""bottomsquare"" ></div>",null,word_square,response,1,Space,false,,,
html-keyboard-response,682,1392207,null,"TOASTER",null,word,,,,, 'TOASTER',,
html-keyboard-response,683,1392709,null,"KITCHEN<img id = ""stim"" ><div class = green_square id = ""topsquare"" ></div><img id = ""stim"" ><div class = green_square  id = ""bottomsquare"" ></div>",null,word_square,response,0,none,true,,,
html-keyboard-response,684,1394211,null,"KITCHEN",null,word,,,,, 'KITCHEN',,
call-function,685,1394212,,"",,,,,,,,,
html-keyboard-response,686,1394313,null,"",null,,,,,,,,
math-period,687,1397100,8550,"",,,,,,,,,4
html-keyboard-response,688,1397201,null,"",null,,,,,,,,
math-period,689,1398769,2597,"",,,,,,,,,3
html-keyboard-response,690,1398871,null,"",null,,,,,,,,
math-period,691,1400414,2504,"",,,,,,,,,2
html-keyboard-response,692,1400515,null,"",null,,,,,,,,
math-period,693,1402132,2755,"",,,,,,,,,4
html-keyboard-response,694,1402234,null,"",null,,,,,,,,
math-period,695,1403300,1893,"",,,,,,,,,2
html-keyboard-response,696,1403401,null,"",null,,,,,,,,
math-period,697,1405692,4398,"",,,,,,,,,2
html-keyboard-response,698,1405794,null,"",null,,,,,,,,
math-period,699,1408052,4021,"",,,,,,,,,4
html-keyboard-response,700,1408154,null,"",null,,,,,,,,
math-period,701,1410349,4231,"",,,,,,,,,2
html-keyboard-response,702,1410451,null,"",null,,,,,,,,
math-period,703,1413222,9222,"",,,,,,,,,6
html-keyboard-response,704,1413324,null,"",null,,,,,,,,
math-period,705,1417538,8129,"",,,,,,,,,0
html-keyboard-response,706,1417639,null,"",null,,,,,,,,
math-period,707,1418215,null,"",,,,,,,,,
html-keyboard-response,708,1419216,null,"Recall Period!",null,,,,,,,,
call-function,709,1419217,,"",,,,,,,,,
html-keyboard-response,710,1419319,null,"",null,,,,,,,,
recall-period,711,1421440,10601,"",,,,,,,,,chapel
html-keyboard-response,712,1421541,null,"",null,,,,,,,,
recall-period,713,1422882,5134,"",,,,,,,,,walnut
html-keyboard-response,714,1422983,null,"",null,,,,,,,,
recall-period,715,1424447,7844,"",,,,,,,,,toaster
html-keyboard-response,716,1424550,null,"",null,,,,,,,,
recall-period,717,1426373,8135,"",,,,,,,,,kitchen
html-keyboard-response,718,1426476,null,"",null,,,,,,,,
recall-period,719,1428026,6068,"",,,,,,,,,monkey
html-keyboard-response,720,1428127,null,"",null,,,,,,,,
recall-period,721,1432559,32906,"",,,,,,,,,shortcake
html-keyboard-response,722,1432662,null,"",null,,,,,,,,
recall-period,723,1434874,9687,"",,,,,,,,,mailbox
html-keyboard-response,724,1434975,null,"",null,,,,,,,,
recall-period,725,1470459,920407,"",,,,,,,,,seargeant
html-keyboard-response,726,1470561,null,"",null,,,,,,,,
recall-period,727,1494220,null,"",,,,,,,,,
html-keyboard-response,728,1494721,null,"Time's Up!",null,,,,,,,,
html-keyboard-response,729,1496841,2118,"<p> Uh oh. You responded correctly on 79% of the red squares.</p>
                  <p>We need you keep your accuracy above 80%</p>
                  <p>Press any key to continue the experiment. Thank you!</p>",32,,,,,,,,
html-keyboard-response,730,1498691,1848,"<div style=""font-size:48px;"">Press any key to begin list 9 of 24 </div>",32,,,,,,,,
html-keyboard-response,731,1501193,null,"<div style=""font-size:60px;"">+</div>",null,,,,,,,,
html-keyboard-response,732,1501633,439,"COWBOY<img id = ""stim"" ><div class = red_square id = ""topsquare"" ></div><img id = ""stim"" ><div class = red_square  id = ""bottomsquare"" ></div>",32,word_square,response,1,Space,true,,,
html-keyboard-response,733,1503135,null,"COWBOY",null,word,,,,, 'COWBOY',,
html-keyboard-response,734,1503637,null,"SEASHORE<img id = ""stim"" ><div class = green_square id = ""topsquare"" ></div><img id = ""stim"" ><div class = green_square  id = ""bottomsquare"" ></div>",null,word_square,response,0,none,true,,,
html-keyboard-response,735,1505139,null,"SEASHORE",null,word,,,,, 'SEASHORE',,
html-keyboard-response,736,1505591,450,"CANDY<img id = ""stim"" ><div class = red_square id = ""topsquare"" ></div><img id = ""stim"" ><div class = red_square  id = ""bottomsquare"" ></div>",32,word_square,response,1,Space,true,,,
html-keyboard-response,737,1507093,null,"CANDY",null,word,,,,, 'CANDY',,
html-keyboard-response,738,1507595,null,"STUDENT<img id = ""stim"" ><div class = red_square id = ""topsquare"" ></div><img id = ""stim"" ><div class = red_square  id = ""bottomsquare"" ></div>",null,word_square,response,1,Space,false,,,
html-keyboard-response,739,1509097,null,"STUDENT",null,word,,,,, 'STUDENT',,
html-keyboard-response,740,1509599,null,"GERM<img id = ""stim"" ><div class = green_square id = ""topsquare"" ></div><img id = ""stim"" ><div class = green_square  id = ""bottomsquare"" ></div>",null,word_square,response,0,none,true,,,
html-keyboard-response,741,1511101,null,"GERM",null,word,,,,, 'GERM',,
html-keyboard-response,742,1511602,null,"SHOVEL<img id = ""stim"" ><div class = green_square id = ""topsquare"" ></div><img id = ""stim"" ><div class = green_square  id = ""bottomsquare"" ></div>",null,word_square,response,0,none,true,,,
html-keyboard-response,743,1513105,null,"SHOVEL",null,word,,,,, 'SHOVEL',,
html-keyboard-response,744,1513586,481,"GIRAFFE<img id = ""stim"" ><div class = red_square id = ""topsquare"" ></div><img id = ""stim"" ><div class = red_square  id = ""bottomsquare"" ></div>",32,word_square,response,1,Space,true,,,
html-keyboard-response,745,1515089,null,"GIRAFFE",null,word,,,,, 'GIRAFFE',,
html-keyboard-response,746,1515591,null,"BAKER<img id = ""stim"" ><div class = green_square id = ""topsquare"" ></div><img id = ""stim"" ><div class = green_square  id = ""bottomsquare"" ></div>",null,word_square,response,0,none,true,,,
html-keyboard-response,747,1517093,null,"BAKER",null,word,,,,, 'BAKER',,
html-keyboard-response,748,1517495,401,"SKILLET<img id = ""stim"" ><div class = red_square id = ""topsquare"" ></div><img id = ""stim"" ><div class = red_square  id = ""bottomsquare"" ></div>",32,word_square,response,1,Space,true,,,
html-keyboard-response,749,1518997,null,"SKILLET",null,word,,,,, 'SKILLET',,
html-keyboard-response,750,1519499,null,"YOLK<img id = ""stim"" ><div class = green_square id = ""topsquare"" ></div><img id = ""stim"" ><div class = green_square  id = ""bottomsquare"" ></div>",null,word_square,response,0,none,true,,,
html-keyboard-response,751,1521001,null,"YOLK",null,word,,,,, 'YOLK',,
html-keyboard-response,752,1521503,null,"MARSH<img id = ""stim"" ><div class = green_square id = ""topsquare"" ></div><img id = ""stim"" ><div class = green_square  id = ""bottomsquare"" ></div>",null,word_square,response,0,none,true,,,
html-keyboard-response,753,1523005,null,"MARSH",null,word,,,,, 'MARSH',,
html-keyboard-response,754,1523489,482,"VILLAGE<img id = ""stim"" ><div class = red_square id = ""topsquare"" ></div><img id = ""stim"" ><div class = red_square  id = ""bottomsquare"" ></div>",32,word_square,response,1,Space,true,,,
html-keyboard-response,755,1524991,null,"VILLAGE",null,word,,,,, 'VILLAGE',,
html-keyboard-response,756,1525455,461,"WRENCH<img id = ""stim"" ><div class = red_square id = ""topsquare"" ></div><img id = ""stim"" ><div class = red_square  id = ""bottomsquare"" ></div>",32,word_square,response,1,Space,true,,,
html-keyboard-response,757,1526956,null,"WRENCH",null,word,,,,, 'WRENCH',,
html-keyboard-response,758,1527458,null,"BOX<img id = ""stim"" ><div class = green_square id = ""topsquare"" ></div><img id = ""stim"" ><div class = green_square  id = ""bottomsquare"" ></div>",null,word_square,response,0,none,true,,,
html-keyboard-response,759,1528960,null,"BOX",null,word,,,,, 'BOX',,
html-keyboard-response,760,1529462,null,"STAMP<img id = ""stim"" ><div class = red_square id = ""topsquare"" ></div><img id = ""stim"" ><div class = red_square  id = ""bottomsquare"" ></div>",null,word_square,response,1,Space,false,,,
html-keyboard-response,761,1530965,null,"STAMP",null,word,,,,, 'STAMP',,
html-keyboard-response,762,1531466,null,"REPTILE<img id = ""stim"" ><div class = green_square id = ""topsquare"" ></div><img id = ""stim"" ><div class = green_square  id = ""bottomsquare"" ></div>",null,word_square,response,0,none,true,,,
html-keyboard-response,763,1532968,null,"REPTILE",null,word,,,,, 'REPTILE',,
html-keyboard-response,764,1533471,null,"WAIST<img id = ""stim"" ><div class = green_square id = ""topsquare"" ></div><img id = ""stim"" ><div class = green_square  id = ""bottomsquare"" ></div>",null,word_square,response,0,none,true,,,
html-keyboard-response,765,1534973,null,"WAIST",null,word,,,,, 'WAIST',,
html-keyboard-response,766,1535335,361,"MAMMAL<img id = ""stim"" ><div class = red_square id = ""topsquare"" ></div><img id = ""stim"" ><div class = red_square  id = ""bottomsquare"" ></div>",32,word_square,response,1,Space,true,,,
html-keyboard-response,767,1536836,null,"MAMMAL",null,word,,,,, 'MAMMAL',,
call-function,768,1536838,,"",,,,,,,,,
html-keyboard-response,769,1536939,null,"",null,,,,,,,,
math-period,770,1539511,4583,"",,,,,,,,,2
html-keyboard-response,771,1539613,null,"",null,,,,,,,,
math-period,772,1541729,3831,"",,,,,,,,,6
html-keyboard-response,773,1541830,null,"",null,,,,,,,,
math-period,774,1544553,5030,"",,,,,,,,,1
html-keyboard-response,775,1544655,null,"",null,,,,,,,,
math-period,776,1546687,3564,"",,,,,,,,,4
html-keyboard-response,777,1546789,null,"",null,,,,,,,,
math-period,778,1548387,2764,"",,,,,,,,,3
html-keyboard-response,779,1548489,null,"",null,,,,,,,,
math-period,780,1551626,10818,"",,,,,,,,,5
html-keyboard-response,781,1551728,null,"",null,,,,,,,,
math-period,782,1554417,4912,"",,,,,,,,,2
html-keyboard-response,783,1554519,null,"",null,,,,,,,,
math-period,784,1556900,4507,"",,,,,,,,,1
html-keyboard-response,785,1557003,null,"",null,,,,,,,,
math-period,786,1558557,2669,"",,,,,,,,,4
html-keyboard-response,787,1558658,null,"",null,,,,,,,,
math-period,788,1560589,3408,"",,,,,,,,,5
html-keyboard-response,789,1560690,null,"",null,,,,,,,,
math-period,790,1560839,null,"",,,,,,,,,
html-keyboard-response,791,1561841,null,"Recall Period!",null,,,,,,,,
call-function,792,1561842,,"",,,,,,,,,
html-keyboard-response,793,1561944,null,"",null,,,,,,,,
recall-period,794,1564724,16966,"",,,,,,,,,mammal
html-keyboard-response,795,1564826,null,"",null,,,,,,,,
recall-period,796,1566785,9562,"",,,,,,,,,cowboy
html-keyboard-response,797,1566887,null,"",null,,,,,,,,
recall-period,798,1568245,4505,"",,,,,,,,,candy
html-keyboard-response,799,1568346,null,"",null,,,,,,,,
recall-period,800,1569803,7794,"",,,,,,,,,skillet
html-keyboard-response,801,1569905,null,"",null,,,,,,,,
recall-period,802,1572909,6858,"",,,,,,,,,wrench
html-keyboard-response,803,1573010,null,"",null,,,,,,,,
recall-period,804,1574142,3293,"",,,,,,,,,box
html-keyboard-response,805,1574244,null,"",null,,,,,,,,
recall-period,806,1579427,21834,"",,,,,,,,,beach
html-keyboard-response,807,1579528,null,"",null,,,,,,,,
recall-period,808,1581052,6767,"",,,,,,,,,shore
html-keyboard-response,809,1581155,null,"",null,,,,,,,,
recall-period,810,1584465,8961,"",,,,,,,,,village
html-keyboard-response,811,1584567,null,"",null,,,,,,,,
recall-period,812,1589222,30817,"",,,,,,,,,marsh
html-keyboard-response,813,1589324,null,"",null,,,,,,,,
recall-period,814,1633916,264502,"",,,,,,,,,candy
html-keyboard-response,815,1634018,null,"",null,,,,,,,,
recall-period,816,1636843,null,"",,,,,,,,,
html-keyboard-response,817,1637344,null,"Time's Up!",null,,,,,,,,
html-keyboard-response,818,1641382,4035,"<p> Good job! You responded correctly to 80% of the red squares.</p>
                  <p>Be sure to keep your accuracy above 80%</p>
                  <p>Press any key to continue the experiment. Thank you!</p>",32,,,,,,,,
html-keyboard-response,819,1648741,7357,"<div style=""font-size:48px;"">Press any key to begin list 10 of 24 </div>",32,,,,,,,,
html-keyboard-response,820,1651244,null,"<div style=""font-size:60px;"">+</div>",null,,,,,,,,
html-keyboard-response,821,1651746,null,"KNAPSACK<img id = ""stim"" ><div class = red_square id = ""topsquare"" ></div><img id = ""stim"" ><div class = red_square  id = ""bottomsquare"" ></div>",null,word_square,response,1,Space,false,,,
html-keyboard-response,822,1653248,null,"KNAPSACK",null,word,,,,, 'KNAPSACK',,
html-keyboard-response,823,1653750,null,"SEAFOOD<img id = ""stim"" ><div class = green_square id = ""topsquare"" ></div><img id = ""stim"" ><div class = green_square  id = ""bottomsquare"" ></div>",null,word_square,response,0,none,true,,,
html-keyboard-response,824,1655252,null,"SEAFOOD",null,word,,,,, 'SEAFOOD',,
html-keyboard-response,825,1655642,388,"GUARD<img id = ""stim"" ><div class = red_square id = ""topsquare"" ></div><img id = ""stim"" ><div class = red_square  id = ""bottomsquare"" ></div>",32,word_square,response,1,Space,true,,,
html-keyboard-response,826,1657143,null,"GUARD",null,word,,,,, 'GUARD',,
html-keyboard-response,827,1657634,489,"SPACE<img id = ""stim"" ><div class = red_square id = ""topsquare"" ></div><img id = ""stim"" ><div class = red_square  id = ""bottomsquare"" ></div>",32,word_square,response,1,Space,true,,,
html-keyboard-response,828,1659136,null,"SPACE",null,word,,,,, 'SPACE',,
html-keyboard-response,829,1659637,null,"CLOUD<img id = ""stim"" ><div class = green_square id = ""topsquare"" ></div><img id = ""stim"" ><div class = green_square  id = ""bottomsquare"" ></div>",null,word_square,response,0,none,true,,,
html-keyboard-response,830,1661139,null,"CLOUD",null,word,,,,, 'CLOUD',,
html-keyboard-response,831,1661642,null,"POLICE<img id = ""stim"" ><div class = green_square id = ""topsquare"" ></div><img id = ""stim"" ><div class = green_square  id = ""bottomsquare"" ></div>",null,word_square,response,0,none,true,,,
html-keyboard-response,832,1663144,null,"POLICE",null,word,,,,, 'POLICE',,
html-keyboard-response,833,1663551,407,"MONSTER<img id = ""stim"" ><div class = red_square id = ""topsquare"" ></div><img id = ""stim"" ><div class = red_square  id = ""bottomsquare"" ></div>",32,word_square,response,1,Space,true,,,
html-keyboard-response,834,1665054,null,"MONSTER",null,word,,,,, 'MONSTER',,
html-keyboard-response,835,1665556,null,"SALT<img id = ""stim"" ><div class = green_square id = ""topsquare"" ></div><img id = ""stim"" ><div class = green_square  id = ""bottomsquare"" ></div>",null,word_square,response,0,none,true,,,
html-keyboard-response,836,1667058,null,"SALT",null,word,,,,, 'SALT',,
html-keyboard-response,837,1667559,null,"GARLIC<img id = ""stim"" ><div class = red_square id = ""topsquare"" ></div><img id = ""stim"" ><div class = red_square  id = ""bottomsquare"" ></div>",null,word_square,response,1,Space,false,,,
html-keyboard-response,838,1669062,null,"GARLIC",null,word,,,,, 'GARLIC',,
html-keyboard-response,839,1669564,null,"ZEBRA<img id = ""stim"" ><div class = green_square id = ""topsquare"" ></div><img id = ""stim"" ><div class = green_square  id = ""bottomsquare"" ></div>",null,word_square,response,0,none,true,,,
html-keyboard-response,840,1671066,null,"ZEBRA",null,word,,,,, 'ZEBRA',,
html-keyboard-response,841,1671568,null,"LAMP<img id = ""stim"" ><div class = green_square id = ""topsquare"" ></div><img id = ""stim"" ><div class = green_square  id = ""bottomsquare"" ></div>",null,word_square,response,0,none,true,,,
html-keyboard-response,842,1673070,null,"LAMP",null,word,,,,, 'LAMP',,
html-keyboard-response,843,1673572,null,"FLASHLIGHT<img id = ""stim"" ><div class = red_square id = ""topsquare"" ></div><img id = ""stim"" ><div class = red_square  id = ""bottomsquare"" ></div>",null,word_square,response,1,Space,false,,,
html-keyboard-response,844,1675074,null,"FLASHLIGHT",null,word,,,,, 'FLASHLIGHT',,
html-keyboard-response,845,1675577,null,"CAPE<img id = ""stim"" ><div class = red_square id = ""topsquare"" ></div><img id = ""stim"" ><div class = red_square  id = ""bottomsquare"" ></div>",null,word_square,response,1,Space,false,,,
html-keyboard-response,846,1677078,null,"CAPE",null,word,,,,, 'CAPE',,
html-keyboard-response,847,1677580,null,"RAILROAD<img id = ""stim"" ><div class = green_square id = ""topsquare"" ></div><img id = ""stim"" ><div class = green_square  id = ""bottomsquare"" ></div>",null,word_square,response,0,none,true,,,
html-keyboard-response,848,1679083,null,"RAILROAD",null,word,,,,, 'RAILROAD',,
html-keyboard-response,849,1679570,486,"BOXER<img id = ""stim"" ><div class = red_square id = ""topsquare"" ></div><img id = ""stim"" ><div class = red_square  id = ""bottomsquare"" ></div>",32,word_square,response,1,Space,true,,,
html-keyboard-response,850,1681072,null,"BOXER",null,word,,,,, 'BOXER',,
html-keyboard-response,851,1681574,null,"BUTLER<img id = ""stim"" ><div class = green_square id = ""topsquare"" ></div><img id = ""stim"" ><div class = green_square  id = ""bottomsquare"" ></div>",null,word_square,response,0,none,true,,,
html-keyboard-response,852,1683076,null,"BUTLER",null,word,,,,, 'BUTLER',,
html-keyboard-response,853,1683578,null,"HOOK<img id = ""stim"" ><div class = green_square id = ""topsquare"" ></div><img id = ""stim"" ><div class = green_square  id = ""bottomsquare"" ></div>",null,word_square,response,0,none,true,,,
html-keyboard-response,854,1685080,null,"HOOK",null,word,,,,, 'HOOK',,
html-keyboard-response,855,1685452,371,"SNORKEL<img id = ""stim"" ><div class = red_square id = ""topsquare"" ></div><img id = ""stim"" ><div class = red_square  id = ""bottomsquare"" ></div>",32,word_square,response,1,Space,true,,,
html-keyboard-response,856,1686954,null,"SNORKEL",null,word,,,,, 'SNORKEL',,
call-function,857,1686955,,"",,,,,,,,,
html-keyboard-response,858,1687057,null,"",null,,,,,,,,
math-period,859,1689422,4004,"",,,,,,,,,3
html-keyboard-response,860,1689524,null,"",null,,,,,,,,
math-period,861,1691377,3486,"",,,,,,,,,1
html-keyboard-response,862,1691480,null,"",null,,,,,,,,
math-period,863,1694635,5852,"",,,,,,,,,3
html-keyboard-response,864,1694737,null,"",null,,,,,,,,
math-period,865,1697002,4164,"",,,,,,,,,3
html-keyboard-response,866,1697104,null,"",null,,,,,,,,
math-period,867,1700405,19917,"",,,,,,,,,5
html-keyboard-response,868,1700507,null,"",null,,,,,,,,
math-period,869,1702981,8090,"",,,,,,,,,3
html-keyboard-response,870,1703083,null,"",null,,,,,,,,
math-period,871,1707327,14972,"",,,,,,,,,5
html-keyboard-response,872,1707429,null,"",null,,,,,,,,
math-period,873,1710011,4909,"",,,,,,,,,0
html-keyboard-response,874,1710113,null,"",null,,,,,,,,
math-period,875,1710956,null,"",,,,,,,,,
html-keyboard-response,876,1711958,null,"Recall Period!",null,,,,,,,,
call-function,877,1711960,,"",,,,,,,,,
html-keyboard-response,878,1712061,null,"",null,,,,,,,,
recall-period,879,1717429,37550,"",,,,,,,,,policeman
html-keyboard-response,880,1717532,null,"",null,,,,,,,,
recall-period,881,1719813,8404,"",,,,,,,,,space
html-keyboard-response,882,1719915,null,"",null,,,,,,,,
recall-period,883,1721153,5078,"",,,,,,,,,cloud
html-keyboard-response,884,1721255,null,"",null,,,,,,,,
recall-period,885,1722758,7192,"",,,,,,,,,seafood
html-keyboard-response,886,1722859,null,"",null,,,,,,,,
recall-period,887,1723741,2694,"",,,,,,,,,salt
html-keyboard-response,888,1723843,null,"",null,,,,,,,,
recall-period,889,1725677,8624,"",,,,,,,,,snorkel
html-keyboard-response,890,1725779,null,"",null,,,,,,,,
recall-period,891,1732222,39198,"",,,,,,,,,knapsack
html-keyboard-response,892,1732323,null,"",null,,,,,,,,
recall-period,893,1738551,45574,"",,,,,,,,,monster
html-keyboard-response,894,1738653,null,"",null,,,,,,,,
recall-period,895,1782349,258758,"",,,,,,,,,zebra
html-keyboard-response,896,1782451,null,"",null,,,,,,,,
recall-period,897,1786961,null,"",,,,,,,,,
html-keyboard-response,898,1787463,null,"Time's Up!",null,,,,,,,,
html-keyboard-response,899,1801398,13933,"<p> Good job! You responded correctly to 80% of the red squares.</p>
                  <p>Be sure to keep your accuracy above 80%</p>
                  <p>Press any key to continue the experiment. Thank you!</p>",17,,,,,,,,
html-keyboard-response,900,1803854,2455,"<div style=""font-size:48px;"">Press any key to begin list 11 of 24 </div>",17,,,,,,,,
html-keyboard-response,901,1806357,null,"<div style=""font-size:60px;"">+</div>",null,,,,,,,,
html-keyboard-response,902,1806859,null,"EARRING<img id = ""stim"" ><div class = green_square id = ""topsquare"" ></div><img id = ""stim"" ><div class = green_square  id = ""bottomsquare"" ></div>",null,word_square,response,0,none,true,,,
html-keyboard-response,903,1808361,null,"EARRING",null,word,,,,, 'EARRING',,
html-keyboard-response,904,1808806,443,"REINDEER<img id = ""stim"" ><div class = red_square id = ""topsquare"" ></div><img id = ""stim"" ><div class = red_square  id = ""bottomsquare"" ></div>",32,word_square,response,1,Space,true,,,
html-keyboard-response,905,1810309,null,"REINDEER",null,word,,,,, 'REINDEER',,
html-keyboard-response,906,1810811,null,"HAND<img id = ""stim"" ><div class = green_square id = ""topsquare"" ></div><img id = ""stim"" ><div class = green_square  id = ""bottomsquare"" ></div>",null,word_square,response,0,none,true,,,
html-keyboard-response,907,1812313,null,"HAND",null,word,,,,, 'HAND',,
html-keyboard-response,908,1812816,null,"FINGER<img id = ""stim"" ><div class = green_square id = ""topsquare"" ></div><img id = ""stim"" ><div class = green_square  id = ""bottomsquare"" ></div>",null,word_square,response,0,none,true,,,
html-keyboard-response,909,1814317,null,"FINGER",null,word,,,,, 'FINGER',,
html-keyboard-response,910,1814820,null,"POSSUM<img id = ""stim"" ><div class = red_square id = ""topsquare"" ></div><img id = ""stim"" ><div class = red_square  id = ""bottomsquare"" ></div>",null,word_square,response,1,Space,false,,,
html-keyboard-response,911,1816322,null,"POSSUM",null,word,,,,, 'POSSUM',,
html-keyboard-response,912,1816824,null,"JAR<img id = ""stim"" ><div class = red_square id = ""topsquare"" ></div><img id = ""stim"" ><div class = red_square  id = ""bottomsquare"" ></div>",null,word_square,response,1,Space,false,,,
html-keyboard-response,913,1818325,null,"JAR",null,word,,,,, 'JAR',,
html-keyboard-response,914,1818827,null,"CABLE<img id = ""stim"" ><div class = green_square id = ""topsquare"" ></div><img id = ""stim"" ><div class = green_square  id = ""bottomsquare"" ></div>",null,word_square,response,0,none,true,,,
html-keyboard-response,915,1820329,null,"CABLE",null,word,,,,, 'CABLE',,
html-keyboard-response,916,1820801,469,"SAPPHIRE<img id = ""stim"" ><div class = red_square id = ""topsquare"" ></div><img id = ""stim"" ><div class = red_square  id = ""bottomsquare"" ></div>",32,word_square,response,1,Space,true,,,
html-keyboard-response,917,1822302,null,"SAPPHIRE",null,word,,,,, 'SAPPHIRE',,
html-keyboard-response,918,1822805,null,"INFANT<img id = ""stim"" ><div class = green_square id = ""topsquare"" ></div><img id = ""stim"" ><div class = green_square  id = ""bottomsquare"" ></div>",null,word_square,response,0,none,true,,,
html-keyboard-response,919,1824307,null,"INFANT",null,word,,,,, 'INFANT',,
html-keyboard-response,920,1824808,null,"AGENT<img id = ""stim"" ><div class = red_square id = ""topsquare"" ></div><img id = ""stim"" ><div class = red_square  id = ""bottomsquare"" ></div>",null,word_square,response,1,Space,false,,,
html-keyboard-response,921,1826311,null,"AGENT",null,word,,,,, 'AGENT',,
html-keyboard-response,922,1826758,447,"SQUID<img id = ""stim"" ><div class = red_square id = ""topsquare"" ></div><img id = ""stim"" ><div class = red_square  id = ""bottomsquare"" ></div>",32,word_square,response,1,Space,true,,,
html-keyboard-response,923,1828261,null,"SQUID",null,word,,,,, 'SQUID',,
html-keyboard-response,924,1828762,null,"CHIPMUNK<img id = ""stim"" ><div class = green_square id = ""topsquare"" ></div><img id = ""stim"" ><div class = green_square  id = ""bottomsquare"" ></div>",null,word_square,response,0,none,true,,,
html-keyboard-response,925,1830264,null,"CHIPMUNK",null,word,,,,, 'CHIPMUNK',,
html-keyboard-response,926,1830766,null,"GAZELLE<img id = ""stim"" ><div class = green_square id = ""topsquare"" ></div><img id = ""stim"" ><div class = green_square  id = ""bottomsquare"" ></div>",null,word_square,response,0,none,true,,,
