trial_type,trial_index,time_elapsed,rt,stimulus,key_press,test_part,task,targ_cond,correctKeyCode,correct,word,value,response
pavlovia,0,1085,,"",,,,,,,,,
external-html,1,6830,5555.260000000999,"",,,,,,,,,
html-keyboard-response,2,8496,1664.4449999948847,"Welcome to the experiment. Press any key to begin.",71,,,,,,,,
html-keyboard-response,3,21989,13491.235000001325,"<p>You will see a list of words and colored squares in the following task.<p><p>Press the spacebar whenever you see a GREEN square.<p><p>Do not press a key if the square is RED<p><p>Press the spacebar to continue.</p>",32,,,,,,,,
html-keyboard-response,4,36062,13559.554999999818,"<p>Please try to remember as many of the words as you can, and try to think about the meaning of each word as it appears.<p><p>After the detection and encoding task you will be asked to solve some math problems for 24 seconds.<p> Please solve as many problems as you can in the time given. <p>",32,,,,,,,,
html-keyboard-response,5,45698,9127.779999995255,"After solving the math problems, you will be asked to type in as many words <p>from the previous list as you can remember for 75 seconds.<p> If you finish recalling before the 75 seconds are up,<p> just sit tight and try to think of any more words you could have missed. <p><p>We will begin with a brief practice session<p>Press the spacebar to begin the practice.</p>",32,,,,,,,,
html-keyboard-response,6,48204,null,"<div style=""font-size:60px;"">+</div>",null,,,,,,,,
html-keyboard-response,7,48707,null,"HAPPY<img id = ""stim"" ><div class = red_square id = ""topsquare"" ></div><img id = ""stim"" ><div class = red_square  id = ""bottomsquare"" ></div>",null,word_square,prac_response,0,none,true,,,
html-keyboard-response,8,50210,null,"HAPPY",null,word,,,,,HAPPY,,
html-keyboard-response,9,50726,null,"COLD<img id = ""stim"" ><div class = green_square id = ""topsquare"" ></div><img id = ""stim"" ><div class = green_square  id = ""bottomsquare"" ></div>",null,word_square,prac_response,1,Space,false,,,
html-keyboard-response,10,52242,null,"COLD",null,word,,,,,COLD,,
html-keyboard-response,11,52745,397.3499999992782,"HEAVY<img id = ""stim"" ><div class = green_square id = ""topsquare"" ></div><img id = ""stim"" ><div class = green_square  id = ""bottomsquare"" ></div>",32,word_square,prac_response,1,Space,true,,,
html-keyboard-response,12,54252,null,"HEAVY",null,word,,,,,HEAVY,,
html-keyboard-response,13,54754,447.0450000007986,"FUNNY<img id = ""stim"" ><div class = red_square id = ""topsquare"" ></div><img id = ""stim"" ><div class = red_square  id = ""bottomsquare"" ></div>",32,word_square,prac_response,0,none,true,,,
html-keyboard-response,14,56264,null,"FUNNY",null,word,,,,,FUNNY,,
html-keyboard-response,15,56767,468.54999999777647,"SCARY<img id = ""stim"" ><div class = green_square id = ""topsquare"" ></div><img id = ""stim"" ><div class = green_square  id = ""bottomsquare"" ></div>",32,word_square,prac_response,1,Space,true,,,
html-keyboard-response,16,58272,null,"SCARY",null,word,,,,,SCARY,,
html-keyboard-response,17,58774,null,"PEACEFUL<img id = ""stim"" ><div class = green_square id = ""topsquare"" ></div><img id = ""stim"" ><div class = green_square  id = ""bottomsquare"" ></div>",null,word_square,prac_response,1,Space,false,,,
html-keyboard-response,18,60289,null,"PEACEFUL",null,word,,,,,PEACEFUL,,
html-keyboard-response,19,60794,null,"LITTLE<img id = ""stim"" ><div class = red_square id = ""topsquare"" ></div><img id = ""stim"" ><div class = red_square  id = ""bottomsquare"" ></div>",null,word_square,prac_response,0,none,true,,,
html-keyboard-response,20,62305,null,"LITTLE",null,word,,,,,LITTLE,,
html-keyboard-response,21,62811,432.4500000002445,"TIRED<img id = ""stim"" ><div class = red_square id = ""topsquare"" ></div><img id = ""stim"" ><div class = red_square  id = ""bottomsquare"" ></div>",32,word_square,prac_response,0,none,true,,,
html-keyboard-response,22,64325,null,"TIRED",null,word,,,,,TIRED,,
html-keyboard-response,23,64827,null,"ENTERTAINING<img id = ""stim"" ><div class = red_square id = ""topsquare"" ></div><img id = ""stim"" ><div class = red_square  id = ""bottomsquare"" ></div>",null,word_square,prac_response,0,none,true,,,
html-keyboard-response,24,66336,null,"ENTERTAINING",null,word,,,,,ENTERTAINING,,
html-keyboard-response,25,66841,421.22000000381377,"GRATEFUL<img id = ""stim"" ><div class = green_square id = ""topsquare"" ></div><img id = ""stim"" ><div class = green_square  id = ""bottomsquare"" ></div>",32,word_square,prac_response,1,Space,true,,,
html-keyboard-response,26,68358,null,"GRATEFUL",null,word,,,,,GRATEFUL,,
html-keyboard-response,27,68860,null,"LOUD<img id = ""stim"" ><div class = red_square id = ""topsquare"" ></div><img id = ""stim"" ><div class = red_square  id = ""bottomsquare"" ></div>",null,word_square,prac_response,0,none,true,,,
html-keyboard-response,28,70362,null,"LOUD",null,word,,,,,LOUD,,
html-keyboard-response,29,70873,423.8949999999022,"SMART<img id = ""stim"" ><div class = green_square id = ""topsquare"" ></div><img id = ""stim"" ><div class = green_square  id = ""bottomsquare"" ></div>",32,word_square,prac_response,1,Space,true,,,
html-keyboard-response,30,72384,null,"SMART",null,word,,,,,SMART,,
html-keyboard-response,31,72887,403.46999999746913,"SMOOTH<img id = ""stim"" ><div class = green_square id = ""topsquare"" ></div><img id = ""stim"" ><div class = green_square  id = ""bottomsquare"" ></div>",32,word_square,prac_response,1,Space,true,,,
html-keyboard-response,32,74397,null,"SMOOTH",null,word,,,,,SMOOTH,,
html-keyboard-response,33,74900,null,"DISHONEST<img id = ""stim"" ><div class = red_square id = ""topsquare"" ></div><img id = ""stim"" ><div class = red_square  id = ""bottomsquare"" ></div>",null,word_square,prac_response,0,none,true,,,
html-keyboard-response,34,76410,null,"DISHONEST",null,word,,,,,DISHONEST,,
html-keyboard-response,35,76926,353.18499999993946,"WEALTHY<img id = ""stim"" ><div class = green_square id = ""topsquare"" ></div><img id = ""stim"" ><div class = green_square  id = ""bottomsquare"" ></div>",32,word_square,prac_response,1,Space,true,,,
html-keyboard-response,36,78437,null,"WEALTHY",null,word,,,,,WEALTHY,,
html-keyboard-response,37,78939,null,"BEAUTIFUL<img id = ""stim"" ><div class = red_square id = ""topsquare"" ></div><img id = ""stim"" ><div class = red_square  id = ""bottomsquare"" ></div>",null,word_square,prac_response,0,none,true,,,
html-keyboard-response,38,80450,null,"BEAUTIFUL",null,word,,,,,BEAUTIFUL,,
html-keyboard-response,39,80955,null,"DREARY<img id = ""stim"" ><div class = red_square id = ""topsquare"" ></div><img id = ""stim"" ><div class = red_square  id = ""bottomsquare"" ></div>",null,word_square,prac_response,0,none,true,,,
html-keyboard-response,40,82461,null,"DREARY",null,word,,,,,DREARY,,
html-keyboard-response,41,82966,355.649999997695,"PLAYFUL<img id = ""stim"" ><div class = green_square id = ""topsquare"" ></div><img id = ""stim"" ><div class = green_square  id = ""bottomsquare"" ></div>",32,word_square,prac_response,1,Space,true,,,
html-keyboard-response,42,84479,null,"PLAYFUL",null,word,,,,,PLAYFUL,,
html-keyboard-response,43,88203,3722.1649999992223,"<p> Good job! You responded correctly to 89% of the GREEN squares.</p>
                  <p>Be sure to keep your accuracy above 80%</p>
                  <p>We're going to try once more to make sure you understand  the task. press any key to continue. </p>",32,,,,,,,,
html-keyboard-response,44,91687,3482.530000001134,"<p>You will see a list of words and colored squares in the following task.<p><p>Press the spacebar whenever you see a GREEN square.<p><p>Do not press a key if the square is RED<p><p>Press the spacebar to continue.</p>",32,,,,,,,,
html-keyboard-response,45,94201,null,"<div style=""font-size:60px;"">+</div>",null,,,,,,,,
html-keyboard-response,46,94705,null,"HAPPY<img id = ""stim"" ><div class = red_square id = ""topsquare"" ></div><img id = ""stim"" ><div class = red_square  id = ""bottomsquare"" ></div>",null,word_square,response,0,none,true,,,
html-keyboard-response,47,96214,null,"HAPPY",null,word,,,,,HAPPY,,
html-keyboard-response,48,96624,407.9349999956321,"COLD<img id = ""stim"" ><div class = green_square id = ""topsquare"" ></div><img id = ""stim"" ><div class = green_square  id = ""bottomsquare"" ></div>",32,word_square,response,1,Space,true,,,
html-keyboard-response,49,98132,null,"COLD",null,word,,,,,COLD,,
html-keyboard-response,50,98539,405.73500000027707,"HEAVY<img id = ""stim"" ><div class = green_square id = ""topsquare"" ></div><img id = ""stim"" ><div class = green_square  id = ""bottomsquare"" ></div>",32,word_square,response,1,Space,true,,,
html-keyboard-response,51,100053,null,"HEAVY",null,word,,,,,HEAVY,,
html-keyboard-response,52,100562,null,"FUNNY<img id = ""stim"" ><div class = red_square id = ""topsquare"" ></div><img id = ""stim"" ><div class = red_square  id = ""bottomsquare"" ></div>",null,word_square,response,0,none,true,,,
html-keyboard-response,53,102064,null,"FUNNY",null,word,,,,,FUNNY,,
html-keyboard-response,54,102461,395.8700000002864,"SCARY<img id = ""stim"" ><div class = green_square id = ""topsquare"" ></div><img id = ""stim"" ><div class = green_square  id = ""bottomsquare"" ></div>",32,word_square,response,1,Space,true,,,
html-keyboard-response,55,103963,null,"SCARY",null,word,,,,,SCARY,,
html-keyboard-response,56,104395,429.68500000279164,"PEACEFUL<img id = ""stim"" ><div class = green_square id = ""topsquare"" ></div><img id = ""stim"" ><div class = green_square  id = ""bottomsquare"" ></div>",32,word_square,response,1,Space,true,,,
html-keyboard-response,57,105896,null,"PEACEFUL",null,word,,,,,PEACEFUL,,
html-keyboard-response,58,106403,357.29499999433756,"LITTLE<img id = ""stim"" ><div class = red_square id = ""topsquare"" ></div><img id = ""stim"" ><div class = red_square  id = ""bottomsquare"" ></div>",32,word_square,response,0,none,true,,,
html-keyboard-response,59,107910,null,"LITTLE",null,word,,,,,LITTLE,,
html-keyboard-response,60,108416,null,"TIRED<img id = ""stim"" ><div class = red_square id = ""topsquare"" ></div><img id = ""stim"" ><div class = red_square  id = ""bottomsquare"" ></div>",null,word_square,response,0,none,true,,,
html-keyboard-response,61,109932,null,"TIRED",null,word,,,,,TIRED,,
html-keyboard-response,62,110435,null,"ENTERTAINING<img id = ""stim"" ><div class = red_square id = ""topsquare"" ></div><img id = ""stim"" ><div class = red_square  id = ""bottomsquare"" ></div>",null,word_square,response,0,none,true,,,
html-keyboard-response,63,111941,null,"ENTERTAINING",null,word,,,,,ENTERTAINING,,
html-keyboard-response,64,112431,488.1849999947008,"GRATEFUL<img id = ""stim"" ><div class = green_square id = ""topsquare"" ></div><img id = ""stim"" ><div class = green_square  id = ""bottomsquare"" ></div>",32,word_square,response,1,Space,true,,,
html-keyboard-response,65,113936,null,"GRATEFUL",null,word,,,,,GRATEFUL,,
html-keyboard-response,66,114439,null,"LOUD<img id = ""stim"" ><div class = red_square id = ""topsquare"" ></div><img id = ""stim"" ><div class = red_square  id = ""bottomsquare"" ></div>",null,word_square,response,0,none,true,,,
html-keyboard-response,67,115954,null,"LOUD",null,word,,,,,LOUD,,
html-keyboard-response,68,116330,374.2199999978766,"SMART<img id = ""stim"" ><div class = green_square id = ""topsquare"" ></div><img id = ""stim"" ><div class = green_square  id = ""bottomsquare"" ></div>",32,word_square,response,1,Space,true,,,
html-keyboard-response,69,117835,null,"SMART",null,word,,,,,SMART,,
html-keyboard-response,70,118244,408.2849999977043,"SMOOTH<img id = ""stim"" ><div class = green_square id = ""topsquare"" ></div><img id = ""stim"" ><div class = green_square  id = ""bottomsquare"" ></div>",32,word_square,response,1,Space,true,,,
html-keyboard-response,71,119762,null,"SMOOTH",null,word,,,,,SMOOTH,,
html-keyboard-response,72,120278,null,"DISHONEST<img id = ""stim"" ><div class = red_square id = ""topsquare"" ></div><img id = ""stim"" ><div class = red_square  id = ""bottomsquare"" ></div>",null,word_square,response,0,none,true,,,
html-keyboard-response,73,121783,null,"DISHONEST",null,word,,,,,DISHONEST,,
html-keyboard-response,74,122173,388.9449999987846,"WEALTHY<img id = ""stim"" ><div class = green_square id = ""topsquare"" ></div><img id = ""stim"" ><div class = green_square  id = ""bottomsquare"" ></div>",32,word_square,response,1,Space,true,,,
html-keyboard-response,75,123681,null,"WEALTHY",null,word,,,,,WEALTHY,,
html-keyboard-response,76,124184,null,"BEAUTIFUL<img id = ""stim"" ><div class = red_square id = ""topsquare"" ></div><img id = ""stim"" ><div class = red_square  id = ""bottomsquare"" ></div>",null,word_square,response,0,none,true,,,
html-keyboard-response,77,125697,null,"BEAUTIFUL",null,word,,,,,BEAUTIFUL,,
html-keyboard-response,78,126200,null,"DREARY<img id = ""stim"" ><div class = red_square id = ""topsquare"" ></div><img id = ""stim"" ><div class = red_square  id = ""bottomsquare"" ></div>",null,word_square,response,0,none,true,,,
html-keyboard-response,79,127711,null,"DREARY",null,word,,,,,DREARY,,
html-keyboard-response,80,128066,352.5000000008731,"PLAYFUL<img id = ""stim"" ><div class = green_square id = ""topsquare"" ></div><img id = ""stim"" ><div class = green_square  id = ""bottomsquare"" ></div>",32,word_square,response,1,Space,true,,,
html-keyboard-response,81,129570,null,"PLAYFUL",null,word,,,,,PLAYFUL,,
html-keyboard-response,82,134650,5079.01000000129,"<p> Good job! You responded correctly to 100% of the GREEN squares.</p>
                  <p>Be sure to keep your accuracy above 80%</p>
                  <p>Press any key to begin the math and recall sections. Thank you!</p>",32,,,,,,,,
call-function,83,134651,,"",,,,,,,,,
html-keyboard-response,84,134753,null,"",null,,,,,,,,
math-period,85,140385,10881.069999995816,"",,,,,,,,,5
html-keyboard-response,86,140503,null,"",null,,,,,,,,
math-period,87,141877,2544.0050000033807,"",,,,,,,,,4
html-keyboard-response,88,141989,null,"",null,,,,,,,,
math-period,89,143292,2260.0799999927403,"",,,,,,,,,5
html-keyboard-response,90,143394,null,"",null,,,,,,,,
math-period,91,144885,2756.040000007488,"",,,,,,,,,4
html-keyboard-response,92,144997,null,"",null,,,,,,,,
math-period,93,147285,4225.890000001527,"",,,,,,,,,1
html-keyboard-response,94,147403,null,"",null,,,,,,,,
math-period,95,149623,4212.879999991856,"",,,,,,,,,1
html-keyboard-response,96,149732,null,"",null,,,,,,,,
math-period,97,151230,2876.319999995758,"",,,,,,,,,5
html-keyboard-response,98,151333,null,"",null,,,,,,,,
math-period,99,152448,2064.959999996063,"",,,,,,,,,3
html-keyboard-response,100,152550,null,"",null,,,,,,,,
math-period,101,153969,2420.17499999929,"",,,,,,,,,5
html-keyboard-response,102,154076,null,"",null,,,,,,,,
math-period,103,154762,1235.9850000066217,"",,,,,,,,,5
html-keyboard-response,104,154873,null,"",null,,,,,,,,
math-period,105,158667,7278.580000005604,"",,,,,,,,,3
html-keyboard-response,106,159684,null,"Recall Period!",null,,,,,,,,
call-function,107,159684,,"",,,,,,,,,
html-keyboard-response,108,159798,null,"",null,,,,,,,,
recall-period,109,160926,1126.1200000008103,"",,,,,,,,,
html-keyboard-response,110,161031,null,"",null,,,,,,,,
recall-period,111,167759,45744.235000005574,"",,,,,,,,,happy
html-keyboard-response,112,167866,null,"",null,,,,,,,,
recall-period,113,168924,3404.015000000072,"",,,,,,,,,cold
html-keyboard-response,114,169034,null,"",null,,,,,,,,
recall-period,115,170902,4116.90999998973,"",,,,,,,,,funny
html-keyboard-response,116,171004,null,"",null,,,,,,,,
recall-period,117,174276,25168.215000026976,"",,,,,,,,,dishonest
html-keyboard-response,118,174383,null,"",null,,,,,,,,
recall-period,119,175807,5237.320000007458,"",,,,,,,,,wealthy
html-keyboard-response,120,175918,null,"",null,,,,,,,,
recall-period,121,177593,4785.43000001082,"",,,,,,,,,dreary
html-keyboard-response,122,177695,null,"",null,,,,,,,,
recall-period,123,234686,null,"",,,,,,,,,
html-keyboard-response,124,235198,null,"Time's Up!",null,,,,,,,,
html-keyboard-response,125,239188,3987.84500000329,"<p>We will now begin the experiment!<p><p>Please try to remember all words from each list.<p><p>Press the spacebar whenever you see a GREEN square.<p><p><p><p>Press the spacebar to begin.</p>",32,,,,,,,,
html-keyboard-response,126,244230,4537.159999999858,"<div style=""font-size:48px;"">Press any key to begin list 1 of 24 </div>",32,,,,,,,,
html-keyboard-response,127,246741,null,"<div style=""font-size:60px;"">+</div>",null,,,,,,,,
html-keyboard-response,128,247246,null,"CONCRETE<img id = ""stim"" ><div class = red_square id = ""topsquare"" ></div><img id = ""stim"" ><div class = red_square  id = ""bottomsquare"" ></div>",null,word_square,response,0,none,true,,,
html-keyboard-response,129,248762,null,"CONCRETE",null,word,,,,, 'CONCRETE',,
html-keyboard-response,130,249264,null,"TOOTHBRUSH<img id = ""stim"" ><div class = red_square id = ""topsquare"" ></div><img id = ""stim"" ><div class = red_square  id = ""bottomsquare"" ></div>",null,word_square,response,0,none,true,,,
html-keyboard-response,131,250779,null,"TOOTHBRUSH",null,word,,,,, 'TOOTHBRUSH',,
html-keyboard-response,132,251217,435.90499999845633,"ANGEL<img id = ""stim"" ><div class = green_square id = ""topsquare"" ></div><img id = ""stim"" ><div class = green_square  id = ""bottomsquare"" ></div>",32,word_square,response,1,Space,true,,,
html-keyboard-response,133,252720,null,"ANGEL",null,word,,,,, 'ANGEL',,
html-keyboard-response,134,253148,426.1849999966216,"TEMPLE<img id = ""stim"" ><div class = green_square id = ""topsquare"" ></div><img id = ""stim"" ><div class = green_square  id = ""bottomsquare"" ></div>",32,word_square,response,1,Space,true,,,
html-keyboard-response,135,254650,null,"TEMPLE",null,word,,,,, 'TEMPLE',,
html-keyboard-response,136,255166,null,"LUNCH<img id = ""stim"" ><div class = red_square id = ""topsquare"" ></div><img id = ""stim"" ><div class = red_square  id = ""bottomsquare"" ></div>",null,word_square,response,0,none,true,,,
html-keyboard-response,137,256667,null,"LUNCH",null,word,,,,, 'LUNCH',,
html-keyboard-response,138,257055,386.47499999933643,"SWEATER<img id = ""stim"" ><div class = green_square id = ""topsquare"" ></div><img id = ""stim"" ><div class = green_square  id = ""bottomsquare"" ></div>",32,word_square,response,1,Space,true,,,
html-keyboard-response,139,258566,null,"SWEATER",null,word,,,,, 'SWEATER',,
html-keyboard-response,140,259082,null,"PERCH<img id = ""stim"" ><div class = red_square id = ""topsquare"" ></div><img id = ""stim"" ><div class = red_square  id = ""bottomsquare"" ></div>",null,word_square,response,0,none,true,,,
html-keyboard-response,141,260588,null,"PERCH",null,word,,,,, 'PERCH',,
html-keyboard-response,142,260961,371.33499999617925,"PARROT<img id = ""stim"" ><div class = green_square id = ""topsquare"" ></div><img id = ""stim"" ><div class = green_square  id = ""bottomsquare"" ></div>",32,word_square,response,1,Space,true,,,
html-keyboard-response,143,262475,null,"PARROT",null,word,,,,, 'PARROT',,
html-keyboard-response,144,262987,null,"SAND<img id = ""stim"" ><div class = red_square id = ""topsquare"" ></div><img id = ""stim"" ><div class = red_square  id = ""bottomsquare"" ></div>",null,word_square,response,0,none,true,,,
html-keyboard-response,145,264503,null,"SAND",null,word,,,,, 'SAND',,
html-keyboard-response,146,264814,309.57000000489643,"WASHER<img id = ""stim"" ><div class = green_square id = ""topsquare"" ></div><img id = ""stim"" ><div class = green_square  id = ""bottomsquare"" ></div>",32,word_square,response,1,Space,true,,,
html-keyboard-response,147,266327,null,"WASHER",null,word,,,,, 'WASHER',,
html-keyboard-response,148,266834,null,"CLOTHES<img id = ""stim"" ><div class = red_square id = ""topsquare"" ></div><img id = ""stim"" ><div class = red_square  id = ""bottomsquare"" ></div>",null,word_square,response,0,none,true,,,
html-keyboard-response,149,268342,null,"CLOTHES",null,word,,,,, 'CLOTHES',,
html-keyboard-response,150,268850,null,"CRITIC<img id = ""stim"" ><div class = red_square id = ""topsquare"" ></div><img id = ""stim"" ><div class = red_square  id = ""bottomsquare"" ></div>",null,word_square,response,0,none,true,,,
html-keyboard-response,151,270361,null,"CRITIC",null,word,,,,, 'CRITIC',,
html-keyboard-response,152,270751,388.4299999990617,"GERM<img id = ""stim"" ><div class = green_square id = ""topsquare"" ></div><img id = ""stim"" ><div class = green_square  id = ""bottomsquare"" ></div>",32,word_square,response,1,Space,true,,,
html-keyboard-response,153,272255,null,"GERM",null,word,,,,, 'GERM',,
html-keyboard-response,154,272758,null,"RADISH<img id = ""stim"" ><div class = red_square id = ""topsquare"" ></div><img id = ""stim"" ><div class = red_square  id = ""bottomsquare"" ></div>",null,word_square,response,0,none,true,,,
html-keyboard-response,155,274268,null,"RADISH",null,word,,,,, 'RADISH',,
html-keyboard-response,156,274637,367.49499999859836,"EAGLE<img id = ""stim"" ><div class = red_square id = ""topsquare"" ></div><img id = ""stim"" ><div class = red_square  id = ""bottomsquare"" ></div>",32,word_square,response,0,none,false,,,
html-keyboard-response,157,276150,null,"EAGLE",null,word,,,,, 'EAGLE',,
html-keyboard-response,158,276509,357.7399999994668,"BOXER<img id = ""stim"" ><div class = green_square id = ""topsquare"" ></div><img id = ""stim"" ><div class = green_square  id = ""bottomsquare"" ></div>",32,word_square,response,1,Space,true,,,
html-keyboard-response,159,278016,null,"BOXER",null,word,,,,, 'BOXER',,
html-keyboard-response,160,278475,458.215000006021,"CREATURE<img id = ""stim"" ><div class = green_square id = ""topsquare"" ></div><img id = ""stim"" ><div class = green_square  id = ""bottomsquare"" ></div>",32,word_square,response,1,Space,true,,,
html-keyboard-response,161,279980,null,"CREATURE",null,word,,,,, 'CREATURE',,
html-keyboard-response,162,280371,389.8249999983818,"FUNGUS<img id = ""stim"" ><div class = green_square id = ""topsquare"" ></div><img id = ""stim"" ><div class = green_square  id = ""bottomsquare"" ></div>",32,word_square,response,1,Space,true,,,
html-keyboard-response,163,281876,null,"FUNGUS",null,word,,,,, 'FUNGUS',,
call-function,164,281877,,"",,,,,,,,,
html-keyboard-response,165,281987,null,"",null,,,,,,,,
math-period,166,284262,4101.044999995793,"",,,,,,,,,3
html-keyboard-response,167,284377,null,"",null,,,,,,,,
math-period,168,286620,4236.360000002605,"",,,,,,,,,4
html-keyboard-response,169,286731,null,"",null,,,,,,,,
math-period,170,288368,2798.3649999951012,"",,,,,,,,,6
html-keyboard-response,171,288483,null,"",null,,,,,,,,
math-period,172,291504,5313.000000001921,"",,,,,,,,,2
html-keyboard-response,173,291621,null,"",null,,,,,,,,
math-period,174,294033,4405.540000007022,"",,,,,,,,,3
html-keyboard-response,175,294137,null,"",null,,,,,,,,
math-period,176,295291,2110.979999990377,"",,,,,,,,,3
html-keyboard-response,177,295398,null,"",null,,,,,,,,
math-period,178,296344,1686.4699999932782,"",,,,,,,,,2
html-keyboard-response,179,296450,null,"",null,,,,,,,,
math-period,180,298068,2944.579999995767,"",,,,,,,,,6
html-keyboard-response,181,298185,null,"",null,,,,,,,,
math-period,182,299246,1881.8299999984447,"",,,,,,,,,2
html-keyboard-response,183,299359,null,"",null,,,,,,,,
math-period,184,299485,124.68000000080792,"",,,,,,,,,
html-keyboard-response,185,299602,null,"",null,,,,,,,,
math-period,186,301377,3350.845000000845,"",,,,,,,,,3
html-keyboard-response,187,301482,null,"",null,,,,,,,,
math-period,188,305878,3501.445000001695,"",,,,,,,,,1
html-keyboard-response,189,306894,null,"Recall Period!",null,,,,,,,,
call-function,190,306894,,"",,,,,,,,,
html-keyboard-response,191,307009,null,"",null,,,,,,,,
recall-period,192,309565,11889.485000021523,"",,,,,,,,,perch
html-keyboard-response,193,309674,null,"",null,,,,,,,,
recall-period,194,310995,5540.194999994128,"",,,,,,,,,parrot
html-keyboard-response,195,311108,null,"",null,,,,,,,,
recall-period,196,314422,24531.530000029306,"",,,,,,,,,concrete
html-keyboard-response,197,314535,null,"",null,,,,,,,,
recall-period,198,315585,3419.560000009369,"",,,,,,,,,angel
html-keyboard-response,199,315696,null,"",null,,,,,,,,
recall-period,200,316977,5351.714999997057,"",,,,,,,,,temple
html-keyboard-response,201,317080,null,"",null,,,,,,,,
recall-period,202,321210,21077.754999991157,"",,,,,,,,,lunch
html-keyboard-response,203,321315,null,"",null,,,,,,,,
recall-period,204,326557,37143.71500000561,"",,,,,,,,,sweater
html-keyboard-response,205,326664,null,"",null,,,,,,,,
recall-period,206,342145,118158.84500002721,"",,,,,,,,,clothes
html-keyboard-response,207,342261,null,"",null,,,,,,,,
recall-period,208,343371,4167.514999986452,"",,,,,,,,,washer
html-keyboard-response,209,343480,null,"",null,,,,,,,,
recall-period,210,346152,11693.989999999758,"",,,,,,,,,germ
html-keyboard-response,211,346262,null,"",null,,,,,,,,
recall-period,212,381897,null,"",,,,,,,,,
html-keyboard-response,213,382400,null,"Time's Up!",null,,,,,,,,
html-keyboard-response,214,384842,2440.3050000037183,"<p> Good job! You responded correctly to 97% of the GREEN squares.</p>
                  <p>Be sure to keep your accuracy above 80%</p>
                  <p>Press any key to continue the experiment. Thank you!</p>",32,,,,,,,,
html-keyboard-response,215,385945,1102.5000000008731,"<div style=""font-size:48px;"">Press any key to begin list 2 of 24 </div>",32,,,,,,,,
html-keyboard-response,216,388472,null,"<div style=""font-size:60px;"">+</div>",null,,,,,,,,
html-keyboard-response,217,388974,null,"KITCHEN<img id = ""stim"" ><div class = red_square id = ""topsquare"" ></div><img id = ""stim"" ><div class = red_square  id = ""bottomsquare"" ></div>",null,word_square,response,0,none,true,,,
html-keyboard-response,218,390478,null,"KITCHEN",null,word,,,,, 'KITCHEN',,
html-keyboard-response,219,390985,null,"STOVE<img id = ""stim"" ><div class = red_square id = ""topsquare"" ></div><img id = ""stim"" ><div class = red_square  id = ""bottomsquare"" ></div>",null,word_square,response,0,none,true,,,
html-keyboard-response,220,392487,null,"STOVE",null,word,,,,, 'STOVE',,
html-keyboard-response,221,392873,384.3150000029709,"SPIDER<img id = ""stim"" ><div class = green_square id = ""topsquare"" ></div><img id = ""stim"" ><div class = green_square  id = ""bottomsquare"" ></div>",32,word_square,response,1,Space,true,,,
html-keyboard-response,222,394388,null,"SPIDER",null,word,,,,, 'SPIDER',,
html-keyboard-response,223,394799,410.3350000004866,"CUSTARD<img id = ""stim"" ><div class = green_square id = ""topsquare"" ></div><img id = ""stim"" ><div class = green_square  id = ""bottomsquare"" ></div>",32,word_square,response,1,Space,true,,,
html-keyboard-response,224,396312,null,"CUSTARD",null,word,,,,, 'CUSTARD',,
html-keyboard-response,225,396820,null,"BEETLE<img id = ""stim"" ><div class = red_square id = ""topsquare"" ></div><img id = ""stim"" ><div class = red_square  id = ""bottomsquare"" ></div>",null,word_square,response,0,none,true,,,
html-keyboard-response,226,398323,null,"BEETLE",null,word,,,,, 'BEETLE',,
html-keyboard-response,227,398735,410.345000003872,"GUITAR<img id = ""stim"" ><div class = green_square id = ""topsquare"" ></div><img id = ""stim"" ><div class = green_square  id = ""bottomsquare"" ></div>",32,word_square,response,1,Space,true,,,
html-keyboard-response,228,400246,null,"GUITAR",null,word,,,,, 'GUITAR',,
html-keyboard-response,229,400748,null,"COUGAR<img id = ""stim"" ><div class = red_square id = ""topsquare"" ></div><img id = ""stim"" ><div class = red_square  id = ""bottomsquare"" ></div>",null,word_square,response,0,none,true,,,
html-keyboard-response,230,402251,null,"COUGAR",null,word,,,,, 'COUGAR',,
html-keyboard-response,231,402621,368.9749999975902,"FIGHTER<img id = ""stim"" ><div class = green_square id = ""topsquare"" ></div><img id = ""stim"" ><div class = green_square  id = ""bottomsquare"" ></div>",32,word_square,response,1,Space,true,,,
html-keyboard-response,232,404123,null,"FIGHTER",null,word,,,,, 'FIGHTER',,
html-keyboard-response,233,404635,null,"KIDNEY<img id = ""stim"" ><div class = red_square id = ""topsquare"" ></div><img id = ""stim"" ><div class = red_square  id = ""bottomsquare"" ></div>",null,word_square,response,0,none,true,,,
html-keyboard-response,234,406140,null,"KIDNEY",null,word,,,,, 'KIDNEY',,
html-keyboard-response,235,406476,335.32500000001164,"BUTCHER<img id = ""stim"" ><div class = green_square id = ""topsquare"" ></div><img id = ""stim"" ><div class = green_square  id = ""bottomsquare"" ></div>",32,word_square,response,1,Space,true,,,
html-keyboard-response,236,407986,null,"BUTCHER",null,word,,,,, 'BUTCHER',,
html-keyboard-response,237,408489,null,"SHOULDER<img id = ""stim"" ><div class = red_square id = ""topsquare"" ></div><img id = ""stim"" ><div class = red_square  id = ""bottomsquare"" ></div>",null,word_square,response,0,none,true,,,
html-keyboard-response,238,409994,null,"SHOULDER",null,word,,,,, 'SHOULDER',,
html-keyboard-response,239,410505,null,"SLUG<img id = ""stim"" ><div class = red_square id = ""topsquare"" ></div><img id = ""stim"" ><div class = red_square  id = ""bottomsquare"" ></div>",null,word_square,response,0,none,true,,,
html-keyboard-response,240,412021,null,"SLUG",null,word,,,,, 'SLUG',,
html-keyboard-response,241,412344,321.55999999667984,"PUDDING<img id = ""stim"" ><div class = green_square id = ""topsquare"" ></div><img id = ""stim"" ><div class = green_square  id = ""bottomsquare"" ></div>",32,word_square,response,1,Space,true,,,
html-keyboard-response,242,413849,null,"PUDDING",null,word,,,,, 'PUDDING',,
html-keyboard-response,243,414352,null,"SHAMPOO<img id = ""stim"" ><div class = red_square id = ""topsquare"" ></div><img id = ""stim"" ><div class = red_square  id = ""bottomsquare"" ></div>",null,word_square,response,0,none,true,,,
html-keyboard-response,244,415859,null,"SHAMPOO",null,word,,,,, 'SHAMPOO',,
html-keyboard-response,245,416369,null,"STRANGER<img id = ""stim"" ><div class = red_square id = ""topsquare"" ></div><img id = ""stim"" ><div class = red_square  id = ""bottomsquare"" ></div>",null,word_square,response,0,none,true,,,
html-keyboard-response,246,417876,null,"STRANGER",null,word,,,,, 'STRANGER',,
html-keyboard-response,247,418248,370.47500000335276,"PLAQUE<img id = ""stim"" ><div class = green_square id = ""topsquare"" ></div><img id = ""stim"" ><div class = green_square  id = ""bottomsquare"" ></div>",32,word_square,response,1,Space,true,,,
html-keyboard-response,248,419752,null,"PLAQUE",null,word,,,,, 'PLAQUE',,
html-keyboard-response,249,420115,361.10999999800697,"WAITRESS<img id = ""stim"" ><div class = green_square id = ""topsquare"" ></div><img id = ""stim"" ><div class = green_square  id = ""bottomsquare"" ></div>",32,word_square,response,1,Space,true,,,
html-keyboard-response,250,421618,null,"WAITRESS",null,word,,,,, 'WAITRESS',,
html-keyboard-response,251,422014,395.4700000031153,"CATCHER<img id = ""stim"" ><div class = green_square id = ""topsquare"" ></div><img id = ""stim"" ><div class = green_square  id = ""bottomsquare"" ></div>",32,word_square,response,1,Space,true,,,
html-keyboard-response,252,423517,null,"CATCHER",null,word,,,,, 'CATCHER',,
call-function,253,423517,,"",,,,,,,,,
html-keyboard-response,254,423619,null,"",null,,,,,,,,
math-period,255,425979,4362.764999998035,"",,,,,,,,,1
html-keyboard-response,256,426087,null,"",null,,,,,,,,
math-period,257,427652,2866.939999999886,"",,,,,,,,,6
html-keyboard-response,258,427754,null,"",null,,,,,,,,
math-period,259,429358,3044.0549999984796,"",,,,,,,,,5
html-keyboard-response,260,429460,null,"",null,,,,,,,,
math-period,261,432063,5050.1100000037695,"",,,,,,,,,0
html-keyboard-response,262,432166,null,"",null,,,,,,,,
math-period,263,433582,2688.515000001644,"",,,,,,,,,1
html-keyboard-response,264,433687,null,"",null,,,,,,,,
math-period,265,435081,2637.6500000042142,"",,,,,,,,,1
html-keyboard-response,266,435183,null,"",null,,,,,,,,
math-period,267,438180,9919.495000009192,"",,,,,,,,,4
html-keyboard-response,268,438288,null,"",null,,,,,,,,
math-period,269,439730,2710.675000002084,"",,,,,,,,,2
html-keyboard-response,270,439832,null,"",null,,,,,,,,
math-period,271,441072,2355.7500000024447,"",,,,,,,,,1
html-keyboard-response,272,441182,null,"",null,,,,,,,,
math-period,273,442868,2907.5599999996484,"",,,,,,,,,5
html-keyboard-response,274,442971,null,"",null,,,,,,,,
math-period,275,445785,8307.7099999864,"",,,,,,,,,0
html-keyboard-response,276,445899,null,"",null,,,,,,,,
math-period,277,447073,2230.8650000049965,"",,,,,,,,,6
html-keyboard-response,278,447177,null,"",null,,,,,,,,
math-period,279,447529,null,"",,,,,,,,,
html-keyboard-response,280,448532,null,"Recall Period!",null,,,,,,,,
call-function,281,448533,,"",,,,,,,,,
html-keyboard-response,282,448642,null,"",null,,,,,,,,
recall-period,283,450779,11590.804999970715,"",,,,,,,,,kitchen
html-keyboard-response,284,450895,null,"",null,,,,,,,,
recall-period,285,452157,3447.089999994205,"",,,,,,,,,stove
html-keyboard-response,286,452261,null,"",null,,,,,,,,
recall-period,287,454162,11931.955000000016,"",,,,,,,,,stranger
html-keyboard-response,288,454270,null,"",null,,,,,,,,
recall-period,289,455701,6266.09999997163,"",,,,,,,,,waitress
html-keyboard-response,290,455808,null,"",null,,,,,,,,
recall-period,291,457965,10462.81500000623,"",,,,,,,,,catcher
html-keyboard-response,292,458069,null,"",null,,,,,,,,
recall-period,293,459915,10057.425000013609,"",,,,,,,,,spider
html-keyboard-response,294,460033,null,"",null,,,,,,,,
recall-period,295,461884,10058.760000014445,"",,,,,,,,,beetle
html-keyboard-response,296,461987,null,"",null,,,,,,,,
recall-period,297,463677,7540.7499999928405,"",,,,,,,,,guitar
html-keyboard-response,298,463781,null,"",null,,,,,,,,
recall-period,299,478401,67033.80999999354,"",,,,,,,,,slug
html-keyboard-response,300,478517,null,"",null,,,,,,,,
recall-period,301,523535,null,"",,,,,,,,,
html-keyboard-response,302,524037,null,"Time's Up!",null,,,,,,,,
html-keyboard-response,303,526244,2205.934999998077,"<p> Good job! You responded correctly to 98% of the GREEN squares.</p>
                  <p>Be sure to keep your accuracy above 80%</p>
                  <p>Press any key to continue the experiment. Thank you!</p>",32,,,,,,,,
html-keyboard-response,304,527483,1237.7199999972945,"<div style=""font-size:48px;"">Press any key to begin list 3 of 24 </div>",32,,,,,,,,
html-keyboard-response,305,529988,null,"<div style=""font-size:60px;"">+</div>",null,,,,,,,,
html-keyboard-response,306,530378,388.2850000009639,"CLOSET<img id = ""stim"" ><div class = green_square id = ""topsquare"" ></div><img id = ""stim"" ><div class = green_square  id = ""bottomsquare"" ></div>",32,word_square,response,1,Space,true,,,
html-keyboard-response,307,531885,null,"CLOSET",null,word,,,,, 'CLOSET',,
html-keyboard-response,308,532247,360.44500000576954,"MARSH<img id = ""stim"" ><div class = green_square id = ""topsquare"" ></div><img id = ""stim"" ><div class = green_square  id = ""bottomsquare"" ></div>",32,word_square,response,1,Space,true,,,
html-keyboard-response,309,533761,null,"MARSH",null,word,,,,, 'MARSH',,
html-keyboard-response,310,534270,null,"EGYPT<img id = ""stim"" ><div class = red_square id = ""topsquare"" ></div><img id = ""stim"" ><div class = red_square  id = ""bottomsquare"" ></div>",null,word_square,response,0,none,true,,,
html-keyboard-response,311,535781,null,"EGYPT",null,word,,,,, 'EGYPT',,
html-keyboard-response,312,536161,377.95500000356697,"MUMMY<img id = ""stim"" ><div class = red_square id = ""topsquare"" ></div><img id = ""stim"" ><div class = red_square  id = ""bottomsquare"" ></div>",32,word_square,response,0,none,false,,,
html-keyboard-response,313,537674,null,"MUMMY",null,word,,,,, 'MUMMY',,
html-keyboard-response,314,538053,376.93999999470543,"FLASHLIGHT<img id = ""stim"" ><div class = green_square id = ""topsquare"" ></div><img id = ""stim"" ><div class = green_square  id = ""bottomsquare"" ></div>",32,word_square,response,1,Space,true,,,
html-keyboard-response,315,539565,null,"FLASHLIGHT",null,word,,,,, 'FLASHLIGHT',,
html-keyboard-response,316,540096,null,"CARROT<img id = ""stim"" ><div class = red_square id = ""topsquare"" ></div><img id = ""stim"" ><div class = red_square  id = ""bottomsquare"" ></div>",null,word_square,response,0,none,true,,,
html-keyboard-response,317,541611,null,"CARROT",null,word,,,,, 'CARROT',,
html-keyboard-response,318,541926,313.71499999659136,"TURTLE<img id = ""stim"" ><div class = green_square id = ""topsquare"" ></div><img id = ""stim"" ><div class = green_square  id = ""bottomsquare"" ></div>",32,word_square,response,1,Space,true,,,
html-keyboard-response,319,543435,null,"TURTLE",null,word,,,,, 'TURTLE',,
html-keyboard-response,320,543952,null,"GLACIER<img id = ""stim"" ><div class = red_square id = ""topsquare"" ></div><img id = ""stim"" ><div class = red_square  id = ""bottomsquare"" ></div>",null,word_square,response,0,none,true,,,
html-keyboard-response,321,545464,null,"GLACIER",null,word,,,,, 'GLACIER',,
html-keyboard-response,322,545786,321.0899999975227,"MATCH<img id = ""stim"" ><div class = green_square id = ""topsquare"" ></div><img id = ""stim"" ><div class = green_square  id = ""bottomsquare"" ></div>",32,word_square,response,1,Space,true,,,
html-keyboard-response,323,547290,null,"MATCH",null,word,,,,, 'MATCH',,
html-keyboard-response,324,547802,null,"LAVA<img id = ""stim"" ><div class = red_square id = ""topsquare"" ></div><img id = ""stim"" ><div class = red_square  id = ""bottomsquare"" ></div>",null,word_square,response,0,none,true,,,
html-keyboard-response,325,549306,null,"LAVA",null,word,,,,, 'LAVA',,
html-keyboard-response,326,549650,342.8750000020955,"STREET<img id = ""stim"" ><div class = green_square id = ""topsquare"" ></div><img id = ""stim"" ><div class = green_square  id = ""bottomsquare"" ></div>",32,word_square,response,1,Space,true,,,
html-keyboard-response,327,551155,null,"STREET",null,word,,,,, 'STREET',,
html-keyboard-response,328,551497,340.7050000022864,"JOKER<img id = ""stim"" ><div class = green_square id = ""topsquare"" ></div><img id = ""stim"" ><div class = green_square  id = ""bottomsquare"" ></div>",32,word_square,response,1,Space,true,,,
html-keyboard-response,329,553001,null,"JOKER",null,word,,,,, 'JOKER',,
html-keyboard-response,330,553503,null,"TABLE<img id = ""stim"" ><div class = red_square id = ""topsquare"" ></div><img id = ""stim"" ><div class = red_square  id = ""bottomsquare"" ></div>",null,word_square,response,0,none,true,,,
html-keyboard-response,331,555018,null,"TABLE",null,word,,,,, 'TABLE',,
html-keyboard-response,332,555360,340.4450000015786,"MOUNTAIN<img id = ""stim"" ><div class = green_square id = ""topsquare"" ></div><img id = ""stim"" ><div class = green_square  id = ""bottomsquare"" ></div>",32,word_square,response,1,Space,true,,,
html-keyboard-response,333,556865,null,"MOUNTAIN",null,word,,,,, 'MOUNTAIN',,
html-keyboard-response,334,557237,371.10999999998603,"PLAID<img id = ""stim"" ><div class = green_square id = ""topsquare"" ></div><img id = ""stim"" ><div class = green_square  id = ""bottomsquare"" ></div>",32,word_square,response,1,Space,true,,,
html-keyboard-response,335,558747,null,"PLAID",null,word,,,,, 'PLAID',,
html-keyboard-response,336,559260,null,"STAMP<img id = ""stim"" ><div class = red_square id = ""topsquare"" ></div><img id = ""stim"" ><div class = red_square  id = ""bottomsquare"" ></div>",null,word_square,response,0,none,true,,,
html-keyboard-response,337,560780,null,"STAMP",null,word,,,,, 'STAMP',,
html-keyboard-response,338,561293,null,"PACKAGE<img id = ""stim"" ><div class = red_square id = ""topsquare"" ></div><img id = ""stim"" ><div class = red_square  id = ""bottomsquare"" ></div>",null,word_square,response,0,none,true,,,
html-keyboard-response,339,562800,null,"PACKAGE",null,word,,,,, 'PACKAGE',,
html-keyboard-response,340,563309,null,"QUILT<img id = ""stim"" ><div class = red_square id = ""topsquare"" ></div><img id = ""stim"" ><div class = red_square  id = ""bottomsquare"" ></div>",null,word_square,response,0,none,true,,,
html-keyboard-response,341,564819,null,"QUILT",null,word,,,,, 'QUILT',,
call-function,342,564819,,"",,,,,,,,,
html-keyboard-response,343,564926,null,"",null,,,,,,,,
math-period,344,567317,4344.755000005476,"",,,,,,,,,0
html-keyboard-response,345,567431,null,"",null,,,,,,,,
math-period,346,568773,2475.5699999878416,"",,,,,,,,,4
html-keyboard-response,347,568884,null,"",null,,,,,,,,
math-period,348,569744,1573.9899999898626,"",,,,,,,,,4
html-keyboard-response,349,569846,null,"",null,,,,,,,,
math-period,350,571144,2447.575000005425,"",,,,,,,,,4
html-keyboard-response,351,571247,null,"",null,,,,,,,,
math-period,352,572176,1708.8550000044052,"",,,,,,,,,4
html-keyboard-response,353,572281,null,"",null,,,,,,,,
math-period,354,573437,2128.3700000056997,"",,,,,,,,,5
html-keyboard-response,355,573540,null,"",null,,,,,,,,
math-period,356,574797,2384.8249999937834,"",,,,,,,,,4
html-keyboard-response,357,574898,null,"",null,,,,,,,,
math-period,358,576173,2410.6150000080233,"",,,,,,,,,2
html-keyboard-response,359,576276,null,"",null,,,,,,,,
math-period,360,578686,4333.484999995446,"",,,,,,,,,0
html-keyboard-response,361,578790,null,"",null,,,,,,,,
math-period,362,580466,3132.7500000043074,"",,,,,,,,,4
html-keyboard-response,363,580583,null,"",null,,,,,,,,
math-period,364,581489,1622.9999999996508,"",,,,,,,,,3
html-keyboard-response,365,581606,null,"",null,,,,,,,,
math-period,366,582723,2070.554999998305,"",,,,,,,,,5
html-keyboard-response,367,582825,null,"",null,,,,,,,,
math-period,368,584374,2957.0499999972526,"",,,,,,,,,2
html-keyboard-response,369,584492,null,"",null,,,,,,,,
math-period,370,586469,3374.250000000582,"",,,,,,,,,5
html-keyboard-response,371,586576,null,"",null,,,,,,,,
math-period,372,587722,1945.4050000058487,"",,,,,,,,,5
html-keyboard-response,373,587827,null,"",null,,,,,,,,
math-period,374,588833,null,"",,,,,,,,,
html-keyboard-response,375,589845,null,"Recall Period!",null,,,,,,,,
call-function,376,589846,,"",,,,,,,,,
html-keyboard-response,377,589958,null,"",null,,,,,,,,
recall-period,378,593165,12325.779999984778,"",,,,,,,,,table
html-keyboard-response,379,593270,null,"",null,,,,,,,,
recall-period,380,611180,104485.71499999566,"",,,,,,,,,plaid
html-keyboard-response,381,611282,null,"",null,,,,,,,,
recall-period,382,615431,29138.184999988414,"",,,,,,,,,glacier
html-keyboard-response,383,615540,null,"",null,,,,,,,,
recall-period,384,620445,30948.86499999161,"",,,,,,,,,closet
html-keyboard-response,385,620548,null,"",null,,,,,,,,
recall-period,386,622778,11872.540000003064,"",,,,,,,,,flashlight
html-keyboard-response,387,622879,null,"",null,,,,,,,,
recall-period,388,664848,null,"",,,,,,,,,
html-keyboard-response,389,665350,null,"Time's Up!",null,,,,,,,,
html-keyboard-response,390,666889,1538.110000001383,"<p> Good job! You responded correctly to 97% of the GREEN squares.</p>
                  <p>Be sure to keep your accuracy above 80%</p>
                  <p>Press any key to continue the experiment. Thank you!</p>",32,,,,,,,,
html-keyboard-response,391,676326,9435.039999996661,"<div style=""font-size:48px;"">Press any key to begin list 4 of 24 </div>",32,,,,,,,,
html-keyboard-response,392,678832,null,"<div style=""font-size:60px;"">+</div>",null,,,,,,,,
html-keyboard-response,393,679277,443.5650000013411,"SERVER<img id = ""stim"" ><div class = green_square id = ""topsquare"" ></div><img id = ""stim"" ><div class = green_square  id = ""bottomsquare"" ></div>",32,word_square,response,1,Space,true,,,
html-keyboard-response,394,680783,null,"SERVER",null,word,,,,, 'SERVER',,
html-keyboard-response,395,681201,416.26499999989755,"BUGLE<img id = ""stim"" ><div class = green_square id = ""topsquare"" ></div><img id = ""stim"" ><div class = green_square  id = ""bottomsquare"" ></div>",32,word_square,response,1,Space,true,,,
html-keyboard-response,396,682705,null,"BUGLE",null,word,,,,, 'BUGLE',,
html-keyboard-response,397,683216,null,"JOINT<img id = ""stim"" ><div class = red_square id = ""topsquare"" ></div><img id = ""stim"" ><div class = red_square  id = ""bottomsquare"" ></div>",null,word_square,response,0,none,true,,,
html-keyboard-response,398,684718,null,"JOINT",null,word,,,,, 'JOINT',,
html-keyboard-response,399,685235,null,"POSSUM<img id = ""stim"" ><div class = red_square id = ""topsquare"" ></div><img id = ""stim"" ><div class = red_square  id = ""bottomsquare"" ></div>",null,word_square,response,0,none,true,,,
html-keyboard-response,400,686743,null,"POSSUM",null,word,,,,, 'POSSUM',,
html-keyboard-response,401,687171,426.64499999955297,"BASEBALL<img id = ""stim"" ><div class = green_square id = ""topsquare"" ></div><img id = ""stim"" ><div class = green_square  id = ""bottomsquare"" ></div>",32,word_square,response,1,Space,true,,,
html-keyboard-response,402,688683,null,"BASEBALL",null,word,,,,, 'BASEBALL',,
html-keyboard-response,403,689199,null,"HAMPER<img id = ""stim"" ><div class = red_square id = ""topsquare"" ></div><img id = ""stim"" ><div class = red_square  id = ""bottomsquare"" ></div>",null,word_square,response,0,none,true,,,
html-keyboard-response,404,690703,null,"HAMPER",null,word,,,,, 'HAMPER',,
html-keyboard-response,405,691096,391.5999999954365,"JUNGLE<img id = ""stim"" ><div class = green_square id = ""topsquare"" ></div><img id = ""stim"" ><div class = green_square  id = ""bottomsquare"" ></div>",32,word_square,response,1,Space,true,,,
html-keyboard-response,406,692612,null,"JUNGLE",null,word,,,,, 'JUNGLE',,
html-keyboard-response,407,693129,null,"COFFEE<img id = ""stim"" ><div class = red_square id = ""topsquare"" ></div><img id = ""stim"" ><div class = red_square  id = ""bottomsquare"" ></div>",null,word_square,response,0,none,true,,,
html-keyboard-response,408,694638,null,"COFFEE",null,word,,,,, 'COFFEE',,
html-keyboard-response,409,695015,375.224999996135,"CUPBOARD<img id = ""stim"" ><div class = green_square id = ""topsquare"" ></div><img id = ""stim"" ><div class = green_square  id = ""bottomsquare"" ></div>",32,word_square,response,1,Space,true,,,
html-keyboard-response,410,696527,null,"CUPBOARD",null,word,,,,, 'CUPBOARD',,
html-keyboard-response,411,697044,null,"COSTUME<img id = ""stim"" ><div class = red_square id = ""topsquare"" ></div><img id = ""stim"" ><div class = red_square  id = ""bottomsquare"" ></div>",null,word_square,response,0,none,true,,,
html-keyboard-response,412,698550,null,"COSTUME",null,word,,,,, 'COSTUME',,
html-keyboard-response,413,698905,353.3250000036787,"PLIERS<img id = ""stim"" ><div class = green_square id = ""topsquare"" ></div><img id = ""stim"" ><div class = green_square  id = ""bottomsquare"" ></div>",32,word_square,response,1,Space,true,,,
html-keyboard-response,414,700408,null,"PLIERS",null,word,,,,, 'PLIERS',,
html-keyboard-response,415,700796,386.1049999978859,"COLUMN<img id = ""stim"" ><div class = green_square id = ""topsquare"" ></div><img id = ""stim"" ><div class = green_square  id = ""bottomsquare"" ></div>",32,word_square,response,1,Space,true,,,
html-keyboard-response,416,702302,null,"COLUMN",null,word,,,,, 'COLUMN',,
html-keyboard-response,417,702818,null,"RUST<img id = ""stim"" ><div class = red_square id = ""topsquare"" ></div><img id = ""stim"" ><div class = red_square  id = ""bottomsquare"" ></div>",null,word_square,response,0,none,true,,,
html-keyboard-response,418,704331,null,"RUST",null,word,,,,, 'RUST',,
html-keyboard-response,419,704674,341.8849999944214,"GREASE<img id = ""stim"" ><div class = green_square id = ""topsquare"" ></div><img id = ""stim"" ><div class = green_square  id = ""bottomsquare"" ></div>",32,word_square,response,1,Space,true,,,
html-keyboard-response,420,706177,null,"GREASE",null,word,,,,, 'GREASE',,
html-keyboard-response,421,706578,399.40999999816995,"CAFE<img id = ""stim"" ><div class = green_square id = ""topsquare"" ></div><img id = ""stim"" ><div class = green_square  id = ""bottomsquare"" ></div>",32,word_square,response,1,Space,true,,,
html-keyboard-response,422,708094,null,"CAFE",null,word,,,,, 'CAFE',,
html-keyboard-response,423,708597,null,"SNACK<img id = ""stim"" ><div class = red_square id = ""topsquare"" ></div><img id = ""stim"" ><div class = red_square  id = ""bottomsquare"" ></div>",null,word_square,response,0,none,true,,,
html-keyboard-response,424,710102,null,"SNACK",null,word,,,,, 'SNACK',,
html-keyboard-response,425,710618,null,"SHRUB<img id = ""stim"" ><div class = red_square id = ""topsquare"" ></div><img id = ""stim"" ><div class = red_square  id = ""bottomsquare"" ></div>",null,word_square,response,0,none,true,,,
html-keyboard-response,426,712131,null,"SHRUB",null,word,,,,, 'SHRUB',,
html-keyboard-response,427,712635,null,"WRENCH<img id = ""stim"" ><div class = red_square id = ""topsquare"" ></div><img id = ""stim"" ><div class = red_square  id = ""bottomsquare"" ></div>",null,word_square,response,0,none,true,,,
html-keyboard-response,428,714152,null,"WRENCH",null,word,,,,, 'WRENCH',,
call-function,429,714153,,"",,,,,,,,,
html-keyboard-response,430,714255,null,"",null,,,,,,,,
math-period,431,715681,2514.4850000070874,"",,,,,,,,,2
html-keyboard-response,432,715784,null,"",null,,,,,,,,
math-period,433,717027,2373.744999989867,"",,,,,,,,,2
html-keyboard-response,434,717139,null,"",null,,,,,,,,
math-period,435,718167,1846.9200000036508,"",,,,,,,,,5
html-keyboard-response,436,718274,null,"",null,,,,,,,,
math-period,437,720352,6637.214999995427,"",,,,,,,,,2
html-keyboard-response,438,720454,null,"",null,,,,,,,,
math-period,439,722022,2804.1099999973085,"",,,,,,,,,1
html-keyboard-response,440,722123,null,"",null,,,,,,,,
math-period,441,723318,2139.2499999928987,"",,,,,,,,,3
html-keyboard-response,442,723431,null,"",null,,,,,,,,
math-period,443,724777,2372.1750000040047,"",,,,,,,,,6
html-keyboard-response,444,724889,null,"",null,,,,,,,,
math-period,445,727790,7257.24499999336,"",,,,,,,,,5
html-keyboard-response,446,727893,null,"",null,,,,,,,,
math-period,447,728730,1443.0800000044983,"",,,,,,,,,5
html-keyboard-response,448,728836,null,"",null,,,,,,,,
math-period,449,729946,2093.740000003949,"",,,,,,,,,3
html-keyboard-response,450,730058,null,"",null,,,,,,,,
math-period,451,730899,1547.8750000037253,"",,,,,,,,,3
html-keyboard-response,452,731001,null,"",null,,,,,,,,
math-period,453,732066,2008.6900000096066,"",,,,,,,,,2
html-keyboard-response,454,732168,null,"",null,,,,,,,,
math-period,455,733150,1818.6950000018114,"",,,,,,,,,3
html-keyboard-response,456,733261,null,"",null,,,,,,,,
math-period,457,734762,2886.475000006729,"",,,,,,,,,2
html-keyboard-response,458,734865,null,"",null,,,,,,,,
math-period,459,736349,2677.66499999573,"",,,,,,,,,5
html-keyboard-response,460,736454,null,"",null,,,,,,,,
math-period,461,737594,2147.645000004559,"",,,,,,,,,4
html-keyboard-response,462,737710,null,"",null,,,,,,,,
math-period,463,738158,null,"",,,,,,,,,
html-keyboard-response,464,739169,null,"Recall Period!",null,,,,,,,,
call-function,465,739170,,"",,,,,,,,,
html-keyboard-response,466,739279,null,"",null,,,,,,,,
recall-period,467,740751,6375.305000001332,"",,,,,,,,,pliers
html-keyboard-response,468,740865,null,"",null,,,,,,,,
recall-period,469,742671,7996.299999976647,"",,,,,,,,,wrench
html-keyboard-response,470,742773,null,"",null,,,,,,,,
recall-period,471,744723,7501.159999992116,"",,,,,,,,,column
html-keyboard-response,472,744827,null,"",null,,,,,,,,
recall-period,473,746176,5609.350000035716,"",,,,,,,,,jungle
html-keyboard-response,474,746285,null,"",null,,,,,,,,
recall-period,475,748836,11848.894999966957,"",,,,,,,,,possum
html-keyboard-response,476,748939,null,"",null,,,,,,,,
recall-period,477,757203,67776.56999999506,"",,,,,,,,,baseball
html-keyboard-response,478,757307,null,"",null,,,,,,,,
recall-period,479,760170,15724.6500000183,"",,,,,,,,,coffee
html-keyboard-response,480,760286,null,"",null,,,,,,,,
recall-period,481,761910,8347.804999982705,"",,,,,,,,,cupboard
html-keyboard-response,482,762016,null,"",null,,,,,,,,
recall-period,483,763716,6329.584999992396,"",,,,,,,,,cafe
html-keyboard-response,484,763822,null,"",null,,,,,,,,
recall-period,485,769964,34058.504999993835,"",,,,,,,,,joint
html-keyboard-response,486,770068,null,"",null,,,,,,,,
recall-period,487,786479,95036.77000002109,"",,,,,,,,,anvil
html-keyboard-response,488,786581,null,"",null,,,,,,,,
recall-period,489,814172,null,"",,,,,,,,,
html-keyboard-response,490,814674,null,"Time's Up!",null,,,,,,,,
html-keyboard-response,491,817663,2987.0650000011083,"<p> Good job! You responded correctly to 98% of the GREEN squares.</p>
                  <p>Be sure to keep your accuracy above 80%</p>
                  <p>Press any key to continue the experiment. Thank you!</p>",32,,,,,,,,
html-keyboard-response,492,819001,1336.7849999994505,"<div style=""font-size:48px;"">Press any key to begin list 5 of 24 </div>",32,,,,,,,,
html-keyboard-response,493,821524,null,"<div style=""font-size:60px;"">+</div>",null,,,,,,,,
html-keyboard-response,494,822027,null,"LEAF<img id = ""stim"" ><div class = red_square id = ""topsquare"" ></div><img id = ""stim"" ><div class = red_square  id = ""bottomsquare"" ></div>",null,word_square,response,0,none,true,,,
html-keyboard-response,495,823531,null,"LEAF",null,word,,,,, 'LEAF',,
html-keyboard-response,496,824036,null,"PEANUT<img id = ""stim"" ><div class = red_square id = ""topsquare"" ></div><img id = ""stim"" ><div class = red_square  id = ""bottomsquare"" ></div>",null,word_square,response,0,none,true,,,
html-keyboard-response,497,825549,null,"PEANUT",null,word,,,,, 'PEANUT',,
html-keyboard-response,498,825937,386.6649999981746,"PECAN<img id = ""stim"" ><div class = green_square id = ""topsquare"" ></div><img id = ""stim"" ><div class = green_square  id = ""bottomsquare"" ></div>",32,word_square,response,1,Space,true,,,
html-keyboard-response,499,827439,null,"PECAN",null,word,,,,, 'PECAN',,
html-keyboard-response,500,827954,null,"YARD<img id = ""stim"" ><div class = red_square id = ""topsquare"" ></div><img id = ""stim"" ><div class = red_square  id = ""bottomsquare"" ></div>",null,word_square,response,0,none,true,,,
html-keyboard-response,501,829468,null,"YARD",null,word,,,,, 'YARD',,
html-keyboard-response,502,829985,null,"PARSLEY<img id = ""stim"" ><div class = red_square id = ""topsquare"" ></div><img id = ""stim"" ><div class = red_square  id = ""bottomsquare"" ></div>",null,word_square,response,0,none,true,,,
html-keyboard-response,503,831502,null,"PARSLEY",null,word,,,,, 'PARSLEY',,
html-keyboard-response,504,831896,392.4600000027567,"WIDOW<img id = ""stim"" ><div class = green_square id = ""topsquare"" ></div><img id = ""stim"" ><div class = green_square  id = ""bottomsquare"" ></div>",32,word_square,response,1,Space,true,,,
html-keyboard-response,505,833413,null,"WIDOW",null,word,,,,, 'WIDOW',,
html-keyboard-response,506,833922,null,"TOMBSTONE<img id = ""stim"" ><div class = red_square id = ""topsquare"" ></div><img id = ""stim"" ><div class = red_square  id = ""bottomsquare"" ></div>",null,word_square,response,0,none,true,,,
html-keyboard-response,507,835426,null,"TOMBSTONE",null,word,,,,, 'TOMBSTONE',,
html-keyboard-response,508,835938,null,"NEPHEW<img id = ""stim"" ><div class = red_square id = ""topsquare"" ></div><img id = ""stim"" ><div class = red_square  id = ""bottomsquare"" ></div>",null,word_square,response,0,none,true,,,
html-keyboard-response,509,837448,null,"NEPHEW",null,word,,,,, 'NEPHEW',,
html-keyboard-response,510,837795,345.88999999687076,"PORK<img id = ""stim"" ><div class = green_square id = ""topsquare"" ></div><img id = ""stim"" ><div class = green_square  id = ""bottomsquare"" ></div>",32,word_square,response,1,Space,true,,,
html-keyboard-response,511,839297,null,"PORK",null,word,,,,, 'PORK',,
html-keyboard-response,512,839631,332.58000000217,"LAKE<img id = ""stim"" ><div class = green_square id = ""topsquare"" ></div><img id = ""stim"" ><div class = green_square  id = ""bottomsquare"" ></div>",32,word_square,response,1,Space,true,,,
html-keyboard-response,513,841133,null,"LAKE",null,word,,,,, 'LAKE',,
html-keyboard-response,514,841639,null,"PLUM<img id = ""stim"" ><div class = red_square id = ""topsquare"" ></div><img id = ""stim"" ><div class = red_square  id = ""bottomsquare"" ></div>",null,word_square,response,0,none,true,,,
html-keyboard-response,515,843143,null,"PLUM",null,word,,,,, 'PLUM',,
html-keyboard-response,516,843470,325.64999999885913,"CLERK<img id = ""stim"" ><div class = green_square id = ""topsquare"" ></div><img id = ""stim"" ><div class = green_square  id = ""bottomsquare"" ></div>",32,word_square,response,1,Space,true,,,
html-keyboard-response,517,844977,null,"CLERK",null,word,,,,, 'CLERK',,
html-keyboard-response,518,845490,null,"SOFTBALL<img id = ""stim"" ><div class = red_square id = ""topsquare"" ></div><img id = ""stim"" ><div class = red_square  id = ""bottomsquare"" ></div>",null,word_square,response,0,none,true,,,
html-keyboard-response,519,846995,null,"SOFTBALL",null,word,,,,, 'SOFTBALL',,
html-keyboard-response,520,847323,326.29000000446104,"SPONGE<img id = ""stim"" ><div class = green_square id = ""topsquare"" ></div><img id = ""stim"" ><div class = green_square  id = ""bottomsquare"" ></div>",32,word_square,response,1,Space,true,,,
html-keyboard-response,521,848829,null,"SPONGE",null,word,,,,, 'SPONGE',,
html-keyboard-response,522,849162,332.38499999430496,"CROOK<img id = ""stim"" ><div class = green_square id = ""topsquare"" ></div><img id = ""stim"" ><div class = green_square  id = ""bottomsquare"" ></div>",32,word_square,response,1,Space,true,,,
html-keyboard-response,523,850671,null,"CROOK",null,word,,,,, 'CROOK',,
html-keyboard-response,524,851174,null,"SCHOOL<img id = ""stim"" ><div class = red_square id = ""topsquare"" ></div><img id = ""stim"" ><div class = red_square  id = ""bottomsquare"" ></div>",null,word_square,response,0,none,true,,,
html-keyboard-response,525,852684,null,"SCHOOL",null,word,,,,, 'SCHOOL',,
html-keyboard-response,526,853032,347.1700000008568,"GARLIC<img id = ""stim"" ><div class = green_square id = ""topsquare"" ></div><img id = ""stim"" ><div class = green_square  id = ""bottomsquare"" ></div>",32,word_square,response,1,Space,true,,,
html-keyboard-response,527,854548,null,"GARLIC",null,word,,,,, 'GARLIC',,
html-keyboard-response,528,854934,384.8299999954179,"FLIPPER<img id = ""stim"" ><div class = green_square id = ""topsquare"" ></div><img id = ""stim"" ><div class = green_square  id = ""bottomsquare"" ></div>",32,word_square,response,1,Space,true,,,
html-keyboard-response,529,856439,null,"FLIPPER",null,word,,,,, 'FLIPPER',,
call-function,530,856439,,"",,,,,,,,,
html-keyboard-response,531,856542,null,"",null,,,,,,,,
math-period,532,857994,2643.440000007162,"",,,,,,,,,2
html-keyboard-response,533,858097,null,"",null,,,,,,,,
math-period,534,859378,2431.9499999983236,"",,,,,,,,,2
html-keyboard-response,535,859493,null,"",null,,,,,,,,
math-period,536,860827,2533.795000003185,"",,,,,,,,,1
html-keyboard-response,537,860939,null,"",null,,,,,,,,
math-period,538,862429,2569.9600000006612,"",,,,,,,,,4
html-keyboard-response,539,862540,null,"",null,,,,,,,,
math-period,540,864329,2794.0950000046287,"",,,,,,,,,3
html-keyboard-response,541,864436,null,"",null,,,,,,,,
math-period,542,866210,3420.9449999908684,"",,,,,,,,,1
html-keyboard-response,543,866312,null,"",null,,,,,,,,
math-period,544,867924,3066.7150000007823,"",,,,,,,,,4
html-keyboard-response,545,868038,null,"",null,,,,,,,,
math-period,546,869276,2188.1450000000186,"",,,,,,,,,4
html-keyboard-response,547,869378,null,"",null,,,,,,,,
math-period,548,870240,1557.3000000005122,"",,,,,,,,,2
html-keyboard-response,549,870348,null,"",null,,,,,,,,
math-period,550,872728,4618.95500000543,"",,,,,,,,,3
html-keyboard-response,551,872832,null,"",null,,,,,,,,
math-period,552,874003,2225.9599999962375,"",,,,,,,,,2
html-keyboard-response,553,874106,null,"",null,,,,,,,,
math-period,554,875188,1962.9800000039395,"",,,,,,,,,5
html-keyboard-response,555,875291,null,"",null,,,,,,,,
math-period,556,876508,2290.4300000007497,"",,,,,,,,,4
html-keyboard-response,557,876610,null,"",null,,,,,,,,
math-period,558,878307,3317.345000002999,"",,,,,,,,,4
html-keyboard-response,559,878413,null,"",null,,,,,,,,
math-period,560,879385,1780.3050000001676,"",,,,,,,,,4
html-keyboard-response,561,879487,null,"",null,,,,,,,,
math-period,562,880443,null,"",,,,,,,,,
html-keyboard-response,563,881454,null,"Recall Period!",null,,,,,,,,
call-function,564,881454,,"",,,,,,,,,
html-keyboard-response,565,881556,null,"",null,,,,,,,,
recall-period,566,886969,51059.175000066636,"",,,,,,,,,garlic
html-keyboard-response,567,887073,null,"",null,,,,,,,,
recall-period,568,889573,14191.274999983609,"",,,,,,,,,parsley
html-keyboard-response,569,889683,null,"",null,,,,,,,,
recall-period,570,891594,9722.69000001694,"",,,,,,,,,peanut
html-keyboard-response,571,891697,null,"",null,,,,,,,,
recall-period,572,892971,4026.405000004568,"",,,,,,,,,pecan
html-keyboard-response,573,893078,null,"",null,,,,,,,,
recall-period,574,915164,210885.88500003307,"",,,,,,,,,tombstone
html-keyboard-response,575,915272,null,"",null,,,,,,,,
recall-period,576,956467,102287.25500000292,"",,,,,,,,,
html-keyboard-response,577,956969,null,"Time's Up!",null,,,,,,,,
html-keyboard-response,578,958127,1155.995000001043,"<p> Good job! You responded correctly to 98% of the GREEN squares.</p>
                  <p>Be sure to keep your accuracy above 80%</p>
                  <p>Press any key to continue the experiment. Thank you!</p>",32,,,,,,,,
html-keyboard-response,579,960062,1933.8449999995064,"<div style=""font-size:48px;"">Press any key to begin list 6 of 24 </div>",32,,,,,,,,
html-keyboard-response,580,962574,null,"<div style=""font-size:60px;"">+</div>",null,,,,,,,,
html-keyboard-response,581,963090,null,"CONVICT<img id = ""stim"" ><div class = red_square id = ""topsquare"" ></div><img id = ""stim"" ><div class = red_square  id = ""bottomsquare"" ></div>",null,word_square,response,0,none,true,,,
html-keyboard-response,582,964604,null,"CONVICT",null,word,,,,, 'CONVICT',,
html-keyboard-response,583,965107,null,"ARMY<img id = ""stim"" ><div class = red_square id = ""topsquare"" ></div><img id = ""stim"" ><div class = red_square  id = ""bottomsquare"" ></div>",null,word_square,response,0,none,true,,,
html-keyboard-response,584,966621,null,"ARMY",null,word,,,,, 'ARMY',,
html-keyboard-response,585,966958,336.495000003255,"LOBBY<img id = ""stim"" ><div class = green_square id = ""topsquare"" ></div><img id = ""stim"" ><div class = green_square  id = ""bottomsquare"" ></div>",32,word_square,response,1,Space,true,,,
html-keyboard-response,586,968474,null,"LOBBY",null,word,,,,, 'LOBBY',,
html-keyboard-response,587,968986,null,"ELK<img id = ""stim"" ><div class = red_square id = ""topsquare"" ></div><img id = ""stim"" ><div class = red_square  id = ""bottomsquare"" ></div>",null,word_square,response,0,none,true,,,
html-keyboard-response,588,970488,null,"ELK",null,word,,,,, 'ELK',,
html-keyboard-response,589,970995,null,"WINDSHIELD<img id = ""stim"" ><div class = red_square id = ""topsquare"" ></div><img id = ""stim"" ><div class = red_square  id = ""bottomsquare"" ></div>",null,word_square,response,0,none,true,,,
html-keyboard-response,590,972501,null,"WINDSHIELD",null,word,,,,, 'WINDSHIELD',,
html-keyboard-response,591,972923,419.98000000603497,"BRACELET<img id = ""stim"" ><div class = green_square id = ""topsquare"" ></div><img id = ""stim"" ><div class = green_square  id = ""bottomsquare"" ></div>",32,word_square,response,1,Space,true,,,
html-keyboard-response,592,974439,null,"BRACELET",null,word,,,,, 'BRACELET',,
html-keyboard-response,593,974954,null,"COTTAGE<img id = ""stim"" ><div class = red_square id = ""topsquare"" ></div><img id = ""stim"" ><div class = red_square  id = ""bottomsquare"" ></div>",null,word_square,response,0,none,true,,,
html-keyboard-response,594,976462,null,"COTTAGE",null,word,,,,, 'COTTAGE',,
html-keyboard-response,595,976965,null,"MARROW<img id = ""stim"" ><div class = red_square id = ""topsquare"" ></div><img id = ""stim"" ><div class = red_square  id = ""bottomsquare"" ></div>",null,word_square,response,0,none,true,,,
html-keyboard-response,596,978470,null,"MARROW",null,word,,,,, 'MARROW',,
html-keyboard-response,597,978870,397.8449999995064,"STOMACH<img id = ""stim"" ><div class = green_square id = ""topsquare"" ></div><img id = ""stim"" ><div class = green_square  id = ""bottomsquare"" ></div>",32,word_square,response,1,Space,true,,,
html-keyboard-response,598,980377,null,"STOMACH",null,word,,,,, 'STOMACH',,
html-keyboard-response,599,980789,411.07000000192784,"TAVERN<img id = ""stim"" ><div class = green_square id = ""topsquare"" ></div><img id = ""stim"" ><div class = green_square  id = ""bottomsquare"" ></div>",32,word_square,response,1,Space,true,,,
html-keyboard-response,600,982298,null,"TAVERN",null,word,,,,, 'TAVERN',,
html-keyboard-response,601,982813,null,"ORCHID<img id = ""stim"" ><div class = red_square id = ""topsquare"" ></div><img id = ""stim"" ><div class = red_square  id = ""bottomsquare"" ></div>",null,word_square,response,0,none,true,,,
html-keyboard-response,602,984315,null,"ORCHID",null,word,,,,, 'ORCHID',,
html-keyboard-response,603,984692,375.54500000248663,"FRUIT<img id = ""stim"" ><div class = green_square id = ""topsquare"" ></div><img id = ""stim"" ><div class = green_square  id = ""bottomsquare"" ></div>",32,word_square,response,1,Space,true,,,
html-keyboard-response,604,986202,null,"FRUIT",null,word,,,,, 'FRUIT',,
html-keyboard-response,605,986709,null,"ISLAND<img id = ""stim"" ><div class = red_square id = ""topsquare"" ></div><img id = ""stim"" ><div class = red_square  id = ""bottomsquare"" ></div>",null,word_square,response,0,none,true,,,
html-keyboard-response,606,988215,null,"ISLAND",null,word,,,,, 'ISLAND',,
html-keyboard-response,607,988605,388.6300000012852,"PREACHER<img id = ""stim"" ><div class = green_square id = ""topsquare"" ></div><img id = ""stim"" ><div class = green_square  id = ""bottomsquare"" ></div>",32,word_square,response,1,Space,true,,,
html-keyboard-response,608,990107,null,"PREACHER",null,word,,,,, 'PREACHER',,
html-keyboard-response,609,990517,408.16500000073574,"CROSS<img id = ""stim"" ><div class = green_square id = ""topsquare"" ></div><img id = ""stim"" ><div class = green_square  id = ""bottomsquare"" ></div>",32,word_square,response,1,Space,true,,,
html-keyboard-response,610,992031,null,"CROSS",null,word,,,,, 'CROSS',,
html-keyboard-response,611,992535,null,"JURY<img id = ""stim"" ><div class = red_square id = ""topsquare"" ></div><img id = ""stim"" ><div class = red_square  id = ""bottomsquare"" ></div>",null,word_square,response,0,none,true,,,
html-keyboard-response,612,994036,null,"JURY",null,word,,,,, 'JURY',,
html-keyboard-response,613,994397,359.1149999992922,"WITNESS<img id = ""stim"" ><div class = green_square id = ""topsquare"" ></div><img id = ""stim"" ><div class = green_square  id = ""bottomsquare"" ></div>",32,word_square,response,1,Space,true,,,
html-keyboard-response,614,995912,null,"WITNESS",null,word,,,,, 'WITNESS',,
html-keyboard-response,615,996307,394.1149999955669,"SERPENT<img id = ""stim"" ><div class = green_square id = ""topsquare"" ></div><img id = ""stim"" ><div class = green_square  id = ""bottomsquare"" ></div>",32,word_square,response,1,Space,true,,,
html-keyboard-response,616,997822,null,"SERPENT",null,word,,,,, 'SERPENT',,
call-function,617,997823,,"",,,,,,,,,
html-keyboard-response,618,997931,null,"",null,,,,,,,,
math-period,619,999993,3993.320000001462,"",,,,,,,,,1
html-keyboard-response,620,1000096,null,"",null,,,,,,,,
math-period,621,1001386,2462.5300000044517,"",,,,,,,,,1
html-keyboard-response,622,1001488,null,"",null,,,,,,,,
math-period,623,1002425,1771.570000004489,"",,,,,,,,,2
html-keyboard-response,624,1002528,null,"",null,,,,,,,,
math-period,625,1004896,7590.929999998421,"",,,,,,,,,5
html-keyboard-response,626,1005006,null,"",null,,,,,,,,
math-period,627,1006485,2813.5350000010803,"",,,,,,,,,5
html-keyboard-response,628,1006587,null,"",null,,,,,,,,
math-period,629,1007531,1803.4000000043306,"",,,,,,,,,5
html-keyboard-response,630,1007636,null,"",null,,,,,,,,
math-period,631,1008538,1757.5649999998277,"",,,,,,,,,5
html-keyboard-response,632,1008653,null,"",null,,,,,,,,
math-period,633,1009849,2333.7600000015227,"",,,,,,,,,2
html-keyboard-response,634,1009952,null,"",null,,,,,,,,
math-period,635,1012493,4344.649999999208,"",,,,,,,,,3
html-keyboard-response,636,1012595,null,"",null,,,,,,,,
math-period,637,1013597,1882.2199999995064,"",,,,,,,,,4
html-keyboard-response,638,1013699,null,"",null,,,,,,,,
math-period,639,1015658,3759.174999999348,"",,,,,,,,,2
html-keyboard-response,640,1015761,null,"",null,,,,,,,,
math-period,641,1017328,2979.54000000027,"",,,,,,,,,1
html-keyboard-response,642,1017430,null,"",null,,,,,,,,
math-period,643,1018618,2271.500000002561,"",,,,,,,,,3
html-keyboard-response,644,1018727,null,"",null,,,,,,,,
math-period,645,1019648,1732.1000000082422,"",,,,,,,,,2
html-keyboard-response,646,1019751,null,"",null,,,,,,,,
math-period,647,1021122,2650.2350000009174,"",,,,,,,,,1
html-keyboard-response,648,1021234,null,"",null,,,,,,,,
math-period,649,1021828,null,"",,,,,,,,,
html-keyboard-response,650,1022843,null,"Recall Period!",null,,,,,,,,
call-function,651,1022844,,"",,,,,,,,,
html-keyboard-response,652,1022945,null,"",null,,,,,,,,
recall-period,653,1025816,7673.74000001268,"",,,,,,,,,jury
html-keyboard-response,654,1025923,null,"",null,,,,,,,,
recall-period,655,1027300,6297.684999997378,"",,,,,,,,,witness
html-keyboard-response,656,1027414,null,"",null,,,,,,,,
recall-period,657,1029768,11766.675000013434,"",,,,,,,,,convict
html-keyboard-response,658,1029871,null,"",null,,,,,,,,
recall-period,659,1031181,4336.2799999814015,"",,,,,,,,,army
html-keyboard-response,660,1031285,null,"",null,,,,,,,,
recall-period,661,1039036,49828.1950000237,"",,,,,,,,,orchid
html-keyboard-response,662,1039140,null,"",null,,,,,,,,
recall-period,663,1040040,3052.8300000154413,"",,,,,,,,,fruit
html-keyboard-response,664,1040143,null,"",null,,,,,,,,
recall-period,665,1041398,4930.205000018352,"",,,,,,,,,island
html-keyboard-response,666,1041506,null,"",null,,,,,,,,
recall-period,667,1056137,111866.25999998767,"",,,,,,,,,serpent
html-keyboard-response,668,1056244,null,"",null,,,,,,,,
recall-period,669,1075080,129965.39999997942,"",,,,,,,,,stomach
html-keyboard-response,670,1075183,null,"",null,,,,,,,,
recall-period,671,1098610,null,"",,,,,,,,,
html-keyboard-response,672,1099624,null,"Time's Up!",null,,,,,,,,
html-keyboard-response,673,1101906,2280.805000002263,"<p> Good job! You responded correctly to 98% of the GREEN squares.</p>
                  <p>Be sure to keep your accuracy above 80%</p>
                  <p>Press any key to continue the experiment. Thank you!</p>",32,,,,,,,,
html-keyboard-response,674,1112442,10534.475000000326,"<div style=""font-size:48px;"">Press any key to begin list 7 of 24 </div>",32,,,,,,,,
html-keyboard-response,675,1114963,null,"<div style=""font-size:60px;"">+</div>",null,,,,,,,,
html-keyboard-response,676,1115428,462.9999999960419,"SQUIRREL<img id = ""stim"" ><div class = green_square id = ""topsquare"" ></div><img id = ""stim"" ><div class = green_square  id = ""bottomsquare"" ></div>",32,word_square,response,1,Space,true,,,
html-keyboard-response,677,1116941,null,"SQUIRREL",null,word,,,,, 'SQUIRREL',,
html-keyboard-response,678,1117300,357.9199999948032,"FACE<img id = ""stim"" ><div class = green_square id = ""topsquare"" ></div><img id = ""stim"" ><div class = green_square  id = ""bottomsquare"" ></div>",32,word_square,response,1,Space,true,,,
html-keyboard-response,679,1118813,null,"FACE",null,word,,,,, 'FACE',,
html-keyboard-response,680,1119321,null,"BALLOON<img id = ""stim"" ><div class = red_square id = ""topsquare"" ></div><img id = ""stim"" ><div class = red_square  id = ""bottomsquare"" ></div>",null,word_square,response,0,none,true,,,
html-keyboard-response,681,1120836,null,"BALLOON",null,word,,,,, 'BALLOON',,
html-keyboard-response,682,1121160,322.34999999497086,"LODGE<img id = ""stim"" ><div class = green_square id = ""topsquare"" ></div><img id = ""stim"" ><div class = green_square  id = ""bottomsquare"" ></div>",32,word_square,response,1,Space,true,,,
html-keyboard-response,683,1122666,null,"LODGE",null,word,,,,, 'LODGE',,
html-keyboard-response,684,1122977,309.91999999969266,"NOVEL<img id = ""stim"" ><div class = green_square id = ""topsquare"" ></div><img id = ""stim"" ><div class = green_square  id = ""bottomsquare"" ></div>",32,word_square,response,1,Space,true,,,
html-keyboard-response,685,1124480,null,"NOVEL",null,word,,,,, 'NOVEL',,
html-keyboard-response,686,1124984,null,"CASHEW<img id = ""stim"" ><div class = red_square id = ""topsquare"" ></div><img id = ""stim"" ><div class = red_square  id = ""bottomsquare"" ></div>",null,word_square,response,0,none,true,,,
html-keyboard-response,687,1126494,null,"CASHEW",null,word,,,,, 'CASHEW',,
html-keyboard-response,688,1126836,341.1250000062864,"CHAMPAGNE<img id = ""stim"" ><div class = green_square id = ""topsquare"" ></div><img id = ""stim"" ><div class = green_square  id = ""bottomsquare"" ></div>",32,word_square,response,1,Space,true,,,
html-keyboard-response,689,1128344,null,"CHAMPAGNE",null,word,,,,, 'CHAMPAGNE',,
html-keyboard-response,690,1128702,356.11499999510124,"GRAPE<img id = ""stim"" ><div class = green_square id = ""topsquare"" ></div><img id = ""stim"" ><div class = green_square  id = ""bottomsquare"" ></div>",32,word_square,response,1,Space,true,,,
html-keyboard-response,691,1130207,null,"GRAPE",null,word,,,,, 'GRAPE',,
html-keyboard-response,692,1130713,null,"MOP<img id = ""stim"" ><div class = red_square id = ""topsquare"" ></div><img id = ""stim"" ><div class = red_square  id = ""bottomsquare"" ></div>",null,word_square,response,0,none,true,,,
html-keyboard-response,693,1132229,null,"MOP",null,word,,,,, 'MOP',,
html-keyboard-response,694,1132739,null,"CARTON<img id = ""stim"" ><div class = red_square id = ""topsquare"" ></div><img id = ""stim"" ><div class = red_square  id = ""bottomsquare"" ></div>",null,word_square,response,0,none,true,,,
html-keyboard-response,695,1134251,null,"CARTON",null,word,,,,, 'CARTON',,
html-keyboard-response,696,1134607,354.794999999227,"BARLEY<img id = ""stim"" ><div class = green_square id = ""topsquare"" ></div><img id = ""stim"" ><div class = green_square  id = ""bottomsquare"" ></div>",32,word_square,response,1,Space,true,,,
html-keyboard-response,697,1136121,null,"BARLEY",null,word,,,,, 'BARLEY',,
html-keyboard-response,698,1136631,null,"PAINTING<img id = ""stim"" ><div class = red_square id = ""topsquare"" ></div><img id = ""stim"" ><div class = red_square  id = ""bottomsquare"" ></div>",null,word_square,response,0,none,true,,,
html-keyboard-response,699,1138148,null,"PAINTING",null,word,,,,, 'PAINTING',,
html-keyboard-response,700,1138460,310.6699999989942,"SUSPECT<img id = ""stim"" ><div class = green_square id = ""topsquare"" ></div><img id = ""stim"" ><div class = green_square  id = ""bottomsquare"" ></div>",32,word_square,response,1,Space,true,,,
html-keyboard-response,701,1139972,null,"SUSPECT",null,word,,,,, 'SUSPECT',,
html-keyboard-response,702,1140485,null,"BADGE<img id = ""stim"" ><div class = red_square id = ""topsquare"" ></div><img id = ""stim"" ><div class = red_square  id = ""bottomsquare"" ></div>",null,word_square,response,0,none,true,,,
html-keyboard-response,703,1141998,null,"BADGE",null,word,,,,, 'BADGE',,
html-keyboard-response,704,1142501,null,"JUGGLER<img id = ""stim"" ><div class = red_square id = ""topsquare"" ></div><img id = ""stim"" ><div class = red_square  id = ""bottomsquare"" ></div>",null,word_square,response,0,none,true,,,
html-keyboard-response,705,1144006,null,"JUGGLER",null,word,,,,, 'JUGGLER',,
html-keyboard-response,706,1144375,368.16500000003725,"BANK<img id = ""stim"" ><div class = green_square id = ""topsquare"" ></div><img id = ""stim"" ><div class = green_square  id = ""bottomsquare"" ></div>",32,word_square,response,1,Space,true,,,
html-keyboard-response,707,1145888,null,"BANK",null,word,,,,, 'BANK',,
html-keyboard-response,708,1146401,null,"PUPIL<img id = ""stim"" ><div class = red_square id = ""topsquare"" ></div><img id = ""stim"" ><div class = red_square  id = ""bottomsquare"" ></div>",null,word_square,response,0,none,true,,,
html-keyboard-response,709,1147915,null,"PUPIL",null,word,,,,, 'PUPIL',,
html-keyboard-response,710,1148423,null,"TEACHER<img id = ""stim"" ><div class = red_square id = ""topsquare"" ></div><img id = ""stim"" ><div class = red_square  id = ""bottomsquare"" ></div>",null,word_square,response,0,none,true,,,
html-keyboard-response,711,1149933,null,"TEACHER",null,word,,,,, 'TEACHER',,
call-function,712,1149934,,"",,,,,,,,,
html-keyboard-response,713,1150046,null,"",null,,,,,,,,
math-period,714,1154494,7115.904999998631,"",,,,,,,,,3
html-keyboard-response,715,1154610,null,"",null,,,,,,,,
math-period,716,1155997,2646.4249999918975,"",,,,,,,,,1
html-keyboard-response,717,1156102,null,"",null,,,,,,,,
math-period,718,1157401,2470.929999995744,"",,,,,,,,,1
html-keyboard-response,719,1157513,null,"",null,,,,,,,,
math-period,720,1158649,2161.030000002589,"",,,,,,,,,1
html-keyboard-response,721,1158757,null,"",null,,,,,,,,
math-period,722,1159990,2105.139999992447,"",,,,,,,,,4
html-keyboard-response,723,1160092,null,"",null,,,,,,,,
math-period,724,1161153,2002.9149999902584,"",,,,,,,,,4
html-keyboard-response,725,1161268,null,"",null,,,,,,,,
math-period,726,1162531,2404.654999998398,"",,,,,,,,,1
html-keyboard-response,727,1162646,null,"",null,,,,,,,,
math-period,728,1163785,2116.3750000051223,"",,,,,,,,,5
html-keyboard-response,729,1163887,null,"",null,,,,,,,,
math-period,730,1165103,2287.150000003865,"",,,,,,,,,3
html-keyboard-response,731,1165206,null,"",null,,,,,,,,
math-period,732,1166471,2408.8499999996275,"",,,,,,,,,4
html-keyboard-response,733,1166578,null,"",null,,,,,,,,
math-period,734,1169137,4977.539999992354,"",,,,,,,,,1
html-keyboard-response,735,1169246,null,"",null,,,,,,,,
math-period,736,1170927,3259.9249999986496,"",,,,,,,,,2
html-keyboard-response,737,1171039,null,"",null,,,,,,,,
math-period,738,1172352,2542.870000005001,"",,,,,,,,,6
html-keyboard-response,739,1172455,null,"",null,,,,,,,,
math-period,740,1173928,2556.3299999921583,"",,,,,,,,,5
html-keyboard-response,741,1174041,null,"",null,,,,,,,,
math-period,742,1174044,null,"",,,,,,,,,
html-keyboard-response,743,1175062,null,"Recall Period!",null,,,,,,,,
call-function,744,1175063,,"",,,,,,,,,
html-keyboard-response,745,1175173,null,"",null,,,,,,,,
recall-period,746,1176748,6674.245000009658,"",,,,,,,,,suspect
html-keyboard-response,747,1176853,null,"",null,,,,,,,,
recall-period,748,1178651,9341.899999976857,"",,,,,,,,,barley
html-keyboard-response,749,1178760,null,"",null,,,,,,,,
recall-period,750,1180019,4940.404999993974,"",,,,,,,,,lodge
html-keyboard-response,751,1180123,null,"",null,,,,,,,,
recall-period,752,1182652,5719.3549999722745,"",,,,,,,,,novel
html-keyboard-response,753,1182767,null,"",null,,,,,,,,
recall-period,754,1228456,268269.18499998376,"",,,,,,,,,badge
html-keyboard-response,755,1228569,null,"",null,,,,,,,,
recall-period,756,1250075,null,"",,,,,,,,,
html-keyboard-response,757,1250591,null,"Time's Up!",null,,,,,,,,
html-keyboard-response,758,1252611,2017.7649999968708,"<p> Good job! You responded correctly to 99% of the GREEN squares.</p>
                  <p>Be sure to keep your accuracy above 80%</p>
                  <p>Press any key to continue the experiment. Thank you!</p>",32,,,,,,,,
html-keyboard-response,759,1258195,5582.869999998249,"<div style=""font-size:48px;"">Press any key to begin list 8 of 24 </div>",32,,,,,,,,
html-keyboard-response,760,1260708,null,"<div style=""font-size:60px;"">+</div>",null,,,,,,,,
html-keyboard-response,761,1261217,null,"BOUILLON<img id = ""stim"" ><div class = green_square id = ""topsquare"" ></div><img id = ""stim"" ><div class = green_square  id = ""bottomsquare"" ></div>",null,word_square,response,1,Space,false,,,
html-keyboard-response,762,1262720,null,"BOUILLON",null,word,,,,, 'BOUILLON',,
html-keyboard-response,763,1263130,408.28999999933876,"ORANGE<img id = ""stim"" ><div class = green_square id = ""topsquare"" ></div><img id = ""stim"" ><div class = green_square  id = ""bottomsquare"" ></div>",32,word_square,response,1,Space,true,,,
html-keyboard-response,764,1264645,null,"ORANGE",null,word,,,,, 'ORANGE',,
html-keyboard-response,765,1265156,null,"FOREST<img id = ""stim"" ><div class = red_square id = ""topsquare"" ></div><img id = ""stim"" ><div class = red_square  id = ""bottomsquare"" ></div>",null,word_square,response,0,none,true,,,
html-keyboard-response,766,1266663,null,"FOREST",null,word,,,,, 'FOREST',,
html-keyboard-response,767,1267041,376.25500000291504,"RECORD<img id = ""stim"" ><div class = green_square id = ""topsquare"" ></div><img id = ""stim"" ><div class = green_square  id = ""bottomsquare"" ></div>",32,word_square,response,1,Space,true,,,
html-keyboard-response,768,1268552,null,"RECORD",null,word,,,,, 'RECORD',,
html-keyboard-response,769,1268912,358.6199999989476,"SKETCH<img id = ""stim"" ><div class = green_square id = ""topsquare"" ></div><img id = ""stim"" ><div class = green_square  id = ""bottomsquare"" ></div>",32,word_square,response,1,Space,true,,,
html-keyboard-response,770,1270425,null,"SKETCH",null,word,,,,, 'SKETCH',,
html-keyboard-response,771,1270935,null,"AGENT<img id = ""stim"" ><div class = red_square id = ""topsquare"" ></div><img id = ""stim"" ><div class = red_square  id = ""bottomsquare"" ></div>",null,word_square,response,0,none,true,,,
html-keyboard-response,772,1272437,null,"AGENT",null,word,,,,, 'AGENT',,
html-keyboard-response,773,1272755,316.16000000201166,"CABLE<img id = ""stim"" ><div class = green_square id = ""topsquare"" ></div><img id = ""stim"" ><div class = green_square  id = ""bottomsquare"" ></div>",32,word_square,response,1,Space,true,,,
html-keyboard-response,774,1274258,null,"CABLE",null,word,,,,, 'CABLE',,
html-keyboard-response,775,1274579,319.69000000390224,"SHEPHERD<img id = ""stim"" ><div class = green_square id = ""topsquare"" ></div><img id = ""stim"" ><div class = green_square  id = ""bottomsquare"" ></div>",32,word_square,response,1,Space,true,,,
html-keyboard-response,776,1276091,null,"SHEPHERD",null,word,,,,, 'SHEPHERD',,
html-keyboard-response,777,1276601,null,"LIST<img id = ""stim"" ><div class = red_square id = ""topsquare"" ></div><img id = ""stim"" ><div class = red_square  id = ""bottomsquare"" ></div>",null,word_square,response,0,none,true,,,
html-keyboard-response,778,1278114,null,"LIST",null,word,,,,, 'LIST',,
html-keyboard-response,779,1278453,337.1400000031572,"GAZELLE<img id = ""stim"" ><div class = red_square id = ""topsquare"" ></div><img id = ""stim"" ><div class = red_square  id = ""bottomsquare"" ></div>",32,word_square,response,0,none,false,,,
html-keyboard-response,780,1279959,null,"GAZELLE",null,word,,,,, 'GAZELLE',,
html-keyboard-response,781,1280339,378.6000000038184,"COBRA<img id = ""stim"" ><div class = green_square id = ""topsquare"" ></div><img id = ""stim"" ><div class = green_square  id = ""bottomsquare"" ></div>",32,word_square,response,1,Space,true,,,
html-keyboard-response,782,1281854,null,"COBRA",null,word,,,,, 'COBRA',,
html-keyboard-response,783,1282364,null,"PLATE<img id = ""stim"" ><div class = red_square id = ""topsquare"" ></div><img id = ""stim"" ><div class = red_square  id = ""bottomsquare"" ></div>",null,word_square,response,0,none,true,,,
html-keyboard-response,784,1283876,null,"PLATE",null,word,,,,, 'PLATE',,
html-keyboard-response,785,1284232,354.06499999947846,"HANGER<img id = ""stim"" ><div class = green_square id = ""topsquare"" ></div><img id = ""stim"" ><div class = green_square  id = ""bottomsquare"" ></div>",32,word_square,response,1,Space,true,,,
html-keyboard-response,786,1285741,null,"HANGER",null,word,,,,, 'HANGER',,
html-keyboard-response,787,1286257,null,"HORSE<img id = ""stim"" ><div class = red_square id = ""topsquare"" ></div><img id = ""stim"" ><div class = red_square  id = ""bottomsquare"" ></div>",null,word_square,response,0,none,true,,,
html-keyboard-response,788,1287772,null,"HORSE",null,word,,,,, 'HORSE',,
html-keyboard-response,789,1288274,null,"ZEBRA<img id = ""stim"" ><div class = red_square id = ""topsquare"" ></div><img id = ""stim"" ><div class = red_square  id = ""bottomsquare"" ></div>",null,word_square,response,0,none,true,,,
html-keyboard-response,790,1289785,null,"ZEBRA",null,word,,,,, 'ZEBRA',,
html-keyboard-response,791,1290236,449.4049999995623,"HEART<img id = ""stim"" ><div class = green_square id = ""topsquare"" ></div><img id = ""stim"" ><div class = green_square  id = ""bottomsquare"" ></div>",32,word_square,response,1,Space,true,,,
html-keyboard-response,792,1291747,null,"HEART",null,word,,,,, 'HEART',,
html-keyboard-response,793,1292129,380.95500000054017,"LIVER<img id = ""stim"" ><div class = red_square id = ""topsquare"" ></div><img id = ""stim"" ><div class = red_square  id = ""bottomsquare"" ></div>",32,word_square,response,0,none,false,,,
html-keyboard-response,794,1293646,null,"LIVER",null,word,,,,, 'LIVER',,
html-keyboard-response,795,1294152,null,"NOMAD<img id = ""stim"" ><div class = red_square id = ""topsquare"" ></div><img id = ""stim"" ><div class = red_square  id = ""bottomsquare"" ></div>",null,word_square,response,0,none,true,,,
html-keyboard-response,796,1295668,null,"NOMAD",null,word,,,,, 'NOMAD',,
call-function,797,1295669,,"",,,,,,,,,
html-keyboard-response,798,1295778,null,"",null,,,,,,,,
math-period,799,1297445,3028.8849999997765,"",,,,,,,,,2
html-keyboard-response,800,1297547,null,"",null,,,,,,,,
math-period,801,1300270,8493.300000001676,"",,,,,,,,,5
html-keyboard-response,802,1300372,null,"",null,,,,,,,,
math-period,803,1301241,1623.5200000011828,"",,,,,,,,,3
html-keyboard-response,804,1301351,null,"",null,,,,,,,,
math-period,805,1302395,1870.6550000058487,"",,,,,,,,,5
html-keyboard-response,806,1302499,null,"",null,,,,,,,,
math-period,807,1303941,2607.0550000001676,"",,,,,,,,,4
html-keyboard-response,808,1304044,null,"",null,,,,,,,,
math-period,809,1305364,2479.805000002729,"",,,,,,,,,1
html-keyboard-response,810,1305467,null,"",null,,,,,,,,
math-period,811,1306319,1579.489999996731,"",,,,,,,,,2
html-keyboard-response,812,1306422,null,"",null,,,,,,,,
math-period,813,1307930,2883.674999990035,"",,,,,,,,,2
html-keyboard-response,814,1308032,null,"",null,,,,,,,,
math-period,815,1309184,2095.784999997588,"",,,,,,,,,5
html-keyboard-response,816,1309287,null,"",null,,,,,,,,
math-period,817,1310434,1928.6250000079162,"",,,,,,,,,3
html-keyboard-response,818,1310537,null,"",null,,,,,,,,
math-period,819,1312609,6763.585000014864,"",,,,,,,,,4
html-keyboard-response,820,1312725,null,"",null,,,,,,,,
math-period,821,1314131,2690.380000007339,"",,,,,,,,,1
html-keyboard-response,822,1314244,null,"",null,,,,,,,,
math-period,823,1315665,2586.089999997057,"",,,,,,,,,5
html-keyboard-response,824,1315768,null,"",null,,,,,,,,
math-period,825,1317299,4826.495000015944,"",,,,,,,,,4
html-keyboard-response,826,1317407,null,"",null,,,,,,,,
math-period,827,1318675,2438.120000006398,"",,,,,,,,,2
html-keyboard-response,828,1318778,null,"",null,,,,,,,,
math-period,829,1319684,null,"",,,,,,,,,
html-keyboard-response,830,1320693,null,"Recall Period!",null,,,,,,,,
call-function,831,1320694,,"",,,,,,,,,
html-keyboard-response,832,1320802,null,"",null,,,,,,,,
recall-period,833,1322251,6431.4100000187755,"",,,,,,,,,hanger
html-keyboard-response,834,1322364,null,"",null,,,,,,,,
recall-period,835,1324920,16203.934999997728,"",,,,,,,,,horse
html-keyboard-response,836,1325028,null,"",null,,,,,,,,
recall-period,837,1326530,6560.464999987045,"",,,,,,,,,zebra
html-keyboard-response,838,1326639,null,"",null,,,,,,,,
recall-period,839,1328880,11981.435000008205,"",,,,,,,,,boullion
html-keyboard-response,840,1328989,null,"",null,,,,,,,,
recall-period,841,1331484,11340.880000002682,"",,,,,,,,,orange
html-keyboard-response,842,1331586,null,"",null,,,,,,,,
recall-period,843,1370895,340722.7849999978,"",,,,,,,,,preacher
html-keyboard-response,844,1371000,null,"",null,,,,,,,,
recall-period,845,1395708,null,"",,,,,,,,,
html-keyboard-response,846,1396219,null,"Time's Up!",null,,,,,,,,
html-keyboard-response,847,1397665,1445.0649999999441,"<p> Good job! You responded correctly to 97% of the GREEN squares.</p>
                  <p>Be sure to keep your accuracy above 80%</p>
                  <p>Press any key to continue the experiment. Thank you!</p>",32,,,,,,,,
html-keyboard-response,848,1398375,708.6850000051782,"<div style=""font-size:48px;"">Press any key to begin list 9 of 24 </div>",32,,,,,,,,
html-keyboard-response,849,1400884,null,"<div style=""font-size:60px;"">+</div>",null,,,,,,,,
html-keyboard-response,850,1401386,null,"PONY<img id = ""stim"" ><div class = red_square id = ""topsquare"" ></div><img id = ""stim"" ><div class = red_square  id = ""bottomsquare"" ></div>",null,word_square,response,0,none,true,,,
html-keyboard-response,851,1402896,null,"PONY",null,word,,,,, 'PONY',,
html-keyboard-response,852,1403295,397.38000000221655,"SHEARS<img id = ""stim"" ><div class = green_square id = ""topsquare"" ></div><img id = ""stim"" ><div class = green_square  id = ""bottomsquare"" ></div>",32,word_square,response,1,Space,true,,,
html-keyboard-response,853,1404803,null,"SHEARS",null,word,,,,, 'SHEARS',,
html-keyboard-response,854,1405162,357.8350000025239,"TROUT<img id = ""stim"" ><div class = green_square id = ""topsquare"" ></div><img id = ""stim"" ><div class = green_square  id = ""bottomsquare"" ></div>",32,word_square,response,1,Space,true,,,
html-keyboard-response,855,1406673,null,"TROUT",null,word,,,,, 'TROUT',,
html-keyboard-response,856,1407176,null,"VALVE<img id = ""stim"" ><div class = red_square id = ""topsquare"" ></div><img id = ""stim"" ><div class = red_square  id = ""bottomsquare"" ></div>",null,word_square,response,0,none,true,,,
html-keyboard-response,857,1408689,null,"VALVE",null,word,,,,, 'VALVE',,
html-keyboard-response,858,1409195,null,"BUGGY<img id = ""stim"" ><div class = red_square id = ""topsquare"" ></div><img id = ""stim"" ><div class = red_square  id = ""bottomsquare"" ></div>",null,word_square,response,0,none,true,,,
html-keyboard-response,859,1410702,null,"BUGGY",null,word,,,,, 'BUGGY',,
html-keyboard-response,860,1411125,421.96499999426305,"SHORTCAKE<img id = ""stim"" ><div class = green_square id = ""topsquare"" ></div><img id = ""stim"" ><div class = green_square  id = ""bottomsquare"" ></div>",32,word_square,response,1,Space,true,,,
html-keyboard-response,861,1412629,null,"SHORTCAKE",null,word,,,,, 'SHORTCAKE',,
html-keyboard-response,862,1413075,444.4749999968335,"BISCUIT<img id = ""stim"" ><div class = green_square id = ""topsquare"" ></div><img id = ""stim"" ><div class = green_square  id = ""bottomsquare"" ></div>",32,word_square,response,1,Space,true,,,
html-keyboard-response,863,1414589,null,"BISCUIT",null,word,,,,, 'BISCUIT',,
html-keyboard-response,864,1415095,null,"BINDER<img id = ""stim"" ><div class = red_square id = ""topsquare"" ></div><img id = ""stim"" ><div class = red_square  id = ""bottomsquare"" ></div>",null,word_square,response,0,none,true,,,
html-keyboard-response,865,1416607,null,"BINDER",null,word,,,,, 'BINDER',,
html-keyboard-response,866,1416958,348.9350000019185,"GODDESS<img id = ""stim"" ><div class = green_square id = ""topsquare"" ></div><img id = ""stim"" ><div class = green_square  id = ""bottomsquare"" ></div>",32,word_square,response,1,Space,true,,,
html-keyboard-response,867,1418470,null,"GODDESS",null,word,,,,, 'GODDESS',,
html-keyboard-response,868,1418974,null,"WORKER<img id = ""stim"" ><div class = red_square id = ""topsquare"" ></div><img id = ""stim"" ><div class = red_square  id = ""bottomsquare"" ></div>",null,word_square,response,0,none,true,,,
html-keyboard-response,869,1420482,null,"WORKER",null,word,,,,, 'WORKER',,
html-keyboard-response,870,1420984,null,"POISON<img id = ""stim"" ><div class = red_square id = ""topsquare"" ></div><img id = ""stim"" ><div class = red_square  id = ""bottomsquare"" ></div>",null,word_square,response,0,none,true,,,
html-keyboard-response,871,1422492,null,"POISON",null,word,,,,, 'POISON',,
html-keyboard-response,872,1422845,351.9350000061095,"HOOD<img id = ""stim"" ><div class = green_square id = ""topsquare"" ></div><img id = ""stim"" ><div class = green_square  id = ""bottomsquare"" ></div>",32,word_square,response,1,Space,true,,,
html-keyboard-response,873,1424357,null,"HOOD",null,word,,,,, 'HOOD',,
html-keyboard-response,874,1424872,null,"SUMMIT<img id = ""stim"" ><div class = red_square id = ""topsquare"" ></div><img id = ""stim"" ><div class = red_square  id = ""bottomsquare"" ></div>",null,word_square,response,0,none,true,,,
html-keyboard-response,875,1426379,null,"SUMMIT",null,word,,,,, 'SUMMIT',,
html-keyboard-response,876,1426723,341.9500000018161,"BLANKET<img id = ""stim"" ><div class = green_square id = ""topsquare"" ></div><img id = ""stim"" ><div class = green_square  id = ""bottomsquare"" ></div>",32,word_square,response,1,Space,true,,,
html-keyboard-response,877,1428232,null,"BLANKET",null,word,,,,, 'BLANKET',,
html-keyboard-response,878,1428737,null,"CITRUS<img id = ""stim"" ><div class = red_square id = ""topsquare"" ></div><img id = ""stim"" ><div class = red_square  id = ""bottomsquare"" ></div>",null,word_square,response,0,none,true,,,
html-keyboard-response,879,1430241,null,"CITRUS",null,word,,,,, 'CITRUS',,
html-keyboard-response,880,1430746,null,"MISTER<img id = ""stim"" ><div class = red_square id = ""topsquare"" ></div><img id = ""stim"" ><div class = red_square  id = ""bottomsquare"" ></div>",null,word_square,response,0,none,true,,,
html-keyboard-response,881,1432255,null,"MISTER",null,word,,,,, 'MISTER',,
html-keyboard-response,882,1432652,395.40000000130385,"SHELF<img id = ""stim"" ><div class = green_square id = ""topsquare"" ></div><img id = ""stim"" ><div class = green_square  id = ""bottomsquare"" ></div>",32,word_square,response,1,Space,true,,,
html-keyboard-response,883,1434168,null,"SHELF",null,word,,,,, 'SHELF',,
html-keyboard-response,884,1434592,422.2000000006519,"NEPTUNE<img id = ""stim"" ><div class = green_square id = ""topsquare"" ></div><img id = ""stim"" ><div class = green_square  id = ""bottomsquare"" ></div>",32,word_square,response,1,Space,true,,,
html-keyboard-response,885,1436106,null,"NEPTUNE",null,word,,,,, 'NEPTUNE',,
call-function,886,1436106,,"",,,,,,,,,
html-keyboard-response,887,1436223,null,"",null,,,,,,,,
math-period,888,1437775,2754.5900000114925,"",,,,,,,,,1
html-keyboard-response,889,1437884,null,"",null,,,,,,,,
math-period,890,1439493,3076.24999999837,"",,,,,,,,,1
html-keyboard-response,891,1439596,null,"",null,,,,,,,,
math-period,892,1440345,1306.359999995213,"",,,,,,,,,1
html-keyboard-response,893,1440458,null,"",null,,,,,,,,
math-period,894,1441551,2048.5049999915063,"",,,,,,,,,3
html-keyboard-response,895,1441667,null,"",null,,,,,,,,
math-period,896,1443068,2677.0799999942537,"",,,,,,,,,2
html-keyboard-response,897,1443170,null,"",null,,,,,,,,
math-period,898,1444694,2914.035000001313,"",,,,,,,,,2
html-keyboard-response,899,1444796,null,"",null,,,,,,,,
math-period,900,1446760,3814.0550000029616,"",,,,,,,,,1
html-keyboard-response,901,1446878,null,"",null,,,,,,,,
math-period,902,1450043,4483.800000001676,"",,,,,,,,,5
html-keyboard-response,903,1450146,null,"",null,,,,,,,,
math-period,904,1452281,3646.420000004582,"",,,,,,,,,5
html-keyboard-response,905,1452386,null,"",null,,,,,,,,
math-period,906,1453250,1580.9249999946915,"",,,,,,,,,3
html-keyboard-response,907,1453353,null,"",null,,,,,,,,
math-period,908,1454264,1676.8250000025146,"",,,,,,,,,5
html-keyboard-response,909,1454367,null,"",null,,,,,,,,
math-period,910,1455168,1437.764999995241,"",,,,,,,,,5
html-keyboard-response,911,1455273,null,"",null,,,,,,,,
math-period,912,1456359,2031.0949999983422,"",,,,,,,,,4
html-keyboard-response,913,1456475,null,"",null,,,,,,,,
math-period,914,1459507,5755.075000001118,"",,,,,,,,,6
html-keyboard-response,915,1459609,null,"",null,,,,,,,,
math-period,916,1460111,null,"",,,,,,,,,
html-keyboard-response,917,1461125,null,"Recall Period!",null,,,,,,,,
call-function,918,1461126,,"",,,,,,,,,
html-keyboard-response,919,1461228,null,"",null,,,,,,,,
recall-period,920,1463926,14293.184999974445,"",,,,,,,,,shepherd
html-keyboard-response,921,1464037,null,"",null,,,,,,,,
recall-period,922,1466884,15257.430000026943,"",,,,,,,,,goddess
html-keyboard-response,923,1466992,null,"",null,,,,,,,,
recall-period,924,1468499,6406.01000000583,"",,,,,,,,,neptune
html-keyboard-response,925,1468604,null,"",null,,,,,,,,
recall-period,926,1470579,9668.015000017127,"",,,,,,,,,blanket
html-keyboard-response,927,1470682,null,"",null,,,,,,,,
recall-period,928,1507764,255949.66999999457,"",,,,,,,,,mister
html-keyboard-response,929,1507867,null,"",null,,,,,,,,
recall-period,930,1536141,null,"",,,,,,,,,
html-keyboard-response,931,1536657,null,"Time's Up!",null,,,,,,,,
html-keyboard-response,932,1537714,1055.7450000050012,"<p> Good job! You responded correctly to 97% of the GREEN squares.</p>
                  <p>Be sure to keep your accuracy above 80%</p>
                  <p>Press any key to continue the experiment. Thank you!</p>",32,,,,,,,,
html-keyboard-response,933,1542740,5025.090000002878,"<div style=""font-size:48px;"">Press any key to begin list 10 of 24 </div>",32,,,,,,,,
html-keyboard-response,934,1545245,null,"<div style=""font-size:60px;"">+</div>",null,,,,,,,,
html-keyboard-response,935,1545754,null,"NEEDLE<img id = ""stim"" ><div class = red_square id = ""topsquare"" ></div><img id = ""stim"" ><div class = red_square  id = ""bottomsquare"" ></div>",null,word_square,response,0,none,true,,,
html-keyboard-response,936,1547262,null,"NEEDLE",null,word,,,,, 'NEEDLE',,
html-keyboard-response,937,1547704,440.86999999848194,"CANYON<img id = ""stim"" ><div class = green_square id = ""topsquare"" ></div><img id = ""stim"" ><div class = green_square  id = ""bottomsquare"" ></div>",32,word_square,response,1,Space,true,,,
html-keyboard-response,938,1549208,null,"CANYON",null,word,,,,, 'CANYON',,
html-keyboard-response,939,1549596,387.0299999981653,"SKUNK<img id = ""stim"" ><div class = green_square id = ""topsquare"" ></div><img id = ""stim"" ><div class = green_square  id = ""bottomsquare"" ></div>",32,word_square,response,1,Space,true,,,
html-keyboard-response,940,1551113,null,"SKUNK",null,word,,,,, 'SKUNK',,
html-keyboard-response,941,1551625,null,"POSTAGE<img id = ""stim"" ><div class = red_square id = ""topsquare"" ></div><img id = ""stim"" ><div class = red_square  id = ""bottomsquare"" ></div>",null,word_square,response,0,none,true,,,
html-keyboard-response,942,1553128,null,"POSTAGE",null,word,,,,, 'POSTAGE',,
html-keyboard-response,943,1553641,null,"VALLEY<img id = ""stim"" ><div class = red_square id = ""topsquare"" ></div><img id = ""stim"" ><div class = red_square  id = ""bottomsquare"" ></div>",null,word_square,response,0,none,true,,,
html-keyboard-response,944,1555148,null,"VALLEY",null,word,,,,, 'VALLEY',,
html-keyboard-response,945,1555511,361.80500000040047,"HOOK<img id = ""stim"" ><div class = green_square id = ""topsquare"" ></div><img id = ""stim"" ><div class = green_square  id = ""bottomsquare"" ></div>",32,word_square,response,1,Space,true,,,
html-keyboard-response,946,1557018,null,"HOOK",null,word,,,,, 'HOOK',,
html-keyboard-response,947,1557369,349.9250000023749,"SADDLE<img id = ""stim"" ><div class = green_square id = ""topsquare"" ></div><img id = ""stim"" ><div class = green_square  id = ""bottomsquare"" ></div>",32,word_square,response,1,Space,true,,,
html-keyboard-response,948,1558882,null,"SADDLE",null,word,,,,, 'SADDLE',,
