trial_type,trial_index,time_elapsed,rt,stimulus,key_press,test_part,task,targ_cond,correctKeyCode,correct,word,value,response
pavlovia,0,719,,"",,,,,,,,,
external-html,1,41750,40890.419999996084,"",,,,,,,,,
html-keyboard-response,2,44707,2952.5100000028033,"Welcome to the experiment. Press any key to begin.",32,,,,,,,,
html-keyboard-response,3,48580,3871.32500000007,"<p>You will see a list of words and colored squares in the following task.<p><p>Press the spacebar whenever you see a GREEN square.<p><p>Do not press a key if the square is RED<p><p>Press the spacebar to continue.</p>",32,,,,,,,,
html-keyboard-response,4,58685,9602.754999999888,"<p>Please try to remember as many of the words as you can, and try to think about the meaning of each word as it appears.<p><p>After the detection and encoding task you will be asked to solve some math problems for 24 seconds.<p> Please solve as many problems as you can in the time given. <p>",32,,,,,,,,
html-keyboard-response,5,67591,8403.729999998177,"After solving the math problems, you will be asked to type in as many words <p>from the previous list as you can remember for 75 seconds.<p> If you finish recalling before the 75 seconds are up,<p> just sit tight and try to think of any more words you could have missed. <p><p>We will begin with a brief practice session<p>Press the spacebar to begin the practice.</p>",32,,,,,,,,
html-keyboard-response,6,70098,null,"<div style=""font-size:60px;"">+</div>",null,,,,,,,,
html-keyboard-response,7,70603,64.4449999963399,"HAPPY<img id = ""stim"" ><div class = red_square id = ""topsquare"" ></div><img id = ""stim"" ><div class = red_square  id = ""bottomsquare"" ></div>",32,word_square,prac_response,0,none,true,,,
html-keyboard-response,8,72107,null,"HAPPY",null,word,,,,,HAPPY,,
html-keyboard-response,9,72613,null,"COLD<img id = ""stim"" ><div class = green_square id = ""topsquare"" ></div><img id = ""stim"" ><div class = green_square  id = ""bottomsquare"" ></div>",null,word_square,prac_response,1,Space,false,,,
html-keyboard-response,10,74117,null,"COLD",null,word,,,,,COLD,,
html-keyboard-response,11,74620,394.9250000005122,"HEAVY<img id = ""stim"" ><div class = green_square id = ""topsquare"" ></div><img id = ""stim"" ><div class = green_square  id = ""bottomsquare"" ></div>",32,word_square,prac_response,1,Space,true,,,
html-keyboard-response,12,76125,null,"HEAVY",null,word,,,,,HEAVY,,
html-keyboard-response,13,76632,279.8750000001746,"FUNNY<img id = ""stim"" ><div class = red_square id = ""topsquare"" ></div><img id = ""stim"" ><div class = red_square  id = ""bottomsquare"" ></div>",32,word_square,prac_response,0,none,true,,,
html-keyboard-response,14,78134,null,"FUNNY",null,word,,,,,FUNNY,,
html-keyboard-response,15,78639,331.079999996291,"SCARY<img id = ""stim"" ><div class = green_square id = ""topsquare"" ></div><img id = ""stim"" ><div class = green_square  id = ""bottomsquare"" ></div>",32,word_square,prac_response,1,Space,true,,,
html-keyboard-response,16,80143,null,"SCARY",null,word,,,,,SCARY,,
html-keyboard-response,17,80646,465.5449999991106,"PEACEFUL<img id = ""stim"" ><div class = green_square id = ""topsquare"" ></div><img id = ""stim"" ><div class = green_square  id = ""bottomsquare"" ></div>",32,word_square,prac_response,1,Space,true,,,
html-keyboard-response,18,82151,null,"PEACEFUL",null,word,,,,,PEACEFUL,,
html-keyboard-response,19,82654,null,"LITTLE<img id = ""stim"" ><div class = red_square id = ""topsquare"" ></div><img id = ""stim"" ><div class = red_square  id = ""bottomsquare"" ></div>",null,word_square,prac_response,0,none,true,,,
html-keyboard-response,20,84157,null,"LITTLE",null,word,,,,,LITTLE,,
html-keyboard-response,21,84662,null,"TIRED<img id = ""stim"" ><div class = red_square id = ""topsquare"" ></div><img id = ""stim"" ><div class = red_square  id = ""bottomsquare"" ></div>",null,word_square,prac_response,0,none,true,,,
html-keyboard-response,22,86167,null,"TIRED",null,word,,,,,TIRED,,
html-keyboard-response,23,86674,null,"ENTERTAINING<img id = ""stim"" ><div class = red_square id = ""topsquare"" ></div><img id = ""stim"" ><div class = red_square  id = ""bottomsquare"" ></div>",null,word_square,prac_response,0,none,true,,,
html-keyboard-response,24,88176,null,"ENTERTAINING",null,word,,,,,ENTERTAINING,,
html-keyboard-response,25,88678,492.35500000213506,"GRATEFUL<img id = ""stim"" ><div class = green_square id = ""topsquare"" ></div><img id = ""stim"" ><div class = green_square  id = ""bottomsquare"" ></div>",32,word_square,prac_response,1,Space,true,,,
html-keyboard-response,26,90180,null,"GRATEFUL",null,word,,,,,GRATEFUL,,
html-keyboard-response,27,90683,null,"LOUD<img id = ""stim"" ><div class = red_square id = ""topsquare"" ></div><img id = ""stim"" ><div class = red_square  id = ""bottomsquare"" ></div>",null,word_square,prac_response,0,none,true,,,
html-keyboard-response,28,92188,null,"LOUD",null,word,,,,,LOUD,,
html-keyboard-response,29,92691,466.2349999998696,"SMART<img id = ""stim"" ><div class = green_square id = ""topsquare"" ></div><img id = ""stim"" ><div class = green_square  id = ""bottomsquare"" ></div>",32,word_square,prac_response,1,Space,true,,,
html-keyboard-response,30,94196,null,"SMART",null,word,,,,,SMART,,
html-keyboard-response,31,94701,502.97000000136904,"SMOOTH<img id = ""stim"" ><div class = green_square id = ""topsquare"" ></div><img id = ""stim"" ><div class = green_square  id = ""bottomsquare"" ></div>",32,word_square,prac_response,1,Space,true,,,
html-keyboard-response,32,96205,null,"SMOOTH",null,word,,,,,SMOOTH,,
html-keyboard-response,33,96710,null,"DISHONEST<img id = ""stim"" ><div class = red_square id = ""topsquare"" ></div><img id = ""stim"" ><div class = red_square  id = ""bottomsquare"" ></div>",null,word_square,prac_response,0,none,true,,,
html-keyboard-response,34,98214,null,"DISHONEST",null,word,,,,,DISHONEST,,
html-keyboard-response,35,98717,null,"WEALTHY<img id = ""stim"" ><div class = green_square id = ""topsquare"" ></div><img id = ""stim"" ><div class = green_square  id = ""bottomsquare"" ></div>",null,word_square,prac_response,1,Space,false,,,
html-keyboard-response,36,100222,null,"WEALTHY",null,word,,,,,WEALTHY,,
html-keyboard-response,37,100726,null,"BEAUTIFUL<img id = ""stim"" ><div class = red_square id = ""topsquare"" ></div><img id = ""stim"" ><div class = red_square  id = ""bottomsquare"" ></div>",null,word_square,prac_response,0,none,true,,,
html-keyboard-response,38,102232,null,"BEAUTIFUL",null,word,,,,,BEAUTIFUL,,
html-keyboard-response,39,102734,null,"DREARY<img id = ""stim"" ><div class = red_square id = ""topsquare"" ></div><img id = ""stim"" ><div class = red_square  id = ""bottomsquare"" ></div>",null,word_square,prac_response,0,none,true,,,
html-keyboard-response,40,104241,null,"DREARY",null,word,,,,,DREARY,,
html-keyboard-response,41,104746,470.8749999990687,"PLAYFUL<img id = ""stim"" ><div class = green_square id = ""topsquare"" ></div><img id = ""stim"" ><div class = green_square  id = ""bottomsquare"" ></div>",32,word_square,prac_response,1,Space,true,,,
html-keyboard-response,42,106250,null,"PLAYFUL",null,word,,,,,PLAYFUL,,
html-keyboard-response,43,109311,3056.560000004538,"<p> Good job! You responded correctly to 89% of the GREEN squares.</p>
                  <p>Be sure to keep your accuracy above 80%</p>
                  <p>We're going to try once more to make sure you understand  the task. press any key to continue. </p>",32,,,,,,,,
html-keyboard-response,44,110849,1536.245000002964,"<p>You will see a list of words and colored squares in the following task.<p><p>Press the spacebar whenever you see a GREEN square.<p><p>Do not press a key if the square is RED<p><p>Press the spacebar to continue.</p>",32,,,,,,,,
html-keyboard-response,45,113356,null,"<div style=""font-size:60px;"">+</div>",null,,,,,,,,
html-keyboard-response,46,113863,null,"HAPPY<img id = ""stim"" ><div class = red_square id = ""topsquare"" ></div><img id = ""stim"" ><div class = red_square  id = ""bottomsquare"" ></div>",null,word_square,response,0,none,true,,,
html-keyboard-response,47,115366,null,"HAPPY",null,word,,,,,HAPPY,,
html-keyboard-response,48,115773,404.965000001539,"COLD<img id = ""stim"" ><div class = green_square id = ""topsquare"" ></div><img id = ""stim"" ><div class = green_square  id = ""bottomsquare"" ></div>",32,word_square,response,1,Space,true,,,
html-keyboard-response,49,117277,null,"COLD",null,word,,,,,COLD,,
html-keyboard-response,50,117730,451.5099999989616,"HEAVY<img id = ""stim"" ><div class = green_square id = ""topsquare"" ></div><img id = ""stim"" ><div class = green_square  id = ""bottomsquare"" ></div>",32,word_square,response,1,Space,true,,,
html-keyboard-response,51,119234,null,"HEAVY",null,word,,,,,HEAVY,,
html-keyboard-response,52,119739,null,"FUNNY<img id = ""stim"" ><div class = red_square id = ""topsquare"" ></div><img id = ""stim"" ><div class = red_square  id = ""bottomsquare"" ></div>",null,word_square,response,0,none,true,,,
html-keyboard-response,53,121246,null,"FUNNY",null,word,,,,,FUNNY,,
html-keyboard-response,54,121647,398.56000000145286,"SCARY<img id = ""stim"" ><div class = green_square id = ""topsquare"" ></div><img id = ""stim"" ><div class = green_square  id = ""bottomsquare"" ></div>",32,word_square,response,1,Space,true,,,
html-keyboard-response,55,123154,null,"SCARY",null,word,,,,,SCARY,,
html-keyboard-response,56,123657,null,"PEACEFUL<img id = ""stim"" ><div class = green_square id = ""topsquare"" ></div><img id = ""stim"" ><div class = green_square  id = ""bottomsquare"" ></div>",null,word_square,response,1,Space,false,,,
html-keyboard-response,57,125159,null,"PEACEFUL",null,word,,,,,PEACEFUL,,
html-keyboard-response,58,125667,null,"LITTLE<img id = ""stim"" ><div class = red_square id = ""topsquare"" ></div><img id = ""stim"" ><div class = red_square  id = ""bottomsquare"" ></div>",null,word_square,response,0,none,true,,,
html-keyboard-response,59,127174,null,"LITTLE",null,word,,,,,LITTLE,,
html-keyboard-response,60,127676,null,"TIRED<img id = ""stim"" ><div class = red_square id = ""topsquare"" ></div><img id = ""stim"" ><div class = red_square  id = ""bottomsquare"" ></div>",null,word_square,response,0,none,true,,,
html-keyboard-response,61,129181,null,"TIRED",null,word,,,,,TIRED,,
html-keyboard-response,62,129689,null,"ENTERTAINING<img id = ""stim"" ><div class = red_square id = ""topsquare"" ></div><img id = ""stim"" ><div class = red_square  id = ""bottomsquare"" ></div>",null,word_square,response,0,none,true,,,
html-keyboard-response,63,131195,null,"ENTERTAINING",null,word,,,,,ENTERTAINING,,
html-keyboard-response,64,131699,null,"GRATEFUL<img id = ""stim"" ><div class = green_square id = ""topsquare"" ></div><img id = ""stim"" ><div class = green_square  id = ""bottomsquare"" ></div>",null,word_square,response,1,Space,false,,,
html-keyboard-response,65,133205,null,"GRATEFUL",null,word,,,,,GRATEFUL,,
html-keyboard-response,66,133709,null,"LOUD<img id = ""stim"" ><div class = red_square id = ""topsquare"" ></div><img id = ""stim"" ><div class = red_square  id = ""bottomsquare"" ></div>",null,word_square,response,0,none,true,,,
html-keyboard-response,67,135215,null,"LOUD",null,word,,,,,LOUD,,
html-keyboard-response,68,135723,null,"SMART<img id = ""stim"" ><div class = green_square id = ""topsquare"" ></div><img id = ""stim"" ><div class = green_square  id = ""bottomsquare"" ></div>",null,word_square,response,1,Space,false,,,
html-keyboard-response,69,137230,null,"SMART",null,word,,,,,SMART,,
html-keyboard-response,70,137604,371.7949999991106,"SMOOTH<img id = ""stim"" ><div class = green_square id = ""topsquare"" ></div><img id = ""stim"" ><div class = green_square  id = ""bottomsquare"" ></div>",32,word_square,response,1,Space,true,,,
html-keyboard-response,71,139109,null,"SMOOTH",null,word,,,,,SMOOTH,,
html-keyboard-response,72,139614,null,"DISHONEST<img id = ""stim"" ><div class = red_square id = ""topsquare"" ></div><img id = ""stim"" ><div class = red_square  id = ""bottomsquare"" ></div>",null,word_square,response,0,none,true,,,
html-keyboard-response,73,141117,null,"DISHONEST",null,word,,,,,DISHONEST,,
html-keyboard-response,74,141506,386.7249999966589,"WEALTHY<img id = ""stim"" ><div class = green_square id = ""topsquare"" ></div><img id = ""stim"" ><div class = green_square  id = ""bottomsquare"" ></div>",32,word_square,response,1,Space,true,,,
html-keyboard-response,75,143009,null,"WEALTHY",null,word,,,,,WEALTHY,,
html-keyboard-response,76,143516,null,"BEAUTIFUL<img id = ""stim"" ><div class = red_square id = ""topsquare"" ></div><img id = ""stim"" ><div class = red_square  id = ""bottomsquare"" ></div>",null,word_square,response,0,none,true,,,
html-keyboard-response,77,145023,null,"BEAUTIFUL",null,word,,,,,BEAUTIFUL,,
html-keyboard-response,78,145528,null,"DREARY<img id = ""stim"" ><div class = red_square id = ""topsquare"" ></div><img id = ""stim"" ><div class = red_square  id = ""bottomsquare"" ></div>",null,word_square,response,0,none,true,,,
html-keyboard-response,79,147034,null,"DREARY",null,word,,,,,DREARY,,
html-keyboard-response,80,147516,477.3799999966286,"PLAYFUL<img id = ""stim"" ><div class = green_square id = ""topsquare"" ></div><img id = ""stim"" ><div class = green_square  id = ""bottomsquare"" ></div>",32,word_square,response,1,Space,true,,,
html-keyboard-response,81,149018,null,"PLAYFUL",null,word,,,,,PLAYFUL,,
html-keyboard-response,82,153559,4539.075000000594,"<p> Good job! You responded correctly to 83% of the GREEN squares.</p>
                  <p>Be sure to keep your accuracy above 80%</p>
                  <p>Press any key to begin the math and recall sections. Thank you!</p>",32,,,,,,,,
call-function,83,153561,,"",,,,,,,,,
html-keyboard-response,84,153666,null,"",null,,,,,,,,
math-period,85,158701,8408.779999997932,"",,,,,,,,,2
html-keyboard-response,86,158805,null,"",null,,,,,,,,
math-period,87,160930,4092.4250000025495,"",,,,,,,,,5
html-keyboard-response,88,161034,null,"",null,,,,,,,,
math-period,89,162001,1816.8600000062725,"",,,,,,,,,5
html-keyboard-response,90,162103,null,"",null,,,,,,,,
math-period,91,163154,1976.970000003348,"",,,,,,,,,3
html-keyboard-response,92,163257,null,"",null,,,,,,,,
math-period,93,164180,921.3000000017928,"",,,,,,,,,
html-keyboard-response,94,164283,null,"",null,,,,,,,,
math-period,95,165324,1940.9950000044773,"",,,,,,,,,5
html-keyboard-response,96,165428,null,"",null,,,,,,,,
math-period,97,166837,2701.374999989639,"",,,,,,,,,1
html-keyboard-response,98,166944,null,"",null,,,,,,,,
math-period,99,168056,2136.0349999959,"",,,,,,,,,4
html-keyboard-response,100,168157,null,"",null,,,,,,,,
math-period,101,169224,2037.270000007993,"",,,,,,,,,5
html-keyboard-response,102,169328,null,"",null,,,,,,,,
math-period,103,172404,5886.689999999362,"",,,,,,,,,2
html-keyboard-response,104,172508,null,"",null,,,,,,,,
math-period,105,174207,3271.374999996624,"",,,,,,,,,2
html-keyboard-response,106,174313,null,"",null,,,,,,,,
math-period,107,175467,2189.135000007809,"",,,,,,,,,2
html-keyboard-response,108,175570,null,"",null,,,,,,,,
math-period,109,177220,3202.1550000063144,"",,,,,,,,,3
html-keyboard-response,110,177327,null,"",null,,,,,,,,
math-period,111,177567,null,"",,,,,,,,,
html-keyboard-response,112,178570,null,"Recall Period!",null,,,,,,,,
call-function,113,178571,,"",,,,,,,,,
html-keyboard-response,114,178677,null,"",null,,,,,,,,
recall-period,115,178722,42.5050000048941,"",,,,,,,,,
html-keyboard-response,116,178825,null,"",null,,,,,,,,
recall-period,117,183225,20780.769999990298,"",,,,,,,,,cold
html-keyboard-response,118,183330,null,"",null,,,,,,,,
recall-period,119,184331,3306.1649999872316,"",,,,,,,,,heavy
html-keyboard-response,120,184435,null,"",null,,,,,,,,
recall-period,121,186436,7178.095000010217,"",,,,,,,,,sad
html-keyboard-response,122,186540,null,"",null,,,,,,,,
recall-period,123,187381,2686.5749999851687,"",,,,,,,,,happy
html-keyboard-response,124,187485,null,"",null,,,,,,,,
recall-period,125,232410,178923.14000001352,"",,,,,,,,,sad
html-keyboard-response,126,232514,null,"",null,,,,,,,,
recall-period,127,254012,null,"",,,,,,,,,
html-keyboard-response,128,254989,null,"Time's Up!",null,,,,,,,,
html-keyboard-response,129,271153,16162.940000001981,"<p>We will now begin the experiment!<p><p>Please try to remember all words from each list.<p><p>Press the spacebar whenever you see a GREEN square.<p><p><p><p>Press the spacebar to begin.</p>",32,,,,,,,,
html-keyboard-response,130,273601,1941.9350000025588,"<div style=""font-size:48px;"">Press any key to begin list 1 of 24 </div>",32,,,,,,,,
html-keyboard-response,131,276104,null,"<div style=""font-size:60px;"">+</div>",null,,,,,,,,
html-keyboard-response,132,276611,null,"THRONE<img id = ""stim"" ><div class = red_square id = ""topsquare"" ></div><img id = ""stim"" ><div class = red_square  id = ""bottomsquare"" ></div>",null,word_square,response,0,none,true,,,
html-keyboard-response,133,278113,null,"THRONE",null,word,,,,, 'THRONE',,
html-keyboard-response,134,278616,null,"CATTLE<img id = ""stim"" ><div class = red_square id = ""topsquare"" ></div><img id = ""stim"" ><div class = red_square  id = ""bottomsquare"" ></div>",null,word_square,response,0,none,true,,,
html-keyboard-response,135,280118,null,"CATTLE",null,word,,,,, 'CATTLE',,
html-keyboard-response,136,280451,331.14499999646796,"MOP<img id = ""stim"" ><div class = green_square id = ""topsquare"" ></div><img id = ""stim"" ><div class = green_square  id = ""bottomsquare"" ></div>",32,word_square,response,1,Space,true,,,
html-keyboard-response,137,281957,null,"MOP",null,word,,,,, 'MOP',,
html-keyboard-response,138,282461,null,"OUTFIT<img id = ""stim"" ><div class = red_square id = ""topsquare"" ></div><img id = ""stim"" ><div class = red_square  id = ""bottomsquare"" ></div>",null,word_square,response,0,none,true,,,
html-keyboard-response,139,283968,null,"OUTFIT",null,word,,,,, 'OUTFIT',,
html-keyboard-response,140,284475,null,"KITCHEN<img id = ""stim"" ><div class = red_square id = ""topsquare"" ></div><img id = ""stim"" ><div class = red_square  id = ""bottomsquare"" ></div>",null,word_square,response,0,none,true,,,
html-keyboard-response,141,285977,null,"KITCHEN",null,word,,,,, 'KITCHEN',,
html-keyboard-response,142,286483,null,"VILLAGE<img id = ""stim"" ><div class = green_square id = ""topsquare"" ></div><img id = ""stim"" ><div class = green_square  id = ""bottomsquare"" ></div>",null,word_square,response,1,Space,false,,,
html-keyboard-response,143,287989,null,"VILLAGE",null,word,,,,, 'VILLAGE',,
html-keyboard-response,144,288493,null,"JOKER<img id = ""stim"" ><div class = red_square id = ""topsquare"" ></div><img id = ""stim"" ><div class = red_square  id = ""bottomsquare"" ></div>",null,word_square,response,0,none,true,,,
html-keyboard-response,145,290000,null,"JOKER",null,word,,,,, 'JOKER',,
html-keyboard-response,146,290449,446.28499999816995,"PRAIRIE<img id = ""stim"" ><div class = green_square id = ""topsquare"" ></div><img id = ""stim"" ><div class = green_square  id = ""bottomsquare"" ></div>",32,word_square,response,1,Space,true,,,
html-keyboard-response,147,291952,null,"PRAIRIE",null,word,,,,, 'PRAIRIE',,
html-keyboard-response,148,292459,null,"MARS<img id = ""stim"" ><div class = red_square id = ""topsquare"" ></div><img id = ""stim"" ><div class = red_square  id = ""bottomsquare"" ></div>",null,word_square,response,0,none,true,,,
html-keyboard-response,149,293963,null,"MARS",null,word,,,,, 'MARS',,
html-keyboard-response,150,294470,null,"GROUND<img id = ""stim"" ><div class = red_square id = ""topsquare"" ></div><img id = ""stim"" ><div class = red_square  id = ""bottomsquare"" ></div>",null,word_square,response,0,none,true,,,
html-keyboard-response,151,295973,null,"GROUND",null,word,,,,, 'GROUND',,
html-keyboard-response,152,296420,444.42500000150176,"BUG<img id = ""stim"" ><div class = green_square id = ""topsquare"" ></div><img id = ""stim"" ><div class = green_square  id = ""bottomsquare"" ></div>",32,word_square,response,1,Space,true,,,
html-keyboard-response,153,297926,null,"BUG",null,word,,,,, 'BUG',,
html-keyboard-response,154,298433,null,"COCOON<img id = ""stim"" ><div class = green_square id = ""topsquare"" ></div><img id = ""stim"" ><div class = green_square  id = ""bottomsquare"" ></div>",null,word_square,response,1,Space,false,,,
html-keyboard-response,155,299936,null,"COCOON",null,word,,,,, 'COCOON',,
html-keyboard-response,156,300443,null,"BUSH<img id = ""stim"" ><div class = red_square id = ""topsquare"" ></div><img id = ""stim"" ><div class = red_square  id = ""bottomsquare"" ></div>",null,word_square,response,0,none,true,,,
html-keyboard-response,157,301950,null,"BUSH",null,word,,,,, 'BUSH',,
html-keyboard-response,158,302348,395.6650000036461,"WALNUT<img id = ""stim"" ><div class = green_square id = ""topsquare"" ></div><img id = ""stim"" ><div class = green_square  id = ""bottomsquare"" ></div>",32,word_square,response,1,Space,true,,,
html-keyboard-response,159,303852,null,"WALNUT",null,word,,,,, 'WALNUT',,
html-keyboard-response,160,304357,null,"TRUCK<img id = ""stim"" ><div class = green_square id = ""topsquare"" ></div><img id = ""stim"" ><div class = green_square  id = ""bottomsquare"" ></div>",null,word_square,response,1,Space,false,,,
html-keyboard-response,161,305861,null,"TRUCK",null,word,,,,, 'TRUCK',,
html-keyboard-response,162,306225,361.32500000530854,"DRIVER<img id = ""stim"" ><div class = green_square id = ""topsquare"" ></div><img id = ""stim"" ><div class = green_square  id = ""bottomsquare"" ></div>",32,word_square,response,1,Space,true,,,
html-keyboard-response,163,307732,null,"DRIVER",null,word,,,,, 'DRIVER',,
html-keyboard-response,164,308234,null,"SEASHORE<img id = ""stim"" ><div class = red_square id = ""topsquare"" ></div><img id = ""stim"" ><div class = red_square  id = ""bottomsquare"" ></div>",null,word_square,response,0,none,true,,,
html-keyboard-response,165,309739,null,"SEASHORE",null,word,,,,, 'SEASHORE',,
html-keyboard-response,166,310192,450.9849999958533,"SUBURB<img id = ""stim"" ><div class = green_square id = ""topsquare"" ></div><img id = ""stim"" ><div class = green_square  id = ""bottomsquare"" ></div>",32,word_square,response,1,Space,true,,,
html-keyboard-response,167,311694,null,"SUBURB",null,word,,,,, 'SUBURB',,
call-function,168,311696,,"",,,,,,,,,
html-keyboard-response,169,311801,null,"",null,,,,,,,,
math-period,170,315732,8580.415000003995,"",,,,,,,,,5 
html-keyboard-response,171,315838,null,"",null,,,,,,,,
math-period,172,317003,2216.7649999973946,"",,,,,,,,,2
html-keyboard-response,173,317106,null,"",null,,,,,,,,
math-period,174,318034,1768.724999994447,"",,,,,,,,,3
html-keyboard-response,175,318137,null,"",null,,,,,,,,
math-period,176,320302,4095.744999998715,"",,,,,,,,,0
html-keyboard-response,177,320406,null,"",null,,,,,,,,
math-period,178,322329,3688.55999999505,"",,,,,,,,,1
html-keyboard-response,179,322433,null,"",null,,,,,,,,
math-period,180,324055,3137.6100000052247,"",,,,,,,,,1
html-keyboard-response,181,324159,null,"",null,,,,,,,,
math-period,182,325202,2005.5049999937182,"",,,,,,,,,4
html-keyboard-response,183,325306,null,"",null,,,,,,,,
math-period,184,327252,3801.1550000082934,"",,,,,,,,,3
html-keyboard-response,185,327360,null,"",null,,,,,,,,
math-period,186,328432,2049.2250000024796,"",,,,,,,,,3
html-keyboard-response,187,328536,null,"",null,,,,,,,,
math-period,188,330048,2911.215000000084,"",,,,,,,,,3
html-keyboard-response,189,330153,null,"",null,,,,,,,,
math-period,190,331471,2527.285000003758,"",,,,,,,,,5
html-keyboard-response,191,331575,null,"",null,,,,,,,,
math-period,192,332731,2192.220000004454,"",,,,,,,,,5
html-keyboard-response,193,332836,null,"",null,,,,,,,,
math-period,194,334694,3568.504999995639,"",,,,,,,,,4
html-keyboard-response,195,334797,null,"",null,,,,,,,,
math-period,196,335701,851.2350000019069,"",,,,,,,,,3
html-keyboard-response,197,336704,null,"Recall Period!",null,,,,,,,,
call-function,198,336706,,"",,,,,,,,,
html-keyboard-response,199,336812,null,"",null,,,,,,,,
recall-period,200,339230,14060.715000006894,"",,,,,,,,,walnut
html-keyboard-response,201,339335,null,"",null,,,,,,,,
recall-period,202,340573,4830.594999984896,"",,,,,,,,,suburb
html-keyboard-response,203,340677,null,"",null,,,,,,,,
recall-period,204,342172,6725.529999966966,"",,,,,,,,,cocoon
html-keyboard-response,205,342277,null,"",null,,,,,,,,
recall-period,206,350321,71569.54000002588,"",,,,,,,,,prairie
html-keyboard-response,207,350425,null,"",null,,,,,,,,
recall-period,208,351291,3797.039999975823,"",,,,,,,,,village
html-keyboard-response,209,351393,null,"",null,,,,,,,,
recall-period,210,377611,654820.8150000938,"",,,,,,,,,village
html-keyboard-response,211,377713,null,"",null,,,,,,,,
recall-period,212,413082,null,"",,,,,,,,,
html-keyboard-response,213,413714,null,"Time's Up!",null,,,,,,,,
html-keyboard-response,214,419097,5381.795000001148,"<p> Good job! You responded correctly to 83% of the GREEN squares.</p>
                  <p>Be sure to keep your accuracy above 80%</p>
                  <p>Press any key to continue the experiment. Thank you!</p>",13,,,,,,,,
html-keyboard-response,215,420877,1778.664999998,"<div style=""font-size:48px;"">Press any key to begin list 2 of 24 </div>",13,,,,,,,,
html-keyboard-response,216,423381,null,"<div style=""font-size:60px;"">+</div>",null,,,,,,,,
html-keyboard-response,217,423885,null,"BUNNY<img id = ""stim"" ><div class = red_square id = ""topsquare"" ></div><img id = ""stim"" ><div class = red_square  id = ""bottomsquare"" ></div>",null,word_square,response,0,none,true,,,
html-keyboard-response,218,425389,null,"BUNNY",null,word,,,,, 'BUNNY',,
html-keyboard-response,219,425891,null,"RAZOR<img id = ""stim"" ><div class = red_square id = ""topsquare"" ></div><img id = ""stim"" ><div class = red_square  id = ""bottomsquare"" ></div>",null,word_square,response,0,none,true,,,
html-keyboard-response,220,427394,null,"RAZOR",null,word,,,,, 'RAZOR',,
html-keyboard-response,221,427899,null,"MAILMAN<img id = ""stim"" ><div class = green_square id = ""topsquare"" ></div><img id = ""stim"" ><div class = green_square  id = ""bottomsquare"" ></div>",null,word_square,response,1,Space,false,,,
html-keyboard-response,222,429402,null,"MAILMAN",null,word,,,,, 'MAILMAN',,
html-keyboard-response,223,429909,null,"HAWK<img id = ""stim"" ><div class = red_square id = ""topsquare"" ></div><img id = ""stim"" ><div class = red_square  id = ""bottomsquare"" ></div>",null,word_square,response,0,none,true,,,
html-keyboard-response,224,431412,null,"HAWK",null,word,,,,, 'HAWK',,
html-keyboard-response,225,431916,null,"WRENCH<img id = ""stim"" ><div class = red_square id = ""topsquare"" ></div><img id = ""stim"" ><div class = red_square  id = ""bottomsquare"" ></div>",null,word_square,response,0,none,true,,,
html-keyboard-response,226,433421,null,"WRENCH",null,word,,,,, 'WRENCH',,
html-keyboard-response,227,433925,null,"POSTAGE<img id = ""stim"" ><div class = green_square id = ""topsquare"" ></div><img id = ""stim"" ><div class = green_square  id = ""bottomsquare"" ></div>",null,word_square,response,1,Space,false,,,
html-keyboard-response,228,435432,null,"POSTAGE",null,word,,,,, 'POSTAGE',,
html-keyboard-response,229,435934,null,"LOBBY<img id = ""stim"" ><div class = red_square id = ""topsquare"" ></div><img id = ""stim"" ><div class = red_square  id = ""bottomsquare"" ></div>",null,word_square,response,0,none,true,,,
html-keyboard-response,230,437439,null,"LOBBY",null,word,,,,, 'LOBBY',,
html-keyboard-response,231,437902,461.4399999991292,"TEAPOT<img id = ""stim"" ><div class = green_square id = ""topsquare"" ></div><img id = ""stim"" ><div class = green_square  id = ""bottomsquare"" ></div>",32,word_square,response,1,Space,true,,,
html-keyboard-response,232,439408,null,"TEAPOT",null,word,,,,, 'TEAPOT',,
html-keyboard-response,233,439912,null,"RECORD<img id = ""stim"" ><div class = red_square id = ""topsquare"" ></div><img id = ""stim"" ><div class = red_square  id = ""bottomsquare"" ></div>",null,word_square,response,0,none,true,,,
html-keyboard-response,234,441418,null,"RECORD",null,word,,,,, 'RECORD',,
html-keyboard-response,235,441925,null,"HERO<img id = ""stim"" ><div class = red_square id = ""topsquare"" ></div><img id = ""stim"" ><div class = red_square  id = ""bottomsquare"" ></div>",null,word_square,response,0,none,true,,,
html-keyboard-response,236,443430,null,"HERO",null,word,,,,, 'HERO',,
html-keyboard-response,237,443879,447.56000000052154,"SANDWICH<img id = ""stim"" ><div class = green_square id = ""topsquare"" ></div><img id = ""stim"" ><div class = green_square  id = ""bottomsquare"" ></div>",32,word_square,response,1,Space,true,,,
html-keyboard-response,238,445383,null,"SANDWICH",null,word,,,,, 'SANDWICH',,
html-keyboard-response,239,445889,null,"FIREMAN<img id = ""stim"" ><div class = green_square id = ""topsquare"" ></div><img id = ""stim"" ><div class = green_square  id = ""bottomsquare"" ></div>",null,word_square,response,1,Space,false,,,
html-keyboard-response,240,447394,null,"FIREMAN",null,word,,,,, 'FIREMAN',,
html-keyboard-response,241,447897,null,"DRILL<img id = ""stim"" ><div class = red_square id = ""topsquare"" ></div><img id = ""stim"" ><div class = red_square  id = ""bottomsquare"" ></div>",null,word_square,response,0,none,true,,,
html-keyboard-response,242,449404,null,"DRILL",null,word,,,,, 'DRILL',,
html-keyboard-response,243,449886,479.43499999382766,"DOG<img id = ""stim"" ><div class = green_square id = ""topsquare"" ></div><img id = ""stim"" ><div class = green_square  id = ""bottomsquare"" ></div>",32,word_square,response,1,Space,true,,,
html-keyboard-response,244,451393,null,"DOG",null,word,,,,, 'DOG',,
html-keyboard-response,245,451846,451.3250000018161,"BELT<img id = ""stim"" ><div class = green_square id = ""topsquare"" ></div><img id = ""stim"" ><div class = green_square  id = ""bottomsquare"" ></div>",32,word_square,response,1,Space,true,,,
html-keyboard-response,246,453348,null,"BELT",null,word,,,,, 'BELT',,
html-keyboard-response,247,453812,461.3499999977648,"GUITAR<img id = ""stim"" ><div class = green_square id = ""topsquare"" ></div><img id = ""stim"" ><div class = green_square  id = ""bottomsquare"" ></div>",32,word_square,response,1,Space,true,,,
html-keyboard-response,248,455319,null,"GUITAR",null,word,,,,, 'GUITAR',,
html-keyboard-response,249,455826,null,"PIZZA<img id = ""stim"" ><div class = red_square id = ""topsquare"" ></div><img id = ""stim"" ><div class = red_square  id = ""bottomsquare"" ></div>",null,word_square,response,0,none,true,,,
html-keyboard-response,250,457333,null,"PIZZA",null,word,,,,, 'PIZZA',,
html-keyboard-response,251,457728,393.3400000023539,"BEEF<img id = ""stim"" ><div class = green_square id = ""topsquare"" ></div><img id = ""stim"" ><div class = green_square  id = ""bottomsquare"" ></div>",32,word_square,response,1,Space,true,,,
html-keyboard-response,252,459233,null,"BEEF",null,word,,,,, 'BEEF',,
call-function,253,459235,,"",,,,,,,,,
html-keyboard-response,254,459342,null,"",null,,,,,,,,
math-period,255,461673,4568.445000004431,"",,,,,,,,,3
html-keyboard-response,256,461778,null,"",null,,,,,,,,
math-period,257,462652,1678.4600000100909,"",,,,,,,,,3
html-keyboard-response,258,462757,null,"",null,,,,,,,,
math-period,259,464040,2495.885000003909,"",,,,,,,,,4
html-keyboard-response,260,464145,null,"",null,,,,,,,,
math-period,261,465290,2212.9149999964284,"",,,,,,,,,2
html-keyboard-response,262,465397,null,"",null,,,,,,,,
math-period,263,466624,2373.5349999915343,"",,,,,,,,,2
html-keyboard-response,264,466727,null,"",null,,,,,,,,
math-period,265,467892,2246.7300000062096,"",,,,,,,,,5
html-keyboard-response,266,467996,null,"",null,,,,,,,,
math-period,267,469264,2460.945000006177,"",,,,,,,,,3
html-keyboard-response,268,469368,null,"",null,,,,,,,,
math-period,269,470545,2240.3400000112015,"",,,,,,,,,5
html-keyboard-response,270,470649,null,"",null,,,,,,,,
math-period,271,471646,1896.6050000017276,"",,,,,,,,,4
html-keyboard-response,272,471749,null,"",null,,,,,,,,
math-period,273,472804,1994.2950000040582,"",,,,,,,,,4
html-keyboard-response,274,472907,null,"",null,,,,,,,,
math-period,275,474163,2420.7600000081584,"",,,,,,,,,5
html-keyboard-response,276,474268,null,"",null,,,,,,,,
math-period,277,477334,5681.824999992386,"",,,,,,,,,2
html-keyboard-response,278,477438,null,"",null,,,,,,,,
math-period,279,478639,2310.7600000075763,"",,,,,,,,,5
html-keyboard-response,280,478743,null,"",null,,,,,,,,
math-period,281,480628,3664.875000002212,"",,,,,,,,,1
html-keyboard-response,282,480731,null,"",null,,,,,,,,
math-period,283,483238,2140.964999998687,"",,,,,,,,,1
html-keyboard-response,284,484241,null,"Recall Period!",null,,,,,,,,
call-function,285,484242,,"",,,,,,,,,
html-keyboard-response,286,484346,null,"",null,,,,,,,,
recall-period,287,486526,10005.059999988589,"",,,,,,,,,dog
html-keyboard-response,288,486630,null,"",null,,,,,,,,
recall-period,289,487478,2430.8450000098674,"",,,,,,,,,belt
html-keyboard-response,290,487582,null,"",null,,,,,,,,
recall-period,291,488668,4741.87999998685,"",,,,,,,,,mailman
html-keyboard-response,292,488771,null,"",null,,,,,,,,
recall-period,293,491537,12457.56500002608,"",,,,,,,,,guitar
html-keyboard-response,294,491640,null,"",null,,,,,,,,
recall-period,295,559246,199608.45000004338,"",,,,,,,,,
html-keyboard-response,296,559754,null,"Time's Up!",null,,,,,,,,
html-keyboard-response,297,560921,1165.64500000095,"<p> Good job! You responded correctly to 83% of the GREEN squares.</p>
                  <p>Be sure to keep your accuracy above 80%</p>
                  <p>Press any key to continue the experiment. Thank you!</p>",32,,,,,,,,
html-keyboard-response,298,563407,2484.055000000866,"<div style=""font-size:48px;"">Press any key to begin list 3 of 24 </div>",75,,,,,,,,
html-keyboard-response,299,565914,null,"<div style=""font-size:60px;"">+</div>",null,,,,,,,,
html-keyboard-response,300,566421,null,"PORPOISE<img id = ""stim"" ><div class = green_square id = ""topsquare"" ></div><img id = ""stim"" ><div class = green_square  id = ""bottomsquare"" ></div>",null,word_square,response,1,Space,false,,,
html-keyboard-response,301,567923,null,"PORPOISE",null,word,,,,, 'PORPOISE',,
html-keyboard-response,302,568064,138.9400000043679,"NIGHTGOWN<img id = ""stim"" ><div class = green_square id = ""topsquare"" ></div><img id = ""stim"" ><div class = green_square  id = ""bottomsquare"" ></div>",32,word_square,response,1,Space,true,,,
html-keyboard-response,303,569569,null,"NIGHTGOWN",null,word,,,,, 'NIGHTGOWN',,
html-keyboard-response,304,570074,null,"MATTRESS<img id = ""stim"" ><div class = red_square id = ""topsquare"" ></div><img id = ""stim"" ><div class = red_square  id = ""bottomsquare"" ></div>",null,word_square,response,0,none,true,,,
html-keyboard-response,305,571581,null,"MATTRESS",null,word,,,,, 'MATTRESS',,
html-keyboard-response,306,572066,483.0100000035018,"ANKLE<img id = ""stim"" ><div class = green_square id = ""topsquare"" ></div><img id = ""stim"" ><div class = green_square  id = ""bottomsquare"" ></div>",32,word_square,response,1,Space,true,,,
html-keyboard-response,307,573569,null,"ANKLE",null,word,,,,, 'ANKLE',,
html-keyboard-response,308,574010,439.2650000009453,"COUGAR<img id = ""stim"" ><div class = green_square id = ""topsquare"" ></div><img id = ""stim"" ><div class = green_square  id = ""bottomsquare"" ></div>",32,word_square,response,1,Space,true,,,
html-keyboard-response,309,575517,null,"COUGAR",null,word,,,,, 'COUGAR',,
html-keyboard-response,310,576023,null,"ATHLETE<img id = ""stim"" ><div class = red_square id = ""topsquare"" ></div><img id = ""stim"" ><div class = red_square  id = ""bottomsquare"" ></div>",null,word_square,response,0,none,true,,,
html-keyboard-response,311,577528,null,"ATHLETE",null,word,,,,, 'ATHLETE',,
html-keyboard-response,312,577944,413.88999999617226,"FINGER<img id = ""stim"" ><div class = green_square id = ""topsquare"" ></div><img id = ""stim"" ><div class = green_square  id = ""bottomsquare"" ></div>",32,word_square,response,1,Space,true,,,
html-keyboard-response,313,579451,null,"FINGER",null,word,,,,, 'FINGER',,
html-keyboard-response,314,579954,null,"COFFIN<img id = ""stim"" ><div class = red_square id = ""topsquare"" ></div><img id = ""stim"" ><div class = red_square  id = ""bottomsquare"" ></div>",null,word_square,response,0,none,true,,,
html-keyboard-response,315,581459,null,"COFFIN",null,word,,,,, 'COFFIN',,
html-keyboard-response,316,581884,422.99500000081025,"LIZARD<img id = ""stim"" ><div class = green_square id = ""topsquare"" ></div><img id = ""stim"" ><div class = green_square  id = ""bottomsquare"" ></div>",32,word_square,response,1,Space,true,,,
html-keyboard-response,317,583392,null,"LIZARD",null,word,,,,, 'LIZARD',,
html-keyboard-response,318,583898,null,"DOUGHNUT<img id = ""stim"" ><div class = green_square id = ""topsquare"" ></div><img id = ""stim"" ><div class = green_square  id = ""bottomsquare"" ></div>",null,word_square,response,1,Space,false,,,
html-keyboard-response,319,585400,null,"DOUGHNUT",null,word,,,,, 'DOUGHNUT',,
html-keyboard-response,320,585905,null,"CAPE<img id = ""stim"" ><div class = red_square id = ""topsquare"" ></div><img id = ""stim"" ><div class = red_square  id = ""bottomsquare"" ></div>",null,word_square,response,0,none,true,,,
html-keyboard-response,321,587408,null,"CAPE",null,word,,,,, 'CAPE',,
html-keyboard-response,322,587912,null,"LACE<img id = ""stim"" ><div class = red_square id = ""topsquare"" ></div><img id = ""stim"" ><div class = red_square  id = ""bottomsquare"" ></div>",null,word_square,response,0,none,true,,,
html-keyboard-response,323,589415,null,"LACE",null,word,,,,, 'LACE',,
html-keyboard-response,324,589804,387.40999999572523,"SILK<img id = ""stim"" ><div class = green_square id = ""topsquare"" ></div><img id = ""stim"" ><div class = green_square  id = ""bottomsquare"" ></div>",32,word_square,response,1,Space,true,,,
html-keyboard-response,325,591307,null,"SILK",null,word,,,,, 'SILK',,
html-keyboard-response,326,591813,null,"FIGHTER<img id = ""stim"" ><div class = red_square id = ""topsquare"" ></div><img id = ""stim"" ><div class = red_square  id = ""bottomsquare"" ></div>",null,word_square,response,0,none,true,,,
html-keyboard-response,327,593317,null,"FIGHTER",null,word,,,,, 'FIGHTER',,
html-keyboard-response,328,593822,null,"DRUG<img id = ""stim"" ><div class = red_square id = ""topsquare"" ></div><img id = ""stim"" ><div class = red_square  id = ""bottomsquare"" ></div>",null,word_square,response,0,none,true,,,
html-keyboard-response,329,595329,null,"DRUG",null,word,,,,, 'DRUG',,
html-keyboard-response,330,595832,null,"SLIME<img id = ""stim"" ><div class = red_square id = ""topsquare"" ></div><img id = ""stim"" ><div class = red_square  id = ""bottomsquare"" ></div>",null,word_square,response,0,none,true,,,
html-keyboard-response,331,597339,null,"SLIME",null,word,,,,, 'SLIME',,
html-keyboard-response,332,597819,478.72500000090804,"XEROX<img id = ""stim"" ><div class = green_square id = ""topsquare"" ></div><img id = ""stim"" ><div class = green_square  id = ""bottomsquare"" ></div>",32,word_square,response,1,Space,true,,,
html-keyboard-response,333,599324,null,"XEROX",null,word,,,,, 'XEROX',,
html-keyboard-response,334,599826,null,"SCHOOL<img id = ""stim"" ><div class = red_square id = ""topsquare"" ></div><img id = ""stim"" ><div class = red_square  id = ""bottomsquare"" ></div>",null,word_square,response,0,none,true,,,
html-keyboard-response,335,601331,null,"SCHOOL",null,word,,,,, 'SCHOOL',,
call-function,336,601333,,"",,,,,,,,,
html-keyboard-response,337,601437,null,"",null,,,,,,,,
math-period,338,603155,3355.064999988652,"",,,,,,,,,5
html-keyboard-response,339,603259,null,"",null,,,,,,,,
math-period,340,604253,1889.1399999919813,"",,,,,,,,,5
html-keyboard-response,341,604356,null,"",null,,,,,,,,
math-period,342,605215,1642.4699999915902,"",,,,,,,,,4
html-keyboard-response,343,605319,null,"",null,,,,,,,,
math-period,344,606478,2209.995000004652,"",,,,,,,,,4
html-keyboard-response,345,606584,null,"",null,,,,,,,,
math-period,346,607383,1516.9800000076648,"",,,,,,,,,4
html-keyboard-response,347,607486,null,"",null,,,,,,,,
math-period,348,608395,1741.9949999894015,"",,,,,,,,,3
html-keyboard-response,349,608499,null,"",null,,,,,,,,
math-period,350,609314,1532.5599999997066,"",,,,,,,,,3
html-keyboard-response,351,609417,null,"",null,,,,,,,,
math-period,352,611151,3351.8450000048615,"",,,,,,,,,1
html-keyboard-response,353,611255,null,"",null,,,,,,,,
math-period,354,612534,2466.409999993397,"",,,,,,,,,2
html-keyboard-response,355,612638,null,"",null,,,,,,,,
math-period,356,613685,2017.939999997965,"",,,,,,,,,5
html-keyboard-response,357,613788,null,"",null,,,,,,,,
math-period,358,614840,2018.0449999899138,"",,,,,,,,,3
html-keyboard-response,359,614944,null,"",null,,,,,,,,
math-period,360,615882,1750.2349999921862,"",,,,,,,,,4
html-keyboard-response,361,615987,null,"",null,,,,,,,,
math-period,362,617449,2826.20499999763,"",,,,,,,,,3
html-keyboard-response,363,617553,null,"",null,,,,,,,,
math-period,364,618659,2128.4700000104494,"",,,,,,,,,5
html-keyboard-response,365,618763,null,"",null,,,,,,,,
math-period,366,619794,1966.5150000072317,"",,,,,,,,,4
html-keyboard-response,367,619898,null,"",null,,,,,,,,
math-period,368,621140,2409.6750000026077,"",,,,,,,,,5
html-keyboard-response,369,621244,null,"",null,,,,,,,,
math-period,370,622237,1924.2550000052433,"",,,,,,,,,2
html-keyboard-response,371,622340,null,"",null,,,,,,,,
math-period,372,623788,2829.485000002198,"",,,,,,,,,2
html-keyboard-response,373,623893,null,"",null,,,,,,,,
math-period,374,625305,2692.925000002957,"",,,,,,,,,6
html-keyboard-response,375,625409,null,"",null,,,,,,,,
math-period,376,625413,null,"",,,,,,,,,
html-keyboard-response,377,626417,null,"Recall Period!",null,,,,,,,,
call-function,378,626418,,"",,,,,,,,,
html-keyboard-response,379,626521,null,"",null,,,,,,,,
recall-period,380,629510,22023.59000003338,"",,,,,,,,,xerox
html-keyboard-response,381,629615,null,"",null,,,,,,,,
recall-period,382,630567,3288.7799999808194,"",,,,,,,,,ankle
html-keyboard-response,383,630671,null,"",null,,,,,,,,
recall-period,384,634471,21798.6600000147,"",,,,,,,,,cougar
html-keyboard-response,385,634575,null,"",null,,,,,,,,
recall-period,386,636597,12200.760000014096,"",,,,,,,,,nightgown
html-keyboard-response,387,636701,null,"",null,,,,,,,,
recall-period,388,637811,3774.2750000033993,"",,,,,,,,,silk
html-keyboard-response,389,637915,null,"",null,,,,,,,,
recall-period,390,640365,10972.730000001728,"",,,,,,,,,lace
html-keyboard-response,391,640468,null,"",null,,,,,,,,
recall-period,392,647637,62227.80000002298,"",,,,,,,,,ankle
html-keyboard-response,393,647742,null,"",null,,,,,,,,
recall-period,394,701424,null,"",,,,,,,,,
html-keyboard-response,395,701927,null,"Time's Up!",null,,,,,,,,
html-keyboard-response,396,742241,40311.78499999805,"<p> Good job! You responded correctly to 85% of the GREEN squares.</p>
                  <p>Be sure to keep your accuracy above 80%</p>
                  <p>Press any key to continue the experiment. Thank you!</p>",32,,,,,,,,
html-keyboard-response,397,743126,883.1550000031712,"<div style=""font-size:48px;"">Press any key to begin list 4 of 24 </div>",32,,,,,,,,
html-keyboard-response,398,745633,null,"<div style=""font-size:60px;"">+</div>",null,,,,,,,,
html-keyboard-response,399,746139,null,"PLAID<img id = ""stim"" ><div class = green_square id = ""topsquare"" ></div><img id = ""stim"" ><div class = green_square  id = ""bottomsquare"" ></div>",null,word_square,response,1,Space,false,,,
html-keyboard-response,400,747641,null,"PLAID",null,word,,,,, 'PLAID',,
html-keyboard-response,401,748145,null,"PORTRAIT<img id = ""stim"" ><div class = green_square id = ""topsquare"" ></div><img id = ""stim"" ><div class = green_square  id = ""bottomsquare"" ></div>",null,word_square,response,1,Space,false,,,
html-keyboard-response,402,749648,null,"PORTRAIT",null,word,,,,, 'PORTRAIT',,
html-keyboard-response,403,750154,null,"DRAWING<img id = ""stim"" ><div class = red_square id = ""topsquare"" ></div><img id = ""stim"" ><div class = red_square  id = ""bottomsquare"" ></div>",null,word_square,response,0,none,true,,,
html-keyboard-response,404,751656,null,"DRAWING",null,word,,,,, 'DRAWING',,
html-keyboard-response,405,752161,null,"GERM<img id = ""stim"" ><div class = green_square id = ""topsquare"" ></div><img id = ""stim"" ><div class = green_square  id = ""bottomsquare"" ></div>",null,word_square,response,1,Space,false,,,
html-keyboard-response,406,753665,null,"GERM",null,word,,,,, 'GERM',,
html-keyboard-response,407,754168,null,"BUCKLE<img id = ""stim"" ><div class = green_square id = ""topsquare"" ></div><img id = ""stim"" ><div class = green_square  id = ""bottomsquare"" ></div>",null,word_square,response,1,Space,false,,,
html-keyboard-response,408,755675,null,"BUCKLE",null,word,,,,, 'BUCKLE',,
html-keyboard-response,409,756180,null,"YACHT<img id = ""stim"" ><div class = red_square id = ""topsquare"" ></div><img id = ""stim"" ><div class = red_square  id = ""bottomsquare"" ></div>",null,word_square,response,0,none,true,,,
html-keyboard-response,410,757686,null,"YACHT",null,word,,,,, 'YACHT',,
html-keyboard-response,411,758192,null,"MARINE<img id = ""stim"" ><div class = green_square id = ""topsquare"" ></div><img id = ""stim"" ><div class = green_square  id = ""bottomsquare"" ></div>",null,word_square,response,1,Space,false,,,
html-keyboard-response,412,759694,null,"MARINE",null,word,,,,, 'MARINE',,
html-keyboard-response,413,760202,null,"CABLE<img id = ""stim"" ><div class = red_square id = ""topsquare"" ></div><img id = ""stim"" ><div class = red_square  id = ""bottomsquare"" ></div>",null,word_square,response,0,none,true,,,
html-keyboard-response,414,761704,null,"CABLE",null,word,,,,, 'CABLE',,
html-keyboard-response,415,762210,null,"VICTOR<img id = ""stim"" ><div class = green_square id = ""topsquare"" ></div><img id = ""stim"" ><div class = green_square  id = ""bottomsquare"" ></div>",null,word_square,response,1,Space,false,,,
html-keyboard-response,416,763715,null,"VICTOR",null,word,,,,, 'VICTOR',,
html-keyboard-response,417,764149,431.80999999458436,"LUNCH<img id = ""stim"" ><div class = green_square id = ""topsquare"" ></div><img id = ""stim"" ><div class = green_square  id = ""bottomsquare"" ></div>",32,word_square,response,1,Space,true,,,
html-keyboard-response,418,765656,null,"LUNCH",null,word,,,,, 'LUNCH',,
html-keyboard-response,419,766162,null,"PACKAGE<img id = ""stim"" ><div class = red_square id = ""topsquare"" ></div><img id = ""stim"" ><div class = red_square  id = ""bottomsquare"" ></div>",null,word_square,response,0,none,true,,,
html-keyboard-response,420,767666,null,"PACKAGE",null,word,,,,, 'PACKAGE',,
html-keyboard-response,421,768168,null,"SWORD<img id = ""stim"" ><div class = red_square id = ""topsquare"" ></div><img id = ""stim"" ><div class = red_square  id = ""bottomsquare"" ></div>",null,word_square,response,0,none,true,,,
html-keyboard-response,422,769675,null,"SWORD",null,word,,,,, 'SWORD',,
html-keyboard-response,423,770083,405.21000000450294,"COIN<img id = ""stim"" ><div class = green_square id = ""topsquare"" ></div><img id = ""stim"" ><div class = green_square  id = ""bottomsquare"" ></div>",32,word_square,response,1,Space,true,,,
html-keyboard-response,424,771590,null,"COIN",null,word,,,,, 'COIN',,
html-keyboard-response,425,772098,null,"NEPHEW<img id = ""stim"" ><div class = red_square id = ""topsquare"" ></div><img id = ""stim"" ><div class = red_square  id = ""bottomsquare"" ></div>",null,word_square,response,0,none,true,,,
html-keyboard-response,426,773605,null,"NEPHEW",null,word,,,,, 'NEPHEW',,
html-keyboard-response,427,774112,null,"ZIPPER<img id = ""stim"" ><div class = red_square id = ""topsquare"" ></div><img id = ""stim"" ><div class = red_square  id = ""bottomsquare"" ></div>",null,word_square,response,0,none,true,,,
html-keyboard-response,428,775614,null,"ZIPPER",null,word,,,,, 'ZIPPER',,
html-keyboard-response,429,776118,null,"DECK<img id = ""stim"" ><div class = red_square id = ""topsquare"" ></div><img id = ""stim"" ><div class = red_square  id = ""bottomsquare"" ></div>",null,word_square,response,0,none,true,,,
html-keyboard-response,430,777626,null,"DECK",null,word,,,,, 'DECK',,
html-keyboard-response,431,777988,359.7650000010617,"PADDLE<img id = ""stim"" ><div class = green_square id = ""topsquare"" ></div><img id = ""stim"" ><div class = green_square  id = ""bottomsquare"" ></div>",32,word_square,response,1,Space,true,,,
html-keyboard-response,432,779492,null,"PADDLE",null,word,,,,, 'PADDLE',,
html-keyboard-response,433,779999,null,"BLADE<img id = ""stim"" ><div class = red_square id = ""topsquare"" ></div><img id = ""stim"" ><div class = red_square  id = ""bottomsquare"" ></div>",null,word_square,response,0,none,true,,,
html-keyboard-response,434,781507,null,"BLADE",null,word,,,,, 'BLADE',,
call-function,435,781508,,"",,,,,,,,,
html-keyboard-response,436,781614,null,"",null,,,,,,,,
math-period,437,782965,2622.084999995306,"",,,,,,,,,6
html-keyboard-response,438,783072,null,"",null,,,,,,,,
math-period,439,784082,1929.9749999990454,"",,,,,,,,,5
html-keyboard-response,440,784185,null,"",null,,,,,,,,
math-period,441,785525,2590.750000003143,"",,,,,,,,,5
html-keyboard-response,442,785630,null,"",null,,,,,,,,
math-period,443,786604,1860.7049999989104,"",,,,,,,,,4
html-keyboard-response,444,786708,null,"",null,,,,,,,,
math-period,445,787620,1734.4850000009174,"",,,,,,,,,4
html-keyboard-response,446,787724,null,"",null,,,,,,,,
math-period,447,790045,4563.545000004582,"",,,,,,,,,2
html-keyboard-response,448,790152,null,"",null,,,,,,,,
math-period,449,791204,2036.7300000071991,"",,,,,,,,,6
html-keyboard-response,450,791308,null,"",null,,,,,,,,
math-period,451,792262,1826.4000000053784,"",,,,,,,,,5
html-keyboard-response,452,792368,null,"",null,,,,,,,,
math-period,453,793486,2169.8899999973364,"",,,,,,,,,2
html-keyboard-response,454,793589,null,"",null,,,,,,,,
math-period,455,795805,4346.094999993569,"",,,,,,,,,5
html-keyboard-response,456,795909,null,"",null,,,,,,,,
math-period,457,796996,2110.5700000043726,"",,,,,,,,,4
html-keyboard-response,458,797100,null,"",null,,,,,,,,
math-period,459,798382,2503.724999994971,"",,,,,,,,,3
html-keyboard-response,460,798486,null,"",null,,,,,,,,
math-period,461,799589,2122.4349999974947,"",,,,,,,,,5
html-keyboard-response,462,799693,null,"",null,,,,,,,,
math-period,463,801162,2851.6049999961397,"",,,,,,,,,4
html-keyboard-response,464,801266,null,"",null,,,,,,,,
math-period,465,802295,1962.979999996489,"",,,,,,,,,3
html-keyboard-response,466,802398,null,"",null,,,,,,,,
math-period,467,803499,2118.17500000319,"",,,,,,,,,6
html-keyboard-response,468,803603,null,"",null,,,,,,,,
math-period,469,804919,2551.8900000024587,"",,,,,,,,,1
html-keyboard-response,470,805023,null,"",null,,,,,,,,
math-period,471,805515,null,"",,,,,,,,,
html-keyboard-response,472,806518,null,"Recall Period!",null,,,,,,,,
call-function,473,806520,,"",,,,,,,,,
html-keyboard-response,474,806623,null,"",null,,,,,,,,
recall-period,475,809321,15084.58999997715,"",,,,,,,,,nephew
html-keyboard-response,476,809425,null,"",null,,,,,,,,
recall-period,477,810508,4363.700000008568,"",,,,,,,,,plaid
html-keyboard-response,478,810611,null,"",null,,,,,,,,
recall-period,479,813085,12205.875000014319,"",,,,,,,,,bucket
html-keyboard-response,480,813189,null,"",null,,,,,,,,
recall-period,481,815942,20785.575000002398,"",,,,,,,,,plural
html-keyboard-response,482,816047,null,"",null,,,,,,,,
recall-period,483,818461,8968.104999999749,"",,,,,,,,,coin
html-keyboard-response,484,818564,null,"",null,,,,,,,,
recall-period,485,820159,9327.999999993597,"",,,,,,,,,marine
html-keyboard-response,486,820266,null,"",null,,,,,,,,
recall-period,487,881526,null,"",,,,,,,,,
html-keyboard-response,488,882030,null,"Time's Up!",null,,,,,,,,
html-keyboard-response,489,941892,59859.52499999979,"<p> Good job! You responded correctly to 81% of the GREEN squares.</p>
                  <p>Be sure to keep your accuracy above 80%</p>
                  <p>Press any key to continue the experiment. Thank you!</p>",32,,,,,,,,
html-keyboard-response,490,942478,584.3600000008009,"<div style=""font-size:48px;"">Press any key to begin list 5 of 24 </div>",32,,,,,,,,
html-keyboard-response,491,944981,null,"<div style=""font-size:60px;"">+</div>",null,,,,,,,,
html-keyboard-response,492,945486,null,"LAMP<img id = ""stim"" ><div class = red_square id = ""topsquare"" ></div><img id = ""stim"" ><div class = red_square  id = ""bottomsquare"" ></div>",null,word_square,response,0,none,true,,,
html-keyboard-response,493,946989,null,"LAMP",null,word,,,,, 'LAMP',,
html-keyboard-response,494,947497,null,"FLASHLIGHT<img id = ""stim"" ><div class = green_square id = ""topsquare"" ></div><img id = ""stim"" ><div class = green_square  id = ""bottomsquare"" ></div>",null,word_square,response,1,Space,false,,,
html-keyboard-response,495,948999,null,"FLASHLIGHT",null,word,,,,, 'FLASHLIGHT',,
html-keyboard-response,496,949505,null,"VELVET<img id = ""stim"" ><div class = green_square id = ""topsquare"" ></div><img id = ""stim"" ><div class = green_square  id = ""bottomsquare"" ></div>",null,word_square,response,1,Space,false,,,
html-keyboard-response,497,951008,null,"VELVET",null,word,,,,, 'VELVET',,
html-keyboard-response,498,951404,394.0249999940861,"UMPIRE<img id = ""stim"" ><div class = green_square id = ""topsquare"" ></div><img id = ""stim"" ><div class = green_square  id = ""bottomsquare"" ></div>",32,word_square,response,1,Space,true,,,
html-keyboard-response,499,952910,null,"UMPIRE",null,word,,,,, 'UMPIRE',,
html-keyboard-response,500,953415,null,"GARDEN<img id = ""stim"" ><div class = red_square id = ""topsquare"" ></div><img id = ""stim"" ><div class = red_square  id = ""bottomsquare"" ></div>",null,word_square,response,0,none,true,,,
html-keyboard-response,501,954922,null,"GARDEN",null,word,,,,, 'GARDEN',,
html-keyboard-response,502,955425,null,"SHOVEL<img id = ""stim"" ><div class = green_square id = ""topsquare"" ></div><img id = ""stim"" ><div class = green_square  id = ""bottomsquare"" ></div>",null,word_square,response,1,Space,false,,,
html-keyboard-response,503,956930,null,"SHOVEL",null,word,,,,, 'SHOVEL',,
html-keyboard-response,504,957438,null,"BRANCH<img id = ""stim"" ><div class = red_square id = ""topsquare"" ></div><img id = ""stim"" ><div class = red_square  id = ""bottomsquare"" ></div>",null,word_square,response,0,none,true,,,
html-keyboard-response,505,958942,null,"BRANCH",null,word,,,,, 'BRANCH',,
html-keyboard-response,506,959447,null,"KIDNEY<img id = ""stim"" ><div class = red_square id = ""topsquare"" ></div><img id = ""stim"" ><div class = red_square  id = ""bottomsquare"" ></div>",null,word_square,response,0,none,true,,,
html-keyboard-response,507,960950,null,"KIDNEY",null,word,,,,, 'KIDNEY',,
html-keyboard-response,508,961457,null,"SHEARS<img id = ""stim"" ><div class = green_square id = ""topsquare"" ></div><img id = ""stim"" ><div class = green_square  id = ""bottomsquare"" ></div>",null,word_square,response,1,Space,false,,,
html-keyboard-response,509,962965,null,"SHEARS",null,word,,,,, 'SHEARS',,
html-keyboard-response,510,963468,null,"FOOTBALL<img id = ""stim"" ><div class = red_square id = ""topsquare"" ></div><img id = ""stim"" ><div class = red_square  id = ""bottomsquare"" ></div>",null,word_square,response,0,none,true,,,
html-keyboard-response,511,964975,null,"FOOTBALL",null,word,,,,, 'FOOTBALL',,
html-keyboard-response,512,965360,382.7099999979837,"CORAL<img id = ""stim"" ><div class = green_square id = ""topsquare"" ></div><img id = ""stim"" ><div class = green_square  id = ""bottomsquare"" ></div>",32,word_square,response,1,Space,true,,,
html-keyboard-response,513,966864,null,"CORAL",null,word,,,,, 'CORAL',,
html-keyboard-response,514,967200,333.6750000016764,"JOINT<img id = ""stim"" ><div class = red_square id = ""topsquare"" ></div><img id = ""stim"" ><div class = red_square  id = ""bottomsquare"" ></div>",32,word_square,response,0,none,false,,,
html-keyboard-response,515,968705,null,"JOINT",null,word,,,,, 'JOINT',,
html-keyboard-response,516,969212,null,"CHURCH<img id = ""stim"" ><div class = red_square id = ""topsquare"" ></div><img id = ""stim"" ><div class = red_square  id = ""bottomsquare"" ></div>",null,word_square,response,0,none,true,,,
html-keyboard-response,517,970720,null,"CHURCH",null,word,,,,, 'CHURCH',,
html-keyboard-response,518,971179,457.72999999462627,"CUSTARD<img id = ""stim"" ><div class = green_square id = ""topsquare"" ></div><img id = ""stim"" ><div class = green_square  id = ""bottomsquare"" ></div>",32,word_square,response,1,Space,true,,,
html-keyboard-response,519,972682,null,"CUSTARD",null,word,,,,, 'CUSTARD',,
html-keyboard-response,520,973184,null,"FEATHER<img id = ""stim"" ><div class = red_square id = ""topsquare"" ></div><img id = ""stim"" ><div class = red_square  id = ""bottomsquare"" ></div>",null,word_square,response,0,none,true,,,
html-keyboard-response,521,974691,null,"FEATHER",null,word,,,,, 'FEATHER',,
html-keyboard-response,522,975197,null,"HEDGE<img id = ""stim"" ><div class = red_square id = ""topsquare"" ></div><img id = ""stim"" ><div class = red_square  id = ""bottomsquare"" ></div>",null,word_square,response,0,none,true,,,
html-keyboard-response,523,976700,null,"HEDGE",null,word,,,,, 'HEDGE',,
html-keyboard-response,524,977092,389.6099999983562,"LIST<img id = ""stim"" ><div class = green_square id = ""topsquare"" ></div><img id = ""stim"" ><div class = green_square  id = ""bottomsquare"" ></div>",32,word_square,response,1,Space,true,,,
html-keyboard-response,525,978599,null,"LIST",null,word,,,,, 'LIST',,
html-keyboard-response,526,979049,447.82500000298023,"YARN<img id = ""stim"" ><div class = green_square id = ""topsquare"" ></div><img id = ""stim"" ><div class = green_square  id = ""bottomsquare"" ></div>",32,word_square,response,1,Space,true,,,
html-keyboard-response,527,980556,null,"YARN",null,word,,,,, 'YARN',,
call-function,528,980558,,"",,,,,,,,,
html-keyboard-response,529,980663,null,"",null,,,,,,,,
math-period,530,986695,61894.11499996728,"",,,,,,,,,0
html-keyboard-response,531,986796,null,"",null,,,,,,,,
math-period,532,988415,3122.379999993369,"",,,,,,,,,2
html-keyboard-response,533,988518,null,"",null,,,,,,,,
math-period,534,989545,2006.6900000020396,"",,,,,,,,,5
html-keyboard-response,535,989648,null,"",null,,,,,,,,
math-period,536,991219,2984.9099999992177,"",,,,,,,,,0
html-keyboard-response,537,991323,null,"",null,,,,,,,,
math-period,538,992438,2156.1849999926053,"",,,,,,,,,2
html-keyboard-response,539,992542,null,"",null,,,,,,,,
math-period,540,993576,2029.6700000035344,"",,,,,,,,,4
html-keyboard-response,541,993683,null,"",null,,,,,,,,
math-period,542,994950,2467.7349999984726,"",,,,,,,,,2
html-keyboard-response,543,995054,null,"",null,,,,,,,,
math-period,544,997117,7074.0000000006985,"",,,,,,,,,2
html-keyboard-response,545,997220,null,"",null,,,,,,,,
math-period,546,998404,2291.3150000020396,"",,,,,,,,,2
html-keyboard-response,547,998507,null,"",null,,,,,,,,
math-period,548,999818,2520.6999999935506,"",,,,,,,,,1
html-keyboard-response,549,999922,null,"",null,,,,,,,,
math-period,550,1001017,2122.629999998142,"",,,,,,,,,5
html-keyboard-response,551,1001120,null,"",null,,,,,,,,
math-period,552,1002285,2250.8849999941885,"",,,,,,,,,1
html-keyboard-response,553,1002389,null,"",null,,,,,,,,
math-period,554,1003363,1885.7899999930523,"",,,,,,,,,4
html-keyboard-response,555,1003467,null,"",null,,,,,,,,
math-period,556,1004459,1908.209999994142,"",,,,,,,,,3
html-keyboard-response,557,1004562,null,"",null,,,,,,,,
math-period,558,1004566,null,"",,,,,,,,,
html-keyboard-response,559,1005569,null,"Recall Period!",null,,,,,,,,
call-function,560,1005570,,"",,,,,,,,,
html-keyboard-response,561,1005677,null,"",null,,,,,,,,
recall-period,562,1007800,15635.705000029411,"",,,,,,,,,marine
html-keyboard-response,563,1007903,null,"",null,,,,,,,,
recall-period,564,1008904,4391.385000017122,"",,,,,,,,,velvet
html-keyboard-response,565,1009008,null,"",null,,,,,,,,
recall-period,566,1011133,13516.18500001484,"",,,,,,,,,neighbor
html-keyboard-response,567,1011237,null,"",null,,,,,,,,
recall-period,568,1011925,1610.4099999866448,"",,,,,,,,,list
html-keyboard-response,569,1012029,null,"",null,,,,,,,,
recall-period,570,1080573,null,"",,,,,,,,,
html-keyboard-response,571,1081081,null,"Time's Up!",null,,,,,,,,
html-keyboard-response,572,1104245,23161.55499999877,"<p> Good job! You responded correctly to 80% of the GREEN squares.</p>
                  <p>Be sure to keep your accuracy above 80%</p>
                  <p>Press any key to continue the experiment. Thank you!</p>",32,,,,,,,,
html-keyboard-response,573,1104968,720.3500000031199,"<div style=""font-size:48px;"">Press any key to begin list 6 of 24 </div>",32,,,,,,,,
html-keyboard-response,574,1107470,null,"<div style=""font-size:60px;"">+</div>",null,,,,,,,,
html-keyboard-response,575,1107978,null,"WINGS<img id = ""stim"" ><div class = red_square id = ""topsquare"" ></div><img id = ""stim"" ><div class = red_square  id = ""bottomsquare"" ></div>",null,word_square,response,0,none,true,,,
html-keyboard-response,576,1109481,null,"WINGS",null,word,,,,, 'WINGS',,
html-keyboard-response,577,1109989,null,"CAMEL<img id = ""stim"" ><div class = green_square id = ""topsquare"" ></div><img id = ""stim"" ><div class = green_square  id = ""bottomsquare"" ></div>",null,word_square,response,1,Space,false,,,
html-keyboard-response,578,1111492,null,"CAMEL",null,word,,,,, 'CAMEL',,
html-keyboard-response,579,1111996,null,"DUSTPAN<img id = ""stim"" ><div class = green_square id = ""topsquare"" ></div><img id = ""stim"" ><div class = green_square  id = ""bottomsquare"" ></div>",null,word_square,response,1,Space,false,,,
html-keyboard-response,580,1113501,null,"DUSTPAN",null,word,,,,, 'DUSTPAN',,
html-keyboard-response,581,1113964,460.67000000039116,"PONY<img id = ""stim"" ><div class = green_square id = ""topsquare"" ></div><img id = ""stim"" ><div class = green_square  id = ""bottomsquare"" ></div>",32,word_square,response,1,Space,true,,,
html-keyboard-response,582,1115467,null,"PONY",null,word,,,,, 'PONY',,
html-keyboard-response,583,1115975,null,"SHEPHERD<img id = ""stim"" ><div class = red_square id = ""topsquare"" ></div><img id = ""stim"" ><div class = red_square  id = ""bottomsquare"" ></div>",null,word_square,response,0,none,true,,,
html-keyboard-response,584,1117482,null,"SHEPHERD",null,word,,,,, 'SHEPHERD',,
html-keyboard-response,585,1117988,null,"CHISEL<img id = ""stim"" ><div class = green_square id = ""topsquare"" ></div><img id = ""stim"" ><div class = green_square  id = ""bottomsquare"" ></div>",null,word_square,response,1,Space,false,,,
html-keyboard-response,586,1119491,null,"CHISEL",null,word,,,,, 'CHISEL',,
html-keyboard-response,587,1119999,null,"CRADLE<img id = ""stim"" ><div class = red_square id = ""topsquare"" ></div><img id = ""stim"" ><div class = red_square  id = ""bottomsquare"" ></div>",null,word_square,response,0,none,true,,,
html-keyboard-response,588,1121504,null,"CRADLE",null,word,,,,, 'CRADLE',,
html-keyboard-response,589,1122006,null,"CELLAR<img id = ""stim"" ><div class = red_square id = ""topsquare"" ></div><img id = ""stim"" ><div class = red_square  id = ""bottomsquare"" ></div>",null,word_square,response,0,none,true,,,
html-keyboard-response,590,1123509,null,"CELLAR",null,word,,,,, 'CELLAR',,
html-keyboard-response,591,1124012,null,"GIRAFFE<img id = ""stim"" ><div class = green_square id = ""topsquare"" ></div><img id = ""stim"" ><div class = green_square  id = ""bottomsquare"" ></div>",null,word_square,response,1,Space,false,,,
html-keyboard-response,592,1125515,null,"GIRAFFE",null,word,,,,, 'GIRAFFE',,
html-keyboard-response,593,1126022,null,"QUARTER<img id = ""stim"" ><div class = red_square id = ""topsquare"" ></div><img id = ""stim"" ><div class = red_square  id = ""bottomsquare"" ></div>",null,word_square,response,0,none,true,,,
html-keyboard-response,594,1127526,null,"QUARTER",null,word,,,,, 'QUARTER',,
html-keyboard-response,595,1127999,471.56000000517815,"STALLION<img id = ""stim"" ><div class = green_square id = ""topsquare"" ></div><img id = ""stim"" ><div class = green_square  id = ""bottomsquare"" ></div>",32,word_square,response,1,Space,true,,,
html-keyboard-response,596,1129506,null,"STALLION",null,word,,,,, 'STALLION',,
html-keyboard-response,597,1130012,null,"BARLEY<img id = ""stim"" ><div class = red_square id = ""topsquare"" ></div><img id = ""stim"" ><div class = red_square  id = ""bottomsquare"" ></div>",null,word_square,response,0,none,true,,,
html-keyboard-response,598,1131516,null,"BARLEY",null,word,,,,, 'BARLEY',,
html-keyboard-response,599,1132019,null,"TIGER<img id = ""stim"" ><div class = red_square id = ""topsquare"" ></div><img id = ""stim"" ><div class = red_square  id = ""bottomsquare"" ></div>",null,word_square,response,0,none,true,,,
html-keyboard-response,600,1133523,null,"TIGER",null,word,,,,, 'TIGER',,
html-keyboard-response,601,1133986,460.53499999828637,"GLOVE<img id = ""stim"" ><div class = green_square id = ""topsquare"" ></div><img id = ""stim"" ><div class = green_square  id = ""bottomsquare"" ></div>",32,word_square,response,1,Space,true,,,
html-keyboard-response,602,1135492,null,"GLOVE",null,word,,,,, 'GLOVE',,
html-keyboard-response,603,1136000,null,"BROOK<img id = ""stim"" ><div class = red_square id = ""topsquare"" ></div><img id = ""stim"" ><div class = red_square  id = ""bottomsquare"" ></div>",null,word_square,response,0,none,true,,,
html-keyboard-response,604,1137505,null,"BROOK",null,word,,,,, 'BROOK',,
html-keyboard-response,605,1138013,null,"LAGOON<img id = ""stim"" ><div class = red_square id = ""topsquare"" ></div><img id = ""stim"" ><div class = red_square  id = ""bottomsquare"" ></div>",null,word_square,response,0,none,true,,,
html-keyboard-response,606,1139516,null,"LAGOON",null,word,,,,, 'LAGOON',,
html-keyboard-response,607,1140023,null,"SHORTS<img id = ""stim"" ><div class = green_square id = ""topsquare"" ></div><img id = ""stim"" ><div class = green_square  id = ""bottomsquare"" ></div>",null,word_square,response,1,Space,false,,,
html-keyboard-response,608,1141527,null,"SHORTS",null,word,,,,, 'SHORTS',,
html-keyboard-response,609,1142034,null,"DIME<img id = ""stim"" ><div class = green_square id = ""topsquare"" ></div><img id = ""stim"" ><div class = green_square  id = ""bottomsquare"" ></div>",null,word_square,response,1,Space,false,,,
html-keyboard-response,610,1143539,null,"DIME",null,word,,,,, 'DIME',,
call-function,611,1143543,,"",,,,,,,,,
html-keyboard-response,612,1143650,null,"",null,,,,,,,,
math-period,613,1144832,2315.6250000104774,"",,,,,,,,,3
html-keyboard-response,614,1144935,null,"",null,,,,,,,,
math-period,615,1147045,4133.854999999981,"",,,,,,,,,5
html-keyboard-response,616,1147149,null,"",null,,,,,,,,
math-period,617,1148084,1756.000000001397,"",,,,,,,,,4
html-keyboard-response,618,1148189,null,"",null,,,,,,,,
math-period,619,1149494,2539.990000011865,"",,,,,,,,,3
html-keyboard-response,620,1149598,null,"",null,,,,,,,,
math-period,621,1150529,1767.3050000083167,"",,,,,,,,,3
html-keyboard-response,622,1150633,null,"",null,,,,,,,,
math-period,623,1151706,2078.88000000827,"",,,,,,,,,5
html-keyboard-response,624,1151810,null,"",null,,,,,,,,
math-period,625,1153036,2369.2499999885913,"",,,,,,,,,4
html-keyboard-response,626,1153142,null,"",null,,,,,,,,
math-period,627,1154112,1866.5149999940768,"",,,,,,,,,2
html-keyboard-response,628,1154216,null,"",null,,,,,,,,
math-period,629,1155853,3129.825000003446,"",,,,,,,,,0
html-keyboard-response,630,1155958,null,"",null,,,,,,,,
math-period,631,1156986,1986.8899999998976,"",,,,,,,,,4
html-keyboard-response,632,1157089,null,"",null,,,,,,,,
math-period,633,1158277,2307.7050000065938,"",,,,,,,,,2
html-keyboard-response,634,1158379,null,"",null,,,,,,,,
math-period,635,1159384,1930.5350000066683,"",,,,,,,,,2
html-keyboard-response,636,1159488,null,"",null,,,,,,,,
math-period,637,1161351,3661.935000003781,"",,,,,,,,,3
html-keyboard-response,638,1161455,null,"",null,,,,,,,,
math-period,639,1163075,3158.9050000037532,"",,,,,,,,,5
html-keyboard-response,640,1163179,null,"",null,,,,,,,,
math-period,641,1164346,2265.070000001462,"",,,,,,,,,2
html-keyboard-response,642,1164450,null,"",null,,,,,,,,
math-period,643,1165921,2799.4849999959115,"",,,,,,,,,0
html-keyboard-response,644,1166025,null,"",null,,,,,,,,
math-period,645,1167162,2209.904999989085,"",,,,,,,,,3
html-keyboard-response,646,1167267,null,"",null,,,,,,,,
math-period,647,1167548,null,"",,,,,,,,,
html-keyboard-response,648,1168551,null,"Recall Period!",null,,,,,,,,
call-function,649,1168552,,"",,,,,,,,,
html-keyboard-response,650,1168659,null,"",null,,,,,,,,
recall-period,651,1171679,15951.930000003194,"",,,,,,,,,brook
html-keyboard-response,652,1171783,null,"",null,,,,,,,,
recall-period,653,1172444,2291.904999983264,"",,,,,,,,,stream
html-keyboard-response,654,1172547,null,"",null,,,,,,,,
recall-period,655,1173865,4705.470000007888,"",,,,,,,,,pony
html-keyboard-response,656,1173969,null,"",null,,,,,,,,
recall-period,657,1176726,18338.330000004964,"",,,,,,,,,giraffe
html-keyboard-response,658,1176830,null,"",null,,,,,,,,
recall-period,659,1178163,5888.7699999974575,"",,,,,,,,,lagoon
html-keyboard-response,660,1178268,null,"",null,,,,,,,,
recall-period,661,1179165,3361.5600000126287,"",,,,,,,,,brook
html-keyboard-response,662,1179268,null,"",null,,,,,,,,
recall-period,663,1187169,53255.06500001298,"",,,,,,,,,ribbon
html-keyboard-response,664,1187273,null,"",null,,,,,,,,
recall-period,665,1243916,null,"",,,,,,,,,
html-keyboard-response,666,1244916,null,"Time's Up!",null,,,,,,,,
html-keyboard-response,667,1266816,21897.94999999879,"<p> Uh oh. You responded correctly on 78% of the GREEN squares.</p>
                  <p>We need you keep your accuracy above 80%</p>
                  <p>Press any key to continue the experiment. Thank you!</p>",32,,,,,,,,
html-keyboard-response,668,1267870,1052.0600000019185,"<div style=""font-size:48px;"">Press any key to begin list 7 of 24 </div>",32,,,,,,,,
html-keyboard-response,669,1270377,null,"<div style=""font-size:60px;"">+</div>",null,,,,,,,,
html-keyboard-response,670,1270883,null,"PERFUME<img id = ""stim"" ><div class = green_square id = ""topsquare"" ></div><img id = ""stim"" ><div class = green_square  id = ""bottomsquare"" ></div>",null,word_square,response,1,Space,false,,,
html-keyboard-response,671,1272385,null,"PERFUME",null,word,,,,, 'PERFUME',,
html-keyboard-response,672,1272889,null,"SIDING<img id = ""stim"" ><div class = red_square id = ""topsquare"" ></div><img id = ""stim"" ><div class = red_square  id = ""bottomsquare"" ></div>",null,word_square,response,0,none,true,,,
html-keyboard-response,673,1274391,null,"SIDING",null,word,,,,, 'SIDING',,
html-keyboard-response,674,1274897,null,"GLASSES<img id = ""stim"" ><div class = red_square id = ""topsquare"" ></div><img id = ""stim"" ><div class = red_square  id = ""bottomsquare"" ></div>",null,word_square,response,0,none,true,,,
html-keyboard-response,675,1276400,null,"GLASSES",null,word,,,,, 'GLASSES',,
html-keyboard-response,676,1276904,null,"VALLEY<img id = ""stim"" ><div class = red_square id = ""topsquare"" ></div><img id = ""stim"" ><div class = red_square  id = ""bottomsquare"" ></div>",null,word_square,response,0,none,true,,,
html-keyboard-response,677,1278408,null,"VALLEY",null,word,,,,, 'VALLEY',,
html-keyboard-response,678,1278851,440.34000000101514,"REINDEER<img id = ""stim"" ><div class = green_square id = ""topsquare"" ></div><img id = ""stim"" ><div class = green_square  id = ""bottomsquare"" ></div>",32,word_square,response,1,Space,true,,,
html-keyboard-response,679,1280354,null,"REINDEER",null,word,,,,, 'REINDEER',,
html-keyboard-response,680,1280862,null,"SCAPEGOAT<img id = ""stim"" ><div class = red_square id = ""topsquare"" ></div><img id = ""stim"" ><div class = red_square  id = ""bottomsquare"" ></div>",null,word_square,response,0,none,true,,,
html-keyboard-response,681,1282366,null,"SCAPEGOAT",null,word,,,,, 'SCAPEGOAT',,
html-keyboard-response,682,1282769,401.4150000002701,"BLUEJAY<img id = ""stim"" ><div class = green_square id = ""topsquare"" ></div><img id = ""stim"" ><div class = green_square  id = ""bottomsquare"" ></div>",32,word_square,response,1,Space,true,,,
html-keyboard-response,683,1284276,null,"BLUEJAY",null,word,,,,, 'BLUEJAY',,
html-keyboard-response,684,1284780,null,"COCKTAIL<img id = ""stim"" ><div class = green_square id = ""topsquare"" ></div><img id = ""stim"" ><div class = green_square  id = ""bottomsquare"" ></div>",null,word_square,response,1,Space,false,,,
html-keyboard-response,685,1286285,null,"COCKTAIL",null,word,,,,, 'COCKTAIL',,
html-keyboard-response,686,1286790,null,"PLAYGROUND<img id = ""stim"" ><div class = red_square id = ""topsquare"" ></div><img id = ""stim"" ><div class = red_square  id = ""bottomsquare"" ></div>",null,word_square,response,0,none,true,,,
html-keyboard-response,687,1288293,null,"PLAYGROUND",null,word,,,,, 'PLAYGROUND',,
html-keyboard-response,688,1288760,464.78500000364147,"DRESS<img id = ""stim"" ><div class = green_square id = ""topsquare"" ></div><img id = ""stim"" ><div class = green_square  id = ""bottomsquare"" ></div>",32,word_square,response,1,Space,true,,,
html-keyboard-response,689,1290266,null,"DRESS",null,word,,,,, 'DRESS',,
html-keyboard-response,690,1290773,null,"POCKET<img id = ""stim"" ><div class = red_square id = ""topsquare"" ></div><img id = ""stim"" ><div class = red_square  id = ""bottomsquare"" ></div>",null,word_square,response,0,none,true,,,
html-keyboard-response,691,1292281,null,"POCKET",null,word,,,,, 'POCKET',,
html-keyboard-response,692,1292634,351.09999999962747,"PATROL<img id = ""stim"" ><div class = green_square id = ""topsquare"" ></div><img id = ""stim"" ><div class = green_square  id = ""bottomsquare"" ></div>",32,word_square,response,1,Space,true,,,
html-keyboard-response,693,1294141,null,"PATROL",null,word,,,,, 'PATROL',,
html-keyboard-response,694,1294647,null,"SUNRISE<img id = ""stim"" ><div class = green_square id = ""topsquare"" ></div><img id = ""stim"" ><div class = green_square  id = ""bottomsquare"" ></div>",null,word_square,response,1,Space,false,,,
html-keyboard-response,695,1296150,null,"SUNRISE",null,word,,,,, 'SUNRISE',,
html-keyboard-response,696,1296652,null,"CANYON<img id = ""stim"" ><div class = red_square id = ""topsquare"" ></div><img id = ""stim"" ><div class = red_square  id = ""bottomsquare"" ></div>",null,word_square,response,0,none,true,,,
html-keyboard-response,697,1298155,null,"CANYON",null,word,,,,, 'CANYON',,
html-keyboard-response,698,1298663,null,"DRESSER<img id = ""stim"" ><div class = green_square id = ""topsquare"" ></div><img id = ""stim"" ><div class = green_square  id = ""bottomsquare"" ></div>",null,word_square,response,1,Space,false,,,
html-keyboard-response,699,1300167,null,"DRESSER",null,word,,,,, 'DRESSER',,
html-keyboard-response,700,1300598,429.3699999980163,"WASHER<img id = ""stim"" ><div class = green_square id = ""topsquare"" ></div><img id = ""stim"" ><div class = green_square  id = ""bottomsquare"" ></div>",32,word_square,response,1,Space,true,,,
html-keyboard-response,701,1302104,null,"WASHER",null,word,,,,, 'WASHER',,
html-keyboard-response,702,1302611,null,"STRANGER<img id = ""stim"" ><div class = red_square id = ""topsquare"" ></div><img id = ""stim"" ><div class = red_square  id = ""bottomsquare"" ></div>",null,word_square,response,0,none,true,,,
html-keyboard-response,703,1304117,null,"STRANGER",null,word,,,,, 'STRANGER',,
html-keyboard-response,704,1304624,null,"SHAMPOO<img id = ""stim"" ><div class = red_square id = ""topsquare"" ></div><img id = ""stim"" ><div class = red_square  id = ""bottomsquare"" ></div>",null,word_square,response,0,none,true,,,
html-keyboard-response,705,1306132,null,"SHAMPOO",null,word,,,,, 'SHAMPOO',,
call-function,706,1306134,,"",,,,,,,,,
html-keyboard-response,707,1306239,null,"",null,,,,,,,,
math-period,708,1307902,3262.5599999953993,"",,,,,,,,,1
html-keyboard-response,709,1308005,null,"",null,,,,,,,,
math-period,710,1309438,2778.44999999064,"",,,,,,,,,1
html-keyboard-response,711,1309543,null,"",null,,,,,,,,
math-period,712,1311454,3736.674999992829,"",,,,,,,,,2
html-keyboard-response,713,1311560,null,"",null,,,,,,,,
math-period,714,1312700,2220.6050000023097,"",,,,,,,,,5
html-keyboard-response,715,1312806,null,"",null,,,,,,,,
math-period,716,1313888,2088.359999987064,"",,,,,,,,,4
html-keyboard-response,717,1313992,null,"",null,,,,,,,,
math-period,718,1315241,2440.679999999935,"",,,,,,,,,3
html-keyboard-response,719,1315345,null,"",null,,,,,,,,
math-period,720,1316375,2003.4650000017136,"",,,,,,,,,4
html-keyboard-response,721,1316477,null,"",null,,,,,,,,
math-period,722,1318021,3016.299999995623,"",,,,,,,,,2
html-keyboard-response,723,1318128,null,"",null,,,,,,,,
math-period,724,1319469,2596.695000000298,"",,,,,,,,,1
html-keyboard-response,725,1319576,null,"",null,,,,,,,,
math-period,726,1320757,2285.3649999960326,"",,,,,,,,,5
html-keyboard-response,727,1320861,null,"",null,,,,,,,,
math-period,728,1322115,2445.404999998631,"",,,,,,,,,4
html-keyboard-response,729,1322219,null,"",null,,,,,,,,
math-period,730,1323797,3066.189999990398,"",,,,,,,,,1
html-keyboard-response,731,1323901,null,"",null,,,,,,,,
math-period,732,1325679,3464.279999999795,"",,,,,,,,,3
html-keyboard-response,733,1325783,null,"",null,,,,,,,,
math-period,734,1326713,1779.1349999969825,"",,,,,,,,,2
html-keyboard-response,735,1326816,null,"",null,,,,,,,,
math-period,736,1327826,1956.6899999920279,"",,,,,,,,,4
html-keyboard-response,737,1327933,null,"",null,,,,,,,,
math-period,738,1328904,1879.684999999823,"",,,,,,,,,3
html-keyboard-response,739,1329010,null,"",null,,,,,,,,
math-period,740,1330139,null,"",,,,,,,,,
html-keyboard-response,741,1331142,null,"Recall Period!",null,,,,,,,,
call-function,742,1331143,,"",,,,,,,,,
html-keyboard-response,743,1331251,null,"",null,,,,,,,,
recall-period,744,1335656,41925.3850000035,"",,,,,,,,,canyon
html-keyboard-response,745,1335760,null,"",null,,,,,,,,
recall-period,746,1337186,5198.930000013206,"",,,,,,,,,bluejay
html-keyboard-response,747,1337292,null,"",null,,,,,,,,
recall-period,748,1338065,3536.3949999876786,"",,,,,,,,,sunrise
html-keyboard-response,749,1338168,null,"",null,,,,,,,,
recall-period,750,1342439,27325.249999987427,"",,,,,,,,,valley
html-keyboard-response,751,1342543,null,"",null,,,,,,,,
recall-period,752,1406146,null,"",,,,,,,,,
html-keyboard-response,753,1406653,null,"Time's Up!",null,,,,,,,,
html-keyboard-response,754,1435626,28971.16499999538,"<p> Uh oh. You responded correctly on 78% of the GREEN squares.</p>
                  <p>We need you keep your accuracy above 80%</p>
                  <p>Press any key to continue the experiment. Thank you!</p>",32,,,,,,,,
html-keyboard-response,755,1436777,1148.8950000056066,"<div style=""font-size:48px;"">Press any key to begin list 8 of 24 </div>",32,,,,,,,,
html-keyboard-response,756,1439282,null,"<div style=""font-size:60px;"">+</div>",null,,,,,,,,
html-keyboard-response,757,1439790,null,"SCOTCH<img id = ""stim"" ><div class = green_square id = ""topsquare"" ></div><img id = ""stim"" ><div class = green_square  id = ""bottomsquare"" ></div>",null,word_square,response,1,Space,false,,,
html-keyboard-response,758,1441292,null,"SCOTCH",null,word,,,,, 'SCOTCH',,
html-keyboard-response,759,1441800,null,"HATCHET<img id = ""stim"" ><div class = red_square id = ""topsquare"" ></div><img id = ""stim"" ><div class = red_square  id = ""bottomsquare"" ></div>",null,word_square,response,0,none,true,,,
html-keyboard-response,760,1443303,null,"HATCHET",null,word,,,,, 'HATCHET',,
html-keyboard-response,761,1443808,null,"QUILT<img id = ""stim"" ><div class = red_square id = ""topsquare"" ></div><img id = ""stim"" ><div class = red_square  id = ""bottomsquare"" ></div>",null,word_square,response,0,none,true,,,
html-keyboard-response,762,1445313,null,"QUILT",null,word,,,,, 'QUILT',,
html-keyboard-response,763,1445817,null,"SHINGLE<img id = ""stim"" ><div class = red_square id = ""topsquare"" ></div><img id = ""stim"" ><div class = red_square  id = ""bottomsquare"" ></div>",null,word_square,response,0,none,true,,,
html-keyboard-response,764,1447323,null,"SHINGLE",null,word,,,,, 'SHINGLE',,
html-keyboard-response,765,1447826,null,"ARM<img id = ""stim"" ><div class = green_square id = ""topsquare"" ></div><img id = ""stim"" ><div class = green_square  id = ""bottomsquare"" ></div>",null,word_square,response,1,Space,false,,,
html-keyboard-response,766,1449332,null,"ARM",null,word,,,,, 'ARM',,
html-keyboard-response,767,1449838,null,"LION<img id = ""stim"" ><div class = red_square id = ""topsquare"" ></div><img id = ""stim"" ><div class = red_square  id = ""bottomsquare"" ></div>",null,word_square,response,0,none,true,,,
html-keyboard-response,768,1451343,null,"LION",null,word,,,,, 'LION',,
html-keyboard-response,769,1451850,null,"RODENT<img id = ""stim"" ><div class = green_square id = ""topsquare"" ></div><img id = ""stim"" ><div class = green_square  id = ""bottomsquare"" ></div>",null,word_square,response,1,Space,false,,,
html-keyboard-response,770,1453352,null,"RODENT",null,word,,,,, 'RODENT',,
html-keyboard-response,771,1453783,428.72499999799766,"CHARCOAL<img id = ""stim"" ><div class = green_square id = ""topsquare"" ></div><img id = ""stim"" ><div class = green_square  id = ""bottomsquare"" ></div>",32,word_square,response,1,Space,true,,,
html-keyboard-response,772,1455291,null,"CHARCOAL",null,word,,,,, 'CHARCOAL',,
html-keyboard-response,773,1455798,null,"ROBBER<img id = ""stim"" ><div class = red_square id = ""topsquare"" ></div><img id = ""stim"" ><div class = red_square  id = ""bottomsquare"" ></div>",null,word_square,response,0,none,true,,,
html-keyboard-response,774,1457304,null,"ROBBER",null,word,,,,, 'ROBBER',,
html-keyboard-response,775,1457809,null,"SKUNK<img id = ""stim"" ><div class = green_square id = ""topsquare"" ></div><img id = ""stim"" ><div class = green_square  id = ""bottomsquare"" ></div>",null,word_square,response,1,Space,false,,,
html-keyboard-response,776,1459316,null,"SKUNK",null,word,,,,, 'SKUNK',,
html-keyboard-response,777,1459820,null,"COWBOY<img id = ""stim"" ><div class = red_square id = ""topsquare"" ></div><img id = ""stim"" ><div class = red_square  id = ""bottomsquare"" ></div>",null,word_square,response,0,none,true,,,
html-keyboard-response,778,1461323,null,"COWBOY",null,word,,,,, 'COWBOY',,
html-keyboard-response,779,1461668,342.7799999990966,"SADDLE<img id = ""stim"" ><div class = green_square id = ""topsquare"" ></div><img id = ""stim"" ><div class = green_square  id = ""bottomsquare"" ></div>",32,word_square,response,1,Space,true,,,
html-keyboard-response,780,1463175,null,"SADDLE",null,word,,,,, 'SADDLE',,
html-keyboard-response,781,1463553,375.8549999985844,"ICEBERG<img id = ""stim"" ><div class = green_square id = ""topsquare"" ></div><img id = ""stim"" ><div class = green_square  id = ""bottomsquare"" ></div>",32,word_square,response,1,Space,true,,,
html-keyboard-response,782,1465057,null,"ICEBERG",null,word,,,,, 'ICEBERG',,
html-keyboard-response,783,1465560,null,"SURGEON<img id = ""stim"" ><div class = red_square id = ""topsquare"" ></div><img id = ""stim"" ><div class = red_square  id = ""bottomsquare"" ></div>",null,word_square,response,0,none,true,,,
html-keyboard-response,784,1467064,null,"SURGEON",null,word,,,,, 'SURGEON',,
html-keyboard-response,785,1467400,333.7249999968335,"SPOON<img id = ""stim"" ><div class = green_square id = ""topsquare"" ></div><img id = ""stim"" ><div class = green_square  id = ""bottomsquare"" ></div>",32,word_square,response,1,Space,true,,,
html-keyboard-response,786,1468907,null,"SPOON",null,word,,,,, 'SPOON',,
html-keyboard-response,787,1469395,486.06500000460073,"KNIFE<img id = ""stim"" ><div class = green_square id = ""topsquare"" ></div><img id = ""stim"" ><div class = green_square  id = ""bottomsquare"" ></div>",32,word_square,response,1,Space,true,,,
html-keyboard-response,788,1470900,null,"KNIFE",null,word,,,,, 'KNIFE',,
html-keyboard-response,789,1471403,null,"KLEENEX<img id = ""stim"" ><div class = red_square id = ""topsquare"" ></div><img id = ""stim"" ><div class = red_square  id = ""bottomsquare"" ></div>",null,word_square,response,0,none,true,,,
html-keyboard-response,790,1472910,null,"KLEENEX",null,word,,,,, 'KLEENEX',,
html-keyboard-response,791,1473217,304.12999999686144,"LEOPARD<img id = ""stim"" ><div class = red_square id = ""topsquare"" ></div><img id = ""stim"" ><div class = red_square  id = ""bottomsquare"" ></div>",32,word_square,response,0,none,false,,,
html-keyboard-response,792,1474724,null,"LEOPARD",null,word,,,,, 'LEOPARD',,
call-function,793,1474725,,"",,,,,,,,,
html-keyboard-response,794,1474832,null,"",null,,,,,,,,
math-period,795,1476386,3008.5300000063144,"",,,,,,,,,5
html-keyboard-response,796,1476491,null,"",null,,,,,,,,
math-period,797,1477909,2731.9250000072643,"",,,,,,,,,2
html-keyboard-response,798,1478016,null,"",null,,,,,,,,
math-period,799,1478823,1569.6799999934155,"",,,,,,,,,3
html-keyboard-response,800,1478929,null,"",null,,,,,,,,
math-period,801,1480279,2617.489999996964,"",,,,,,,,,1
html-keyboard-response,802,1480386,null,"",null,,,,,,,,
math-period,803,1481386,1930.9100000027101,"",,,,,,,,,4
html-keyboard-response,804,1481490,null,"",null,,,,,,,,
math-period,805,1482379,1689.7900000039954,"",,,,,,,,,2
html-keyboard-response,806,1482483,null,"",null,,,,,,,,
math-period,807,1483945,2830.5949999995064,"",,,,,,,,,1
html-keyboard-response,808,1484049,null,"",null,,,,,,,,
math-period,809,1485130,2060.1599999936298,"",,,,,,,,,4
html-keyboard-response,810,1485234,null,"",null,,,,,,,,
math-period,811,1486106,1651.2199999997392,"",,,,,,,,,4
html-keyboard-response,812,1486211,null,"",null,,,,,,,,
math-period,813,1487594,2707.030000012368,"",,,,,,,,,5
html-keyboard-response,814,1487698,null,"",null,,,,,,,,
math-period,815,1489274,3075.2350000038277,"",,,,,,,,,1
html-keyboard-response,816,1489376,null,"",null,,,,,,,,
math-period,817,1493254,6634.470000004396,"",,,,,,,,,5
html-keyboard-response,818,1493358,null,"",null,,,,,,,,
math-period,819,1494506,2245.594999999972,"",,,,,,,,,4
html-keyboard-response,820,1494613,null,"",null,,,,,,,,
math-period,821,1495781,2273.8349999999627,"",,,,,,,,,1
html-keyboard-response,822,1495885,null,"",null,,,,,,,,
math-period,823,1497609,3356.715000001481,"",,,,,,,,,4
html-keyboard-response,824,1497713,null,"",null,,,,,,,,
math-period,825,1498600,1717.0400000032969,"",,,,,,,,,2
html-keyboard-response,826,1498704,null,"",null,,,,,,,,
math-period,827,1498729,null,"",,,,,,,,,
html-keyboard-response,828,1499731,null,"Recall Period!",null,,,,,,,,
call-function,829,1499733,,"",,,,,,,,,
html-keyboard-response,830,1499838,null,"",null,,,,,,,,
recall-period,831,1507112,46276.88999999431,"",,,,,,,,,scotch
html-keyboard-response,832,1507216,null,"",null,,,,,,,,
recall-period,833,1508510,5949.439999989932,"",,,,,,,,,charcoal
html-keyboard-response,834,1508614,null,"",null,,,,,,,,
recall-period,835,1509355,2795.2300000027753,"",,,,,,,,,hand
html-keyboard-response,836,1509459,null,"",null,,,,,,,,
recall-period,837,1512319,16849.60499998927,"",,,,,,,,,robber
html-keyboard-response,838,1512423,null,"",null,,,,,,,,
recall-period,839,1574739,null,"",,,,,,,,,
html-keyboard-response,840,1575243,null,"Time's Up!",null,,,,,,,,
html-keyboard-response,841,1657930,82683.14500000258,"<p> Uh oh. You responded correctly on 77% of the GREEN squares.</p>
                  <p>We need you keep your accuracy above 80%</p>
                  <p>Press any key to continue the experiment. Thank you!</p>",32,,,,,,,,
html-keyboard-response,842,1658776,843.7449999982491,"<div style=""font-size:48px;"">Press any key to begin list 9 of 24 </div>",32,,,,,,,,
html-keyboard-response,843,1661285,null,"<div style=""font-size:60px;"">+</div>",null,,,,,,,,
html-keyboard-response,844,1661791,null,"SCALLOP<img id = ""stim"" ><div class = red_square id = ""topsquare"" ></div><img id = ""stim"" ><div class = red_square  id = ""bottomsquare"" ></div>",null,word_square,response,0,none,true,,,
html-keyboard-response,845,1663293,null,"SCALLOP",null,word,,,,, 'SCALLOP',,
html-keyboard-response,846,1663797,null,"WITNESS<img id = ""stim"" ><div class = red_square id = ""topsquare"" ></div><img id = ""stim"" ><div class = red_square  id = ""bottomsquare"" ></div>",null,word_square,response,0,none,true,,,
html-keyboard-response,847,1665300,null,"WITNESS",null,word,,,,, 'WITNESS',,
html-keyboard-response,848,1665805,null,"VICTIM<img id = ""stim"" ><div class = green_square id = ""topsquare"" ></div><img id = ""stim"" ><div class = green_square  id = ""bottomsquare"" ></div>",null,word_square,response,1,Space,false,,,
html-keyboard-response,849,1667308,null,"VICTIM",null,word,,,,, 'VICTIM',,
html-keyboard-response,850,1667816,null,"AIRCRAFT<img id = ""stim"" ><div class = green_square id = ""topsquare"" ></div><img id = ""stim"" ><div class = green_square  id = ""bottomsquare"" ></div>",null,word_square,response,1,Space,false,,,
html-keyboard-response,851,1669319,null,"AIRCRAFT",null,word,,,,, 'AIRCRAFT',,
html-keyboard-response,852,1669823,null,"WAREHOUSE<img id = ""stim"" ><div class = red_square id = ""topsquare"" ></div><img id = ""stim"" ><div class = red_square  id = ""bottomsquare"" ></div>",null,word_square,response,0,none,true,,,
html-keyboard-response,853,1671326,null,"WAREHOUSE",null,word,,,,, 'WAREHOUSE',,
html-keyboard-response,854,1671829,null,"RIVER<img id = ""stim"" ><div class = red_square id = ""topsquare"" ></div><img id = ""stim"" ><div class = red_square  id = ""bottomsquare"" ></div>",null,word_square,response,0,none,true,,,
html-keyboard-response,855,1673334,null,"RIVER",null,word,,,,, 'RIVER',,
html-keyboard-response,856,1673840,null,"NOTEBOOK<img id = ""stim"" ><div class = green_square id = ""topsquare"" ></div><img id = ""stim"" ><div class = green_square  id = ""bottomsquare"" ></div>",null,word_square,response,1,Space,false,,,
html-keyboard-response,857,1675344,null,"NOTEBOOK",null,word,,,,, 'NOTEBOOK',,
html-keyboard-response,858,1675851,null,"PAPER<img id = ""stim"" ><div class = green_square id = ""topsquare"" ></div><img id = ""stim"" ><div class = green_square  id = ""bottomsquare"" ></div>",null,word_square,response,1,Space,false,,,
html-keyboard-response,859,1677353,null,"PAPER",null,word,,,,, 'PAPER',,
html-keyboard-response,860,1677859,null,"SCALPEL<img id = ""stim"" ><div class = red_square id = ""topsquare"" ></div><img id = ""stim"" ><div class = red_square  id = ""bottomsquare"" ></div>",null,word_square,response,0,none,true,,,
html-keyboard-response,861,1679364,null,"SCALPEL",null,word,,,,, 'SCALPEL',,
html-keyboard-response,862,1679866,499.75000000256114,"DAGGER<img id = ""stim"" ><div class = green_square id = ""topsquare"" ></div><img id = ""stim"" ><div class = green_square  id = ""bottomsquare"" ></div>",32,word_square,response,1,Space,true,,,
html-keyboard-response,863,1681369,null,"DAGGER",null,word,,,,, 'DAGGER',,
html-keyboard-response,864,1681876,null,"POSSUM<img id = ""stim"" ><div class = red_square id = ""topsquare"" ></div><img id = ""stim"" ><div class = red_square  id = ""bottomsquare"" ></div>",null,word_square,response,0,none,true,,,
html-keyboard-response,865,1683378,null,"POSSUM",null,word,,,,, 'POSSUM',,
html-keyboard-response,866,1683819,439.2650000008289,"WINDSHIELD<img id = ""stim"" ><div class = green_square id = ""topsquare"" ></div><img id = ""stim"" ><div class = green_square  id = ""bottomsquare"" ></div>",32,word_square,response,1,Space,true,,,
html-keyboard-response,867,1685324,null,"WINDSHIELD",null,word,,,,, 'WINDSHIELD',,
html-keyboard-response,868,1685766,439.3950000011828,"BOULDER<img id = ""stim"" ><div class = green_square id = ""topsquare"" ></div><img id = ""stim"" ><div class = green_square  id = ""bottomsquare"" ></div>",32,word_square,response,1,Space,true,,,
html-keyboard-response,869,1687268,null,"BOULDER",null,word,,,,, 'BOULDER',,
html-keyboard-response,870,1687776,null,"BANDAGE<img id = ""stim"" ><div class = red_square id = ""topsquare"" ></div><img id = ""stim"" ><div class = red_square  id = ""bottomsquare"" ></div>",null,word_square,response,0,none,true,,,
html-keyboard-response,871,1689280,null,"BANDAGE",null,word,,,,, 'BANDAGE',,
html-keyboard-response,872,1689718,436.04500000202097,"PANTHER<img id = ""stim"" ><div class = green_square id = ""topsquare"" ></div><img id = ""stim"" ><div class = green_square  id = ""bottomsquare"" ></div>",32,word_square,response,1,Space,true,,,
html-keyboard-response,873,1691225,null,"PANTHER",null,word,,,,, 'PANTHER',,
html-keyboard-response,874,1691727,null,"BEAST<img id = ""stim"" ><div class = red_square id = ""topsquare"" ></div><img id = ""stim"" ><div class = red_square  id = ""bottomsquare"" ></div>",null,word_square,response,0,none,true,,,
html-keyboard-response,875,1693234,null,"BEAST",null,word,,,,, 'BEAST',,
html-keyboard-response,876,1693742,null,"EGYPT<img id = ""stim"" ><div class = red_square id = ""topsquare"" ></div><img id = ""stim"" ><div class = red_square  id = ""bottomsquare"" ></div>",null,word_square,response,0,none,true,,,
html-keyboard-response,877,1695247,null,"EGYPT",null,word,,,,, 'EGYPT',,
html-keyboard-response,878,1695698,448.375,"STAMP<img id = ""stim"" ><div class = green_square id = ""topsquare"" ></div><img id = ""stim"" ><div class = green_square  id = ""bottomsquare"" ></div>",32,word_square,response,1,Space,true,,,
html-keyboard-response,879,1697205,null,"STAMP",null,word,,,,, 'STAMP',,
call-function,880,1697206,,"",,,,,,,,,
html-keyboard-response,881,1697311,null,"",null,,,,,,,,
math-period,882,1698856,3039.179999999702,"",,,,,,,,,2
html-keyboard-response,883,1698962,null,"",null,,,,,,,,
math-period,884,1700474,2941.439999994822,"",,,,,,,,,2
html-keyboard-response,885,1700579,null,"",null,,,,,,,,
math-period,886,1703231,5117.539999999106,"",,,,,,,,,0
html-keyboard-response,887,1703335,null,"",null,,,,,,,,
math-period,888,1705059,3267.6000000066124,"",,,,,,,,,0
html-keyboard-response,889,1705163,null,"",null,,,,,,,,
math-period,890,1708064,5749.420000007376,"",,,,,,,,,3
html-keyboard-response,891,1708172,null,"",null,,,,,,,,
math-period,892,1709145,1895.2649999917485,"",,,,,,,,,4
html-keyboard-response,893,1709248,null,"",null,,,,,,,,
math-period,894,1710308,2044.7699999932665,"",,,,,,,,,3
html-keyboard-response,895,1710412,null,"",null,,,,,,,,
math-period,896,1712016,3153.2150000059046,"",,,,,,,,,1
html-keyboard-response,897,1712121,null,"",null,,,,,,,,
math-period,898,1714076,3829.9900000058115,"",,,,,,,,,1
html-keyboard-response,899,1714184,null,"",null,,,,,,,,
math-period,900,1716307,3881.5049999977928,"",,,,,,,,,3
html-keyboard-response,901,1716411,null,"",null,,,,,,,,
math-period,902,1718261,3608.0000000004657,"",,,,,,,,,2
html-keyboard-response,903,1718365,null,"",null,,,,,,,,
math-period,904,1721213,null,"",,,,,,,,,
html-keyboard-response,905,1722218,null,"Recall Period!",null,,,,,,,,
call-function,906,1722219,,"",,,,,,,,,
html-keyboard-response,907,1722326,null,"",null,,,,,,,,
recall-period,908,1725254,17822.8300000038,"",,,,,,,,,scallop
html-keyboard-response,909,1725359,null,"",null,,,,,,,,
recall-period,910,1797981,51913.15000000014,"",,,,,,,,, 
html-keyboard-response,911,1799020,null,"Time's Up!",null,,,,,,,,
html-keyboard-response,912,1882070,83047.14499999676,"<p> Uh oh. You responded correctly on 77% of the GREEN squares.</p>
                  <p>We need you keep your accuracy above 80%</p>
                  <p>Press any key to continue the experiment. Thank you!</p>",32,,,,,,,,
html-keyboard-response,913,1888313,6241.129999994999,"<div style=""font-size:48px;"">Press any key to begin list 10 of 24 </div>",32,,,,,,,,
html-keyboard-response,914,1890819,null,"<div style=""font-size:60px;"">+</div>",null,,,,,,,,
html-keyboard-response,915,1891322,null,"MAGNET<img id = ""stim"" ><div class = red_square id = ""topsquare"" ></div><img id = ""stim"" ><div class = red_square  id = ""bottomsquare"" ></div>",null,word_square,response,0,none,true,,,
html-keyboard-response,916,1892824,null,"MAGNET",null,word,,,,, 'MAGNET',,
html-keyboard-response,917,1893332,null,"DIVER<img id = ""stim"" ><div class = red_square id = ""topsquare"" ></div><img id = ""stim"" ><div class = red_square  id = ""bottomsquare"" ></div>",null,word_square,response,0,none,true,,,
html-keyboard-response,918,1894834,null,"DIVER",null,word,,,,, 'DIVER',,
html-keyboard-response,919,1895292,455.965000001248,"RAFT<img id = ""stim"" ><div class = green_square id = ""topsquare"" ></div><img id = ""stim"" ><div class = green_square  id = ""bottomsquare"" ></div>",32,word_square,response,1,Space,true,,,
html-keyboard-response,920,1896800,null,"RAFT",null,word,,,,, 'RAFT',,
html-keyboard-response,921,1897303,null,"CARPET<img id = ""stim"" ><div class = green_square id = ""topsquare"" ></div><img id = ""stim"" ><div class = green_square  id = ""bottomsquare"" ></div>",null,word_square,response,1,Space,false,,,
html-keyboard-response,922,1898809,null,"CARPET",null,word,,,,, 'CARPET',,
html-keyboard-response,923,1899312,null,"KEEPER<img id = ""stim"" ><div class = red_square id = ""topsquare"" ></div><img id = ""stim"" ><div class = red_square  id = ""bottomsquare"" ></div>",null,word_square,response,0,none,true,,,
html-keyboard-response,924,1900820,null,"KEEPER",null,word,,,,, 'KEEPER',,
html-keyboard-response,925,1901326,null,"IDOL<img id = ""stim"" ><div class = red_square id = ""topsquare"" ></div><img id = ""stim"" ><div class = red_square  id = ""bottomsquare"" ></div>",null,word_square,response,0,none,true,,,
html-keyboard-response,926,1902833,null,"IDOL",null,word,,,,, 'IDOL',,
html-keyboard-response,927,1903338,null,"ACTRESS<img id = ""stim"" ><div class = green_square id = ""topsquare"" ></div><img id = ""stim"" ><div class = green_square  id = ""bottomsquare"" ></div>",null,word_square,response,1,Space,false,,,
html-keyboard-response,928,1904841,null,"ACTRESS",null,word,,,,, 'ACTRESS',,
html-keyboard-response,929,1905344,null,"PATIENT<img id = ""stim"" ><div class = green_square id = ""topsquare"" ></div><img id = ""stim"" ><div class = green_square  id = ""bottomsquare"" ></div>",null,word_square,response,1,Space,false,,,
html-keyboard-response,930,1906848,null,"PATIENT",null,word,,,,, 'PATIENT',,
html-keyboard-response,931,1907356,null,"COURSE<img id = ""stim"" ><div class = red_square id = ""topsquare"" ></div><img id = ""stim"" ><div class = red_square  id = ""bottomsquare"" ></div>",null,word_square,response,0,none,true,,,
html-keyboard-response,932,1908860,null,"COURSE",null,word,,,,, 'COURSE',,
html-keyboard-response,933,1909362,null,"SIRLOIN<img id = ""stim"" ><div class = green_square id = ""topsquare"" ></div><img id = ""stim"" ><div class = green_square  id = ""bottomsquare"" ></div>",null,word_square,response,1,Space,false,,,
html-keyboard-response,934,1910865,null,"SIRLOIN",null,word,,,,, 'SIRLOIN',,
html-keyboard-response,935,1911370,null,"PEOPLE<img id = ""stim"" ><div class = red_square id = ""topsquare"" ></div><img id = ""stim"" ><div class = red_square  id = ""bottomsquare"" ></div>",null,word_square,response,0,none,true,,,
html-keyboard-response,936,1912875,null,"PEOPLE",null,word,,,,, 'PEOPLE',,
html-keyboard-response,937,1913380,null,"WIDOW<img id = ""stim"" ><div class = green_square id = ""topsquare"" ></div><img id = ""stim"" ><div class = green_square  id = ""bottomsquare"" ></div>",null,word_square,response,1,Space,false,,,
html-keyboard-response,938,1914885,null,"WIDOW",null,word,,,,, 'WIDOW',,
html-keyboard-response,939,1915392,null,"GRAVE<img id = ""stim"" ><div class = green_square id = ""topsquare"" ></div><img id = ""stim"" ><div class = green_square  id = ""bottomsquare"" ></div>",null,word_square,response,1,Space,false,,,
