trial_type,trial_index,time_elapsed,rt,stimulus,key_press,test_part,task,targ_cond,correctKeyCode,correct,word,value,response
pavlovia,0,897,,"",,,,,,,,,
external-html,1,5545,4540,"",,,,,,,,,
html-keyboard-response,2,7310,1761,"Welcome to the experiment. Press any key to begin.",32,,,,,,,,
html-keyboard-response,3,37059,29745,"<p>You will see a list of words and colored squares in the following task.<p><p>Press the spacebar whenever you see a GREEN square.<p><p>Do not press a key if the square is RED<p><p>Press the spacebar to continue.</p>",32,,,,,,,,
html-keyboard-response,4,50317,12753,"<p>Please try to remember as many of the words as you can, and try to think about the meaning of each word as it appears.<p><p>After the detection and encoding task you will be asked to solve some math problems for 24 seconds.<p> Please solve as many problems as you can in the time given. <p>",32,,,,,,,,
html-keyboard-response,5,63237,12415.999999999993,"After solving the math problems, you will be asked to type in as many words <p>from the previous list as you can remember for 75 seconds.<p> If you finish recalling before the 75 seconds are up,<p> just sit tight and try to think of any more words you could have missed. <p><p>We will begin with a brief practice session<p>Press the spacebar to begin the practice.</p>",32,,,,,,,,
html-keyboard-response,6,65743,null,"<div style=""font-size:60px;"">+</div>",null,,,,,,,,
html-keyboard-response,7,66248,null,"HAPPY<img id = ""stim"" ><div class = red_square id = ""topsquare"" ></div><img id = ""stim"" ><div class = red_square  id = ""bottomsquare"" ></div>",null,word_square,prac_response,0,none,true,,,
html-keyboard-response,8,67753,null,"HAPPY",null,word,,,,,HAPPY,,
html-keyboard-response,9,68259,null,"COLD<img id = ""stim"" ><div class = green_square id = ""topsquare"" ></div><img id = ""stim"" ><div class = green_square  id = ""bottomsquare"" ></div>",null,word_square,prac_response,1,Space,false,,,
html-keyboard-response,10,69764,null,"COLD",null,word,,,,,COLD,,
html-keyboard-response,11,70269,454,"HEAVY<img id = ""stim"" ><div class = green_square id = ""topsquare"" ></div><img id = ""stim"" ><div class = green_square  id = ""bottomsquare"" ></div>",32,word_square,prac_response,1,Space,true,,,
html-keyboard-response,12,71774,null,"HEAVY",null,word,,,,,HEAVY,,
html-keyboard-response,13,72279,null,"FUNNY<img id = ""stim"" ><div class = red_square id = ""topsquare"" ></div><img id = ""stim"" ><div class = red_square  id = ""bottomsquare"" ></div>",null,word_square,prac_response,0,none,true,,,
html-keyboard-response,14,73784,null,"FUNNY",null,word,,,,,FUNNY,,
html-keyboard-response,15,74289,420,"SCARY<img id = ""stim"" ><div class = green_square id = ""topsquare"" ></div><img id = ""stim"" ><div class = green_square  id = ""bottomsquare"" ></div>",32,word_square,prac_response,1,Space,true,,,
html-keyboard-response,16,75794,null,"SCARY",null,word,,,,,SCARY,,
html-keyboard-response,17,76309,428.99999999998545,"PEACEFUL<img id = ""stim"" ><div class = green_square id = ""topsquare"" ></div><img id = ""stim"" ><div class = green_square  id = ""bottomsquare"" ></div>",32,word_square,prac_response,1,Space,true,,,
html-keyboard-response,18,77813,null,"PEACEFUL",null,word,,,,,PEACEFUL,,
html-keyboard-response,19,78318,null,"LITTLE<img id = ""stim"" ><div class = red_square id = ""topsquare"" ></div><img id = ""stim"" ><div class = red_square  id = ""bottomsquare"" ></div>",null,word_square,prac_response,0,none,true,,,
html-keyboard-response,20,79823,null,"LITTLE",null,word,,,,,LITTLE,,
html-keyboard-response,21,80327,null,"TIRED<img id = ""stim"" ><div class = red_square id = ""topsquare"" ></div><img id = ""stim"" ><div class = red_square  id = ""bottomsquare"" ></div>",null,word_square,prac_response,0,none,true,,,
html-keyboard-response,22,81831,null,"TIRED",null,word,,,,,TIRED,,
html-keyboard-response,23,82337,null,"ENTERTAINING<img id = ""stim"" ><div class = red_square id = ""topsquare"" ></div><img id = ""stim"" ><div class = red_square  id = ""bottomsquare"" ></div>",null,word_square,prac_response,0,none,true,,,
html-keyboard-response,24,83842,null,"ENTERTAINING",null,word,,,,,ENTERTAINING,,
html-keyboard-response,25,84347,423,"GRATEFUL<img id = ""stim"" ><div class = green_square id = ""topsquare"" ></div><img id = ""stim"" ><div class = green_square  id = ""bottomsquare"" ></div>",32,word_square,prac_response,1,Space,true,,,
html-keyboard-response,26,85852,null,"GRATEFUL",null,word,,,,,GRATEFUL,,
html-keyboard-response,27,86357,null,"LOUD<img id = ""stim"" ><div class = red_square id = ""topsquare"" ></div><img id = ""stim"" ><div class = red_square  id = ""bottomsquare"" ></div>",null,word_square,prac_response,0,none,true,,,
html-keyboard-response,28,87861,null,"LOUD",null,word,,,,,LOUD,,
html-keyboard-response,29,88366,null,"SMART<img id = ""stim"" ><div class = green_square id = ""topsquare"" ></div><img id = ""stim"" ><div class = green_square  id = ""bottomsquare"" ></div>",null,word_square,prac_response,1,Space,false,,,
html-keyboard-response,30,89871,null,"SMART",null,word,,,,,SMART,,
html-keyboard-response,31,90373,383,"SMOOTH<img id = ""stim"" ><div class = green_square id = ""topsquare"" ></div><img id = ""stim"" ><div class = green_square  id = ""bottomsquare"" ></div>",32,word_square,prac_response,1,Space,true,,,
html-keyboard-response,32,91875,null,"SMOOTH",null,word,,,,,SMOOTH,,
html-keyboard-response,33,92380,null,"DISHONEST<img id = ""stim"" ><div class = red_square id = ""topsquare"" ></div><img id = ""stim"" ><div class = red_square  id = ""bottomsquare"" ></div>",null,word_square,prac_response,0,none,true,,,
html-keyboard-response,34,93885,null,"DISHONEST",null,word,,,,,DISHONEST,,
html-keyboard-response,35,94390,407,"WEALTHY<img id = ""stim"" ><div class = green_square id = ""topsquare"" ></div><img id = ""stim"" ><div class = green_square  id = ""bottomsquare"" ></div>",32,word_square,prac_response,1,Space,true,,,
html-keyboard-response,36,95895,null,"WEALTHY",null,word,,,,,WEALTHY,,
html-keyboard-response,37,96400,null,"BEAUTIFUL<img id = ""stim"" ><div class = red_square id = ""topsquare"" ></div><img id = ""stim"" ><div class = red_square  id = ""bottomsquare"" ></div>",null,word_square,prac_response,0,none,true,,,
html-keyboard-response,38,97905,null,"BEAUTIFUL",null,word,,,,,BEAUTIFUL,,
html-keyboard-response,39,98414,null,"DREARY<img id = ""stim"" ><div class = red_square id = ""topsquare"" ></div><img id = ""stim"" ><div class = red_square  id = ""bottomsquare"" ></div>",null,word_square,prac_response,0,none,true,,,
html-keyboard-response,40,99920,null,"DREARY",null,word,,,,,DREARY,,
html-keyboard-response,41,100425,null,"PLAYFUL<img id = ""stim"" ><div class = green_square id = ""topsquare"" ></div><img id = ""stim"" ><div class = green_square  id = ""bottomsquare"" ></div>",null,word_square,prac_response,1,Space,false,,,
html-keyboard-response,42,101930,null,"PLAYFUL",null,word,,,,,PLAYFUL,,
html-keyboard-response,43,109102,7165,"<p> Good job! You responded correctly to 83% of the GREEN squares.</p>
                  <p>Be sure to keep your accuracy above 80%</p>
                  <p>We're going to try once more to make sure you understand  the task. press any key to continue. </p>",32,,,,,,,,
html-keyboard-response,44,113992,4886.999999999985,"<p>You will see a list of words and colored squares in the following task.<p><p>Press the spacebar whenever you see a GREEN square.<p><p>Do not press a key if the square is RED<p><p>Press the spacebar to continue.</p>",32,,,,,,,,
html-keyboard-response,45,116499,null,"<div style=""font-size:60px;"">+</div>",null,,,,,,,,
html-keyboard-response,46,117003,null,"HAPPY<img id = ""stim"" ><div class = red_square id = ""topsquare"" ></div><img id = ""stim"" ><div class = red_square  id = ""bottomsquare"" ></div>",null,word_square,response,0,none,true,,,
html-keyboard-response,47,118508,null,"HAPPY",null,word,,,,,HAPPY,,
html-keyboard-response,48,119013,null,"COLD<img id = ""stim"" ><div class = green_square id = ""topsquare"" ></div><img id = ""stim"" ><div class = green_square  id = ""bottomsquare"" ></div>",null,word_square,response,1,Space,false,,,
html-keyboard-response,49,120518,null,"COLD",null,word,,,,,COLD,,
html-keyboard-response,50,120909,387,"HEAVY<img id = ""stim"" ><div class = green_square id = ""topsquare"" ></div><img id = ""stim"" ><div class = green_square  id = ""bottomsquare"" ></div>",32,word_square,response,1,Space,true,,,
html-keyboard-response,51,122413,null,"HEAVY",null,word,,,,,HEAVY,,
html-keyboard-response,52,122918,null,"FUNNY<img id = ""stim"" ><div class = red_square id = ""topsquare"" ></div><img id = ""stim"" ><div class = red_square  id = ""bottomsquare"" ></div>",null,word_square,response,0,none,true,,,
html-keyboard-response,53,124423,null,"FUNNY",null,word,,,,,FUNNY,,
html-keyboard-response,54,124796,369,"SCARY<img id = ""stim"" ><div class = green_square id = ""topsquare"" ></div><img id = ""stim"" ><div class = green_square  id = ""bottomsquare"" ></div>",32,word_square,response,1,Space,true,,,
html-keyboard-response,55,126300,null,"SCARY",null,word,,,,,SCARY,,
html-keyboard-response,56,126680,375.99999999998545,"PEACEFUL<img id = ""stim"" ><div class = green_square id = ""topsquare"" ></div><img id = ""stim"" ><div class = green_square  id = ""bottomsquare"" ></div>",32,word_square,response,1,Space,true,,,
html-keyboard-response,57,128185,null,"PEACEFUL",null,word,,,,,PEACEFUL,,
html-keyboard-response,58,128689,null,"LITTLE<img id = ""stim"" ><div class = red_square id = ""topsquare"" ></div><img id = ""stim"" ><div class = red_square  id = ""bottomsquare"" ></div>",null,word_square,response,0,none,true,,,
html-keyboard-response,59,130194,null,"LITTLE",null,word,,,,,LITTLE,,
html-keyboard-response,60,130698,null,"TIRED<img id = ""stim"" ><div class = red_square id = ""topsquare"" ></div><img id = ""stim"" ><div class = red_square  id = ""bottomsquare"" ></div>",null,word_square,response,0,none,true,,,
html-keyboard-response,61,132202,null,"TIRED",null,word,,,,,TIRED,,
html-keyboard-response,62,132707,null,"ENTERTAINING<img id = ""stim"" ><div class = red_square id = ""topsquare"" ></div><img id = ""stim"" ><div class = red_square  id = ""bottomsquare"" ></div>",null,word_square,response,0,none,true,,,
html-keyboard-response,63,134211,null,"ENTERTAINING",null,word,,,,,ENTERTAINING,,
html-keyboard-response,64,134682,467,"GRATEFUL<img id = ""stim"" ><div class = green_square id = ""topsquare"" ></div><img id = ""stim"" ><div class = green_square  id = ""bottomsquare"" ></div>",32,word_square,response,1,Space,true,,,
html-keyboard-response,65,136186,null,"GRATEFUL",null,word,,,,,GRATEFUL,,
html-keyboard-response,66,136691,null,"LOUD<img id = ""stim"" ><div class = red_square id = ""topsquare"" ></div><img id = ""stim"" ><div class = red_square  id = ""bottomsquare"" ></div>",null,word_square,response,0,none,true,,,
html-keyboard-response,67,138195,null,"LOUD",null,word,,,,,LOUD,,
html-keyboard-response,68,138690,490,"SMART<img id = ""stim"" ><div class = green_square id = ""topsquare"" ></div><img id = ""stim"" ><div class = green_square  id = ""bottomsquare"" ></div>",32,word_square,response,1,Space,true,,,
html-keyboard-response,69,140195,null,"SMART",null,word,,,,,SMART,,
html-keyboard-response,70,140619,420,"SMOOTH<img id = ""stim"" ><div class = green_square id = ""topsquare"" ></div><img id = ""stim"" ><div class = green_square  id = ""bottomsquare"" ></div>",32,word_square,response,1,Space,true,,,
html-keyboard-response,71,142123,null,"SMOOTH",null,word,,,,,SMOOTH,,
html-keyboard-response,72,142628,null,"DISHONEST<img id = ""stim"" ><div class = red_square id = ""topsquare"" ></div><img id = ""stim"" ><div class = red_square  id = ""bottomsquare"" ></div>",null,word_square,response,0,none,true,,,
html-keyboard-response,73,144133,null,"DISHONEST",null,word,,,,,DISHONEST,,
html-keyboard-response,74,144519,382,"WEALTHY<img id = ""stim"" ><div class = green_square id = ""topsquare"" ></div><img id = ""stim"" ><div class = green_square  id = ""bottomsquare"" ></div>",32,word_square,response,1,Space,true,,,
html-keyboard-response,75,146024,null,"WEALTHY",null,word,,,,,WEALTHY,,
html-keyboard-response,76,146529,null,"BEAUTIFUL<img id = ""stim"" ><div class = red_square id = ""topsquare"" ></div><img id = ""stim"" ><div class = red_square  id = ""bottomsquare"" ></div>",null,word_square,response,0,none,true,,,
html-keyboard-response,77,148033,null,"BEAUTIFUL",null,word,,,,,BEAUTIFUL,,
html-keyboard-response,78,148538,null,"DREARY<img id = ""stim"" ><div class = red_square id = ""topsquare"" ></div><img id = ""stim"" ><div class = red_square  id = ""bottomsquare"" ></div>",null,word_square,response,0,none,true,,,
html-keyboard-response,79,150043,null,"DREARY",null,word,,,,,DREARY,,
html-keyboard-response,80,150441,394.9999999999709,"PLAYFUL<img id = ""stim"" ><div class = green_square id = ""topsquare"" ></div><img id = ""stim"" ><div class = green_square  id = ""bottomsquare"" ></div>",32,word_square,response,1,Space,true,,,
html-keyboard-response,81,151946,null,"PLAYFUL",null,word,,,,,PLAYFUL,,
html-keyboard-response,82,154247,2297,"<p> Good job! You responded correctly to 94% of the GREEN squares.</p>
                  <p>Be sure to keep your accuracy above 80%</p>
                  <p>Press any key to begin the math and recall sections. Thank you!</p>",32,,,,,,,,
call-function,83,154250,,"",,,,,,,,,
html-keyboard-response,84,154353,null,"",null,,,,,,,,
math-period,85,160385,15219,"",,,,,,,,,4 
html-keyboard-response,86,160490,null,"",null,,,,,,,,
math-period,87,162579,4037,"",,,,,,,,,1
html-keyboard-response,88,162685,null,"",null,,,,,,,,
math-period,89,164775,4094.999999999942,"",,,,,,,,,4
html-keyboard-response,90,164880,null,"",null,,,,,,,,
math-period,91,167662,5455,"",,,,,,,,,3
html-keyboard-response,92,167766,null,"",null,,,,,,,,
math-period,93,169984,4311,"",,,,,,,,,3
html-keyboard-response,94,170089,null,"",null,,,,,,,,
math-period,95,172427,4557.000000000029,"",,,,,,,,,5
html-keyboard-response,96,172531,null,"",null,,,,,,,,
math-period,97,174136,3082.000000000029,"",,,,,,,,,5
html-keyboard-response,98,174241,null,"",null,,,,,,,,
math-period,99,176572,4519,"",,,,,,,,,3
html-keyboard-response,100,176677,null,"",null,,,,,,,,
math-period,101,178048,2600,"",,,,,,,,,2
html-keyboard-response,102,178153,null,"",null,,,,,,,,
math-period,103,178254,null,"",,,,,,,,,
html-keyboard-response,104,179259,null,"Recall Period!",null,,,,,,,,
call-function,105,179261,,"",,,,,,,,,
html-keyboard-response,106,179365,null,"",null,,,,,,,,
recall-period,107,186036,36553.00000000006,"",,,,,,,,,wealthy
html-keyboard-response,108,186138,null,"",null,,,,,,,,
recall-period,109,188751,6771,"",,,,,,,,,cold
html-keyboard-response,110,188856,null,"",null,,,,,,,,
recall-period,111,190298,4799.000000000029,"",,,,,,,,,smart
html-keyboard-response,112,190401,null,"",null,,,,,,,,
recall-period,113,194191,23771.00000000003,"",,,,,,,,,beautiful
html-keyboard-response,114,194295,null,"",null,,,,,,,,
recall-period,115,198783,20953.000000000087,"",,,,,,,,,dreary
html-keyboard-response,116,198886,null,"",null,,,,,,,,
recall-period,117,205889,38628.99999999988,"",,,,,,,,,heavy
html-keyboard-response,118,205993,null,"",null,,,,,,,,
recall-period,119,213411,47040.999999999825,"",,,,,,,,,pretty
html-keyboard-response,120,213515,null,"",null,,,,,,,,
recall-period,121,215815,10779,"",,,,,,,,,smart
html-keyboard-response,122,215920,null,"",null,,,,,,,,
recall-period,123,220490,24323.00000000006,"",,,,,,,,,heavy
html-keyboard-response,124,220595,null,"",null,,,,,,,,
recall-period,125,228027,35552.99999999988,"",,,,,,,,,loud
html-keyboard-response,126,228132,null,"",null,,,,,,,,
recall-period,127,254264,null,"",,,,,,,,,
html-keyboard-response,128,254770,null,"Time's Up!",null,,,,,,,,
html-keyboard-response,129,264540,9765.00000000003,"<p>We will now begin the experiment!<p><p>Please try to remember all words from each list.<p><p>Press the spacebar whenever you see a GREEN square.<p><p><p><p>Press the spacebar to begin.</p>",32,,,,,,,,
html-keyboard-response,130,270533,5489,"<div style=""font-size:48px;"">Press any key to begin list 1 of 24 </div>",32,,,,,,,,
html-keyboard-response,131,273039,null,"<div style=""font-size:60px;"">+</div>",null,,,,,,,,
html-keyboard-response,132,273544,null,"ATTIC<img id = ""stim"" ><div class = red_square id = ""topsquare"" ></div><img id = ""stim"" ><div class = red_square  id = ""bottomsquare"" ></div>",null,word_square,response,0,none,true,,,
html-keyboard-response,133,275049,null,"ATTIC",null,word,,,,, 'ATTIC',,
html-keyboard-response,134,275555,null,"ITEM<img id = ""stim"" ><div class = red_square id = ""topsquare"" ></div><img id = ""stim"" ><div class = red_square  id = ""bottomsquare"" ></div>",null,word_square,response,0,none,true,,,
html-keyboard-response,135,277059,null,"ITEM",null,word,,,,, 'ITEM',,
html-keyboard-response,136,277505,442.0000000000582,"TRIGGER<img id = ""stim"" ><div class = green_square id = ""topsquare"" ></div><img id = ""stim"" ><div class = green_square  id = ""bottomsquare"" ></div>",32,word_square,response,1,Space,true,,,
html-keyboard-response,137,279010,null,"TRIGGER",null,word,,,,, 'TRIGGER',,
html-keyboard-response,138,279515,null,"TRIBE<img id = ""stim"" ><div class = red_square id = ""topsquare"" ></div><img id = ""stim"" ><div class = red_square  id = ""bottomsquare"" ></div>",null,word_square,response,0,none,true,,,
html-keyboard-response,139,281020,null,"TRIBE",null,word,,,,, 'TRIBE',,
html-keyboard-response,140,281525,null,"FIDDLE<img id = ""stim"" ><div class = red_square id = ""topsquare"" ></div><img id = ""stim"" ><div class = red_square  id = ""bottomsquare"" ></div>",null,word_square,response,0,none,true,,,
html-keyboard-response,141,283030,null,"FIDDLE",null,word,,,,, 'FIDDLE',,
html-keyboard-response,142,283507,471.9999999999418,"COUNTRY<img id = ""stim"" ><div class = green_square id = ""topsquare"" ></div><img id = ""stim"" ><div class = green_square  id = ""bottomsquare"" ></div>",32,word_square,response,1,Space,true,,,
html-keyboard-response,143,285011,null,"COUNTRY",null,word,,,,, 'COUNTRY',,
html-keyboard-response,144,285516,null,"PEANUT<img id = ""stim"" ><div class = green_square id = ""topsquare"" ></div><img id = ""stim"" ><div class = green_square  id = ""bottomsquare"" ></div>",null,word_square,response,1,Space,false,,,
html-keyboard-response,145,287020,null,"PEANUT",null,word,,,,, 'PEANUT',,
html-keyboard-response,146,287525,null,"PECAN<img id = ""stim"" ><div class = red_square id = ""topsquare"" ></div><img id = ""stim"" ><div class = red_square  id = ""bottomsquare"" ></div>",null,word_square,response,0,none,true,,,
html-keyboard-response,147,289030,null,"PECAN",null,word,,,,, 'PECAN',,
html-keyboard-response,148,289535,null,"CLOUD<img id = ""stim"" ><div class = red_square id = ""topsquare"" ></div><img id = ""stim"" ><div class = red_square  id = ""bottomsquare"" ></div>",null,word_square,response,0,none,true,,,
html-keyboard-response,149,291040,null,"CLOUD",null,word,,,,, 'CLOUD',,
html-keyboard-response,150,291545,null,"BLUEJAY<img id = ""stim"" ><div class = green_square id = ""topsquare"" ></div><img id = ""stim"" ><div class = green_square  id = ""bottomsquare"" ></div>",null,word_square,response,1,Space,false,,,
html-keyboard-response,151,293050,null,"BLUEJAY",null,word,,,,, 'BLUEJAY',,
html-keyboard-response,152,293422,367,"DART<img id = ""stim"" ><div class = green_square id = ""topsquare"" ></div><img id = ""stim"" ><div class = green_square  id = ""bottomsquare"" ></div>",32,word_square,response,1,Space,true,,,
html-keyboard-response,153,294927,null,"DART",null,word,,,,, 'DART',,
html-keyboard-response,154,295431,null,"GAZELLE<img id = ""stim"" ><div class = red_square id = ""topsquare"" ></div><img id = ""stim"" ><div class = red_square  id = ""bottomsquare"" ></div>",null,word_square,response,0,none,true,,,
html-keyboard-response,155,296935,null,"GAZELLE",null,word,,,,, 'GAZELLE',,
html-keyboard-response,156,297435,495,"CANDY<img id = ""stim"" ><div class = green_square id = ""topsquare"" ></div><img id = ""stim"" ><div class = green_square  id = ""bottomsquare"" ></div>",32,word_square,response,1,Space,true,,,
html-keyboard-response,157,298939,null,"CANDY",null,word,,,,, 'CANDY',,
html-keyboard-response,158,299444,null,"PASTRY<img id = ""stim"" ><div class = red_square id = ""topsquare"" ></div><img id = ""stim"" ><div class = red_square  id = ""bottomsquare"" ></div>",null,word_square,response,0,none,true,,,
html-keyboard-response,159,300949,null,"PASTRY",null,word,,,,, 'PASTRY',,
html-keyboard-response,160,301338,386,"LIGHTNING<img id = ""stim"" ><div class = green_square id = ""topsquare"" ></div><img id = ""stim"" ><div class = green_square  id = ""bottomsquare"" ></div>",32,word_square,response,1,Space,true,,,
html-keyboard-response,161,302843,null,"LIGHTNING",null,word,,,,, 'LIGHTNING',,
html-keyboard-response,162,303232,384,"DAD<img id = ""stim"" ><div class = green_square id = ""topsquare"" ></div><img id = ""stim"" ><div class = green_square  id = ""bottomsquare"" ></div>",32,word_square,response,1,Space,true,,,
html-keyboard-response,163,304737,null,"DAD",null,word,,,,, 'DAD',,
html-keyboard-response,164,305243,null,"ANTLER<img id = ""stim"" ><div class = red_square id = ""topsquare"" ></div><img id = ""stim"" ><div class = red_square  id = ""bottomsquare"" ></div>",null,word_square,response,0,none,true,,,
html-keyboard-response,165,306748,null,"ANTLER",null,word,,,,, 'ANTLER',,
html-keyboard-response,166,307123,371,"CONVENT<img id = ""stim"" ><div class = green_square id = ""topsquare"" ></div><img id = ""stim"" ><div class = green_square  id = ""bottomsquare"" ></div>",32,word_square,response,1,Space,true,,,
html-keyboard-response,167,308627,null,"CONVENT",null,word,,,,, 'CONVENT',,
call-function,168,308630,,"",,,,,,,,,
html-keyboard-response,169,308734,null,"",null,,,,,,,,
math-period,170,314532,11492.000000000058,"",,,,,,,,,6
html-keyboard-response,171,314637,null,"",null,,,,,,,,
math-period,172,316124,2855.9999999998836,"",,,,,,,,,3
html-keyboard-response,173,316229,null,"",null,,,,,,,,
math-period,174,318513,4488,"",,,,,,,,,1
html-keyboard-response,175,318618,null,"",null,,,,,,,,
math-period,176,319897,2449,"",,,,,,,,,3
html-keyboard-response,177,320002,null,"",null,,,,,,,,
math-period,178,321731,3374,"",,,,,,,,,5
html-keyboard-response,179,321835,null,"",null,,,,,,,,
math-period,180,323780,3770,"",,,,,,,,,2
html-keyboard-response,181,323885,null,"",null,,,,,,,,
math-period,182,328268,8647,"",,,,,,,,,2
html-keyboard-response,183,328372,null,"",null,,,,,,,,
math-period,184,329723,2568,"",,,,,,,,,1
html-keyboard-response,185,329828,null,"",null,,,,,,,,
math-period,186,331409,3032,"",,,,,,,,,2
html-keyboard-response,187,331514,null,"",null,,,,,,,,
math-period,188,332633,null,"",,,,,,,,,
html-keyboard-response,189,333638,null,"Recall Period!",null,,,,,,,,
call-function,190,333640,,"",,,,,,,,,
html-keyboard-response,191,333742,null,"",null,,,,,,,,
recall-period,192,339517,38224.00000000006,"",,,,,,,,,country
html-keyboard-response,193,339622,null,"",null,,,,,,,,
recall-period,194,342850,22385,"",,,,,,,,,trigger 
html-keyboard-response,195,342954,null,"",null,,,,,,,,
recall-period,196,344460,4570,"",,,,,,,,,dart
html-keyboard-response,197,344564,null,"",null,,,,,,,,
recall-period,198,349884,39010.999999999534,"",,,,,,,,,fiddle
html-keyboard-response,199,349988,null,"",null,,,,,,,,
recall-period,200,356644,36385.00000000006,"",,,,,,,,,pecan
html-keyboard-response,201,356749,null,"",null,,,,,,,,
recall-period,202,358810,10411.99999999965,"",,,,,,,,,butter
html-keyboard-response,203,358914,null,"",null,,,,,,,,
recall-period,204,360702,8142,"",,,,,,,,,peanut 
html-keyboard-response,205,360807,null,"",null,,,,,,,,
recall-period,206,408642,null,"",,,,,,,,,
html-keyboard-response,207,409147,null,"Time's Up!",null,,,,,,,,
html-keyboard-response,208,439406,30255,"<p> Good job! You responded correctly to 92% of the GREEN squares.</p>
                  <p>Be sure to keep your accuracy above 80%</p>
                  <p>Press any key to continue the experiment. Thank you!</p>",32,,,,,,,,
html-keyboard-response,209,440918,1510,"<div style=""font-size:48px;"">Press any key to begin list 2 of 24 </div>",32,,,,,,,,
html-keyboard-response,210,443424,null,"<div style=""font-size:60px;"">+</div>",null,,,,,,,,
html-keyboard-response,211,443930,null,"SODA<img id = ""stim"" ><div class = red_square id = ""topsquare"" ></div><img id = ""stim"" ><div class = red_square  id = ""bottomsquare"" ></div>",null,word_square,response,0,none,true,,,
html-keyboard-response,212,445435,null,"SODA",null,word,,,,, 'SODA',,
html-keyboard-response,213,445940,null,"BRANDY<img id = ""stim"" ><div class = red_square id = ""topsquare"" ></div><img id = ""stim"" ><div class = red_square  id = ""bottomsquare"" ></div>",null,word_square,response,0,none,true,,,
html-keyboard-response,214,447445,null,"BRANDY",null,word,,,,, 'BRANDY',,
html-keyboard-response,215,447798,349,"POSTAGE<img id = ""stim"" ><div class = green_square id = ""topsquare"" ></div><img id = ""stim"" ><div class = green_square  id = ""bottomsquare"" ></div>",32,word_square,response,1,Space,true,,,
html-keyboard-response,216,449302,null,"POSTAGE",null,word,,,,, 'POSTAGE',,
html-keyboard-response,217,449807,null,"CHISEL<img id = ""stim"" ><div class = red_square id = ""topsquare"" ></div><img id = ""stim"" ><div class = red_square  id = ""bottomsquare"" ></div>",null,word_square,response,0,none,true,,,
html-keyboard-response,218,451312,null,"CHISEL",null,word,,,,, 'CHISEL',,
html-keyboard-response,219,451817,null,"BOX<img id = ""stim"" ><div class = red_square id = ""topsquare"" ></div><img id = ""stim"" ><div class = red_square  id = ""bottomsquare"" ></div>",null,word_square,response,0,none,true,,,
html-keyboard-response,220,453322,null,"BOX",null,word,,,,, 'BOX',,
html-keyboard-response,221,453730,404,"MILK<img id = ""stim"" ><div class = green_square id = ""topsquare"" ></div><img id = ""stim"" ><div class = green_square  id = ""bottomsquare"" ></div>",32,word_square,response,1,Space,true,,,
html-keyboard-response,222,455235,null,"MILK",null,word,,,,, 'MILK',,
html-keyboard-response,223,455642,402.9999999999418,"TUNNEL<img id = ""stim"" ><div class = green_square id = ""topsquare"" ></div><img id = ""stim"" ><div class = green_square  id = ""bottomsquare"" ></div>",32,word_square,response,1,Space,true,,,
html-keyboard-response,224,457148,null,"TUNNEL",null,word,,,,, 'TUNNEL',,
html-keyboard-response,225,457653,null,"BAKER<img id = ""stim"" ><div class = red_square id = ""topsquare"" ></div><img id = ""stim"" ><div class = red_square  id = ""bottomsquare"" ></div>",null,word_square,response,0,none,true,,,
html-keyboard-response,226,459158,null,"BAKER",null,word,,,,, 'BAKER',,
html-keyboard-response,227,459664,null,"BEAVER<img id = ""stim"" ><div class = red_square id = ""topsquare"" ></div><img id = ""stim"" ><div class = red_square  id = ""bottomsquare"" ></div>",null,word_square,response,0,none,true,,,
html-keyboard-response,228,461168,null,"BEAVER",null,word,,,,, 'BEAVER',,
html-keyboard-response,229,461585,412.0000000000582,"MILDEW<img id = ""stim"" ><div class = green_square id = ""topsquare"" ></div><img id = ""stim"" ><div class = green_square  id = ""bottomsquare"" ></div>",32,word_square,response,1,Space,true,,,
html-keyboard-response,230,463090,null,"MILDEW",null,word,,,,, 'MILDEW',,
html-keyboard-response,231,463489,396,"HEADBAND<img id = ""stim"" ><div class = green_square id = ""topsquare"" ></div><img id = ""stim"" ><div class = green_square  id = ""bottomsquare"" ></div>",32,word_square,response,1,Space,true,,,
html-keyboard-response,232,464994,null,"HEADBAND",null,word,,,,, 'HEADBAND',,
html-keyboard-response,233,465406,408,"FOREHEAD<img id = ""stim"" ><div class = red_square id = ""topsquare"" ></div><img id = ""stim"" ><div class = red_square  id = ""bottomsquare"" ></div>",32,word_square,response,0,none,false,,,
html-keyboard-response,234,466911,null,"FOREHEAD",null,word,,,,, 'FOREHEAD',,
html-keyboard-response,235,467273,358,"MESSAGE<img id = ""stim"" ><div class = green_square id = ""topsquare"" ></div><img id = ""stim"" ><div class = green_square  id = ""bottomsquare"" ></div>",32,word_square,response,1,Space,true,,,
html-keyboard-response,236,468778,null,"MESSAGE",null,word,,,,, 'MESSAGE',,
html-keyboard-response,237,469283,null,"PACKAGE<img id = ""stim"" ><div class = red_square id = ""topsquare"" ></div><img id = ""stim"" ><div class = red_square  id = ""bottomsquare"" ></div>",null,word_square,response,0,none,true,,,
html-keyboard-response,238,470788,null,"PACKAGE",null,word,,,,, 'PACKAGE',,
html-keyboard-response,239,471293,null,"JOKER<img id = ""stim"" ><div class = green_square id = ""topsquare"" ></div><img id = ""stim"" ><div class = green_square  id = ""bottomsquare"" ></div>",null,word_square,response,1,Space,false,,,
html-keyboard-response,240,472797,null,"JOKER",null,word,,,,, 'JOKER',,
html-keyboard-response,241,473139,338,"GRAPE<img id = ""stim"" ><div class = green_square id = ""topsquare"" ></div><img id = ""stim"" ><div class = green_square  id = ""bottomsquare"" ></div>",32,word_square,response,1,Space,true,,,
html-keyboard-response,242,474644,null,"GRAPE",null,word,,,,, 'GRAPE',,
html-keyboard-response,243,475149,null,"TROUSERS<img id = ""stim"" ><div class = red_square id = ""topsquare"" ></div><img id = ""stim"" ><div class = red_square  id = ""bottomsquare"" ></div>",null,word_square,response,0,none,true,,,
html-keyboard-response,244,476653,null,"TROUSERS",null,word,,,,, 'TROUSERS',,
html-keyboard-response,245,477061,404,"HAYSTACK<img id = ""stim"" ><div class = green_square id = ""topsquare"" ></div><img id = ""stim"" ><div class = green_square  id = ""bottomsquare"" ></div>",32,word_square,response,1,Space,true,,,
html-keyboard-response,246,478566,null,"HAYSTACK",null,word,,,,, 'HAYSTACK',,
call-function,247,478568,,"",,,,,,,,,
html-keyboard-response,248,478672,null,"",null,,,,,,,,
math-period,249,480362,3247,"",,,,,,,,,4
html-keyboard-response,250,480467,null,"",null,,,,,,,,
math-period,251,482574,4096,"",,,,,,,,,1
html-keyboard-response,252,482679,null,"",null,,,,,,,,
math-period,253,484602,3756,"",,,,,,,,,6
html-keyboard-response,254,484706,null,"",null,,,,,,,,
math-period,255,486782,4064.000000000058,"",,,,,,,,,4
html-keyboard-response,256,486886,null,"",null,,,,,,,,
math-period,257,488666,3424,"",,,,,,,,,2
html-keyboard-response,258,488771,null,"",null,,,,,,,,
math-period,259,490681,3722,"",,,,,,,,,2
html-keyboard-response,260,490786,null,"",null,,,,,,,,
math-period,261,492704,3728,"",,,,,,,,,4
html-keyboard-response,262,492809,null,"",null,,,,,,,,
math-period,263,494356,2980,"",,,,,,,,,2
html-keyboard-response,264,494461,null,"",null,,,,,,,,
math-period,265,496679,4282,"",,,,,,,,,2
html-keyboard-response,266,496783,null,"",null,,,,,,,,
math-period,267,499220,4762.000000000058,"",,,,,,,,,3
html-keyboard-response,268,499325,null,"",null,,,,,,,,
math-period,269,500867,2956,"",,,,,,,,,2
html-keyboard-response,270,500971,null,"",null,,,,,,,,
math-period,271,502571,null,"",,,,,,,,,
html-keyboard-response,272,503577,null,"Recall Period!",null,,,,,,,,
call-function,273,503579,,"",,,,,,,,,
html-keyboard-response,274,503682,null,"",null,,,,,,,,
recall-period,275,506086,9216.000000000058,"",,,,,,,,,milk
html-keyboard-response,276,506190,null,"",null,,,,,,,,
recall-period,277,509358,13094.000000000116,"",,,,,,,,,trousers
html-keyboard-response,278,509463,null,"",null,,,,,,,,
recall-period,279,511251,8862.999999999942,"",,,,,,,,,heabdand
html-keyboard-response,280,511355,null,"",null,,,,,,,,
recall-period,281,514749,13166.000000000233,"",,,,,,,,,haystack
html-keyboard-response,282,514854,null,"",null,,,,,,,,
recall-period,283,518539,18613.000000000175,"",,,,,,,,,honey
html-keyboard-response,284,518643,null,"",null,,,,,,,,
recall-period,285,524480,24605.000000000116,"",,,,,,,,,belt
html-keyboard-response,286,524585,null,"",null,,,,,,,,
recall-period,287,529267,29812,"",,,,,,,,,beaver
html-keyboard-response,288,529372,null,"",null,,,,,,,,
recall-period,289,578582,null,"",,,,,,,,,
html-keyboard-response,290,579087,null,"Time's Up!",null,,,,,,,,
html-keyboard-response,291,639555,60464.00000000012,"<p> Good job! You responded correctly to 91% of the GREEN squares.</p>
                  <p>Be sure to keep your accuracy above 80%</p>
                  <p>Press any key to continue the experiment. Thank you!</p>",32,,,,,,,,
html-keyboard-response,292,641083,1524,"<div style=""font-size:48px;"">Press any key to begin list 3 of 24 </div>",32,,,,,,,,
html-keyboard-response,293,643589,null,"<div style=""font-size:60px;"">+</div>",null,,,,,,,,
html-keyboard-response,294,644043,450,"CURTAIN<img id = ""stim"" ><div class = green_square id = ""topsquare"" ></div><img id = ""stim"" ><div class = green_square  id = ""bottomsquare"" ></div>",32,word_square,response,1,Space,true,,,
html-keyboard-response,295,645547,null,"CURTAIN",null,word,,,,, 'CURTAIN',,
html-keyboard-response,296,645852,300,"ROD<img id = ""stim"" ><div class = green_square id = ""topsquare"" ></div><img id = ""stim"" ><div class = green_square  id = ""bottomsquare"" ></div>",32,word_square,response,1,Space,true,,,
html-keyboard-response,297,647357,null,"ROD",null,word,,,,, 'ROD',,
html-keyboard-response,298,647862,null,"RACKET<img id = ""stim"" ><div class = red_square id = ""topsquare"" ></div><img id = ""stim"" ><div class = red_square  id = ""bottomsquare"" ></div>",null,word_square,response,0,none,true,,,
html-keyboard-response,299,649367,null,"RACKET",null,word,,,,, 'RACKET',,
html-keyboard-response,300,649855,484,"RAISIN<img id = ""stim"" ><div class = green_square id = ""topsquare"" ></div><img id = ""stim"" ><div class = green_square  id = ""bottomsquare"" ></div>",32,word_square,response,1,Space,true,,,
html-keyboard-response,301,651360,null,"RAISIN",null,word,,,,, 'RAISIN',,
html-keyboard-response,302,651853,489.0000000001164,"DRIVER<img id = ""stim"" ><div class = green_square id = ""topsquare"" ></div><img id = ""stim"" ><div class = green_square  id = ""bottomsquare"" ></div>",32,word_square,response,1,Space,true,,,
html-keyboard-response,303,653358,null,"DRIVER",null,word,,,,, 'DRIVER',,
html-keyboard-response,304,653728,366.0000000001164,"BUILDER<img id = ""stim"" ><div class = red_square id = ""topsquare"" ></div><img id = ""stim"" ><div class = red_square  id = ""bottomsquare"" ></div>",32,word_square,response,0,none,false,,,
html-keyboard-response,305,655233,null,"BUILDER",null,word,,,,, 'BUILDER',,
html-keyboard-response,306,655750,null,"YARD<img id = ""stim"" ><div class = red_square id = ""topsquare"" ></div><img id = ""stim"" ><div class = red_square  id = ""bottomsquare"" ></div>",null,word_square,response,0,none,true,,,
html-keyboard-response,307,657255,null,"YARD",null,word,,,,, 'YARD',,
html-keyboard-response,308,657760,null,"OMELET<img id = ""stim"" ><div class = green_square id = ""topsquare"" ></div><img id = ""stim"" ><div class = green_square  id = ""bottomsquare"" ></div>",null,word_square,response,1,Space,false,,,
html-keyboard-response,309,659264,null,"OMELET",null,word,,,,, 'OMELET',,
html-keyboard-response,310,659769,null,"BACON<img id = ""stim"" ><div class = green_square id = ""topsquare"" ></div><img id = ""stim"" ><div class = green_square  id = ""bottomsquare"" ></div>",null,word_square,response,1,Space,false,,,
html-keyboard-response,311,661274,null,"BACON",null,word,,,,, 'BACON',,
html-keyboard-response,312,661742,465,"SHRUB<img id = ""stim"" ><div class = red_square id = ""topsquare"" ></div><img id = ""stim"" ><div class = red_square  id = ""bottomsquare"" ></div>",32,word_square,response,0,none,false,,,
html-keyboard-response,313,663245,null,"SHRUB",null,word,,,,, 'SHRUB',,
html-keyboard-response,314,663749,null,"SPOOL<img id = ""stim"" ><div class = red_square id = ""topsquare"" ></div><img id = ""stim"" ><div class = red_square  id = ""bottomsquare"" ></div>",null,word_square,response,0,none,true,,,
html-keyboard-response,315,665253,null,"SPOOL",null,word,,,,, 'SPOOL',,
html-keyboard-response,316,665757,null,"MEADOW<img id = ""stim"" ><div class = green_square id = ""topsquare"" ></div><img id = ""stim"" ><div class = green_square  id = ""bottomsquare"" ></div>",null,word_square,response,1,Space,false,,,
html-keyboard-response,317,667261,null,"MEADOW",null,word,,,,, 'MEADOW',,
html-keyboard-response,318,667765,null,"POND<img id = ""stim"" ><div class = red_square id = ""topsquare"" ></div><img id = ""stim"" ><div class = red_square  id = ""bottomsquare"" ></div>",null,word_square,response,0,none,true,,,
html-keyboard-response,319,669269,null,"POND",null,word,,,,, 'POND',,
html-keyboard-response,320,669773,null,"SPONGE<img id = ""stim"" ><div class = green_square id = ""topsquare"" ></div><img id = ""stim"" ><div class = green_square  id = ""bottomsquare"" ></div>",null,word_square,response,1,Space,false,,,
html-keyboard-response,321,671278,null,"SPONGE",null,word,,,,, 'SPONGE',,
html-keyboard-response,322,671783,null,"TRACTOR<img id = ""stim"" ><div class = red_square id = ""topsquare"" ></div><img id = ""stim"" ><div class = red_square  id = ""bottomsquare"" ></div>",null,word_square,response,0,none,true,,,
html-keyboard-response,323,673287,null,"TRACTOR",null,word,,,,, 'TRACTOR',,
html-keyboard-response,324,673793,null,"COBWEB<img id = ""stim"" ><div class = red_square id = ""topsquare"" ></div><img id = ""stim"" ><div class = red_square  id = ""bottomsquare"" ></div>",null,word_square,response,0,none,true,,,
html-keyboard-response,325,675298,null,"COBWEB",null,word,,,,, 'COBWEB',,
html-keyboard-response,326,675803,null,"ATOM<img id = ""stim"" ><div class = green_square id = ""topsquare"" ></div><img id = ""stim"" ><div class = green_square  id = ""bottomsquare"" ></div>",null,word_square,response,1,Space,false,,,
html-keyboard-response,327,677309,null,"ATOM",null,word,,,,, 'ATOM',,
html-keyboard-response,328,677815,null,"FEATHER<img id = ""stim"" ><div class = red_square id = ""topsquare"" ></div><img id = ""stim"" ><div class = red_square  id = ""bottomsquare"" ></div>",null,word_square,response,0,none,true,,,
html-keyboard-response,329,679320,null,"FEATHER",null,word,,,,, 'FEATHER',,
call-function,330,679322,,"",,,,,,,,,
html-keyboard-response,331,679425,null,"",null,,,,,,,,
math-period,332,684920,10871,"",,,,,,,,,1
html-keyboard-response,333,685025,null,"",null,,,,,,,,
math-period,334,686659,3164.999999999767,"",,,,,,,,,2
html-keyboard-response,335,686764,null,"",null,,,,,,,,
math-period,336,688556,3492.0000000001164,"",,,,,,,,,1
html-keyboard-response,337,688661,null,"",null,,,,,,,,
math-period,338,691487,5390,"",,,,,,,,,5
html-keyboard-response,339,691592,null,"",null,,,,,,,,
math-period,340,693601,3892,"",,,,,,,,,4
html-keyboard-response,341,693706,null,"",null,,,,,,,,
math-period,342,695202,2863,"",,,,,,,,,1
html-keyboard-response,343,695308,null,"",null,,,,,,,,
math-period,344,696565,2413,"",,,,,,,,,3
html-keyboard-response,345,696669,null,"",null,,,,,,,,
math-period,346,698370,3322,"",,,,,,,,,2
html-keyboard-response,347,698476,null,"",null,,,,,,,,
math-period,348,699993,2940,"",,,,,,,,,2
html-keyboard-response,349,700097,null,"",null,,,,,,,,
math-period,350,701808,3328,"",,,,,,,,,4
html-keyboard-response,351,701913,null,"",null,,,,,,,,
math-period,352,703325,null,"",,,,,,,,,
html-keyboard-response,353,704331,null,"Recall Period!",null,,,,,,,,
call-function,354,704333,,"",,,,,,,,,
html-keyboard-response,355,704437,null,"",null,,,,,,,,
recall-period,356,710336,38898.00000000012,"",,,,,,,,,curtain
html-keyboard-response,357,710441,null,"",null,,,,,,,,
recall-period,358,711778,3031,"",,,,,,,,,rod
html-keyboard-response,359,711883,null,"",null,,,,,,,,
recall-period,360,714043,6775.000000000116,"",,,,,,,,,raison
html-keyboard-response,361,714148,null,"",null,,,,,,,,
recall-period,362,718811,40818.00000000023,"",,,,,,,,,raisin 
html-keyboard-response,363,718917,null,"",null,,,,,,,,
recall-period,364,726651,47582.00000000035,"",,,,,,,,,cobweb
html-keyboard-response,365,726753,null,"",null,,,,,,,,
recall-period,366,738724,57733.00000000012,"",,,,,,,,,atom
html-keyboard-response,367,738829,null,"",null,,,,,,,,
recall-period,368,755420,141753.00000000023,"",,,,,,,,,doorstep
html-keyboard-response,369,755525,null,"",null,,,,,,,,
recall-period,370,779336,5749.999999999767,"",,,,,,,,,
html-keyboard-response,371,779842,null,"Time's Up!",null,,,,,,,,
html-keyboard-response,372,794499,14653,"<p> Good job! You responded correctly to 83% of the GREEN squares.</p>
                  <p>Be sure to keep your accuracy above 80%</p>
                  <p>Press any key to continue the experiment. Thank you!</p>",32,,,,,,,,
html-keyboard-response,373,795643,1140,"<div style=""font-size:48px;"">Press any key to begin list 4 of 24 </div>",32,,,,,,,,
html-keyboard-response,374,798149,null,"<div style=""font-size:60px;"">+</div>",null,,,,,,,,
html-keyboard-response,375,798654,null,"SNOB<img id = ""stim"" ><div class = green_square id = ""topsquare"" ></div><img id = ""stim"" ><div class = green_square  id = ""bottomsquare"" ></div>",null,word_square,response,1,Space,false,,,
html-keyboard-response,376,800160,null,"SNOB",null,word,,,,, 'SNOB',,
html-keyboard-response,377,800536,372,"LIZARD<img id = ""stim"" ><div class = green_square id = ""topsquare"" ></div><img id = ""stim"" ><div class = green_square  id = ""bottomsquare"" ></div>",32,word_square,response,1,Space,true,,,
html-keyboard-response,378,802041,null,"LIZARD",null,word,,,,, 'LIZARD',,
html-keyboard-response,379,802546,null,"PILOT<img id = ""stim"" ><div class = red_square id = ""topsquare"" ></div><img id = ""stim"" ><div class = red_square  id = ""bottomsquare"" ></div>",null,word_square,response,0,none,true,,,
html-keyboard-response,380,804051,null,"PILOT",null,word,,,,, 'PILOT',,
html-keyboard-response,381,804463,408,"THIMBLE<img id = ""stim"" ><div class = green_square id = ""topsquare"" ></div><img id = ""stim"" ><div class = green_square  id = ""bottomsquare"" ></div>",32,word_square,response,1,Space,true,,,
html-keyboard-response,382,805968,null,"THIMBLE",null,word,,,,, 'THIMBLE',,
html-keyboard-response,383,806473,null,"MOUNTAIN<img id = ""stim"" ><div class = green_square id = ""topsquare"" ></div><img id = ""stim"" ><div class = green_square  id = ""bottomsquare"" ></div>",null,word_square,response,1,Space,false,,,
html-keyboard-response,384,807977,null,"MOUNTAIN",null,word,,,,, 'MOUNTAIN',,
html-keyboard-response,385,808482,null,"BODY<img id = ""stim"" ><div class = red_square id = ""topsquare"" ></div><img id = ""stim"" ><div class = red_square  id = ""bottomsquare"" ></div>",null,word_square,response,0,none,true,,,
html-keyboard-response,386,809987,null,"BODY",null,word,,,,, 'BODY',,
html-keyboard-response,387,810493,null,"DANDRUFF<img id = ""stim"" ><div class = red_square id = ""topsquare"" ></div><img id = ""stim"" ><div class = red_square  id = ""bottomsquare"" ></div>",null,word_square,response,0,none,true,,,
html-keyboard-response,388,811998,null,"DANDRUFF",null,word,,,,, 'DANDRUFF',,
html-keyboard-response,389,812428,426,"ANGEL<img id = ""stim"" ><div class = green_square id = ""topsquare"" ></div><img id = ""stim"" ><div class = green_square  id = ""bottomsquare"" ></div>",32,word_square,response,1,Space,true,,,
html-keyboard-response,390,813933,null,"ANGEL",null,word,,,,, 'ANGEL',,
html-keyboard-response,391,814438,null,"SLEEVE<img id = ""stim"" ><div class = green_square id = ""topsquare"" ></div><img id = ""stim"" ><div class = green_square  id = ""bottomsquare"" ></div>",null,word_square,response,1,Space,false,,,
html-keyboard-response,392,815943,null,"SLEEVE",null,word,,,,, 'SLEEVE',,
html-keyboard-response,393,816449,null,"PLUM<img id = ""stim"" ><div class = red_square id = ""topsquare"" ></div><img id = ""stim"" ><div class = red_square  id = ""bottomsquare"" ></div>",null,word_square,response,0,none,true,,,
html-keyboard-response,394,817954,null,"PLUM",null,word,,,,, 'PLUM',,
html-keyboard-response,395,818460,null,"RECEIPT<img id = ""stim"" ><div class = red_square id = ""topsquare"" ></div><img id = ""stim"" ><div class = red_square  id = ""bottomsquare"" ></div>",null,word_square,response,0,none,true,,,
html-keyboard-response,396,819965,null,"RECEIPT",null,word,,,,, 'RECEIPT',,
html-keyboard-response,397,820470,null,"LOVER<img id = ""stim"" ><div class = green_square id = ""topsquare"" ></div><img id = ""stim"" ><div class = green_square  id = ""bottomsquare"" ></div>",null,word_square,response,1,Space,false,,,
html-keyboard-response,398,821975,null,"LOVER",null,word,,,,, 'LOVER',,
html-keyboard-response,399,822481,null,"PARTNER<img id = ""stim"" ><div class = red_square id = ""topsquare"" ></div><img id = ""stim"" ><div class = red_square  id = ""bottomsquare"" ></div>",null,word_square,response,0,none,true,,,
html-keyboard-response,400,823986,null,"PARTNER",null,word,,,,, 'PARTNER',,
html-keyboard-response,401,824375,384,"SNAKE<img id = ""stim"" ><div class = green_square id = ""topsquare"" ></div><img id = ""stim"" ><div class = green_square  id = ""bottomsquare"" ></div>",32,word_square,response,1,Space,true,,,
html-keyboard-response,402,825880,null,"SNAKE",null,word,,,,, 'SNAKE',,
html-keyboard-response,403,826385,null,"PLAID<img id = ""stim"" ><div class = red_square id = ""topsquare"" ></div><img id = ""stim"" ><div class = red_square  id = ""bottomsquare"" ></div>",null,word_square,response,0,none,true,,,
html-keyboard-response,404,827890,null,"PLAID",null,word,,,,, 'PLAID',,
html-keyboard-response,405,828395,null,"VAMPIRE<img id = ""stim"" ><div class = red_square id = ""topsquare"" ></div><img id = ""stim"" ><div class = red_square  id = ""bottomsquare"" ></div>",null,word_square,response,0,none,true,,,
html-keyboard-response,406,829900,null,"VAMPIRE",null,word,,,,, 'VAMPIRE',,
html-keyboard-response,407,830247,342,"SUPPER<img id = ""stim"" ><div class = green_square id = ""topsquare"" ></div><img id = ""stim"" ><div class = green_square  id = ""bottomsquare"" ></div>",32,word_square,response,1,Space,true,,,
html-keyboard-response,408,831752,null,"SUPPER",null,word,,,,, 'SUPPER',,
html-keyboard-response,409,832258,null,"CAFE<img id = ""stim"" ><div class = red_square id = ""topsquare"" ></div><img id = ""stim"" ><div class = red_square  id = ""bottomsquare"" ></div>",null,word_square,response,0,none,true,,,
html-keyboard-response,410,833763,null,"CAFE",null,word,,,,, 'CAFE',,
call-function,411,833765,,"",,,,,,,,,
html-keyboard-response,412,833869,null,"",null,,,,,,,,
math-period,413,836953,6086,"",,,,,,,,,4
html-keyboard-response,414,837058,null,"",null,,,,,,,,
math-period,415,841511,8098.000000000116,"",,,,,,,,,1
html-keyboard-response,416,841617,null,"",null,,,,,,,,
math-period,417,843099,2888,"",,,,,,,,,1
html-keyboard-response,418,843203,null,"",null,,,,,,,,
math-period,419,844214,1942,"",,,,,,,,,2
html-keyboard-response,420,844319,null,"",null,,,,,,,,
math-period,421,846527,4264,"",,,,,,,,,1
html-keyboard-response,422,846631,null,"",null,,,,,,,,
math-period,423,850744,8029,"",,,,,,,,,3
html-keyboard-response,424,850848,null,"",null,,,,,,,,
math-period,425,853047,4354.000000000116,"",,,,,,,,,2
html-keyboard-response,426,853151,null,"",null,,,,,,,,
math-period,427,855547,4736,"",,,,,,,,,5
html-keyboard-response,428,855652,null,"",null,,,,,,,,
math-period,429,856897,2438,"",,,,,,,,,3
html-keyboard-response,430,857002,null,"",null,,,,,,,,
math-period,431,857770,null,"",,,,,,,,,
html-keyboard-response,432,858776,null,"Recall Period!",null,,,,,,,,
call-function,433,858778,,"",,,,,,,,,
html-keyboard-response,434,858882,null,"",null,,,,,,,,
recall-period,435,864136,34826.00000000023,"",,,,,,,,,reciept
html-keyboard-response,436,864241,null,"",null,,,,,,,,
recall-period,437,867617,17921.000000000233,"",,,,,,,,,snake
html-keyboard-response,438,867722,null,"",null,,,,,,,,
recall-period,439,872892,44212.00000000012,"",,,,,,,,,vampire
html-keyboard-response,440,872997,null,"",null,,,,,,,,
recall-period,441,882757,56089.00000000012,"",,,,,,,,,lover
html-keyboard-response,442,882860,null,"",null,,,,,,,,
recall-period,443,890842,64214.00000000012,"",,,,,,,,,partner 
html-keyboard-response,444,890947,null,"",null,,,,,,,,
recall-period,445,908440,148015.00000000047,"",,,,,,,,,supper
html-keyboard-response,446,908545,null,"",null,,,,,,,,
recall-period,447,909892,4850,"",,,,,,,,,cafe
html-keyboard-response,448,909997,null,"",null,,,,,,,,
recall-period,449,933780,null,"",,,,,,,,,
html-keyboard-response,450,934285,null,"Time's Up!",null,,,,,,,,
html-keyboard-response,451,964573,30286,"<p> Good job! You responded correctly to 82% of the GREEN squares.</p>
                  <p>Be sure to keep your accuracy above 80%</p>
                  <p>Press any key to continue the experiment. Thank you!</p>",32,,,,,,,,
html-keyboard-response,452,965386,809,"<div style=""font-size:48px;"">Press any key to begin list 5 of 24 </div>",32,,,,,,,,
html-keyboard-response,453,967892,null,"<div style=""font-size:60px;"">+</div>",null,,,,,,,,
html-keyboard-response,454,968397,null,"VALLEY<img id = ""stim"" ><div class = green_square id = ""topsquare"" ></div><img id = ""stim"" ><div class = green_square  id = ""bottomsquare"" ></div>",null,word_square,response,1,Space,false,,,
html-keyboard-response,455,969901,null,"VALLEY",null,word,,,,, 'VALLEY',,
html-keyboard-response,456,970407,null,"HIKER<img id = ""stim"" ><div class = red_square id = ""topsquare"" ></div><img id = ""stim"" ><div class = red_square  id = ""bottomsquare"" ></div>",null,word_square,response,0,none,true,,,
html-keyboard-response,457,971912,null,"HIKER",null,word,,,,, 'HIKER',,
html-keyboard-response,458,972417,null,"MONARCH<img id = ""stim"" ><div class = red_square id = ""topsquare"" ></div><img id = ""stim"" ><div class = red_square  id = ""bottomsquare"" ></div>",null,word_square,response,0,none,true,,,
html-keyboard-response,459,973921,null,"MONARCH",null,word,,,,, 'MONARCH',,
html-keyboard-response,460,974427,null,"ORCHID<img id = ""stim"" ><div class = green_square id = ""topsquare"" ></div><img id = ""stim"" ><div class = green_square  id = ""bottomsquare"" ></div>",null,word_square,response,1,Space,false,,,
html-keyboard-response,461,975931,null,"ORCHID",null,word,,,,, 'ORCHID',,
html-keyboard-response,462,976436,null,"BACKBONE<img id = ""stim"" ><div class = red_square id = ""topsquare"" ></div><img id = ""stim"" ><div class = red_square  id = ""bottomsquare"" ></div>",null,word_square,response,0,none,true,,,
html-keyboard-response,463,977941,null,"BACKBONE",null,word,,,,, 'BACKBONE',,
html-keyboard-response,464,978447,null,"CLOCK<img id = ""stim"" ><div class = green_square id = ""topsquare"" ></div><img id = ""stim"" ><div class = green_square  id = ""bottomsquare"" ></div>",null,word_square,response,1,Space,false,,,
html-keyboard-response,465,979951,null,"CLOCK",null,word,,,,, 'CLOCK',,
html-keyboard-response,466,980456,null,"PEPPER<img id = ""stim"" ><div class = green_square id = ""topsquare"" ></div><img id = ""stim"" ><div class = green_square  id = ""bottomsquare"" ></div>",null,word_square,response,1,Space,false,,,
html-keyboard-response,467,981961,null,"PEPPER",null,word,,,,, 'PEPPER',,
html-keyboard-response,468,982467,null,"PENCIL<img id = ""stim"" ><div class = red_square id = ""topsquare"" ></div><img id = ""stim"" ><div class = red_square  id = ""bottomsquare"" ></div>",null,word_square,response,0,none,true,,,
html-keyboard-response,469,983971,null,"PENCIL",null,word,,,,, 'PENCIL',,
html-keyboard-response,470,984477,null,"KNIFE<img id = ""stim"" ><div class = green_square id = ""topsquare"" ></div><img id = ""stim"" ><div class = green_square  id = ""bottomsquare"" ></div>",null,word_square,response,1,Space,false,,,
html-keyboard-response,471,985981,null,"KNIFE",null,word,,,,, 'KNIFE',,
html-keyboard-response,472,986486,null,"LEG<img id = ""stim"" ><div class = red_square id = ""topsquare"" ></div><img id = ""stim"" ><div class = red_square  id = ""bottomsquare"" ></div>",null,word_square,response,0,none,true,,,
html-keyboard-response,473,987991,null,"LEG",null,word,,,,, 'LEG',,
html-keyboard-response,474,988496,null,"GARLIC<img id = ""stim"" ><div class = green_square id = ""topsquare"" ></div><img id = ""stim"" ><div class = green_square  id = ""bottomsquare"" ></div>",null,word_square,response,1,Space,false,,,
html-keyboard-response,475,990001,null,"GARLIC",null,word,,,,, 'GARLIC',,
html-keyboard-response,476,990507,null,"MONGOOSE<img id = ""stim"" ><div class = red_square id = ""topsquare"" ></div><img id = ""stim"" ><div class = red_square  id = ""bottomsquare"" ></div>",null,word_square,response,0,none,true,,,
html-keyboard-response,477,992011,null,"MONGOOSE",null,word,,,,, 'MONGOOSE',,
html-keyboard-response,478,992517,null,"FOOTBALL<img id = ""stim"" ><div class = red_square id = ""topsquare"" ></div><img id = ""stim"" ><div class = red_square  id = ""bottomsquare"" ></div>",null,word_square,response,0,none,true,,,
html-keyboard-response,479,994021,null,"FOOTBALL",null,word,,,,, 'FOOTBALL',,
html-keyboard-response,480,994527,null,"CATCHER<img id = ""stim"" ><div class = green_square id = ""topsquare"" ></div><img id = ""stim"" ><div class = green_square  id = ""bottomsquare"" ></div>",null,word_square,response,1,Space,false,,,
html-keyboard-response,481,996032,null,"CATCHER",null,word,,,,, 'CATCHER',,
html-keyboard-response,482,996537,null,"MARROW<img id = ""stim"" ><div class = green_square id = ""topsquare"" ></div><img id = ""stim"" ><div class = green_square  id = ""bottomsquare"" ></div>",null,word_square,response,1,Space,false,,,
html-keyboard-response,483,998042,null,"MARROW",null,word,,,,, 'MARROW',,
html-keyboard-response,484,998547,null,"TIGER<img id = ""stim"" ><div class = red_square id = ""topsquare"" ></div><img id = ""stim"" ><div class = red_square  id = ""bottomsquare"" ></div>",null,word_square,response,0,none,true,,,
html-keyboard-response,485,1000052,null,"TIGER",null,word,,,,, 'TIGER',,
html-keyboard-response,486,1000557,null,"IDOL<img id = ""stim"" ><div class = red_square id = ""topsquare"" ></div><img id = ""stim"" ><div class = red_square  id = ""bottomsquare"" ></div>",null,word_square,response,0,none,true,,,
html-keyboard-response,487,1002062,null,"IDOL",null,word,,,,, 'IDOL',,
html-keyboard-response,488,1002505,439,"CREVICE<img id = ""stim"" ><div class = green_square id = ""topsquare"" ></div><img id = ""stim"" ><div class = green_square  id = ""bottomsquare"" ></div>",32,word_square,response,1,Space,true,,,
html-keyboard-response,489,1004011,null,"CREVICE",null,word,,,,, 'CREVICE',,
call-function,490,1004013,,"",,,,,,,,,
html-keyboard-response,491,1004117,null,"",null,,,,,,,,
math-period,492,1008906,9234.000000000233,"",,,,,,,,,0
html-keyboard-response,493,1009012,null,"",null,,,,,,,,
math-period,494,1011147,4176.000000000116,"",,,,,,,,,4
html-keyboard-response,495,1011252,null,"",null,,,,,,,,
math-period,496,1012716,2854.999999999767,"",,,,,,,,,1
html-keyboard-response,497,1012821,null,"",null,,,,,,,,
math-period,498,1014969,4192.000000000116,"",,,,,,,,,1
html-keyboard-response,499,1015075,null,"",null,,,,,,,,
math-period,500,1016778,3329.999999999767,"",,,,,,,,,5
html-keyboard-response,501,1016884,null,"",null,,,,,,,,
math-period,502,1018730,3577,"",,,,,,,,,1
html-keyboard-response,503,1018835,null,"",null,,,,,,,,
math-period,504,1020392,3025.9999999998836,"",,,,,,,,,5
html-keyboard-response,505,1020497,null,"",null,,,,,,,,
math-period,506,1021931,2769.999999999767,"",,,,,,,,,2
html-keyboard-response,507,1022035,null,"",null,,,,,,,,
math-period,508,1023208,2272.0000000001164,"",,,,,,,,,4
html-keyboard-response,509,1023313,null,"",null,,,,,,,,
math-period,510,1027162,6355.999999999884,"",,,,,,,,,0
html-keyboard-response,511,1027267,null,"",null,,,,,,,,
math-period,512,1028016,null,"",,,,,,,,,
html-keyboard-response,513,1029022,null,"Recall Period!",null,,,,,,,,
call-function,514,1029024,,"",,,,,,,,,
html-keyboard-response,515,1029128,null,"",null,,,,,,,,
recall-period,516,1036329,55066.00000000035,"",,,,,,,,,pencil
html-keyboard-response,517,1036434,null,"",null,,,,,,,,
recall-period,518,1039737,19758.999999999767,"",,,,,,,,,garlic
html-keyboard-response,519,1039843,null,"",null,,,,,,,,
recall-period,520,1044190,33307.99999999977,"",,,,,,,,,football
html-keyboard-response,521,1044297,null,"",null,,,,,,,,
recall-period,522,1047025,17249.00000000128,"",,,,,,,,,catcher
html-keyboard-response,523,1047129,null,"",null,,,,,,,,
recall-period,524,1049551,12461.000000000233,"",,,,,,,,,tiger
html-keyboard-response,525,1049657,null,"",null,,,,,,,,
recall-period,526,1052593,13050,"",,,,,,,,,icol
html-keyboard-response,527,1052699,null,"",null,,,,,,,,
recall-period,528,1054610,7781,"",,,,,,,,,idol
html-keyboard-response,529,1054716,null,"",null,,,,,,,,
recall-period,530,1062421,62675,"",,,,,,,,,mongoose
html-keyboard-response,531,1062526,null,"",null,,,,,,,,
recall-period,532,1104027,null,"",,,,,,,,,
html-keyboard-response,533,1104533,null,"Time's Up!",null,,,,,,,,
html-keyboard-response,534,1152535,47998,"<p> Uh oh. You responded correctly on 78% of the GREEN squares.</p>
                  <p>We need you keep your accuracy above 80%</p>
                  <p>Press any key to continue the experiment. Thank you!</p>",32,,,,,,,,
html-keyboard-response,535,1154065,1525.9999999997672,"<div style=""font-size:48px;"">Press any key to begin list 6 of 24 </div>",32,,,,,,,,
html-keyboard-response,536,1156571,null,"<div style=""font-size:60px;"">+</div>",null,,,,,,,,
html-keyboard-response,537,1157076,null,"DOLPHIN<img id = ""stim"" ><div class = green_square id = ""topsquare"" ></div><img id = ""stim"" ><div class = green_square  id = ""bottomsquare"" ></div>",null,word_square,response,1,Space,false,,,
html-keyboard-response,538,1158581,null,"DOLPHIN",null,word,,,,, 'DOLPHIN',,
html-keyboard-response,539,1159086,null,"SUMMIT<img id = ""stim"" ><div class = red_square id = ""topsquare"" ></div><img id = ""stim"" ><div class = red_square  id = ""bottomsquare"" ></div>",null,word_square,response,0,none,true,,,
html-keyboard-response,540,1160590,null,"SUMMIT",null,word,,,,, 'SUMMIT',,
html-keyboard-response,541,1161094,null,"PIMPLE<img id = ""stim"" ><div class = red_square id = ""topsquare"" ></div><img id = ""stim"" ><div class = red_square  id = ""bottomsquare"" ></div>",null,word_square,response,0,none,true,,,
html-keyboard-response,542,1162599,null,"PIMPLE",null,word,,,,, 'PIMPLE',,
html-keyboard-response,543,1163104,null,"STICKER<img id = ""stim"" ><div class = green_square id = ""topsquare"" ></div><img id = ""stim"" ><div class = green_square  id = ""bottomsquare"" ></div>",null,word_square,response,1,Space,false,,,
html-keyboard-response,544,1164609,null,"STICKER",null,word,,,,, 'STICKER',,
html-keyboard-response,545,1165114,null,"FRAME<img id = ""stim"" ><div class = red_square id = ""topsquare"" ></div><img id = ""stim"" ><div class = red_square  id = ""bottomsquare"" ></div>",null,word_square,response,0,none,true,,,
html-keyboard-response,546,1166619,null,"FRAME",null,word,,,,, 'FRAME',,
html-keyboard-response,547,1167124,null,"FLUTE<img id = ""stim"" ><div class = green_square id = ""topsquare"" ></div><img id = ""stim"" ><div class = green_square  id = ""bottomsquare"" ></div>",null,word_square,response,1,Space,false,,,
html-keyboard-response,548,1168629,null,"FLUTE",null,word,,,,, 'FLUTE',,
html-keyboard-response,549,1169134,null,"CONCERT<img id = ""stim"" ><div class = green_square id = ""topsquare"" ></div><img id = ""stim"" ><div class = green_square  id = ""bottomsquare"" ></div>",null,word_square,response,1,Space,false,,,
html-keyboard-response,550,1170639,null,"CONCERT",null,word,,,,, 'CONCERT',,
html-keyboard-response,551,1171144,null,"BASKET<img id = ""stim"" ><div class = red_square id = ""topsquare"" ></div><img id = ""stim"" ><div class = red_square  id = ""bottomsquare"" ></div>",null,word_square,response,0,none,true,,,
html-keyboard-response,552,1172649,null,"BASKET",null,word,,,,, 'BASKET',,
html-keyboard-response,553,1173154,null,"SENATE<img id = ""stim"" ><div class = green_square id = ""topsquare"" ></div><img id = ""stim"" ><div class = green_square  id = ""bottomsquare"" ></div>",null,word_square,response,1,Space,false,,,
html-keyboard-response,554,1174659,null,"SENATE",null,word,,,,, 'SENATE',,
html-keyboard-response,555,1175164,null,"CRYSTAL<img id = ""stim"" ><div class = red_square id = ""topsquare"" ></div><img id = ""stim"" ><div class = red_square  id = ""bottomsquare"" ></div>",null,word_square,response,0,none,true,,,
html-keyboard-response,556,1176669,null,"CRYSTAL",null,word,,,,, 'CRYSTAL',,
html-keyboard-response,557,1177120,447,"DRAWING<img id = ""stim"" ><div class = green_square id = ""topsquare"" ></div><img id = ""stim"" ><div class = green_square  id = ""bottomsquare"" ></div>",32,word_square,response,1,Space,true,,,
html-keyboard-response,558,1178625,null,"DRAWING",null,word,,,,, 'DRAWING',,
html-keyboard-response,559,1179130,null,"ACTOR<img id = ""stim"" ><div class = red_square id = ""topsquare"" ></div><img id = ""stim"" ><div class = red_square  id = ""bottomsquare"" ></div>",null,word_square,response,0,none,true,,,
html-keyboard-response,560,1180635,null,"ACTOR",null,word,,,,, 'ACTOR',,
html-keyboard-response,561,1181140,null,"STOCKING<img id = ""stim"" ><div class = red_square id = ""topsquare"" ></div><img id = ""stim"" ><div class = red_square  id = ""bottomsquare"" ></div>",null,word_square,response,0,none,true,,,
html-keyboard-response,562,1182645,null,"STOCKING",null,word,,,,, 'STOCKING',,
html-keyboard-response,563,1183078,429.00000000023283,"STAIRS<img id = ""stim"" ><div class = green_square id = ""topsquare"" ></div><img id = ""stim"" ><div class = green_square  id = ""bottomsquare"" ></div>",32,word_square,response,1,Space,true,,,
html-keyboard-response,564,1184582,null,"STAIRS",null,word,,,,, 'STAIRS',,
html-keyboard-response,565,1185066,479.99999999976717,"SPINACH<img id = ""stim"" ><div class = green_square id = ""topsquare"" ></div><img id = ""stim"" ><div class = green_square  id = ""bottomsquare"" ></div>",32,word_square,response,1,Space,true,,,
html-keyboard-response,566,1186571,null,"SPINACH",null,word,,,,, 'SPINACH',,
html-keyboard-response,567,1187077,null,"MARINE<img id = ""stim"" ><div class = red_square id = ""topsquare"" ></div><img id = ""stim"" ><div class = red_square  id = ""bottomsquare"" ></div>",null,word_square,response,0,none,true,,,
html-keyboard-response,568,1188582,null,"MARINE",null,word,,,,, 'MARINE',,
html-keyboard-response,569,1189087,null,"MAJOR<img id = ""stim"" ><div class = red_square id = ""topsquare"" ></div><img id = ""stim"" ><div class = red_square  id = ""bottomsquare"" ></div>",null,word_square,response,0,none,true,,,
html-keyboard-response,570,1190592,null,"MAJOR",null,word,,,,, 'MAJOR',,
html-keyboard-response,571,1191097,null,"PAIL<img id = ""stim"" ><div class = green_square id = ""topsquare"" ></div><img id = ""stim"" ><div class = green_square  id = ""bottomsquare"" ></div>",null,word_square,response,1,Space,false,,,
html-keyboard-response,572,1192602,null,"PAIL",null,word,,,,, 'PAIL',,
call-function,573,1192604,,"",,,,,,,,,
html-keyboard-response,574,1192708,null,"",null,,,,,,,,
math-period,575,1198156,10818.000000000233,"",,,,,,,,,2
html-keyboard-response,576,1198260,null,"",null,,,,,,,,
math-period,577,1200106,3614,"",,,,,,,,,2
html-keyboard-response,578,1200210,null,"",null,,,,,,,,
math-period,579,1201709,2935,"",,,,,,,,,5
html-keyboard-response,580,1201813,null,"",null,,,,,,,,
math-period,581,1203679,3630.999999999767,"",,,,,,,,,5
html-keyboard-response,582,1203783,null,"",null,,,,,,,,
math-period,583,1206524,5412,"",,,,,,,,,1
html-keyboard-response,584,1206627,null,"",null,,,,,,,,
math-period,585,1207787,2258.000000000233,"",,,,,,,,,3
html-keyboard-response,586,1207892,null,"",null,,,,,,,,
math-period,587,1208967,2070.000000000233,"",,,,,,,,,2
html-keyboard-response,588,1209070,null,"",null,,,,,,,,
math-period,589,1211192,4214.000000000233,"",,,,,,,,,5
html-keyboard-response,590,1211296,null,"",null,,,,,,,,
math-period,591,1213303,3962,"",,,,,,,,,4
html-keyboard-response,592,1213407,null,"",null,,,,,,,,
math-period,593,1214902,2964,"",,,,,,,,,1
html-keyboard-response,594,1215006,null,"",null,,,,,,,,
math-period,595,1216608,null,"",,,,,,,,,
html-keyboard-response,596,1217613,null,"Recall Period!",null,,,,,,,,
call-function,597,1217615,,"",,,,,,,,,
html-keyboard-response,598,1217719,null,"",null,,,,,,,,
recall-period,599,1228697,81153,"",,,,,,,,,dolphin
html-keyboard-response,600,1228802,null,"",null,,,,,,,,
recall-period,601,1233241,30117,"",,,,,,,,,pimple
html-keyboard-response,602,1233346,null,"",null,,,,,,,,
recall-period,603,1237779,31002,"",,,,,,,,,concert
html-keyboard-response,604,1237884,null,"",null,,,,,,,,
recall-period,605,1248782,99552.00000000047,"",,,,,,,,,crystal
html-keyboard-response,606,1248889,null,"",null,,,,,,,,
recall-period,607,1249820,3025.999999998836,"",,,,,,,,,draw
html-keyboard-response,608,1249926,null,"",null,,,,,,,,
recall-period,609,1252075,11713,"",,,,,,,,,stairs
html-keyboard-response,610,1252180,null,"",null,,,,,,,,
recall-period,611,1258720,35750.000000000466,"",,,,,,,,,major
html-keyboard-response,612,1258824,null,"",null,,,,,,,,
recall-period,613,1292618,null,"",,,,,,,,,
html-keyboard-response,614,1293123,null,"Time's Up!",null,,,,,,,,
html-keyboard-response,615,1306920,13793.000000000233,"<p> Uh oh. You responded correctly on 76% of the GREEN squares.</p>
                  <p>We need you keep your accuracy above 80%</p>
                  <p>Press any key to continue the experiment. Thank you!</p>",32,,,,,,,,
html-keyboard-response,616,1308053,1128,"<div style=""font-size:48px;"">Press any key to begin list 7 of 24 </div>",32,,,,,,,,
html-keyboard-response,617,1310557,null,"<div style=""font-size:60px;"">+</div>",null,,,,,,,,
html-keyboard-response,618,1311063,null,"BATHROOM<img id = ""stim"" ><div class = red_square id = ""topsquare"" ></div><img id = ""stim"" ><div class = red_square  id = ""bottomsquare"" ></div>",null,word_square,response,0,none,true,,,
html-keyboard-response,619,1312568,null,"BATHROOM",null,word,,,,, 'BATHROOM',,
html-keyboard-response,620,1313074,null,"TOOTHPASTE<img id = ""stim"" ><div class = green_square id = ""topsquare"" ></div><img id = ""stim"" ><div class = green_square  id = ""bottomsquare"" ></div>",null,word_square,response,1,Space,false,,,
html-keyboard-response,621,1314579,null,"TOOTHPASTE",null,word,,,,, 'TOOTHPASTE',,
html-keyboard-response,622,1315085,null,"CAMEL<img id = ""stim"" ><div class = green_square id = ""topsquare"" ></div><img id = ""stim"" ><div class = green_square  id = ""bottomsquare"" ></div>",null,word_square,response,1,Space,false,,,
html-keyboard-response,623,1316590,null,"CAMEL",null,word,,,,, 'CAMEL',,
html-keyboard-response,624,1317095,null,"SLIME<img id = ""stim"" ><div class = red_square id = ""topsquare"" ></div><img id = ""stim"" ><div class = red_square  id = ""bottomsquare"" ></div>",null,word_square,response,0,none,true,,,
html-keyboard-response,625,1318601,null,"SLIME",null,word,,,,, 'SLIME',,
html-keyboard-response,626,1319106,null,"FUNGUS<img id = ""stim"" ><div class = green_square id = ""topsquare"" ></div><img id = ""stim"" ><div class = green_square  id = ""bottomsquare"" ></div>",null,word_square,response,1,Space,false,,,
html-keyboard-response,627,1320610,null,"FUNGUS",null,word,,,,, 'FUNGUS',,
html-keyboard-response,628,1321113,null,"COBBLER<img id = ""stim"" ><div class = red_square id = ""topsquare"" ></div><img id = ""stim"" ><div class = red_square  id = ""bottomsquare"" ></div>",null,word_square,response,0,none,true,,,
html-keyboard-response,629,1322618,null,"COBBLER",null,word,,,,, 'COBBLER',,
html-keyboard-response,630,1323122,null,"SEAL<img id = ""stim"" ><div class = red_square id = ""topsquare"" ></div><img id = ""stim"" ><div class = red_square  id = ""bottomsquare"" ></div>",null,word_square,response,0,none,true,,,
html-keyboard-response,631,1324627,null,"SEAL",null,word,,,,, 'SEAL',,
html-keyboard-response,632,1325108,478,"EUROPE<img id = ""stim"" ><div class = green_square id = ""topsquare"" ></div><img id = ""stim"" ><div class = green_square  id = ""bottomsquare"" ></div>",32,word_square,response,1,Space,true,,,
html-keyboard-response,633,1326612,null,"EUROPE",null,word,,,,, 'EUROPE',,
html-keyboard-response,634,1327116,null,"PLASTER<img id = ""stim"" ><div class = red_square id = ""topsquare"" ></div><img id = ""stim"" ><div class = red_square  id = ""bottomsquare"" ></div>",null,word_square,response,0,none,true,,,
html-keyboard-response,635,1328620,null,"PLASTER",null,word,,,,, 'PLASTER',,
html-keyboard-response,636,1329124,null,"CRAB<img id = ""stim"" ><div class = green_square id = ""topsquare"" ></div><img id = ""stim"" ><div class = green_square  id = ""bottomsquare"" ></div>",null,word_square,response,1,Space,false,,,
html-keyboard-response,637,1330628,null,"CRAB",null,word,,,,, 'CRAB',,
html-keyboard-response,638,1331132,null,"MOTHER<img id = ""stim"" ><div class = red_square id = ""topsquare"" ></div><img id = ""stim"" ><div class = red_square  id = ""bottomsquare"" ></div>",null,word_square,response,0,none,true,,,
html-keyboard-response,639,1332637,null,"MOTHER",null,word,,,,, 'MOTHER',,
html-keyboard-response,640,1333122,481,"HEDGE<img id = ""stim"" ><div class = green_square id = ""topsquare"" ></div><img id = ""stim"" ><div class = green_square  id = ""bottomsquare"" ></div>",32,word_square,response,1,Space,true,,,
html-keyboard-response,641,1334627,null,"HEDGE",null,word,,,,, 'HEDGE',,
html-keyboard-response,642,1335132,null,"MAILBOX<img id = ""stim"" ><div class = green_square id = ""topsquare"" ></div><img id = ""stim"" ><div class = green_square  id = ""bottomsquare"" ></div>",null,word_square,response,1,Space,false,,,
html-keyboard-response,643,1336637,null,"MAILBOX",null,word,,,,, 'MAILBOX',,
html-keyboard-response,644,1337143,null,"FLESH<img id = ""stim"" ><div class = red_square id = ""topsquare"" ></div><img id = ""stim"" ><div class = red_square  id = ""bottomsquare"" ></div>",null,word_square,response,0,none,true,,,
html-keyboard-response,645,1338648,null,"FLESH",null,word,,,,, 'FLESH',,
html-keyboard-response,646,1339153,null,"SILK<img id = ""stim"" ><div class = red_square id = ""topsquare"" ></div><img id = ""stim"" ><div class = red_square  id = ""bottomsquare"" ></div>",null,word_square,response,0,none,true,,,
html-keyboard-response,647,1340658,null,"SILK",null,word,,,,, 'SILK',,
html-keyboard-response,648,1341163,null,"CRACKER<img id = ""stim"" ><div class = green_square id = ""topsquare"" ></div><img id = ""stim"" ><div class = green_square  id = ""bottomsquare"" ></div>",null,word_square,response,1,Space,false,,,
html-keyboard-response,649,1342668,null,"CRACKER",null,word,,,,, 'CRACKER',,
html-keyboard-response,650,1343173,null,"BRANCH<img id = ""stim"" ><div class = green_square id = ""topsquare"" ></div><img id = ""stim"" ><div class = green_square  id = ""bottomsquare"" ></div>",null,word_square,response,1,Space,false,,,
html-keyboard-response,651,1344678,null,"BRANCH",null,word,,,,, 'BRANCH',,
html-keyboard-response,652,1345183,null,"BLENDER<img id = ""stim"" ><div class = red_square id = ""topsquare"" ></div><img id = ""stim"" ><div class = red_square  id = ""bottomsquare"" ></div>",null,word_square,response,0,none,true,,,
html-keyboard-response,653,1346688,null,"BLENDER",null,word,,,,, 'BLENDER',,
call-function,654,1346690,,"",,,,,,,,,
html-keyboard-response,655,1346794,null,"",null,,,,,,,,
math-period,656,1356334,19254,"",,,,,,,,, 4
html-keyboard-response,657,1356440,null,"",null,,,,,,,,
math-period,658,1359465,5966,"",,,,,,,,,4
html-keyboard-response,659,1359570,null,"",null,,,,,,,,
math-period,660,1361309,3363,"",,,,,,,,,1
html-keyboard-response,661,1361415,null,"",null,,,,,,,,
math-period,662,1363803,4714.000000000233,"",,,,,,,,,4
html-keyboard-response,663,1363909,null,"",null,,,,,,,,
math-period,664,1366855,5367,"",,,,,,,,,3
html-keyboard-response,665,1366960,null,"",null,,,,,,,,
math-period,666,1368378,2729,"",,,,,,,,,1
html-keyboard-response,667,1368483,null,"",null,,,,,,,,
math-period,668,1370694,null,"",,,,,,,,,
html-keyboard-response,669,1371700,null,"Recall Period!",null,,,,,,,,
call-function,670,1371703,,"",,,,,,,,,
html-keyboard-response,671,1371807,null,"",null,,,,,,,,
recall-period,672,1378784,43393.000000000466,"",,,,,,,,,toothpaste
html-keyboard-response,673,1378890,null,"",null,,,,,,,,
recall-period,674,1387940,69578.00000000023,"",,,,,,,,,bathroom
html-keyboard-response,675,1388046,null,"",null,,,,,,,,
recall-period,676,1391172,18609,"",,,,,,,,,fungus
html-keyboard-response,677,1391278,null,"",null,,,,,,,,
recall-period,678,1398772,58880.000000000466,"",,,,,,,,,europe
html-keyboard-response,679,1398877,null,"",null,,,,,,,,
recall-period,680,1400441,4126.000000000233,"",,,,,,,,,crab
html-keyboard-response,681,1400547,null,"",null,,,,,,,,
recall-period,682,1402182,7479,"",,,,,,,,,mother
html-keyboard-response,683,1402288,null,"",null,,,,,,,,
recall-period,684,1405640,20611.000000000233,"",,,,,,,,,mailbox
html-keyboard-response,685,1405745,null,"",null,,,,,,,,
recall-period,686,1409262,15227.000000000233,"",,,,,,,,,silk
html-keyboard-response,687,1409368,null,"",null,,,,,,,,
recall-period,688,1416726,47585.000000000466,"",,,,,,,,,blend
html-keyboard-response,689,1416832,null,"",null,,,,,,,,
recall-period,690,1446706,null,"",,,,,,,,,
html-keyboard-response,691,1447213,null,"Time's Up!",null,,,,,,,,
html-keyboard-response,692,1455339,8121,"<p> Uh oh. You responded correctly on 74% of the GREEN squares.</p>
                  <p>We need you keep your accuracy above 80%</p>
                  <p>Press any key to continue the experiment. Thank you!</p>",32,,,,,,,,
html-keyboard-response,693,1463818,8475,"<div style=""font-size:48px;"">Press any key to begin list 8 of 24 </div>",32,,,,,,,,
html-keyboard-response,694,1466324,null,"<div style=""font-size:60px;"">+</div>",null,,,,,,,,
html-keyboard-response,695,1466829,null,"SLACKS<img id = ""stim"" ><div class = red_square id = ""topsquare"" ></div><img id = ""stim"" ><div class = red_square  id = ""bottomsquare"" ></div>",null,word_square,response,0,none,true,,,
html-keyboard-response,696,1468334,null,"SLACKS",null,word,,,,, 'SLACKS',,
html-keyboard-response,697,1468792,453.00000000023283,"DENTIST<img id = ""stim"" ><div class = green_square id = ""topsquare"" ></div><img id = ""stim"" ><div class = green_square  id = ""bottomsquare"" ></div>",32,word_square,response,1,Space,true,,,
html-keyboard-response,698,1470297,null,"DENTIST",null,word,,,,, 'DENTIST',,
html-keyboard-response,699,1470664,362,"SERVANT<img id = ""stim"" ><div class = green_square id = ""topsquare"" ></div><img id = ""stim"" ><div class = green_square  id = ""bottomsquare"" ></div>",32,word_square,response,1,Space,true,,,
html-keyboard-response,700,1472169,null,"SERVANT",null,word,,,,, 'SERVANT',,
html-keyboard-response,701,1472674,null,"CRIB<img id = ""stim"" ><div class = red_square id = ""topsquare"" ></div><img id = ""stim"" ><div class = red_square  id = ""bottomsquare"" ></div>",null,word_square,response,0,none,true,,,
html-keyboard-response,702,1474179,null,"CRIB",null,word,,,,, 'CRIB',,
html-keyboard-response,703,1474559,376,"PERSON<img id = ""stim"" ><div class = green_square id = ""topsquare"" ></div><img id = ""stim"" ><div class = green_square  id = ""bottomsquare"" ></div>",32,word_square,response,1,Space,true,,,
html-keyboard-response,704,1476064,null,"PERSON",null,word,,,,, 'PERSON',,
html-keyboard-response,705,1476570,null,"PICKLE<img id = ""stim"" ><div class = red_square id = ""topsquare"" ></div><img id = ""stim"" ><div class = red_square  id = ""bottomsquare"" ></div>",null,word_square,response,0,none,true,,,
html-keyboard-response,706,1478075,null,"PICKLE",null,word,,,,, 'PICKLE',,
html-keyboard-response,707,1478581,null,"COURSE<img id = ""stim"" ><div class = red_square id = ""topsquare"" ></div><img id = ""stim"" ><div class = red_square  id = ""bottomsquare"" ></div>",null,word_square,response,0,none,true,,,
html-keyboard-response,708,1480086,null,"COURSE",null,word,,,,, 'COURSE',,
html-keyboard-response,709,1480368,278.00000000023283,"FRAGRANCE<img id = ""stim"" ><div class = green_square id = ""topsquare"" ></div><img id = ""stim"" ><div class = green_square  id = ""bottomsquare"" ></div>",32,word_square,response,1,Space,true,,,
html-keyboard-response,710,1481873,null,"FRAGRANCE",null,word,,,,, 'FRAGRANCE',,
html-keyboard-response,711,1482379,null,"PERFUME<img id = ""stim"" ><div class = red_square id = ""topsquare"" ></div><img id = ""stim"" ><div class = red_square  id = ""bottomsquare"" ></div>",null,word_square,response,0,none,true,,,
html-keyboard-response,712,1483884,null,"PERFUME",null,word,,,,, 'PERFUME',,
html-keyboard-response,713,1484272,384,"TRANSPLANT<img id = ""stim"" ><div class = green_square id = ""topsquare"" ></div><img id = ""stim"" ><div class = green_square  id = ""bottomsquare"" ></div>",32,word_square,response,1,Space,true,,,
html-keyboard-response,714,1485777,null,"TRANSPLANT",null,word,,,,, 'TRANSPLANT',,
html-keyboard-response,715,1486282,null,"TOMBSTONE<img id = ""stim"" ><div class = red_square id = ""topsquare"" ></div><img id = ""stim"" ><div class = red_square  id = ""bottomsquare"" ></div>",null,word_square,response,0,none,true,,,
html-keyboard-response,716,1487787,null,"TOMBSTONE",null,word,,,,, 'TOMBSTONE',,
html-keyboard-response,717,1488146,353.99999999976717,"WIDOW<img id = ""stim"" ><div class = green_square id = ""topsquare"" ></div><img id = ""stim"" ><div class = green_square  id = ""bottomsquare"" ></div>",32,word_square,response,1,Space,true,,,
html-keyboard-response,718,1489651,null,"WIDOW",null,word,,,,, 'WIDOW',,
html-keyboard-response,719,1490151,497,"LIST<img id = ""stim"" ><div class = green_square id = ""topsquare"" ></div><img id = ""stim"" ><div class = green_square  id = ""bottomsquare"" ></div>",32,word_square,response,1,Space,true,,,
html-keyboard-response,720,1491655,null,"LIST",null,word,,,,, 'LIST',,
html-keyboard-response,721,1492159,null,"COLLEGE<img id = ""stim"" ><div class = red_square id = ""topsquare"" ></div><img id = ""stim"" ><div class = red_square  id = ""bottomsquare"" ></div>",null,word_square,response,0,none,true,,,
html-keyboard-response,722,1493663,null,"COLLEGE",null,word,,,,, 'COLLEGE',,
html-keyboard-response,723,1494167,null,"LAMP<img id = ""stim"" ><div class = red_square id = ""topsquare"" ></div><img id = ""stim"" ><div class = red_square  id = ""bottomsquare"" ></div>",null,word_square,response,0,none,true,,,
html-keyboard-response,724,1495671,null,"LAMP",null,word,,,,, 'LAMP',,
html-keyboard-response,725,1496062,387.99999999976717,"COUGAR<img id = ""stim"" ><div class = green_square id = ""topsquare"" ></div><img id = ""stim"" ><div class = green_square  id = ""bottomsquare"" ></div>",32,word_square,response,1,Space,true,,,
html-keyboard-response,726,1497566,null,"COUGAR",null,word,,,,, 'COUGAR',,
html-keyboard-response,727,1497916,346.99999999976717,"SCALPEL<img id = ""stim"" ><div class = green_square id = ""topsquare"" ></div><img id = ""stim"" ><div class = green_square  id = ""bottomsquare"" ></div>",32,word_square,response,1,Space,true,,,
html-keyboard-response,728,1499420,null,"SCALPEL",null,word,,,,, 'SCALPEL',,
html-keyboard-response,729,1499924,null,"WRITER<img id = ""stim"" ><div class = red_square id = ""topsquare"" ></div><img id = ""stim"" ><div class = red_square  id = ""bottomsquare"" ></div>",null,word_square,response,0,none,true,,,
html-keyboard-response,730,1501428,null,"WRITER",null,word,,,,, 'WRITER',,
call-function,731,1501430,,"",,,,,,,,,
html-keyboard-response,732,1501533,null,"",null,,,,,,,,
math-period,733,1504588,6050.000000000233,"",,,,,,,,,5
html-keyboard-response,734,1504692,null,"",null,,,,,,,,
math-period,735,1506575,3718,"",,,,,,,,,6
html-keyboard-response,736,1506679,null,"",null,,,,,,,,
math-period,737,1510274,7108,"",,,,,,,,,2
html-keyboard-response,738,1510378,null,"",null,,,,,,,,
math-period,739,1512146,3492,"",,,,,,,,,2
html-keyboard-response,740,1512251,null,"",null,,,,,,,,
math-period,741,1514076,3578,"",,,,,,,,,1
html-keyboard-response,742,1514181,null,"",null,,,,,,,,
math-period,743,1515267,2113,"",,,,,,,,,3
html-keyboard-response,744,1515372,null,"",null,,,,,,,,
math-period,745,1517676,4558,"",,,,,,,,,4
html-keyboard-response,746,1517780,null,"",null,,,,,,,,
math-period,747,1519339,3060,"",,,,,,,,,1
html-keyboard-response,748,1519444,null,"",null,,,,,,,,
math-period,749,1521181,3434,"",,,,,,,,,5
html-keyboard-response,750,1521285,null,"",null,,,,,,,,
math-period,751,1522957,3244,"",,,,,,,,,5
html-keyboard-response,752,1523061,null,"",null,,,,,,,,
math-period,753,1525434,null,"",,,,,,,,,
html-keyboard-response,754,1526440,null,"Recall Period!",null,,,,,,,,
call-function,755,1526442,,"",,,,,,,,,
html-keyboard-response,756,1526546,null,"",null,,,,,,,,
recall-period,757,1548792,308226.00000000023,"",,,,,,,,,dentist
html-keyboard-response,758,1548898,null,"",null,,,,,,,,
recall-period,759,1550236,5048.000000000233,"",,,,,,,,,person
html-keyboard-response,760,1550342,null,"",null,,,,,,,,
recall-period,761,1558843,61624,"",,,,,,,,,perfume
html-keyboard-response,762,1558948,null,"",null,,,,,,,,
recall-period,763,1561224,14605.999999997905,"",,,,,,,,,fragrance
html-keyboard-response,764,1561329,null,"",null,,,,,,,,
recall-period,765,1563488,10648,"",,,,,,,,,widow
html-keyboard-response,766,1563594,null,"",null,,,,,,,,
recall-period,767,1565426,7595.000000000466,"",,,,,,,,,list
html-keyboard-response,768,1565531,null,"",null,,,,,,,,
recall-period,769,1569265,22419.000000000466,"",,,,,,,,,college
html-keyboard-response,770,1569371,null,"",null,,,,,,,,
recall-period,771,1571481,7810.999999998603,"",,,,,,,,,lamp
html-keyboard-response,772,1571587,null,"",null,,,,,,,,
recall-period,773,1576038,29186.000000000233,"",,,,,,,,,scalpel
html-keyboard-response,774,1576143,null,"",null,,,,,,,,
recall-period,775,1601445,null,"",,,,,,,,,
html-keyboard-response,776,1601951,null,"Time's Up!",null,,,,,,,,
html-keyboard-response,777,1625167,23211,"<p> Uh oh. You responded correctly on 77% of the GREEN squares.</p>
                  <p>We need you keep your accuracy above 80%</p>
                  <p>Press any key to continue the experiment. Thank you!</p>",32,,,,,,,,
html-keyboard-response,778,1627424,2254,"<div style=""font-size:48px;"">Press any key to begin list 9 of 24 </div>",32,,,,,,,,
html-keyboard-response,779,1629930,null,"<div style=""font-size:60px;"">+</div>",null,,,,,,,,
html-keyboard-response,780,1630436,null,"MARSH<img id = ""stim"" ><div class = red_square id = ""topsquare"" ></div><img id = ""stim"" ><div class = red_square  id = ""bottomsquare"" ></div>",null,word_square,response,0,none,true,,,
html-keyboard-response,781,1631941,null,"MARSH",null,word,,,,, 'MARSH',,
html-keyboard-response,782,1632447,null,"CROOK<img id = ""stim"" ><div class = green_square id = ""topsquare"" ></div><img id = ""stim"" ><div class = green_square  id = ""bottomsquare"" ></div>",null,word_square,response,1,Space,false,,,
html-keyboard-response,783,1633952,null,"CROOK",null,word,,,,, 'CROOK',,
html-keyboard-response,784,1634458,null,"NEPTUNE<img id = ""stim"" ><div class = red_square id = ""topsquare"" ></div><img id = ""stim"" ><div class = red_square  id = ""bottomsquare"" ></div>",null,word_square,response,0,none,true,,,
html-keyboard-response,785,1635963,null,"NEPTUNE",null,word,,,,, 'NEPTUNE',,
html-keyboard-response,786,1636335,367.00000000023283,"SALAD<img id = ""stim"" ><div class = green_square id = ""topsquare"" ></div><img id = ""stim"" ><div class = green_square  id = ""bottomsquare"" ></div>",32,word_square,response,1,Space,true,,,
html-keyboard-response,787,1637840,null,"SALAD",null,word,,,,, 'SALAD',,
html-keyboard-response,788,1638345,null,"SCAPEGOAT<img id = ""stim"" ><div class = red_square id = ""topsquare"" ></div><img id = ""stim"" ><div class = red_square  id = ""bottomsquare"" ></div>",null,word_square,response,0,none,true,,,
html-keyboard-response,789,1639850,null,"SCAPEGOAT",null,word,,,,, 'SCAPEGOAT',,
html-keyboard-response,790,1640356,null,"PLATE<img id = ""stim"" ><div class = red_square id = ""topsquare"" ></div><img id = ""stim"" ><div class = red_square  id = ""bottomsquare"" ></div>",null,word_square,response,0,none,true,,,
html-keyboard-response,791,1641861,null,"PLATE",null,word,,,,, 'PLATE',,
html-keyboard-response,792,1642352,488,"VELVET<img id = ""stim"" ><div class = green_square id = ""topsquare"" ></div><img id = ""stim"" ><div class = green_square  id = ""bottomsquare"" ></div>",32,word_square,response,1,Space,true,,,
html-keyboard-response,793,1643856,null,"VELVET",null,word,,,,, 'VELVET',,
html-keyboard-response,794,1644362,null,"ROOSTER<img id = ""stim"" ><div class = green_square id = ""topsquare"" ></div><img id = ""stim"" ><div class = green_square  id = ""bottomsquare"" ></div>",null,word_square,response,1,Space,false,,,
html-keyboard-response,795,1645867,null,"ROOSTER",null,word,,,,, 'ROOSTER',,
html-keyboard-response,796,1646373,null,"HIGHWAY<img id = ""stim"" ><div class = red_square id = ""topsquare"" ></div><img id = ""stim"" ><div class = red_square  id = ""bottomsquare"" ></div>",null,word_square,response,0,none,true,,,
html-keyboard-response,797,1647878,null,"HIGHWAY",null,word,,,,, 'HIGHWAY',,
html-keyboard-response,798,1648301,417.99999999976717,"HOOD<img id = ""stim"" ><div class = green_square id = ""topsquare"" ></div><img id = ""stim"" ><div class = green_square  id = ""bottomsquare"" ></div>",32,word_square,response,1,Space,true,,,
html-keyboard-response,799,1649806,null,"HOOD",null,word,,,,, 'HOOD',,
html-keyboard-response,800,1650202,391,"HATCHET<img id = ""stim"" ><div class = green_square id = ""topsquare"" ></div><img id = ""stim"" ><div class = green_square  id = ""bottomsquare"" ></div>",32,word_square,response,1,Space,true,,,
html-keyboard-response,801,1651707,null,"HATCHET",null,word,,,,, 'HATCHET',,
html-keyboard-response,802,1652103,391,"JOINT<img id = ""stim"" ><div class = green_square id = ""topsquare"" ></div><img id = ""stim"" ><div class = green_square  id = ""bottomsquare"" ></div>",32,word_square,response,1,Space,true,,,
html-keyboard-response,803,1653609,null,"JOINT",null,word,,,,, 'JOINT',,
html-keyboard-response,804,1654114,null,"PAVEMENT<img id = ""stim"" ><div class = red_square id = ""topsquare"" ></div><img id = ""stim"" ><div class = red_square  id = ""bottomsquare"" ></div>",null,word_square,response,0,none,true,,,
html-keyboard-response,805,1655620,null,"PAVEMENT",null,word,,,,, 'PAVEMENT',,
html-keyboard-response,806,1656125,null,"CUPBOARD<img id = ""stim"" ><div class = red_square id = ""topsquare"" ></div><img id = ""stim"" ><div class = red_square  id = ""bottomsquare"" ></div>",null,word_square,response,0,none,true,,,
html-keyboard-response,807,1657630,null,"CUPBOARD",null,word,,,,, 'CUPBOARD',,
html-keyboard-response,808,1658030,395,"PLIERS<img id = ""stim"" ><div class = green_square id = ""topsquare"" ></div><img id = ""stim"" ><div class = green_square  id = ""bottomsquare"" ></div>",32,word_square,response,1,Space,true,,,
html-keyboard-response,809,1659535,null,"PLIERS",null,word,,,,, 'PLIERS',,
html-keyboard-response,810,1660040,null,"WAITRESS<img id = ""stim"" ><div class = red_square id = ""topsquare"" ></div><img id = ""stim"" ><div class = red_square  id = ""bottomsquare"" ></div>",null,word_square,response,0,none,true,,,
html-keyboard-response,811,1661545,null,"WAITRESS",null,word,,,,, 'WAITRESS',,
html-keyboard-response,812,1662051,null,"PICNIC<img id = ""stim"" ><div class = red_square id = ""topsquare"" ></div><img id = ""stim"" ><div class = red_square  id = ""bottomsquare"" ></div>",null,word_square,response,0,none,true,,,
html-keyboard-response,813,1663556,null,"PICNIC",null,word,,,,, 'PICNIC',,
html-keyboard-response,814,1663974,413,"NEWSSTAND<img id = ""stim"" ><div class = green_square id = ""topsquare"" ></div><img id = ""stim"" ><div class = green_square  id = ""bottomsquare"" ></div>",32,word_square,response,1,Space,true,,,
html-keyboard-response,815,1665479,null,"NEWSSTAND",null,word,,,,, 'NEWSSTAND',,
call-function,816,1665482,,"",,,,,,,,,
html-keyboard-response,817,1665586,null,"",null,,,,,,,,
math-period,818,1668312,5393,"",,,,,,,,,1
html-keyboard-response,819,1668417,null,"",null,,,,,,,,
math-period,820,1671093,5304.000000000233,"",,,,,,,,,5
html-keyboard-response,821,1671199,null,"",null,,,,,,,,
math-period,822,1672637,2812,"",,,,,,,,,2
html-keyboard-response,823,1672743,null,"",null,,,,,,,,
math-period,824,1674587,3629.9999999995343,"",,,,,,,,,0
html-keyboard-response,825,1674692,null,"",null,,,,,,,,
math-period,826,1676275,3097,"",,,,,,,,,0
html-keyboard-response,827,1676380,null,"",null,,,,,,,,
math-period,828,1677916,2990.000000000233,"",,,,,,,,,3
html-keyboard-response,829,1678021,null,"",null,,,,,,,,
math-period,830,1679201,2293,"",,,,,,,,,2
html-keyboard-response,831,1679307,null,"",null,,,,,,,,
math-period,832,1680571,2441,"",,,,,,,,,3
html-keyboard-response,833,1680676,null,"",null,,,,,,,,
math-period,834,1682499,3568.9999999995343,"",,,,,,,,,4
html-keyboard-response,835,1682604,null,"",null,,,,,,,,
math-period,836,1683679,2060,"",,,,,,,,,3
html-keyboard-response,837,1683785,null,"",null,,,,,,,,
math-period,838,1688420,15135.000000000466,"",,,,,,,,,2
html-keyboard-response,839,1688525,null,"",null,,,,,,,,
math-period,840,1689486,null,"",,,,,,,,,
html-keyboard-response,841,1690491,null,"Recall Period!",null,,,,,,,,
call-function,842,1690493,,"",,,,,,,,,
html-keyboard-response,843,1690597,null,"",null,,,,,,,,
recall-period,844,1695821,37018.00000000023,"",,,,,,,,,rooster
html-keyboard-response,845,1695926,null,"",null,,,,,,,,
recall-period,846,1699517,15527.999999999069,"",,,,,,,,,hood
html-keyboard-response,847,1699622,null,"",null,,,,,,,,
recall-period,848,1704361,21334.000000000233,"",,,,,,,,,joint
html-keyboard-response,849,1704467,null,"",null,,,,,,,,
recall-period,850,1706716,11044.000000000466,"",,,,,,,,,pave
html-keyboard-response,851,1706821,null,"",null,,,,,,,,
recall-period,852,1718582,54736.00000000023,"",,,,,,,,,wait
html-keyboard-response,853,1718687,null,"",null,,,,,,,,
recall-period,854,1721406,16066.000000000233,"",,,,,,,,,waiter
html-keyboard-response,855,1721510,null,"",null,,,,,,,,
recall-period,856,1765495,null,"",,,,,,,,,
html-keyboard-response,857,1766001,null,"Time's Up!",null,,,,,,,,
html-keyboard-response,858,1766715,710.0000000002328,"<p> Uh oh. You responded correctly on 78% of the GREEN squares.</p>
                  <p>We need you keep your accuracy above 80%</p>
                  <p>Press any key to continue the experiment. Thank you!</p>",32,,,,,,,,
html-keyboard-response,859,1767504,786.0000000002328,"<div style=""font-size:48px;"">Press any key to begin list 10 of 24 </div>",32,,,,,,,,
html-keyboard-response,860,1770009,null,"<div style=""font-size:60px;"">+</div>",null,,,,,,,,
html-keyboard-response,861,1770514,null,"CABLE<img id = ""stim"" ><div class = red_square id = ""topsquare"" ></div><img id = ""stim"" ><div class = red_square  id = ""bottomsquare"" ></div>",null,word_square,response,0,none,true,,,
html-keyboard-response,862,1772019,null,"CABLE",null,word,,,,, 'CABLE',,
html-keyboard-response,863,1772525,null,"CRITIC<img id = ""stim"" ><div class = green_square id = ""topsquare"" ></div><img id = ""stim"" ><div class = green_square  id = ""bottomsquare"" ></div>",null,word_square,response,1,Space,false,,,
html-keyboard-response,864,1774030,null,"CRITIC",null,word,,,,, 'CRITIC',,
html-keyboard-response,865,1774535,null,"CAPTIVE<img id = ""stim"" ><div class = red_square id = ""topsquare"" ></div><img id = ""stim"" ><div class = red_square  id = ""bottomsquare"" ></div>",null,word_square,response,0,none,true,,,
html-keyboard-response,866,1776039,null,"CAPTIVE",null,word,,,,, 'CAPTIVE',,
html-keyboard-response,867,1776536,491,"SUSPECT<img id = ""stim"" ><div class = green_square id = ""topsquare"" ></div><img id = ""stim"" ><div class = green_square  id = ""bottomsquare"" ></div>",32,word_square,response,1,Space,true,,,
html-keyboard-response,868,1778040,null,"SUSPECT",null,word,,,,, 'SUSPECT',,
html-keyboard-response,869,1778546,null,"DESSERT<img id = ""stim"" ><div class = red_square id = ""topsquare"" ></div><img id = ""stim"" ><div class = red_square  id = ""bottomsquare"" ></div>",null,word_square,response,0,none,true,,,
html-keyboard-response,870,1780051,null,"DESSERT",null,word,,,,, 'DESSERT',,
html-keyboard-response,871,1780556,null,"CIRCUS<img id = ""stim"" ><div class = red_square id = ""topsquare"" ></div><img id = ""stim"" ><div class = red_square  id = ""bottomsquare"" ></div>",null,word_square,response,0,none,true,,,
html-keyboard-response,872,1782061,null,"CIRCUS",null,word,,,,, 'CIRCUS',,
html-keyboard-response,873,1782488,423,"NICKEL<img id = ""stim"" ><div class = green_square id = ""topsquare"" ></div><img id = ""stim"" ><div class = green_square  id = ""bottomsquare"" ></div>",32,word_square,response,1,Space,true,,,
html-keyboard-response,874,1783992,null,"NICKEL",null,word,,,,, 'NICKEL',,
html-keyboard-response,875,1784422,426,"JELLO<img id = ""stim"" ><div class = green_square id = ""topsquare"" ></div><img id = ""stim"" ><div class = green_square  id = ""bottomsquare"" ></div>",32,word_square,response,1,Space,true,,,
html-keyboard-response,876,1785927,null,"JELLO",null,word,,,,, 'JELLO',,
html-keyboard-response,877,1786432,null,"PUDDING<img id = ""stim"" ><div class = red_square id = ""topsquare"" ></div><img id = ""stim"" ><div class = red_square  id = ""bottomsquare"" ></div>",null,word_square,response,0,none,true,,,
html-keyboard-response,878,1787937,null,"PUDDING",null,word,,,,, 'PUDDING',,
html-keyboard-response,879,1788270,328,"CROWN<img id = ""stim"" ><div class = green_square id = ""topsquare"" ></div><img id = ""stim"" ><div class = green_square  id = ""bottomsquare"" ></div>",32,word_square,response,1,Space,true,,,
html-keyboard-response,880,1789775,null,"CROWN",null,word,,,,, 'CROWN',,
html-keyboard-response,881,1790158,378.00000000023283,"NOVEL<img id = ""stim"" ><div class = green_square id = ""topsquare"" ></div><img id = ""stim"" ><div class = green_square  id = ""bottomsquare"" ></div>",32,word_square,response,1,Space,true,,,
html-keyboard-response,882,1791663,null,"NOVEL",null,word,,,,, 'NOVEL',,
html-keyboard-response,883,1791966,299.00000000023283,"WASHER<img id = ""stim"" ><div class = green_square id = ""topsquare"" ></div><img id = ""stim"" ><div class = green_square  id = ""bottomsquare"" ></div>",32,word_square,response,1,Space,true,,,
html-keyboard-response,884,1793471,null,"WASHER",null,word,,,,, 'WASHER',,
html-keyboard-response,885,1793976,null,"HANDCUFFS<img id = ""stim"" ><div class = red_square id = ""topsquare"" ></div><img id = ""stim"" ><div class = red_square  id = ""bottomsquare"" ></div>",null,word_square,response,0,none,true,,,
html-keyboard-response,886,1795481,null,"HANDCUFFS",null,word,,,,, 'HANDCUFFS',,
html-keyboard-response,887,1795986,null,"MASK<img id = ""stim"" ><div class = red_square id = ""topsquare"" ></div><img id = ""stim"" ><div class = red_square  id = ""bottomsquare"" ></div>",null,word_square,response,0,none,true,,,
html-keyboard-response,888,1797491,null,"MASK",null,word,,,,, 'MASK',,
html-keyboard-response,889,1797837,341.99999999976717,"CLERK<img id = ""stim"" ><div class = green_square id = ""topsquare"" ></div><img id = ""stim"" ><div class = green_square  id = ""bottomsquare"" ></div>",32,word_square,response,1,Space,true,,,
html-keyboard-response,890,1799341,null,"CLERK",null,word,,,,, 'CLERK',,
html-keyboard-response,891,1799847,null,"WALNUT<img id = ""stim"" ><div class = red_square id = ""topsquare"" ></div><img id = ""stim"" ><div class = red_square  id = ""bottomsquare"" ></div>",null,word_square,response,0,none,true,,,
html-keyboard-response,892,1801351,null,"WALNUT",null,word,,,,, 'WALNUT',,
html-keyboard-response,893,1801855,null,"DRESSER<img id = ""stim"" ><div class = red_square id = ""topsquare"" ></div><img id = ""stim"" ><div class = red_square  id = ""bottomsquare"" ></div>",null,word_square,response,0,none,true,,,
html-keyboard-response,894,1803360,null,"DRESSER",null,word,,,,, 'DRESSER',,
html-keyboard-response,895,1803720,355,"COSTUME<img id = ""stim"" ><div class = green_square id = ""topsquare"" ></div><img id = ""stim"" ><div class = green_square  id = ""bottomsquare"" ></div>",32,word_square,response,1,Space,true,,,
html-keyboard-response,896,1805225,null,"COSTUME",null,word,,,,, 'COSTUME',,
call-function,897,1805228,,"",,,,,,,,,
html-keyboard-response,898,1805332,null,"",null,,,,,,,,
math-period,899,1808190,5658,"",,,,,,,,,4
html-keyboard-response,900,1808296,null,"",null,,,,,,,,
math-period,901,1809977,3328,"",,,,,,,,,5
html-keyboard-response,902,1810083,null,"",null,,,,,,,,
math-period,903,1811342,2483,"",,,,,,,,,5
html-keyboard-response,904,1811448,null,"",null,,,,,,,,
math-period,905,1814047,5098.000000000233,"",,,,,,,,,0
html-keyboard-response,906,1814152,null,"",null,,,,,,,,
math-period,907,1815283,2175.999999999767,"",,,,,,,,,3
html-keyboard-response,908,1815389,null,"",null,,,,,,,,
math-period,909,1817748,4638.000000000233,"",,,,,,,,,5
html-keyboard-response,910,1817853,null,"",null,,,,,,,,
math-period,911,1819302,2795,"",,,,,,,,,5
html-keyboard-response,912,1819407,null,"",null,,,,,,,,
math-period,913,1821311,3729.000000000233,"",,,,,,,,,4
html-keyboard-response,914,1821417,null,"",null,,,,,,,,
math-period,915,1822538,2168,"",,,,,,,,,4
html-keyboard-response,916,1822644,null,"",null,,,,,,,,
math-period,917,1824142,2898.999999999767,"",,,,,,,,,2
html-keyboard-response,918,1824247,null,"",null,,,,,,,,
math-period,919,1825932,3257,"",,,,,,,,,1
html-keyboard-response,920,1826038,null,"",null,,,,,,,,
math-period,921,1827645,3115,"",,,,,,,,,4
html-keyboard-response,922,1827751,null,"",null,,,,,,,,
math-period,923,1829231,null,"",,,,,,,,,
html-keyboard-response,924,1830238,null,"Recall Period!",null,,,,,,,,
call-function,925,1830240,,"",,,,,,,,,
html-keyboard-response,926,1830344,null,"",null,,,,,,,,
recall-period,927,1836780,44462.00000000023,"",,,,,,,,,dessert
html-keyboard-response,928,1836886,null,"",null,,,,,,,,
recall-period,929,1840713,19262,"",,,,,,,,,jello
html-keyboard-response,930,1840819,null,"",null,,,,,,,,
recall-period,931,1843513,15110,"",,,,,,,,,pudding
html-keyboard-response,932,1843619,null,"",null,,,,,,,,
recall-period,933,1851887,84381.0000000007,"",,,,,,,,,handcuffs
html-keyboard-response,934,1851993,null,"",null,,,,,,,,
recall-period,935,1853553,5907.000000000233,"",,,,,,,,,mask
html-keyboard-response,936,1853659,null,"",null,,,,,,,,
recall-period,937,1861770,60029.000000000466,"",,,,,,,,,costume
html-keyboard-response,938,1861877,null,"",null,,,,,,,,
recall-period,939,1863574,7009,"",,,,,,,,,dress
html-keyboard-response,940,1863680,null,"",null,,,,,,,,
recall-period,941,1905241,null,"",,,,,,,,,
html-keyboard-response,942,1905747,null,"Time's Up!",null,,,,,,,,
html-keyboard-response,943,1969814,64063.99999999977,"<p> Good job! You responded correctly to 80% of the GREEN squares.</p>
                  <p>Be sure to keep your accuracy above 80%</p>
                  <p>Press any key to continue the experiment. Thank you!</p>",32,,,,,,,,
html-keyboard-response,944,1977270,7452,"<div style=""font-size:48px;"">Press any key to begin list 11 of 24 </div>",32,,,,,,,,
html-keyboard-response,945,1979776,null,"<div style=""font-size:60px;"">+</div>",null,,,,,,,,
