trial_type,trial_index,time_elapsed,rt,stimulus,key_press,test_part,task,targ_cond,correctKeyCode,correct,word,value,response
pavlovia,0,939,,"",,,,,,,,,
external-html,1,168297,167206.66499994695,"",,,,,,,,,
html-keyboard-response,2,173355,5055.374999996275,"Welcome to the experiment. Press any key to begin.",32,,,,,,,,
html-keyboard-response,3,182041,8684.785000048578,"<p>You will see a list of words and colored squares in the following task.<p><p>Press the spacebar whenever you see a GREEN square.<p><p>Do not press a key if the square is RED<p><p>Press the spacebar to continue.</p>",32,,,,,,,,
html-keyboard-response,4,191661,9115.78999971971,"<p>Please try to remember as many of the words as you can, and try to think about the meaning of each word as it appears.<p><p>After the detection and encoding task you will be asked to solve some math problems for 24 seconds.<p> Please solve as many problems as you can in the time given. <p>",32,,,,,,,,
html-keyboard-response,5,204268,12102.905000094324,"After solving the math problems, you will be asked to type in as many words <p>from the previous list as you can remember for 75 seconds.<p> If you finish recalling before the 75 seconds are up,<p> just sit tight and try to think of any more words you could have missed. <p><p>We will begin with a brief practice session<p>Press the spacebar to begin the practice.</p>",32,,,,,,,,
html-keyboard-response,6,206774,null,"<div style=""font-size:60px;"">+</div>",null,,,,,,,,
html-keyboard-response,7,207279,null,"HAPPY<img id = ""stim"" ><div class = red_square id = ""topsquare"" ></div><img id = ""stim"" ><div class = red_square  id = ""bottomsquare"" ></div>",null,word_square,prac_response,0,none,true,,,
html-keyboard-response,8,208784,null,"HAPPY",null,word,,,,,HAPPY,,
html-keyboard-response,9,209287,null,"COLD<img id = ""stim"" ><div class = green_square id = ""topsquare"" ></div><img id = ""stim"" ><div class = green_square  id = ""bottomsquare"" ></div>",null,word_square,prac_response,1,Space,false,,,
html-keyboard-response,10,210791,null,"COLD",null,word,,,,,COLD,,
html-keyboard-response,11,211298,null,"HEAVY<img id = ""stim"" ><div class = green_square id = ""topsquare"" ></div><img id = ""stim"" ><div class = green_square  id = ""bottomsquare"" ></div>",null,word_square,prac_response,1,Space,false,,,
html-keyboard-response,12,212801,null,"HEAVY",null,word,,,,,HEAVY,,
html-keyboard-response,13,213305,null,"FUNNY<img id = ""stim"" ><div class = red_square id = ""topsquare"" ></div><img id = ""stim"" ><div class = red_square  id = ""bottomsquare"" ></div>",null,word_square,prac_response,0,none,true,,,
html-keyboard-response,14,214809,null,"FUNNY",null,word,,,,,FUNNY,,
html-keyboard-response,15,215313,null,"SCARY<img id = ""stim"" ><div class = green_square id = ""topsquare"" ></div><img id = ""stim"" ><div class = green_square  id = ""bottomsquare"" ></div>",null,word_square,prac_response,1,Space,false,,,
html-keyboard-response,16,216817,null,"SCARY",null,word,,,,,SCARY,,
html-keyboard-response,17,217322,null,"PEACEFUL<img id = ""stim"" ><div class = green_square id = ""topsquare"" ></div><img id = ""stim"" ><div class = green_square  id = ""bottomsquare"" ></div>",null,word_square,prac_response,1,Space,false,,,
html-keyboard-response,18,218826,null,"PEACEFUL",null,word,,,,,PEACEFUL,,
html-keyboard-response,19,219329,null,"LITTLE<img id = ""stim"" ><div class = red_square id = ""topsquare"" ></div><img id = ""stim"" ><div class = red_square  id = ""bottomsquare"" ></div>",null,word_square,prac_response,0,none,true,,,
html-keyboard-response,20,220834,null,"LITTLE",null,word,,,,,LITTLE,,
html-keyboard-response,21,221338,null,"TIRED<img id = ""stim"" ><div class = red_square id = ""topsquare"" ></div><img id = ""stim"" ><div class = red_square  id = ""bottomsquare"" ></div>",null,word_square,prac_response,0,none,true,,,
html-keyboard-response,22,222841,null,"TIRED",null,word,,,,,TIRED,,
html-keyboard-response,23,223344,null,"ENTERTAINING<img id = ""stim"" ><div class = red_square id = ""topsquare"" ></div><img id = ""stim"" ><div class = red_square  id = ""bottomsquare"" ></div>",null,word_square,prac_response,0,none,true,,,
html-keyboard-response,24,224848,null,"ENTERTAINING",null,word,,,,,ENTERTAINING,,
html-keyboard-response,25,225352,null,"GRATEFUL<img id = ""stim"" ><div class = green_square id = ""topsquare"" ></div><img id = ""stim"" ><div class = green_square  id = ""bottomsquare"" ></div>",null,word_square,prac_response,1,Space,false,,,
html-keyboard-response,26,226855,null,"GRATEFUL",null,word,,,,,GRATEFUL,,
html-keyboard-response,27,227359,null,"LOUD<img id = ""stim"" ><div class = red_square id = ""topsquare"" ></div><img id = ""stim"" ><div class = red_square  id = ""bottomsquare"" ></div>",null,word_square,prac_response,0,none,true,,,
html-keyboard-response,28,228870,null,"LOUD",null,word,,,,,LOUD,,
html-keyboard-response,29,229372,null,"SMART<img id = ""stim"" ><div class = green_square id = ""topsquare"" ></div><img id = ""stim"" ><div class = green_square  id = ""bottomsquare"" ></div>",null,word_square,prac_response,1,Space,false,,,
html-keyboard-response,30,230876,null,"SMART",null,word,,,,,SMART,,
html-keyboard-response,31,231379,null,"SMOOTH<img id = ""stim"" ><div class = green_square id = ""topsquare"" ></div><img id = ""stim"" ><div class = green_square  id = ""bottomsquare"" ></div>",null,word_square,prac_response,1,Space,false,,,
html-keyboard-response,32,232883,null,"SMOOTH",null,word,,,,,SMOOTH,,
html-keyboard-response,33,233387,null,"DISHONEST<img id = ""stim"" ><div class = red_square id = ""topsquare"" ></div><img id = ""stim"" ><div class = red_square  id = ""bottomsquare"" ></div>",null,word_square,prac_response,0,none,true,,,
html-keyboard-response,34,234891,null,"DISHONEST",null,word,,,,,DISHONEST,,
html-keyboard-response,35,235395,378.4050000831485,"WEALTHY<img id = ""stim"" ><div class = green_square id = ""topsquare"" ></div><img id = ""stim"" ><div class = green_square  id = ""bottomsquare"" ></div>",32,word_square,prac_response,1,Space,true,,,
html-keyboard-response,36,236899,null,"WEALTHY",null,word,,,,,WEALTHY,,
html-keyboard-response,37,237404,null,"BEAUTIFUL<img id = ""stim"" ><div class = red_square id = ""topsquare"" ></div><img id = ""stim"" ><div class = red_square  id = ""bottomsquare"" ></div>",null,word_square,prac_response,0,none,true,,,
html-keyboard-response,38,238908,null,"BEAUTIFUL",null,word,,,,,BEAUTIFUL,,
html-keyboard-response,39,239412,null,"DREARY<img id = ""stim"" ><div class = red_square id = ""topsquare"" ></div><img id = ""stim"" ><div class = red_square  id = ""bottomsquare"" ></div>",null,word_square,prac_response,0,none,true,,,
html-keyboard-response,40,240917,null,"DREARY",null,word,,,,,DREARY,,
html-keyboard-response,41,241421,null,"PLAYFUL<img id = ""stim"" ><div class = green_square id = ""topsquare"" ></div><img id = ""stim"" ><div class = green_square  id = ""bottomsquare"" ></div>",null,word_square,prac_response,1,Space,false,,,
html-keyboard-response,42,242924,null,"PLAYFUL",null,word,,,,,PLAYFUL,,
html-keyboard-response,43,256338,13407.824999652803,"<p> Uh oh. You responded correctly on 56% of the GREEN squares.</p>
                  <p>We need you keep your accuracy above 80%</p>
                  <p>We're going to try once more to make sure you understand the task. press any key to continue.</p>",32,,,,,,,,
html-keyboard-response,44,257354,1014.2500000074506,"<p>You will see a list of words and colored squares in the following task.<p><p>Press the spacebar whenever you see a GREEN square.<p><p>Do not press a key if the square is RED<p><p>Press the spacebar to continue.</p>",32,,,,,,,,
html-keyboard-response,45,259858,null,"<div style=""font-size:60px;"">+</div>",null,,,,,,,,
html-keyboard-response,46,260361,null,"HAPPY<img id = ""stim"" ><div class = red_square id = ""topsquare"" ></div><img id = ""stim"" ><div class = red_square  id = ""bottomsquare"" ></div>",null,word_square,response,0,none,true,,,
html-keyboard-response,47,261866,null,"HAPPY",null,word,,,,,HAPPY,,
html-keyboard-response,48,262166,297.98500007018447,"COLD<img id = ""stim"" ><div class = green_square id = ""topsquare"" ></div><img id = ""stim"" ><div class = green_square  id = ""bottomsquare"" ></div>",32,word_square,response,1,Space,true,,,
html-keyboard-response,49,263670,null,"COLD",null,word,,,,,COLD,,
html-keyboard-response,50,263976,303.8050001487136,"HEAVY<img id = ""stim"" ><div class = green_square id = ""topsquare"" ></div><img id = ""stim"" ><div class = green_square  id = ""bottomsquare"" ></div>",32,word_square,response,1,Space,true,,,
html-keyboard-response,51,265478,null,"HEAVY",null,word,,,,,HEAVY,,
html-keyboard-response,52,265983,null,"FUNNY<img id = ""stim"" ><div class = red_square id = ""topsquare"" ></div><img id = ""stim"" ><div class = red_square  id = ""bottomsquare"" ></div>",null,word_square,response,0,none,true,,,
html-keyboard-response,53,267486,null,"FUNNY",null,word,,,,,FUNNY,,
html-keyboard-response,54,267855,367.06999968737364,"SCARY<img id = ""stim"" ><div class = green_square id = ""topsquare"" ></div><img id = ""stim"" ><div class = green_square  id = ""bottomsquare"" ></div>",32,word_square,response,1,Space,true,,,
html-keyboard-response,55,269359,null,"SCARY",null,word,,,,,SCARY,,
html-keyboard-response,56,269691,331.06499956920743,"PEACEFUL<img id = ""stim"" ><div class = green_square id = ""topsquare"" ></div><img id = ""stim"" ><div class = green_square  id = ""bottomsquare"" ></div>",32,word_square,response,1,Space,true,,,
html-keyboard-response,57,271195,null,"PEACEFUL",null,word,,,,,PEACEFUL,,
html-keyboard-response,58,271699,null,"LITTLE<img id = ""stim"" ><div class = red_square id = ""topsquare"" ></div><img id = ""stim"" ><div class = red_square  id = ""bottomsquare"" ></div>",null,word_square,response,0,none,true,,,
html-keyboard-response,59,273203,null,"LITTLE",null,word,,,,,LITTLE,,
html-keyboard-response,60,273707,null,"TIRED<img id = ""stim"" ><div class = red_square id = ""topsquare"" ></div><img id = ""stim"" ><div class = red_square  id = ""bottomsquare"" ></div>",null,word_square,response,0,none,true,,,
html-keyboard-response,61,275211,null,"TIRED",null,word,,,,,TIRED,,
html-keyboard-response,62,275716,null,"ENTERTAINING<img id = ""stim"" ><div class = red_square id = ""topsquare"" ></div><img id = ""stim"" ><div class = red_square  id = ""bottomsquare"" ></div>",null,word_square,response,0,none,true,,,
html-keyboard-response,63,277220,null,"ENTERTAINING",null,word,,,,,ENTERTAINING,,
html-keyboard-response,64,277703,481.4649997279048,"GRATEFUL<img id = ""stim"" ><div class = green_square id = ""topsquare"" ></div><img id = ""stim"" ><div class = green_square  id = ""bottomsquare"" ></div>",32,word_square,response,1,Space,true,,,
html-keyboard-response,65,279206,null,"GRATEFUL",null,word,,,,,GRATEFUL,,
html-keyboard-response,66,279708,null,"LOUD<img id = ""stim"" ><div class = red_square id = ""topsquare"" ></div><img id = ""stim"" ><div class = red_square  id = ""bottomsquare"" ></div>",null,word_square,response,0,none,true,,,
html-keyboard-response,67,281212,null,"LOUD",null,word,,,,,LOUD,,
html-keyboard-response,68,281520,304.82999980449677,"SMART<img id = ""stim"" ><div class = green_square id = ""topsquare"" ></div><img id = ""stim"" ><div class = green_square  id = ""bottomsquare"" ></div>",32,word_square,response,1,Space,true,,,
html-keyboard-response,69,283037,null,"SMART",null,word,,,,,SMART,,
html-keyboard-response,70,283486,446.9999996945262,"SMOOTH<img id = ""stim"" ><div class = green_square id = ""topsquare"" ></div><img id = ""stim"" ><div class = green_square  id = ""bottomsquare"" ></div>",32,word_square,response,1,Space,true,,,
html-keyboard-response,71,284988,null,"SMOOTH",null,word,,,,,SMOOTH,,
html-keyboard-response,72,285491,null,"DISHONEST<img id = ""stim"" ><div class = red_square id = ""topsquare"" ></div><img id = ""stim"" ><div class = red_square  id = ""bottomsquare"" ></div>",null,word_square,response,0,none,true,,,
html-keyboard-response,73,286995,null,"DISHONEST",null,word,,,,,DISHONEST,,
html-keyboard-response,74,287329,331.88500022515655,"WEALTHY<img id = ""stim"" ><div class = green_square id = ""topsquare"" ></div><img id = ""stim"" ><div class = green_square  id = ""bottomsquare"" ></div>",32,word_square,response,1,Space,true,,,
html-keyboard-response,75,288831,null,"WEALTHY",null,word,,,,,WEALTHY,,
html-keyboard-response,76,289334,null,"BEAUTIFUL<img id = ""stim"" ><div class = red_square id = ""topsquare"" ></div><img id = ""stim"" ><div class = red_square  id = ""bottomsquare"" ></div>",null,word_square,response,0,none,true,,,
html-keyboard-response,77,290839,null,"BEAUTIFUL",null,word,,,,,BEAUTIFUL,,
html-keyboard-response,78,291342,null,"DREARY<img id = ""stim"" ><div class = red_square id = ""topsquare"" ></div><img id = ""stim"" ><div class = red_square  id = ""bottomsquare"" ></div>",null,word_square,response,0,none,true,,,
html-keyboard-response,79,292849,null,"DREARY",null,word,,,,,DREARY,,
html-keyboard-response,80,293203,352.3550000973046,"PLAYFUL<img id = ""stim"" ><div class = green_square id = ""topsquare"" ></div><img id = ""stim"" ><div class = green_square  id = ""bottomsquare"" ></div>",32,word_square,response,1,Space,true,,,
html-keyboard-response,81,294706,null,"PLAYFUL",null,word,,,,,PLAYFUL,,
html-keyboard-response,82,308550,13841.579999774694,"<p> Good job! You responded correctly to 100% of the GREEN squares.</p>
                  <p>Be sure to keep your accuracy above 80%</p>
                  <p>Press any key to begin the math and recall sections. Thank you!</p>",32,,,,,,,,
call-function,83,308551,,"",,,,,,,,,
html-keyboard-response,84,308654,null,"",null,,,,,,,,
math-period,85,314624,26230.94000061974,"",,,,,,,,,5
html-keyboard-response,86,314727,null,"",null,,,,,,,,
math-period,87,317680,5587.8800000064075,"",,,,,,,,,2
html-keyboard-response,88,317783,null,"",null,,,,,,,,
math-period,89,319437,3025.659999810159,"",,,,,,,,,1
html-keyboard-response,90,319540,null,"",null,,,,,,,,
math-period,91,321195,3040.1249998249114,"",,,,,,,,,4
html-keyboard-response,92,321299,null,"",null,,,,,,,,
math-period,93,322627,2384.899999946356,"",,,,,,,,,3
html-keyboard-response,94,322730,null,"",null,,,,,,,,
math-period,95,325943,6066.929999738932,"",,,,,,,,,3
html-keyboard-response,96,326046,null,"",null,,,,,,,,
math-period,97,328937,10035.830000881106,"",,,,,,,,,4
html-keyboard-response,98,329040,null,"",null,,,,,,,,
math-period,99,331223,4218.704999890178,"",,,,,,,,,1
html-keyboard-response,100,331327,null,"",null,,,,,,,,
math-period,101,332554,null,"",,,,,,,,,
html-keyboard-response,102,333557,null,"Recall Period!",null,,,,,,,,
call-function,103,333559,,"",,,,,,,,,
html-keyboard-response,104,333661,null,"",null,,,,,,,,
recall-period,105,340918,40372.12000135332,"",,,,,,,,,happy
html-keyboard-response,106,341021,null,"",null,,,,,,,,
recall-period,107,345362,39554.65000029653,"",,,,,,,,,playful
html-keyboard-response,108,345464,null,"",null,,,,,,,,
recall-period,109,347665,5692.014999687672,"",,,,,,,,,sorry
html-keyboard-response,110,347767,null,"",null,,,,,,,,
recall-period,111,353802,34316.31000060588,"",,,,,,,,,sorrow
html-keyboard-response,112,353904,null,"",null,,,,,,,,
recall-period,113,357309,18248.15999995917,"",,,,,,,,,smart
html-keyboard-response,114,357411,null,"",null,,,,,,,,
recall-period,115,373051,161203.62500334159,"",,,,,,,,,grateful
html-keyboard-response,116,373155,null,"",null,,,,,,,,
recall-period,117,378159,25712.81500067562,"",,,,,,,,,playful
html-keyboard-response,118,378263,null,"",null,,,,,,,,
recall-period,119,388262,52487.745001446456,"",,,,,,,,,sorry
html-keyboard-response,120,388365,null,"",null,,,,,,,,
recall-period,121,407193,181269.35999887064,"",,,,,,,,,dishonest
html-keyboard-response,122,407295,null,"",null,,,,,,,,
recall-period,123,408561,null,"",,,,,,,,,
html-keyboard-response,124,409065,null,"Time's Up!",null,,,,,,,,
html-keyboard-response,125,446745,37678.24500007555,"<p>We will now begin the experiment!<p><p>Please try to remember all words from each list.<p><p>Press the spacebar whenever you see a GREEN square.<p><p><p><p>Press the spacebar to begin.</p>",32,,,,,,,,
html-keyboard-response,126,457793,10546.184999868274,"<div style=""font-size:48px;"">Press any key to begin list 1 of 24 </div>",32,,,,,,,,
html-keyboard-response,127,460304,null,"<div style=""font-size:60px;"">+</div>",null,,,,,,,,
html-keyboard-response,128,460808,null,"STUMP<img id = ""stim"" ><div class = red_square id = ""topsquare"" ></div><img id = ""stim"" ><div class = red_square  id = ""bottomsquare"" ></div>",null,word_square,response,0,none,true,,,
html-keyboard-response,129,462312,null,"STUMP",null,word,,,,, 'STUMP',,
html-keyboard-response,130,462816,null,"TWISTER<img id = ""stim"" ><div class = red_square id = ""topsquare"" ></div><img id = ""stim"" ><div class = red_square  id = ""bottomsquare"" ></div>",null,word_square,response,0,none,true,,,
html-keyboard-response,131,464320,null,"TWISTER",null,word,,,,, 'TWISTER',,
html-keyboard-response,132,464823,null,"LIZARD<img id = ""stim"" ><div class = green_square id = ""topsquare"" ></div><img id = ""stim"" ><div class = green_square  id = ""bottomsquare"" ></div>",null,word_square,response,1,Space,false,,,
html-keyboard-response,133,466327,null,"LIZARD",null,word,,,,, 'LIZARD',,
html-keyboard-response,134,466696,366.48999992758036,"KETTLE<img id = ""stim"" ><div class = green_square id = ""topsquare"" ></div><img id = ""stim"" ><div class = green_square  id = ""bottomsquare"" ></div>",32,word_square,response,1,Space,true,,,
html-keyboard-response,135,468209,null,"KETTLE",null,word,,,,, 'KETTLE',,
html-keyboard-response,136,468598,387.39500008523464,"MESSAGE<img id = ""stim"" ><div class = green_square id = ""topsquare"" ></div><img id = ""stim"" ><div class = green_square  id = ""bottomsquare"" ></div>",32,word_square,response,1,Space,true,,,
html-keyboard-response,137,470101,null,"MESSAGE",null,word,,,,, 'MESSAGE',,
html-keyboard-response,138,470605,null,"CLERK<img id = ""stim"" ><div class = red_square id = ""topsquare"" ></div><img id = ""stim"" ><div class = red_square  id = ""bottomsquare"" ></div>",null,word_square,response,0,none,true,,,
html-keyboard-response,139,472108,null,"CLERK",null,word,,,,, 'CLERK',,
html-keyboard-response,140,472516,405.39999958127737,"FATHER<img id = ""stim"" ><div class = green_square id = ""topsquare"" ></div><img id = ""stim"" ><div class = green_square  id = ""bottomsquare"" ></div>",32,word_square,response,1,Space,true,,,
html-keyboard-response,141,474019,null,"FATHER",null,word,,,,, 'FATHER',,
html-keyboard-response,142,474524,null,"GARDEN<img id = ""stim"" ><div class = red_square id = ""topsquare"" ></div><img id = ""stim"" ><div class = red_square  id = ""bottomsquare"" ></div>",null,word_square,response,0,none,true,,,
html-keyboard-response,143,476028,null,"GARDEN",null,word,,,,, 'GARDEN',,
html-keyboard-response,144,476523,492.38499999046326,"PEDAL<img id = ""stim"" ><div class = green_square id = ""topsquare"" ></div><img id = ""stim"" ><div class = green_square  id = ""bottomsquare"" ></div>",32,word_square,response,1,Space,true,,,
html-keyboard-response,145,478026,null,"PEDAL",null,word,,,,, 'PEDAL',,
html-keyboard-response,146,478530,null,"BIKE<img id = ""stim"" ><div class = red_square id = ""topsquare"" ></div><img id = ""stim"" ><div class = red_square  id = ""bottomsquare"" ></div>",null,word_square,response,0,none,true,,,
html-keyboard-response,147,480035,null,"BIKE",null,word,,,,, 'BIKE',,
html-keyboard-response,148,480539,null,"SLIME<img id = ""stim"" ><div class = red_square id = ""topsquare"" ></div><img id = ""stim"" ><div class = red_square  id = ""bottomsquare"" ></div>",null,word_square,response,0,none,true,,,
html-keyboard-response,149,482043,null,"SLIME",null,word,,,,, 'SLIME',,
html-keyboard-response,150,482547,null,"DAGGER<img id = ""stim"" ><div class = green_square id = ""topsquare"" ></div><img id = ""stim"" ><div class = green_square  id = ""bottomsquare"" ></div>",null,word_square,response,1,Space,false,,,
html-keyboard-response,151,484051,null,"DAGGER",null,word,,,,, 'DAGGER',,
html-keyboard-response,152,484555,null,"BRANDY<img id = ""stim"" ><div class = red_square id = ""topsquare"" ></div><img id = ""stim"" ><div class = red_square  id = ""bottomsquare"" ></div>",null,word_square,response,0,none,true,,,
html-keyboard-response,153,486060,null,"BRANDY",null,word,,,,, 'BRANDY',,
html-keyboard-response,154,486564,null,"NEPHEW<img id = ""stim"" ><div class = red_square id = ""topsquare"" ></div><img id = ""stim"" ><div class = red_square  id = ""bottomsquare"" ></div>",null,word_square,response,0,none,true,,,
html-keyboard-response,155,488068,null,"NEPHEW",null,word,,,,, 'NEPHEW',,
html-keyboard-response,156,488550,480.7349997572601,"TUNNEL<img id = ""stim"" ><div class = green_square id = ""topsquare"" ></div><img id = ""stim"" ><div class = green_square  id = ""bottomsquare"" ></div>",32,word_square,response,1,Space,true,,,
html-keyboard-response,157,490054,null,"TUNNEL",null,word,,,,, 'TUNNEL',,
html-keyboard-response,158,490482,424.87500002607703,"BASEMENT<img id = ""stim"" ><div class = green_square id = ""topsquare"" ></div><img id = ""stim"" ><div class = green_square  id = ""bottomsquare"" ></div>",32,word_square,response,1,Space,true,,,
html-keyboard-response,159,491985,null,"BASEMENT",null,word,,,,, 'BASEMENT',,
html-keyboard-response,160,492489,null,"RODENT<img id = ""stim"" ><div class = red_square id = ""topsquare"" ></div><img id = ""stim"" ><div class = red_square  id = ""bottomsquare"" ></div>",null,word_square,response,0,none,true,,,
html-keyboard-response,161,493992,null,"RODENT",null,word,,,,, 'RODENT',,
html-keyboard-response,162,494415,420.4550003632903,"CYCLONE<img id = ""stim"" ><div class = green_square id = ""topsquare"" ></div><img id = ""stim"" ><div class = green_square  id = ""bottomsquare"" ></div>",32,word_square,response,1,Space,true,,,
html-keyboard-response,163,495917,null,"CYCLONE",null,word,,,,, 'CYCLONE',,
call-function,164,495918,,"",,,,,,,,,
html-keyboard-response,165,496021,null,"",null,,,,,,,,
math-period,166,500394,7715.179999824613,"",,,,,,,,,5
html-keyboard-response,167,500497,null,"",null,,,,,,,,
math-period,168,503268,5271.6050003655255,"",,,,,,,,,3
html-keyboard-response,169,503371,null,"",null,,,,,,,,
math-period,170,505155,3347.4649996496737,"",,,,,,,,,6
html-keyboard-response,171,505258,null,"",null,,,,,,,,
math-period,172,506872,3066.2650000303984,"",,,,,,,,,3
html-keyboard-response,173,506975,null,"",null,,,,,,,,
math-period,174,508477,2817.280000075698,"",,,,,,,,,1
html-keyboard-response,175,508581,null,"",null,,,,,,,,
math-period,176,509997,2621.6949997469783,"",,,,,,,,,2
html-keyboard-response,177,510101,null,"",null,,,,,,,,
math-period,178,512938,5514.399999752641,"",,,,,,,,,5
html-keyboard-response,179,513042,null,"",null,,,,,,,,
math-period,180,514588,2935.969999525696,"",,,,,,,,,1
html-keyboard-response,181,514692,null,"",null,,,,,,,,
math-period,182,516656,3708.8399999774992,"",,,,,,,,,2
html-keyboard-response,183,516759,null,"",null,,,,,,,,
math-period,184,518538,3164.2149994149804,"",,,,,,,,,2
html-keyboard-response,185,518642,null,"",null,,,,,,,,
math-period,186,519921,null,"",,,,,,,,,
html-keyboard-response,187,520926,null,"Recall Period!",null,,,,,,,,
call-function,188,520927,,"",,,,,,,,,
html-keyboard-response,189,521030,null,"",null,,,,,,,,
recall-period,190,523360,12723.894999362528,"",,,,,,,,,father
html-keyboard-response,191,523464,null,"",null,,,,,,,,
recall-period,192,525153,6876.050001941621,"",,,,,,,,,nephew
html-keyboard-response,193,525257,null,"",null,,,,,,,,
recall-period,194,527735,14303.31499967724,"",,,,,,,,,bicycle
html-keyboard-response,195,527838,null,"",null,,,,,,,,
recall-period,196,529153,3657.190001104027,"",,,,,,,,,pedal
html-keyboard-response,197,529256,null,"",null,,,,,,,,
recall-period,198,531677,13323.840002063662,"",,,,,,,,,cyclone
html-keyboard-response,199,531780,null,"",null,,,,,,,,
recall-period,200,537768,38676.99999874458,"",,,,,,,,,brandy
html-keyboard-response,201,537871,null,"",null,,,,,,,,
recall-period,202,542149,29826.15499990061,"",,,,,,,,,message
html-keyboard-response,203,542252,null,"",null,,,,,,,,
recall-period,204,544778,15000.720001291484,"",,,,,,,,,garden
html-keyboard-response,205,544880,null,"",null,,,,,,,,
recall-period,206,551275,24820.315001066774,"",,,,,,,,,rodent
html-keyboard-response,207,551378,null,"",null,,,,,,,,
recall-period,208,594062,378984.2000021599,"",,,,,,,,,lizard
html-keyboard-response,209,594165,null,"",null,,,,,,,,
recall-period,210,595932,null,"",,,,,,,,,
html-keyboard-response,211,596436,null,"Time's Up!",null,,,,,,,,
html-keyboard-response,212,609231,12792.189999949187,"<p> Good job! You responded correctly to 94% of the GREEN squares.</p>
                  <p>Be sure to keep your accuracy above 80%</p>
                  <p>Press any key to continue the experiment. Thank you!</p>",32,,,,,,,,
html-keyboard-response,213,620616,11383.905000053346,"<div style=""font-size:48px;"">Press any key to begin list 2 of 24 </div>",32,,,,,,,,
html-keyboard-response,214,623122,null,"<div style=""font-size:60px;"">+</div>",null,,,,,,,,
html-keyboard-response,215,623625,null,"BEDROOM<img id = ""stim"" ><div class = red_square id = ""topsquare"" ></div><img id = ""stim"" ><div class = red_square  id = ""bottomsquare"" ></div>",null,word_square,response,0,none,true,,,
html-keyboard-response,216,625129,null,"BEDROOM",null,word,,,,, 'BEDROOM',,
html-keyboard-response,217,625633,null,"LADDER<img id = ""stim"" ><div class = red_square id = ""topsquare"" ></div><img id = ""stim"" ><div class = red_square  id = ""bottomsquare"" ></div>",null,word_square,response,0,none,true,,,
html-keyboard-response,218,627137,null,"LADDER",null,word,,,,, 'LADDER',,
html-keyboard-response,219,627641,null,"BOUILLON<img id = ""stim"" ><div class = green_square id = ""topsquare"" ></div><img id = ""stim"" ><div class = green_square  id = ""bottomsquare"" ></div>",null,word_square,response,1,Space,false,,,
html-keyboard-response,220,629144,null,"BOUILLON",null,word,,,,, 'BOUILLON',,
html-keyboard-response,221,629648,null,"WIDOW<img id = ""stim"" ><div class = green_square id = ""topsquare"" ></div><img id = ""stim"" ><div class = green_square  id = ""bottomsquare"" ></div>",null,word_square,response,1,Space,false,,,
html-keyboard-response,222,631150,null,"WIDOW",null,word,,,,, 'WIDOW',,
html-keyboard-response,223,631500,349.0249998867512,"MEDAL<img id = ""stim"" ><div class = green_square id = ""topsquare"" ></div><img id = ""stim"" ><div class = green_square  id = ""bottomsquare"" ></div>",32,word_square,response,1,Space,true,,,
html-keyboard-response,224,633014,null,"MEDAL",null,word,,,,, 'MEDAL',,
html-keyboard-response,225,633518,null,"GYMNAST<img id = ""stim"" ><div class = red_square id = ""topsquare"" ></div><img id = ""stim"" ><div class = red_square  id = ""bottomsquare"" ></div>",null,word_square,response,0,none,true,,,
html-keyboard-response,226,635021,null,"GYMNAST",null,word,,,,, 'GYMNAST',,
html-keyboard-response,227,635523,null,"CASKET<img id = ""stim"" ><div class = green_square id = ""topsquare"" ></div><img id = ""stim"" ><div class = green_square  id = ""bottomsquare"" ></div>",null,word_square,response,1,Space,false,,,
html-keyboard-response,228,637028,null,"CASKET",null,word,,,,, 'CASKET',,
html-keyboard-response,229,637531,null,"OUTLAW<img id = ""stim"" ><div class = red_square id = ""topsquare"" ></div><img id = ""stim"" ><div class = red_square  id = ""bottomsquare"" ></div>",null,word_square,response,0,none,true,,,
html-keyboard-response,230,639036,null,"OUTLAW",null,word,,,,, 'OUTLAW',,
html-keyboard-response,231,639540,null,"FOREST<img id = ""stim"" ><div class = green_square id = ""topsquare"" ></div><img id = ""stim"" ><div class = green_square  id = ""bottomsquare"" ></div>",null,word_square,response,1,Space,false,,,
html-keyboard-response,232,641044,null,"FOREST",null,word,,,,, 'FOREST',,
html-keyboard-response,233,641548,null,"EGYPT<img id = ""stim"" ><div class = red_square id = ""topsquare"" ></div><img id = ""stim"" ><div class = red_square  id = ""bottomsquare"" ></div>",null,word_square,response,0,none,true,,,
html-keyboard-response,234,643051,null,"EGYPT",null,word,,,,, 'EGYPT',,
html-keyboard-response,235,643554,null,"SPONGE<img id = ""stim"" ><div class = red_square id = ""topsquare"" ></div><img id = ""stim"" ><div class = red_square  id = ""bottomsquare"" ></div>",null,word_square,response,0,none,true,,,
html-keyboard-response,236,645057,null,"SPONGE",null,word,,,,, 'SPONGE',,
html-keyboard-response,237,645548,488.1699997931719,"FOREHEAD<img id = ""stim"" ><div class = green_square id = ""topsquare"" ></div><img id = ""stim"" ><div class = green_square  id = ""bottomsquare"" ></div>",32,word_square,response,1,Space,true,,,
html-keyboard-response,238,647051,null,"FOREHEAD",null,word,,,,, 'FOREHEAD',,
html-keyboard-response,239,647556,null,"CHEST<img id = ""stim"" ><div class = red_square id = ""topsquare"" ></div><img id = ""stim"" ><div class = red_square  id = ""bottomsquare"" ></div>",null,word_square,response,0,none,true,,,
html-keyboard-response,240,649060,null,"CHEST",null,word,,,,, 'CHEST',,
html-keyboard-response,241,649564,null,"BARREL<img id = ""stim"" ><div class = red_square id = ""topsquare"" ></div><img id = ""stim"" ><div class = red_square  id = ""bottomsquare"" ></div>",null,word_square,response,0,none,true,,,
html-keyboard-response,242,651067,null,"BARREL",null,word,,,,, 'BARREL',,
html-keyboard-response,243,651397,326.6400001011789,"SUSPECT<img id = ""stim"" ><div class = green_square id = ""topsquare"" ></div><img id = ""stim"" ><div class = green_square  id = ""bottomsquare"" ></div>",32,word_square,response,1,Space,true,,,
html-keyboard-response,244,652902,null,"SUSPECT",null,word,,,,, 'SUSPECT',,
html-keyboard-response,245,653246,342.3500000499189,"WAREHOUSE<img id = ""stim"" ><div class = green_square id = ""topsquare"" ></div><img id = ""stim"" ><div class = green_square  id = ""bottomsquare"" ></div>",32,word_square,response,1,Space,true,,,
html-keyboard-response,246,654749,null,"WAREHOUSE",null,word,,,,, 'WAREHOUSE',,
html-keyboard-response,247,655253,null,"FROG<img id = ""stim"" ><div class = red_square id = ""topsquare"" ></div><img id = ""stim"" ><div class = red_square  id = ""bottomsquare"" ></div>",null,word_square,response,0,none,true,,,
html-keyboard-response,248,656757,null,"FROG",null,word,,,,, 'FROG',,
html-keyboard-response,249,657184,424.620000179857,"COCKTAIL<img id = ""stim"" ><div class = green_square id = ""topsquare"" ></div><img id = ""stim"" ><div class = green_square  id = ""bottomsquare"" ></div>",32,word_square,response,1,Space,true,,,
html-keyboard-response,250,658687,null,"COCKTAIL",null,word,,,,, 'COCKTAIL',,
call-function,251,658689,,"",,,,,,,,,
html-keyboard-response,252,658792,null,"",null,,,,,,,,
math-period,253,661492,5234.660000074655,"",,,,,,,,,2
html-keyboard-response,254,661596,null,"",null,,,,,,,,
math-period,255,662996,2529.264999553561,"",,,,,,,,,6
html-keyboard-response,256,663099,null,"",null,,,,,,,,
math-period,257,664618,2806.4500000327826,"",,,,,,,,,1
html-keyboard-response,258,664721,null,"",null,,,,,,,,
math-period,259,666269,2722.599999513477,"",,,,,,,,,6
html-keyboard-response,260,666371,null,"",null,,,,,,,,
math-period,261,668377,3566.804999951273,"",,,,,,,,,1
html-keyboard-response,262,668481,null,"",null,,,,,,,,
math-period,263,670503,3810.2049995213747,"",,,,,,,,,5
html-keyboard-response,264,670606,null,"",null,,,,,,,,
math-period,265,674759,7554.619999602437,"",,,,,,,,,4
html-keyboard-response,266,674862,null,"",null,,,,,,,,
math-period,267,676997,4077.064999844879,"",,,,,,,,,2
html-keyboard-response,268,677100,null,"",null,,,,,,,,
math-period,269,678788,3155.2999997511506,"",,,,,,,,,4
html-keyboard-response,270,678890,null,"",null,,,,,,,,
math-period,271,680354,2691.8900003656745,"",,,,,,,,,3
html-keyboard-response,272,680458,null,"",null,,,,,,,,
math-period,273,682348,3581.7499994300306,"",,,,,,,,,4
html-keyboard-response,274,682452,null,"",null,,,,,,,,
math-period,275,682691,null,"",,,,,,,,,
html-keyboard-response,276,683696,null,"Recall Period!",null,,,,,,,,
call-function,277,683698,,"",,,,,,,,,
html-keyboard-response,278,683801,null,"",null,,,,,,,,
recall-period,279,686596,16725.629998371005,"",,,,,,,,,barrel
html-keyboard-response,280,686698,null,"",null,,,,,,,,
recall-period,281,695098,79047.33499791473,"",,,,,,,,,forehead
html-keyboard-response,282,695202,null,"",null,,,,,,,,
recall-period,283,696110,3170.34500092268,"",,,,,,,,,chest
html-keyboard-response,284,696214,null,"",null,,,,,,,,
recall-period,285,699272,15287.524999585003,"",,,,,,,,,window
html-keyboard-response,286,699376,null,"",null,,,,,,,,
recall-period,287,701116,7868.904998525977,"",,,,,,,,,gymnast
html-keyboard-response,288,701220,null,"",null,,,,,,,,
recall-period,289,705417,54941.07000017539,"",,,,,,,,,medal
html-keyboard-response,290,705520,null,"",null,,,,,,,,
recall-period,291,706732,4741.469998378307,"",,,,,,,,,contest
html-keyboard-response,292,706836,null,"",null,,,,,,,,
recall-period,293,709315,11698.239997960627,"",,,,,,,,,bouillon
html-keyboard-response,294,709418,null,"",null,,,,,,,,
recall-period,295,721013,78182.19000054523,"",,,,,,,,,forest
html-keyboard-response,296,721116,null,"",null,,,,,,,,
recall-period,297,758701,null,"",,,,,,,,,
html-keyboard-response,298,759206,null,"Time's Up!",null,,,,,,,,
html-keyboard-response,299,797042,37834.58000002429,"<p> Good job! You responded correctly to 89% of the GREEN squares.</p>
                  <p>Be sure to keep your accuracy above 80%</p>
                  <p>Press any key to continue the experiment. Thank you!</p>",32,,,,,,,,
html-keyboard-response,300,799740,2696.2100001983345,"<div style=""font-size:48px;"">Press any key to begin list 3 of 24 </div>",32,,,,,,,,
html-keyboard-response,301,802244,null,"<div style=""font-size:60px;"">+</div>",null,,,,,,,,
html-keyboard-response,302,802610,363.11000026762486,"TORCH<img id = ""stim"" ><div class = green_square id = ""topsquare"" ></div><img id = ""stim"" ><div class = green_square  id = ""bottomsquare"" ></div>",32,word_square,response,1,Space,true,,,
html-keyboard-response,303,804111,null,"TORCH",null,word,,,,, 'TORCH',,
html-keyboard-response,304,804478,365.4450001195073,"OUTFIT<img id = ""stim"" ><div class = green_square id = ""topsquare"" ></div><img id = ""stim"" ><div class = green_square  id = ""bottomsquare"" ></div>",32,word_square,response,1,Space,true,,,
html-keyboard-response,305,805981,null,"OUTFIT",null,word,,,,, 'OUTFIT',,
html-keyboard-response,306,806494,null,"TART<img id = ""stim"" ><div class = red_square id = ""topsquare"" ></div><img id = ""stim"" ><div class = red_square  id = ""bottomsquare"" ></div>",null,word_square,response,0,none,true,,,
html-keyboard-response,307,807997,null,"TART",null,word,,,,, 'TART',,
html-keyboard-response,308,808501,null,"OFFICE<img id = ""stim"" ><div class = red_square id = ""topsquare"" ></div><img id = ""stim"" ><div class = red_square  id = ""bottomsquare"" ></div>",null,word_square,response,0,none,true,,,
html-keyboard-response,309,810004,null,"OFFICE",null,word,,,,, 'OFFICE',,
html-keyboard-response,310,810509,null,"SHOVEL<img id = ""stim"" ><div class = red_square id = ""topsquare"" ></div><img id = ""stim"" ><div class = red_square  id = ""bottomsquare"" ></div>",null,word_square,response,0,none,true,,,
html-keyboard-response,311,812013,null,"SHOVEL",null,word,,,,, 'SHOVEL',,
html-keyboard-response,312,812517,null,"RAFT<img id = ""stim"" ><div class = green_square id = ""topsquare"" ></div><img id = ""stim"" ><div class = green_square  id = ""bottomsquare"" ></div>",null,word_square,response,1,Space,false,,,
html-keyboard-response,313,814021,null,"RAFT",null,word,,,,, 'RAFT',,
html-keyboard-response,314,814526,null,"SENATE<img id = ""stim"" ><div class = red_square id = ""topsquare"" ></div><img id = ""stim"" ><div class = red_square  id = ""bottomsquare"" ></div>",null,word_square,response,0,none,true,,,
html-keyboard-response,315,816030,null,"SENATE",null,word,,,,, 'SENATE',,
html-keyboard-response,316,816384,351.5999997034669,"JOURNAL<img id = ""stim"" ><div class = green_square id = ""topsquare"" ></div><img id = ""stim"" ><div class = green_square  id = ""bottomsquare"" ></div>",32,word_square,response,1,Space,true,,,
html-keyboard-response,317,817888,null,"JOURNAL",null,word,,,,, 'JOURNAL',,
html-keyboard-response,318,818393,null,"TREAT<img id = ""stim"" ><div class = red_square id = ""topsquare"" ></div><img id = ""stim"" ><div class = red_square  id = ""bottomsquare"" ></div>",null,word_square,response,0,none,true,,,
html-keyboard-response,319,819900,null,"TREAT",null,word,,,,, 'TREAT',,
html-keyboard-response,320,820297,395.4049996100366,"SHOELACE<img id = ""stim"" ><div class = green_square id = ""topsquare"" ></div><img id = ""stim"" ><div class = green_square  id = ""bottomsquare"" ></div>",32,word_square,response,1,Space,true,,,
html-keyboard-response,321,821801,null,"SHOELACE",null,word,,,,, 'SHOELACE',,
html-keyboard-response,322,822165,362.1350000612438,"CANAL<img id = ""stim"" ><div class = green_square id = ""topsquare"" ></div><img id = ""stim"" ><div class = green_square  id = ""bottomsquare"" ></div>",32,word_square,response,1,Space,true,,,
html-keyboard-response,323,823668,null,"CANAL",null,word,,,,, 'CANAL',,
html-keyboard-response,324,824172,null,"MARINE<img id = ""stim"" ><div class = red_square id = ""topsquare"" ></div><img id = ""stim"" ><div class = red_square  id = ""bottomsquare"" ></div>",null,word_square,response,0,none,true,,,
html-keyboard-response,325,825676,null,"MARINE",null,word,,,,, 'MARINE',,
html-keyboard-response,326,826023,343.5599999502301,"POLICE<img id = ""stim"" ><div class = green_square id = ""topsquare"" ></div><img id = ""stim"" ><div class = green_square  id = ""bottomsquare"" ></div>",32,word_square,response,1,Space,true,,,
html-keyboard-response,327,827525,null,"POLICE",null,word,,,,, 'POLICE',,
html-keyboard-response,328,827928,401.9250003620982,"PARTY<img id = ""stim"" ><div class = green_square id = ""topsquare"" ></div><img id = ""stim"" ><div class = green_square  id = ""bottomsquare"" ></div>",32,word_square,response,1,Space,true,,,
html-keyboard-response,329,829431,null,"PARTY",null,word,,,,, 'PARTY',,
html-keyboard-response,330,829935,null,"SHAMPOO<img id = ""stim"" ><div class = red_square id = ""topsquare"" ></div><img id = ""stim"" ><div class = red_square  id = ""bottomsquare"" ></div>",null,word_square,response,0,none,true,,,
html-keyboard-response,331,831440,null,"SHAMPOO",null,word,,,,, 'SHAMPOO',,
html-keyboard-response,332,831943,null,"WALRUS<img id = ""stim"" ><div class = red_square id = ""topsquare"" ></div><img id = ""stim"" ><div class = red_square  id = ""bottomsquare"" ></div>",null,word_square,response,0,none,true,,,
html-keyboard-response,333,833447,null,"WALRUS",null,word,,,,, 'WALRUS',,
html-keyboard-response,334,833863,413.1749998778105,"PRIEST<img id = ""stim"" ><div class = green_square id = ""topsquare"" ></div><img id = ""stim"" ><div class = green_square  id = ""bottomsquare"" ></div>",32,word_square,response,1,Space,true,,,
html-keyboard-response,335,835366,null,"PRIEST",null,word,,,,, 'PRIEST',,
html-keyboard-response,336,835870,null,"SPOUSE<img id = ""stim"" ><div class = red_square id = ""topsquare"" ></div><img id = ""stim"" ><div class = red_square  id = ""bottomsquare"" ></div>",null,word_square,response,0,none,true,,,
html-keyboard-response,337,837374,null,"SPOUSE",null,word,,,,, 'SPOUSE',,
call-function,338,837376,,"",,,,,,,,,
html-keyboard-response,339,837478,null,"",null,,,,,,,,
math-period,340,839312,3475.930000189692,"",,,,,,,,,1
html-keyboard-response,341,839417,null,"",null,,,,,,,,
math-period,342,842090,5141.594999935478,"",,,,,,,,,3
html-keyboard-response,343,842193,null,"",null,,,,,,,,
math-period,344,843626,2527.0600002259016,"",,,,,,,,,3
html-keyboard-response,345,843729,null,"",null,,,,,,,,
math-period,346,846655,5391.510000452399,"",,,,,,,,,0
html-keyboard-response,347,846758,null,"",null,,,,,,,,
math-period,348,848043,2357.175000477582,"",,,,,,,,,3
html-keyboard-response,349,848146,null,"",null,,,,,,,,
math-period,350,850458,4441.98999973014,"",,,,,,,,,3
html-keyboard-response,351,850562,null,"",null,,,,,,,,
math-period,352,852082,2842.294999398291,"",,,,,,,,,4
html-keyboard-response,353,852187,null,"",null,,,,,,,,
math-period,354,854911,5231.750000268221,"",,,,,,,,,0
html-keyboard-response,355,855014,null,"",null,,,,,,,,
math-period,356,856593,2827.51000020653,"",,,,,,,,,3
html-keyboard-response,357,856697,null,"",null,,,,,,,,
math-period,358,857873,2108.6649992503226,"",,,,,,,,,4
html-keyboard-response,359,857977,null,"",null,,,,,,,,
math-period,360,860917,9677.99499956891,"",,,,,,,,,4
html-keyboard-response,361,861019,null,"",null,,,,,,,,
math-period,362,861378,null,"",,,,,,,,,
html-keyboard-response,363,862383,null,"Recall Period!",null,,,,,,,,
call-function,364,862385,,"",,,,,,,,,
html-keyboard-response,365,862488,null,"",null,,,,,,,,
recall-period,366,866064,19823.740001302212,"",,,,,,,,,walrus
html-keyboard-response,367,866168,null,"",null,,,,,,,,
recall-period,368,871133,34444.75500145927,"",,,,,,,,,party
html-keyboard-response,369,871240,null,"",null,,,,,,,,
recall-period,370,873179,7162.120001390576,"",,,,,,,,,police
html-keyboard-response,371,873282,null,"",null,,,,,,,,
recall-period,372,875127,8632.495001424104,"",,,,,,,,,widow
html-keyboard-response,373,875230,null,"",null,,,,,,,,
recall-period,374,937387,null,"",,,,,,,,,
html-keyboard-response,375,937891,null,"Time's Up!",null,,,,,,,,
html-keyboard-response,376,940693,2799.0099997259676,"<p> Good job! You responded correctly to 90% of the GREEN squares.</p>
                  <p>Be sure to keep your accuracy above 80%</p>
                  <p>Press any key to continue the experiment. Thank you!</p>",32,,,,,,,,
html-keyboard-response,377,941353,657.7249998226762,"<div style=""font-size:48px;"">Press any key to begin list 4 of 24 </div>",32,,,,,,,,
html-keyboard-response,378,943858,null,"<div style=""font-size:60px;"">+</div>",null,,,,,,,,
html-keyboard-response,379,944188,327.2599996998906,"LETTER<img id = ""stim"" ><div class = green_square id = ""topsquare"" ></div><img id = ""stim"" ><div class = green_square  id = ""bottomsquare"" ></div>",32,word_square,response,1,Space,true,,,
html-keyboard-response,380,945702,null,"LETTER",null,word,,,,, 'LETTER',,
html-keyboard-response,381,946039,333.53499975055456,"THIEF<img id = ""stim"" ><div class = green_square id = ""topsquare"" ></div><img id = ""stim"" ><div class = green_square  id = ""bottomsquare"" ></div>",32,word_square,response,1,Space,true,,,
html-keyboard-response,382,947542,null,"THIEF",null,word,,,,, 'THIEF',,
html-keyboard-response,383,948046,null,"MARKET<img id = ""stim"" ><div class = red_square id = ""topsquare"" ></div><img id = ""stim"" ><div class = red_square  id = ""bottomsquare"" ></div>",null,word_square,response,0,none,true,,,
html-keyboard-response,384,949550,null,"MARKET",null,word,,,,, 'MARKET',,
html-keyboard-response,385,950055,null,"FIST<img id = ""stim"" ><div class = red_square id = ""topsquare"" ></div><img id = ""stim"" ><div class = red_square  id = ""bottomsquare"" ></div>",null,word_square,response,0,none,true,,,
html-keyboard-response,386,951559,null,"FIST",null,word,,,,, 'FIST',,
html-keyboard-response,387,952064,null,"PORPOISE<img id = ""stim"" ><div class = red_square id = ""topsquare"" ></div><img id = ""stim"" ><div class = red_square  id = ""bottomsquare"" ></div>",null,word_square,response,0,none,true,,,
html-keyboard-response,388,953568,null,"PORPOISE",null,word,,,,, 'PORPOISE',,
html-keyboard-response,389,953989,419.68500008806586,"WINDOW<img id = ""stim"" ><div class = green_square id = ""topsquare"" ></div><img id = ""stim"" ><div class = green_square  id = ""bottomsquare"" ></div>",32,word_square,response,1,Space,true,,,
html-keyboard-response,390,955492,null,"WINDOW",null,word,,,,, 'WINDOW',,
html-keyboard-response,391,956010,null,"CURTAIN<img id = ""stim"" ><div class = red_square id = ""topsquare"" ></div><img id = ""stim"" ><div class = red_square  id = ""bottomsquare"" ></div>",null,word_square,response,0,none,true,,,
html-keyboard-response,392,957515,null,"CURTAIN",null,word,,,,, 'CURTAIN',,
html-keyboard-response,393,957991,474.3200000375509,"BEAVER<img id = ""stim"" ><div class = green_square id = ""topsquare"" ></div><img id = ""stim"" ><div class = green_square  id = ""bottomsquare"" ></div>",32,word_square,response,1,Space,true,,,
html-keyboard-response,394,959499,null,"BEAVER",null,word,,,,, 'BEAVER',,
html-keyboard-response,395,960003,null,"LAMP<img id = ""stim"" ><div class = red_square id = ""topsquare"" ></div><img id = ""stim"" ><div class = red_square  id = ""bottomsquare"" ></div>",null,word_square,response,0,none,true,,,
html-keyboard-response,396,961506,null,"LAMP",null,word,,,,, 'LAMP',,
html-keyboard-response,397,962010,null,"BOYFRIEND<img id = ""stim"" ><div class = green_square id = ""topsquare"" ></div><img id = ""stim"" ><div class = green_square  id = ""bottomsquare"" ></div>",null,word_square,response,1,Space,false,,,
html-keyboard-response,398,963514,null,"BOYFRIEND",null,word,,,,, 'BOYFRIEND',,
html-keyboard-response,399,963963,447.0649999566376,"SCRIBBLE<img id = ""stim"" ><div class = green_square id = ""topsquare"" ></div><img id = ""stim"" ><div class = green_square  id = ""bottomsquare"" ></div>",32,word_square,response,1,Space,true,,,
html-keyboard-response,400,965467,null,"SCRIBBLE",null,word,,,,, 'SCRIBBLE',,
html-keyboard-response,401,965971,null,"PLAZA<img id = ""stim"" ><div class = red_square id = ""topsquare"" ></div><img id = ""stim"" ><div class = red_square  id = ""bottomsquare"" ></div>",null,word_square,response,0,none,true,,,
html-keyboard-response,402,967476,null,"PLAZA",null,word,,,,, 'PLAZA',,
html-keyboard-response,403,967932,454.3000003322959,"FOSSIL<img id = ""stim"" ><div class = green_square id = ""topsquare"" ></div><img id = ""stim"" ><div class = green_square  id = ""bottomsquare"" ></div>",32,word_square,response,1,Space,true,,,
html-keyboard-response,404,969436,null,"FOSSIL",null,word,,,,, 'FOSSIL',,
html-keyboard-response,405,969854,416.1100001074374,"PORCH<img id = ""stim"" ><div class = green_square id = ""topsquare"" ></div><img id = ""stim"" ><div class = green_square  id = ""bottomsquare"" ></div>",32,word_square,response,1,Space,true,,,
html-keyboard-response,406,971358,null,"PORCH",null,word,,,,, 'PORCH',,
html-keyboard-response,407,971862,null,"TERMITE<img id = ""stim"" ><div class = red_square id = ""topsquare"" ></div><img id = ""stim"" ><div class = red_square  id = ""bottomsquare"" ></div>",null,word_square,response,0,none,true,,,
html-keyboard-response,408,973365,null,"TERMITE",null,word,,,,, 'TERMITE',,
html-keyboard-response,409,973869,null,"COCOON<img id = ""stim"" ><div class = red_square id = ""topsquare"" ></div><img id = ""stim"" ><div class = red_square  id = ""bottomsquare"" ></div>",null,word_square,response,0,none,true,,,
html-keyboard-response,410,975373,null,"COCOON",null,word,,,,, 'COCOON',,
html-keyboard-response,411,975876,null,"BASEBALL<img id = ""stim"" ><div class = green_square id = ""topsquare"" ></div><img id = ""stim"" ><div class = green_square  id = ""bottomsquare"" ></div>",null,word_square,response,1,Space,false,,,
html-keyboard-response,412,977380,null,"BASEBALL",null,word,,,,, 'BASEBALL',,
html-keyboard-response,413,977883,null,"ACTRESS<img id = ""stim"" ><div class = red_square id = ""topsquare"" ></div><img id = ""stim"" ><div class = red_square  id = ""bottomsquare"" ></div>",null,word_square,response,0,none,true,,,
html-keyboard-response,414,979387,null,"ACTRESS",null,word,,,,, 'ACTRESS',,
call-function,415,979389,,"",,,,,,,,,
html-keyboard-response,416,979493,null,"",null,,,,,,,,
math-period,417,981295,3324.829999823123,"",,,,,,,,,1
html-keyboard-response,418,981397,null,"",null,,,,,,,,
math-period,419,983341,3551.570000592619,"",,,,,,,,,4
html-keyboard-response,420,983444,null,"",null,,,,,,,,
math-period,421,985175,3153.3099999651313,"",,,,,,,,,2
html-keyboard-response,422,985278,null,"",null,,,,,,,,
math-period,423,986842,2849.9950002878904,"",,,,,,,,,4
html-keyboard-response,424,986944,null,"",null,,,,,,,,
math-period,425,988603,3042.78999986127,"",,,,,,,,,1
html-keyboard-response,426,988706,null,"",null,,,,,,,,
math-period,427,989985,2295.3999997116625,"",,,,,,,,,3
html-keyboard-response,428,990089,null,"",null,,,,,,,,
math-period,429,991543,2627.804999705404,"",,,,,,,,,2
html-keyboard-response,430,991646,null,"",null,,,,,,,,
math-period,431,993222,2880.5799996480346,"",,,,,,,,,3
html-keyboard-response,432,993325,null,"",null,,,,,,,,
math-period,433,994844,2761.755000334233,"",,,,,,,,,2
html-keyboard-response,434,994947,null,"",null,,,,,,,,
math-period,435,996297,2380.8299996890128,"",,,,,,,,,4
html-keyboard-response,436,996401,null,"",null,,,,,,,,
math-period,437,997713,2360.5299992486835,"",,,,,,,,,2
html-keyboard-response,438,997816,null,"",null,,,,,,,,
math-period,439,999989,4117.7099999040365,"",,,,,,,,,2
html-keyboard-response,440,1000092,null,"",null,,,,,,,,
math-period,441,1001528,2648.050000425428,"",,,,,,,,,1
html-keyboard-response,442,1001633,null,"",null,,,,,,,,
math-period,443,1003391,1666.8949997983873,"",,,,,,,,,4
html-keyboard-response,444,1004396,null,"Recall Period!",null,,,,,,,,
call-function,445,1004398,,"",,,,,,,,,
html-keyboard-response,446,1004501,null,"",null,,,,,,,,
recall-period,447,1009423,25274.285001214594,"",,,,,,,,,thief
html-keyboard-response,448,1009526,null,"",null,,,,,,,,
recall-period,449,1011816,12168.730000499636,"",,,,,,,,,window
html-keyboard-response,450,1011919,null,"",null,,,,,,,,
recall-period,451,1013337,6284.410000778735,"",,,,,,,,,curtain
html-keyboard-response,452,1013441,null,"",null,,,,,,,,
recall-period,453,1014470,4452.294998802245,"",,,,,,,,,letter
html-keyboard-response,454,1014574,null,"",null,,,,,,,,
recall-period,455,1018667,28910.430000629276,"",,,,,,,,,market
html-keyboard-response,456,1018771,null,"",null,,,,,,,,
recall-period,457,1025564,41445.380000863224,"",,,,,,,,,actress
html-keyboard-response,458,1025667,null,"",null,,,,,,,,
recall-period,459,1041003,130527.90000010282,"",,,,,,,,,porpoise
html-keyboard-response,460,1041106,null,"",null,,,,,,,,
recall-period,461,1079402,null,"",,,,,,,,,
html-keyboard-response,462,1079905,null,"Time's Up!",null,,,,,,,,
html-keyboard-response,463,1095934,16025.334999896586,"<p> Good job! You responded correctly to 90% of the GREEN squares.</p>
                  <p>Be sure to keep your accuracy above 80%</p>
                  <p>Press any key to continue the experiment. Thank you!</p>",32,,,,,,,,
html-keyboard-response,464,1097004,1066.835000179708,"<div style=""font-size:48px;"">Press any key to begin list 5 of 24 </div>",32,,,,,,,,
html-keyboard-response,465,1099508,null,"<div style=""font-size:60px;"">+</div>",null,,,,,,,,
html-keyboard-response,466,1100012,null,"TOOTHBRUSH<img id = ""stim"" ><div class = red_square id = ""topsquare"" ></div><img id = ""stim"" ><div class = red_square  id = ""bottomsquare"" ></div>",null,word_square,response,0,none,true,,,
html-keyboard-response,467,1101519,null,"TOOTHBRUSH",null,word,,,,, 'TOOTHBRUSH',,
html-keyboard-response,468,1102023,null,"LAKE<img id = ""stim"" ><div class = red_square id = ""topsquare"" ></div><img id = ""stim"" ><div class = red_square  id = ""bottomsquare"" ></div>",null,word_square,response,0,none,true,,,
html-keyboard-response,469,1103525,null,"LAKE",null,word,,,,, 'LAKE',,
html-keyboard-response,470,1104029,null,"FOOT<img id = ""stim"" ><div class = green_square id = ""topsquare"" ></div><img id = ""stim"" ><div class = green_square  id = ""bottomsquare"" ></div>",null,word_square,response,1,Space,false,,,
html-keyboard-response,471,1105532,null,"FOOT",null,word,,,,, 'FOOT',,
html-keyboard-response,472,1106036,null,"CABIN<img id = ""stim"" ><div class = red_square id = ""topsquare"" ></div><img id = ""stim"" ><div class = red_square  id = ""bottomsquare"" ></div>",null,word_square,response,0,none,true,,,
html-keyboard-response,473,1107539,null,"CABIN",null,word,,,,, 'CABIN',,
html-keyboard-response,474,1108043,null,"FRANCE<img id = ""stim"" ><div class = red_square id = ""topsquare"" ></div><img id = ""stim"" ><div class = red_square  id = ""bottomsquare"" ></div>",null,word_square,response,0,none,true,,,
html-keyboard-response,475,1109547,null,"FRANCE",null,word,,,,, 'FRANCE',,
html-keyboard-response,476,1110031,481.6600000485778,"PITCHFORK<img id = ""stim"" ><div class = green_square id = ""topsquare"" ></div><img id = ""stim"" ><div class = green_square  id = ""bottomsquare"" ></div>",32,word_square,response,1,Space,true,,,
html-keyboard-response,477,1111536,null,"PITCHFORK",null,word,,,,, 'PITCHFORK',,
html-keyboard-response,478,1111993,455.45499958097935,"SLACKS<img id = ""stim"" ><div class = green_square id = ""topsquare"" ></div><img id = ""stim"" ><div class = green_square  id = ""bottomsquare"" ></div>",32,word_square,response,1,Space,true,,,
html-keyboard-response,479,1113497,null,"SLACKS",null,word,,,,, 'SLACKS',,
html-keyboard-response,480,1114001,null,"POWDER<img id = ""stim"" ><div class = red_square id = ""topsquare"" ></div><img id = ""stim"" ><div class = red_square  id = ""bottomsquare"" ></div>",null,word_square,response,0,none,true,,,
html-keyboard-response,481,1115505,null,"POWDER",null,word,,,,, 'POWDER',,
html-keyboard-response,482,1116009,null,"FRECKLE<img id = ""stim"" ><div class = red_square id = ""topsquare"" ></div><img id = ""stim"" ><div class = red_square  id = ""bottomsquare"" ></div>",null,word_square,response,0,none,true,,,
html-keyboard-response,483,1117513,null,"FRECKLE",null,word,,,,, 'FRECKLE',,
html-keyboard-response,484,1117954,438.68499994277954,"GERM<img id = ""stim"" ><div class = green_square id = ""topsquare"" ></div><img id = ""stim"" ><div class = green_square  id = ""bottomsquare"" ></div>",32,word_square,response,1,Space,true,,,
html-keyboard-response,485,1119457,null,"GERM",null,word,,,,, 'GERM',,
html-keyboard-response,486,1119961,null,"SIDEWALK<img id = ""stim"" ><div class = red_square id = ""topsquare"" ></div><img id = ""stim"" ><div class = red_square  id = ""bottomsquare"" ></div>",null,word_square,response,0,none,true,,,
html-keyboard-response,487,1121466,null,"SIDEWALK",null,word,,,,, 'SIDEWALK',,
html-keyboard-response,488,1121852,384.360000025481,"KNIFE<img id = ""stim"" ><div class = green_square id = ""topsquare"" ></div><img id = ""stim"" ><div class = green_square  id = ""bottomsquare"" ></div>",32,word_square,response,1,Space,true,,,
html-keyboard-response,489,1123355,null,"KNIFE",null,word,,,,, 'KNIFE',,
html-keyboard-response,490,1123858,null,"CONVENT<img id = ""stim"" ><div class = red_square id = ""topsquare"" ></div><img id = ""stim"" ><div class = red_square  id = ""bottomsquare"" ></div>",null,word_square,response,0,none,true,,,
html-keyboard-response,491,1125362,null,"CONVENT",null,word,,,,, 'CONVENT',,
html-keyboard-response,492,1125772,408.28000009059906,"DUSTPAN<img id = ""stim"" ><div class = green_square id = ""topsquare"" ></div><img id = ""stim"" ><div class = green_square  id = ""bottomsquare"" ></div>",32,word_square,response,1,Space,true,,,
html-keyboard-response,493,1127275,null,"DUSTPAN",null,word,,,,, 'DUSTPAN',,
html-keyboard-response,494,1127642,365.0249997153878,"SWORD<img id = ""stim"" ><div class = green_square id = ""topsquare"" ></div><img id = ""stim"" ><div class = green_square  id = ""bottomsquare"" ></div>",32,word_square,response,1,Space,true,,,
html-keyboard-response,495,1129145,null,"SWORD",null,word,,,,, 'SWORD',,
html-keyboard-response,496,1129488,340.66500002518296,"CABLE<img id = ""stim"" ><div class = green_square id = ""topsquare"" ></div><img id = ""stim"" ><div class = green_square  id = ""bottomsquare"" ></div>",32,word_square,response,1,Space,true,,,
html-keyboard-response,497,1131005,null,"CABLE",null,word,,,,, 'CABLE',,
html-keyboard-response,498,1131509,null,"PECAN<img id = ""stim"" ><div class = red_square id = ""topsquare"" ></div><img id = ""stim"" ><div class = red_square  id = ""bottomsquare"" ></div>",null,word_square,response,0,none,true,,,
html-keyboard-response,499,1133013,null,"PECAN",null,word,,,,, 'PECAN',,
html-keyboard-response,500,1133466,450.8950002491474,"PEANUT<img id = ""stim"" ><div class = green_square id = ""topsquare"" ></div><img id = ""stim"" ><div class = green_square  id = ""bottomsquare"" ></div>",32,word_square,response,1,Space,true,,,
html-keyboard-response,501,1134970,null,"PEANUT",null,word,,,,, 'PEANUT',,
call-function,502,1134972,,"",,,,,,,,,
html-keyboard-response,503,1135076,null,"",null,,,,,,,,
math-period,504,1138372,6416.615000460297,"",,,,,,,,,3
html-keyboard-response,505,1138475,null,"",null,,,,,,,,
math-period,506,1139945,2758.5099996067584,"",,,,,,,,,4
html-keyboard-response,507,1140049,null,"",null,,,,,,,,
math-period,508,1141903,3411.1350001767278,"",,,,,,,,,1
html-keyboard-response,509,1142004,null,"",null,,,,,,,,
math-period,510,1144306,4384.254999924451,"",,,,,,,,,5
html-keyboard-response,511,1144409,null,"",null,,,,,,,,
math-period,512,1146161,3200.98999934271,"",,,,,,,,,4
html-keyboard-response,513,1146264,null,"",null,,,,,,,,
math-period,514,1147487,2069.8449993506074,"",,,,,,,,,4
html-keyboard-response,515,1147590,null,"",null,,,,,,,,
math-period,516,1149389,3396.040000487119,"",,,,,,,,,3
html-keyboard-response,517,1149492,null,"",null,,,,,,,,
math-period,518,1151573,3980.6049996986985,"",,,,,,,,,3
html-keyboard-response,519,1151676,null,"",null,,,,,,,,
math-period,520,1152944,2273.3599999919534,"",,,,,,,,,3
html-keyboard-response,521,1153046,null,"",null,,,,,,,,
math-period,522,1154527,2611.320000141859,"",,,,,,,,,6
html-keyboard-response,523,1154629,null,"",null,,,,,,,,
math-period,524,1156551,3631.5950001589954,"",,,,,,,,,4
html-keyboard-response,525,1156655,null,"",null,,,,,,,,
math-period,526,1158053,2583.335000090301,"",,,,,,,,,5
html-keyboard-response,527,1158156,null,"",null,,,,,,,,
math-period,528,1158976,null,"",,,,,,,,,
html-keyboard-response,529,1159980,null,"Recall Period!",null,,,,,,,,
call-function,530,1159983,,"",,,,,,,,,
html-keyboard-response,531,1160085,null,"",null,,,,,,,,
recall-period,532,1162184,13607.700001914054,"",,,,,,,,,france
html-keyboard-response,533,1162287,null,"",null,,,,,,,,
recall-period,534,1164438,14632.115001324564,"",,,,,,,,,toothbrush
html-keyboard-response,535,1164542,null,"",null,,,,,,,,
recall-period,536,1181140,185860.95500085503,"",,,,,,,,,pitchfork
html-keyboard-response,537,1181243,null,"",null,,,,,,,,
recall-period,538,1184510,14752.929999958724,"",,,,,,,,,germ
html-keyboard-response,539,1184612,null,"",null,,,,,,,,
recall-period,540,1187527,19284.025000873953,"",,,,,,,,,sidewalk
html-keyboard-response,541,1187631,null,"",null,,,,,,,,
recall-period,542,1234985,null,"",,,,,,,,,
html-keyboard-response,543,1235490,null,"Time's Up!",null,,,,,,,,
html-keyboard-response,544,1244359,8866.735000163317,"<p> Good job! You responded correctly to 91% of the GREEN squares.</p>
                  <p>Be sure to keep your accuracy above 80%</p>
                  <p>Press any key to continue the experiment. Thank you!</p>",32,,,,,,,,
html-keyboard-response,545,1247082,2719.535000156611,"<div style=""font-size:48px;"">Press any key to begin list 6 of 24 </div>",32,,,,,,,,
html-keyboard-response,546,1249586,null,"<div style=""font-size:60px;"">+</div>",null,,,,,,,,
html-keyboard-response,547,1250091,null,"FEAST<img id = ""stim"" ><div class = red_square id = ""topsquare"" ></div><img id = ""stim"" ><div class = red_square  id = ""bottomsquare"" ></div>",null,word_square,response,0,none,true,,,
html-keyboard-response,548,1251594,null,"FEAST",null,word,,,,, 'FEAST',,
html-keyboard-response,549,1252099,null,"MOUNTAIN<img id = ""stim"" ><div class = red_square id = ""topsquare"" ></div><img id = ""stim"" ><div class = red_square  id = ""bottomsquare"" ></div>",null,word_square,response,0,none,true,,,
html-keyboard-response,550,1253603,null,"MOUNTAIN",null,word,,,,, 'MOUNTAIN',,
html-keyboard-response,551,1253902,296.02500004693866,"OINTMENT<img id = ""stim"" ><div class = green_square id = ""topsquare"" ></div><img id = ""stim"" ><div class = green_square  id = ""bottomsquare"" ></div>",32,word_square,response,1,Space,true,,,
html-keyboard-response,552,1255406,null,"OINTMENT",null,word,,,,, 'OINTMENT',,
html-keyboard-response,553,1255910,null,"BANQUET<img id = ""stim"" ><div class = red_square id = ""topsquare"" ></div><img id = ""stim"" ><div class = red_square  id = ""bottomsquare"" ></div>",null,word_square,response,0,none,true,,,
html-keyboard-response,554,1257414,null,"BANQUET",null,word,,,,, 'BANQUET',,
html-keyboard-response,555,1257918,null,"POND<img id = ""stim"" ><div class = red_square id = ""topsquare"" ></div><img id = ""stim"" ><div class = red_square  id = ""bottomsquare"" ></div>",null,word_square,response,0,none,true,,,
html-keyboard-response,556,1259422,null,"POND",null,word,,,,, 'POND',,
html-keyboard-response,557,1259896,472.01000014320016,"KLEENEX<img id = ""stim"" ><div class = green_square id = ""topsquare"" ></div><img id = ""stim"" ><div class = green_square  id = ""bottomsquare"" ></div>",32,word_square,response,1,Space,true,,,
html-keyboard-response,558,1261399,null,"KLEENEX",null,word,,,,, 'KLEENEX',,
html-keyboard-response,559,1261904,null,"FREEZER<img id = ""stim"" ><div class = green_square id = ""topsquare"" ></div><img id = ""stim"" ><div class = green_square  id = ""bottomsquare"" ></div>",null,word_square,response,1,Space,false,,,
html-keyboard-response,560,1263408,null,"FREEZER",null,word,,,,, 'FREEZER',,
html-keyboard-response,561,1263911,null,"PIANO<img id = ""stim"" ><div class = red_square id = ""topsquare"" ></div><img id = ""stim"" ><div class = red_square  id = ""bottomsquare"" ></div>",null,word_square,response,0,none,true,,,
html-keyboard-response,562,1265415,null,"PIANO",null,word,,,,, 'PIANO',,
html-keyboard-response,563,1265919,null,"DOCK<img id = ""stim"" ><div class = red_square id = ""topsquare"" ></div><img id = ""stim"" ><div class = red_square  id = ""bottomsquare"" ></div>",null,word_square,response,0,none,true,,,
html-keyboard-response,564,1267422,null,"DOCK",null,word,,,,, 'DOCK',,
html-keyboard-response,565,1267825,400.58999974280596,"STALLION<img id = ""stim"" ><div class = green_square id = ""topsquare"" ></div><img id = ""stim"" ><div class = green_square  id = ""bottomsquare"" ></div>",32,word_square,response,1,Space,true,,,
html-keyboard-response,566,1269328,null,"STALLION",null,word,,,,, 'STALLION',,
html-keyboard-response,567,1269834,null,"CARRIAGE<img id = ""stim"" ><div class = red_square id = ""topsquare"" ></div><img id = ""stim"" ><div class = red_square  id = ""bottomsquare"" ></div>",null,word_square,response,0,none,true,,,
html-keyboard-response,568,1271343,null,"CARRIAGE",null,word,,,,, 'CARRIAGE',,
html-keyboard-response,569,1271847,null,"PLATE<img id = ""stim"" ><div class = green_square id = ""topsquare"" ></div><img id = ""stim"" ><div class = green_square  id = ""bottomsquare"" ></div>",null,word_square,response,1,Space,false,,,
html-keyboard-response,570,1273351,null,"PLATE",null,word,,,,, 'PLATE',,
html-keyboard-response,571,1273855,null,"ICEBERG<img id = ""stim"" ><div class = red_square id = ""topsquare"" ></div><img id = ""stim"" ><div class = red_square  id = ""bottomsquare"" ></div>",null,word_square,response,0,none,true,,,
html-keyboard-response,572,1275360,null,"ICEBERG",null,word,,,,, 'ICEBERG',,
html-keyboard-response,573,1275702,340.0350003503263,"MONGOOSE<img id = ""stim"" ><div class = green_square id = ""topsquare"" ></div><img id = ""stim"" ><div class = green_square  id = ""bottomsquare"" ></div>",32,word_square,response,1,Space,true,,,
html-keyboard-response,574,1277221,null,"MONGOOSE",null,word,,,,, 'MONGOOSE',,
html-keyboard-response,575,1277655,432.31000006198883,"STAKE<img id = ""stim"" ><div class = green_square id = ""topsquare"" ></div><img id = ""stim"" ><div class = green_square  id = ""bottomsquare"" ></div>",32,word_square,response,1,Space,true,,,
html-keyboard-response,576,1279159,null,"STAKE",null,word,,,,, 'STAKE',,
html-keyboard-response,577,1279617,455.7300000451505,"GAZELLE<img id = ""stim"" ><div class = green_square id = ""topsquare"" ></div><img id = ""stim"" ><div class = green_square  id = ""bottomsquare"" ></div>",32,word_square,response,1,Space,true,,,
html-keyboard-response,578,1281120,null,"GAZELLE",null,word,,,,, 'GAZELLE',,
html-keyboard-response,579,1281624,null,"COOK<img id = ""stim"" ><div class = red_square id = ""topsquare"" ></div><img id = ""stim"" ><div class = red_square  id = ""bottomsquare"" ></div>",null,word_square,response,0,none,true,,,
html-keyboard-response,580,1283127,null,"COOK",null,word,,,,, 'COOK',,
html-keyboard-response,581,1283632,null,"JELLY<img id = ""stim"" ><div class = green_square id = ""topsquare"" ></div><img id = ""stim"" ><div class = green_square  id = ""bottomsquare"" ></div>",null,word_square,response,1,Space,false,,,
html-keyboard-response,582,1285145,null,"JELLY",null,word,,,,, 'JELLY',,
call-function,583,1285147,,"",,,,,,,,,
html-keyboard-response,584,1285250,null,"",null,,,,,,,,
math-period,585,1287042,3324.330000206828,"",,,,,,,,,3
html-keyboard-response,586,1287145,null,"",null,,,,,,,,
math-period,587,1288235,1933.045000769198,"",,,,,,,,,3
html-keyboard-response,588,1288337,null,"",null,,,,,,,,
math-period,589,1289847,2731.4949999563396,"",,,,,,,,,1
html-keyboard-response,590,1289950,null,"",null,,,,,,,,
math-period,591,1291134,2119.769999757409,"",,,,,,,,,3
html-keyboard-response,592,1291237,null,"",null,,,,,,,,
math-period,593,1292306,1901.0850000195205,"",,,,,,,,,3
html-keyboard-response,594,1292409,null,"",null,,,,,,,,
math-period,595,1295233,5447.149999905378,"",,,,,,,,,0
html-keyboard-response,596,1295338,null,"",null,,,,,,,,
math-period,597,1296896,2953.9800002239645,"",,,,,,,,,2
html-keyboard-response,598,1296999,null,"",null,,,,,,,,
math-period,599,1298626,3029.714999720454,"",,,,,,,,,1
html-keyboard-response,600,1298730,null,"",null,,,,,,,,
math-period,601,1300228,2843.880000524223,"",,,,,,,,,5
html-keyboard-response,602,1300331,null,"",null,,,,,,,,
math-period,603,1302099,3380.8249994181097,"",,,,,,,,,2
html-keyboard-response,604,1302202,null,"",null,,,,,,,,
math-period,605,1303492,2380.5150003172457,"",,,,,,,,,3
html-keyboard-response,606,1303595,null,"",null,,,,,,,,
math-period,607,1304713,2001.4249994419515,"",,,,,,,,,4
html-keyboard-response,608,1304815,null,"",null,,,,,,,,
math-period,609,1306004,2159.8699991591275,"",,,,,,,,,5
html-keyboard-response,610,1306108,null,"",null,,,,,,,,
math-period,611,1307518,2651.9599999301136,"",,,,,,,,,2
html-keyboard-response,612,1307622,null,"",null,,,,,,,,
math-period,613,1308918,2373.7400001846254,"",,,,,,,,,1
html-keyboard-response,614,1309021,null,"",null,,,,,,,,
math-period,615,1309149,null,"",,,,,,,,,
html-keyboard-response,616,1310153,null,"Recall Period!",null,,,,,,,,
call-function,617,1310155,,"",,,,,,,,,
html-keyboard-response,618,1310258,null,"",null,,,,,,,,
recall-period,619,1313009,13300.239998847246,"",,,,,,,,,feast
html-keyboard-response,620,1313112,null,"",null,,,,,,,,
recall-period,621,1315673,19522.475000936538,"",,,,,,,,,ointment
html-keyboard-response,622,1315777,null,"",null,,,,,,,,
recall-period,623,1317487,8784.334999043494,"",,,,,,,,,mongoose
html-keyboard-response,624,1317591,null,"",null,,,,,,,,
recall-period,625,1320634,24218.490001745522,"",,,,,,,,,gazelle
html-keyboard-response,626,1320738,null,"",null,,,,,,,,
recall-period,627,1349557,170088.8200001791,"",,,,,,,,,field
html-keyboard-response,628,1349659,null,"",null,,,,,,,,
recall-period,629,1385157,null,"",,,,,,,,,
html-keyboard-response,630,1385663,null,"Time's Up!",null,,,,,,,,
html-keyboard-response,631,1401978,16310.99500041455,"<p> Good job! You responded correctly to 90% of the GREEN squares.</p>
                  <p>Be sure to keep your accuracy above 80%</p>
                  <p>Press any key to continue the experiment. Thank you!</p>",32,,,,,,,,
html-keyboard-response,632,1403671,1690.7299999147654,"<div style=""font-size:48px;"">Press any key to begin list 7 of 24 </div>",32,,,,,,,,
html-keyboard-response,633,1406175,null,"<div style=""font-size:60px;"">+</div>",null,,,,,,,,
html-keyboard-response,634,1406679,null,"FIELD<img id = ""stim"" ><div class = green_square id = ""topsquare"" ></div><img id = ""stim"" ><div class = green_square  id = ""bottomsquare"" ></div>",null,word_square,response,1,Space,false,,,
html-keyboard-response,635,1408183,null,"FIELD",null,word,,,,, 'FIELD',,
html-keyboard-response,636,1408567,381.86499988660216,"FRIES<img id = ""stim"" ><div class = green_square id = ""topsquare"" ></div><img id = ""stim"" ><div class = green_square  id = ""bottomsquare"" ></div>",32,word_square,response,1,Space,true,,,
html-keyboard-response,637,1410070,null,"FRIES",null,word,,,,, 'FRIES',,
html-keyboard-response,638,1410575,null,"BEETLE<img id = ""stim"" ><div class = red_square id = ""topsquare"" ></div><img id = ""stim"" ><div class = red_square  id = ""bottomsquare"" ></div>",null,word_square,response,0,none,true,,,
html-keyboard-response,639,1412078,null,"BEETLE",null,word,,,,, 'BEETLE',,
html-keyboard-response,640,1412543,462.4299998395145,"PILOT<img id = ""stim"" ><div class = green_square id = ""topsquare"" ></div><img id = ""stim"" ><div class = green_square  id = ""bottomsquare"" ></div>",32,word_square,response,1,Space,true,,,
html-keyboard-response,641,1414054,null,"PILOT",null,word,,,,, 'PILOT',,
html-keyboard-response,642,1414469,411.96999978274107,"RESORT<img id = ""stim"" ><div class = green_square id = ""topsquare"" ></div><img id = ""stim"" ><div class = green_square  id = ""bottomsquare"" ></div>",32,word_square,response,1,Space,true,,,
html-keyboard-response,643,1415973,null,"RESORT",null,word,,,,, 'RESORT',,
html-keyboard-response,644,1416478,null,"SPACE<img id = ""stim"" ><div class = red_square id = ""topsquare"" ></div><img id = ""stim"" ><div class = red_square  id = ""bottomsquare"" ></div>",null,word_square,response,0,none,true,,,
html-keyboard-response,645,1417981,null,"SPACE",null,word,,,,, 'SPACE',,
html-keyboard-response,646,1418485,null,"HEDGE<img id = ""stim"" ><div class = red_square id = ""topsquare"" ></div><img id = ""stim"" ><div class = red_square  id = ""bottomsquare"" ></div>",null,word_square,response,0,none,true,,,
html-keyboard-response,647,1419990,null,"HEDGE",null,word,,,,, 'HEDGE',,
html-keyboard-response,648,1420381,388.7300002388656,"TWIG<img id = ""stim"" ><div class = green_square id = ""topsquare"" ></div><img id = ""stim"" ><div class = green_square  id = ""bottomsquare"" ></div>",32,word_square,response,1,Space,true,,,
html-keyboard-response,649,1421883,null,"TWIG",null,word,,,,, 'TWIG',,
html-keyboard-response,650,1422304,419.2749997600913,"SPINACH<img id = ""stim"" ><div class = green_square id = ""topsquare"" ></div><img id = ""stim"" ><div class = green_square  id = ""bottomsquare"" ></div>",32,word_square,response,1,Space,true,,,
html-keyboard-response,651,1423807,null,"SPINACH",null,word,,,,, 'SPINACH',,
html-keyboard-response,652,1424311,null,"CARROT<img id = ""stim"" ><div class = red_square id = ""topsquare"" ></div><img id = ""stim"" ><div class = red_square  id = ""bottomsquare"" ></div>",null,word_square,response,0,none,true,,,
html-keyboard-response,653,1425815,null,"CARROT",null,word,,,,, 'CARROT',,
html-keyboard-response,654,1426229,412.2899998910725,"OYSTER<img id = ""stim"" ><div class = green_square id = ""topsquare"" ></div><img id = ""stim"" ><div class = green_square  id = ""bottomsquare"" ></div>",32,word_square,response,1,Space,true,,,
html-keyboard-response,655,1427733,null,"OYSTER",null,word,,,,, 'OYSTER',,
html-keyboard-response,656,1428238,null,"FRIAR<img id = ""stim"" ><div class = red_square id = ""topsquare"" ></div><img id = ""stim"" ><div class = red_square  id = ""bottomsquare"" ></div>",null,word_square,response,0,none,true,,,
html-keyboard-response,657,1429743,null,"FRIAR",null,word,,,,, 'FRIAR',,
html-keyboard-response,658,1430033,287.880000192672,"FOX<img id = ""stim"" ><div class = green_square id = ""topsquare"" ></div><img id = ""stim"" ><div class = green_square  id = ""bottomsquare"" ></div>",32,word_square,response,1,Space,true,,,
html-keyboard-response,659,1431537,null,"FOX",null,word,,,,, 'FOX',,
html-keyboard-response,660,1432041,null,"LAPEL<img id = ""stim"" ><div class = red_square id = ""topsquare"" ></div><img id = ""stim"" ><div class = red_square  id = ""bottomsquare"" ></div>",null,word_square,response,0,none,true,,,
html-keyboard-response,661,1433545,null,"LAPEL",null,word,,,,, 'LAPEL',,
html-keyboard-response,662,1434049,null,"BLOUSE<img id = ""stim"" ><div class = red_square id = ""topsquare"" ></div><img id = ""stim"" ><div class = red_square  id = ""bottomsquare"" ></div>",null,word_square,response,0,none,true,,,
html-keyboard-response,663,1435552,null,"BLOUSE",null,word,,,,, 'BLOUSE',,
html-keyboard-response,664,1436056,null,"TORTOISE<img id = ""stim"" ><div class = red_square id = ""topsquare"" ></div><img id = ""stim"" ><div class = red_square  id = ""bottomsquare"" ></div>",null,word_square,response,0,none,true,,,
html-keyboard-response,665,1437559,null,"TORTOISE",null,word,,,,, 'TORTOISE',,
html-keyboard-response,666,1437994,431.2049997970462,"SAPPHIRE<img id = ""stim"" ><div class = green_square id = ""topsquare"" ></div><img id = ""stim"" ><div class = green_square  id = ""bottomsquare"" ></div>",32,word_square,response,1,Space,true,,,
html-keyboard-response,667,1439497,null,"SAPPHIRE",null,word,,,,, 'SAPPHIRE',,
html-keyboard-response,668,1440001,null,"WRENCH<img id = ""stim"" ><div class = red_square id = ""topsquare"" ></div><img id = ""stim"" ><div class = red_square  id = ""bottomsquare"" ></div>",null,word_square,response,0,none,true,,,
html-keyboard-response,669,1441505,null,"WRENCH",null,word,,,,, 'WRENCH',,
call-function,670,1441508,,"",,,,,,,,,
html-keyboard-response,671,1441612,null,"",null,,,,,,,,
math-period,672,1443470,3417.884999886155,"",,,,,,,,,3
html-keyboard-response,673,1443574,null,"",null,,,,,,,,
math-period,674,1445177,2995.8950001746416,"",,,,,,,,,5
html-keyboard-response,675,1445281,null,"",null,,,,,,,,
math-period,676,1446551,2270.534999668598,"",,,,,,,,,3
html-keyboard-response,677,1446655,null,"",null,,,,,,,,
math-period,678,1448724,3949.8799997381866,"",,,,,,,,,3
html-keyboard-response,679,1448829,null,"",null,,,,,,,,
math-period,680,1449797,1670.725000090897,"",,,,,,,,,3
html-keyboard-response,681,1449900,null,"",null,,,,,,,,
math-period,682,1451411,2737.1700000949204,"",,,,,,,,,1
html-keyboard-response,683,1451515,null,"",null,,,,,,,,
math-period,684,1453135,3002.3800004273653,"",,,,,,,,,3
html-keyboard-response,685,1453238,null,"",null,,,,,,,,
math-period,686,1454862,2929.7100002877414,"",,,,,,,,,4
html-keyboard-response,687,1454968,null,"",null,,,,,,,,
math-period,688,1458447,6496.1950005963445,"",,,,,,,,,0
html-keyboard-response,689,1458550,null,"",null,,,,,,,,
math-period,690,1460821,4297.090000472963,"",,,,,,,,,5
html-keyboard-response,691,1460924,null,"",null,,,,,,,,
math-period,692,1462089,2095.985000487417,"",,,,,,,,,2
html-keyboard-response,693,1462192,null,"",null,,,,,,,,
math-period,694,1464018,3413.319999817759,"",,,,,,,,,0
html-keyboard-response,695,1464120,null,"",null,,,,,,,,
math-period,696,1465510,1280.6049999780953,"",,,,,,,,,1
html-keyboard-response,697,1466515,null,"Recall Period!",null,,,,,,,,
call-function,698,1466518,,"",,,,,,,,,
html-keyboard-response,699,1466621,null,"",null,,,,,,,,
recall-period,700,1469803,17065.750000067055,"",,,,,,,,,wrench
html-keyboard-response,701,1469907,null,"",null,,,,,,,,
recall-period,702,1472429,13318.55999911204,"",,,,,,,,,spinach
html-keyboard-response,703,1472533,null,"",null,,,,,,,,
recall-period,704,1541520,null,"",,,,,,,,,
html-keyboard-response,705,1542024,null,"Time's Up!",null,,,,,,,,
html-keyboard-response,706,1578891,36863.74000040814,"<p> Good job! You responded correctly to 90% of the GREEN squares.</p>
                  <p>Be sure to keep your accuracy above 80%</p>
                  <p>Press any key to continue the experiment. Thank you!</p>",32,,,,,,,,
html-keyboard-response,707,1579560,666.3349997252226,"<div style=""font-size:48px;"">Press any key to begin list 8 of 24 </div>",32,,,,,,,,
html-keyboard-response,708,1582065,null,"<div style=""font-size:60px;"">+</div>",null,,,,,,,,
html-keyboard-response,709,1582569,null,"APRON<img id = ""stim"" ><div class = green_square id = ""topsquare"" ></div><img id = ""stim"" ><div class = green_square  id = ""bottomsquare"" ></div>",null,word_square,response,1,Space,false,,,
html-keyboard-response,710,1584074,null,"APRON",null,word,,,,, 'APRON',,
html-keyboard-response,711,1584434,357.4449997395277,"HAND<img id = ""stim"" ><div class = green_square id = ""topsquare"" ></div><img id = ""stim"" ><div class = green_square  id = ""bottomsquare"" ></div>",32,word_square,response,1,Space,true,,,
html-keyboard-response,712,1585937,null,"HAND",null,word,,,,, 'HAND',,
html-keyboard-response,713,1586441,null,"LITTER<img id = ""stim"" ><div class = red_square id = ""topsquare"" ></div><img id = ""stim"" ><div class = red_square  id = ""bottomsquare"" ></div>",null,word_square,response,0,none,true,,,
html-keyboard-response,714,1587946,null,"LITTER",null,word,,,,, 'LITTER',,
html-keyboard-response,715,1588372,423.4899999573827,"SUBURB<img id = ""stim"" ><div class = green_square id = ""topsquare"" ></div><img id = ""stim"" ><div class = green_square  id = ""bottomsquare"" ></div>",32,word_square,response,1,Space,true,,,
html-keyboard-response,716,1589875,null,"SUBURB",null,word,,,,, 'SUBURB',,
html-keyboard-response,717,1590297,421.0649998858571,"BUTCHER<img id = ""stim"" ><div class = green_square id = ""topsquare"" ></div><img id = ""stim"" ><div class = green_square  id = ""bottomsquare"" ></div>",32,word_square,response,1,Space,true,,,
html-keyboard-response,718,1591800,null,"BUTCHER",null,word,,,,, 'BUTCHER',,
html-keyboard-response,719,1592305,null,"LOFT<img id = ""stim"" ><div class = red_square id = ""topsquare"" ></div><img id = ""stim"" ><div class = red_square  id = ""bottomsquare"" ></div>",null,word_square,response,0,none,true,,,
html-keyboard-response,720,1593808,null,"LOFT",null,word,,,,, 'LOFT',,
html-keyboard-response,721,1594312,null,"DORM<img id = ""stim"" ><div class = red_square id = ""topsquare"" ></div><img id = ""stim"" ><div class = red_square  id = ""bottomsquare"" ></div>",null,word_square,response,0,none,true,,,
html-keyboard-response,722,1595816,null,"DORM",null,word,,,,, 'DORM',,
html-keyboard-response,723,1596200,381.800000090152,"COUNTY<img id = ""stim"" ><div class = green_square id = ""topsquare"" ></div><img id = ""stim"" ><div class = green_square  id = ""bottomsquare"" ></div>",32,word_square,response,1,Space,true,,,
html-keyboard-response,724,1597704,null,"COUNTY",null,word,,,,, 'COUNTY',,
html-keyboard-response,725,1598139,433.76500019803643,"BADGE<img id = ""stim"" ><div class = green_square id = ""topsquare"" ></div><img id = ""stim"" ><div class = green_square  id = ""bottomsquare"" ></div>",32,word_square,response,1,Space,true,,,
html-keyboard-response,726,1599642,null,"BADGE",null,word,,,,, 'BADGE',,
html-keyboard-response,727,1600147,null,"TOASTER<img id = ""stim"" ><div class = red_square id = ""topsquare"" ></div><img id = ""stim"" ><div class = red_square  id = ""bottomsquare"" ></div>",null,word_square,response,0,none,true,,,
html-keyboard-response,728,1601651,null,"TOASTER",null,word,,,,, 'TOASTER',,
html-keyboard-response,729,1602039,386.1500001512468,"COOKIE<img id = ""stim"" ><div class = green_square id = ""topsquare"" ></div><img id = ""stim"" ><div class = green_square  id = ""bottomsquare"" ></div>",32,word_square,response,1,Space,true,,,
html-keyboard-response,730,1603541,null,"COOKIE",null,word,,,,, 'COOKIE',,
html-keyboard-response,731,1604044,null,"LEMON<img id = ""stim"" ><div class = red_square id = ""topsquare"" ></div><img id = ""stim"" ><div class = red_square  id = ""bottomsquare"" ></div>",null,word_square,response,0,none,true,,,
html-keyboard-response,732,1605548,null,"LEMON",null,word,,,,, 'LEMON',,
html-keyboard-response,733,1605959,408.35499996319413,"CATTLE<img id = ""stim"" ><div class = green_square id = ""topsquare"" ></div><img id = ""stim"" ><div class = green_square  id = ""bottomsquare"" ></div>",32,word_square,response,1,Space,true,,,
html-keyboard-response,734,1607462,null,"CATTLE",null,word,,,,, 'CATTLE',,
html-keyboard-response,735,1607966,null,"SNOB<img id = ""stim"" ><div class = red_square id = ""topsquare"" ></div><img id = ""stim"" ><div class = red_square  id = ""bottomsquare"" ></div>",null,word_square,response,0,none,true,,,
html-keyboard-response,736,1609469,null,"SNOB",null,word,,,,, 'SNOB',,
html-keyboard-response,737,1609973,null,"DONKEY<img id = ""stim"" ><div class = red_square id = ""topsquare"" ></div><img id = ""stim"" ><div class = red_square  id = ""bottomsquare"" ></div>",null,word_square,response,0,none,true,,,
html-keyboard-response,738,1611477,null,"DONKEY",null,word,,,,, 'DONKEY',,
html-keyboard-response,739,1611980,null,"IDOL<img id = ""stim"" ><div class = red_square id = ""topsquare"" ></div><img id = ""stim"" ><div class = red_square  id = ""bottomsquare"" ></div>",null,word_square,response,0,none,true,,,
html-keyboard-response,740,1613484,null,"IDOL",null,word,,,,, 'IDOL',,
html-keyboard-response,741,1613865,379.85499994829297,"SANDWICH<img id = ""stim"" ><div class = green_square id = ""topsquare"" ></div><img id = ""stim"" ><div class = green_square  id = ""bottomsquare"" ></div>",32,word_square,response,1,Space,true,,,
html-keyboard-response,742,1615369,null,"SANDWICH",null,word,,,,, 'SANDWICH',,
html-keyboard-response,743,1615874,null,"DRAGON<img id = ""stim"" ><div class = red_square id = ""topsquare"" ></div><img id = ""stim"" ><div class = red_square  id = ""bottomsquare"" ></div>",null,word_square,response,0,none,true,,,
html-keyboard-response,744,1617378,null,"DRAGON",null,word,,,,, 'DRAGON',,
call-function,745,1617380,,"",,,,,,,,,
html-keyboard-response,746,1617483,null,"",null,,,,,,,,
math-period,747,1619089,3018.8450003042817,"",,,,,,,,,3
html-keyboard-response,748,1619193,null,"",null,,,,,,,,
math-period,749,1620281,2006.2199998646975,"",,,,,,,,,3
html-keyboard-response,750,1620386,null,"",null,,,,,,,,
math-period,751,1622452,3887.9499998874962,"",,,,,,,,,0
html-keyboard-response,752,1622555,null,"",null,,,,,,,,
math-period,753,1623930,2541.1549997515976,"",,,,,,,,,2
html-keyboard-response,754,1624034,null,"",null,,,,,,,,
math-period,755,1625345,2393.390000332147,"",,,,,,,,,4
html-keyboard-response,756,1625448,null,"",null,,,,,,,,
math-period,757,1626728,2289.4199998117983,"",,,,,,,,,4
html-keyboard-response,758,1626831,null,"",null,,,,,,,,
math-period,759,1628218,2500.6550000980496,"",,,,,,,,,1
html-keyboard-response,760,1628321,null,"",null,,,,,,,,
math-period,761,1629831,2820.2199996449053,"",,,,,,,,,4
html-keyboard-response,762,1629934,null,"",null,,,,,,,,
math-period,763,1631179,2279.0150004439056,"",,,,,,,,,3
html-keyboard-response,764,1631282,null,"",null,,,,,,,,
math-period,765,1632905,3036.5050002001226,"",,,,,,,,,5
html-keyboard-response,766,1633008,null,"",null,,,,,,,,
math-period,767,1635004,3740.7950004562736,"",,,,,,,,,3
html-keyboard-response,768,1635108,null,"",null,,,,,,,,
math-period,769,1636610,2793.725000228733,"",,,,,,,,,6
html-keyboard-response,770,1636713,null,"",null,,,,,,,,
math-period,771,1638101,2534.9200004711747,"",,,,,,,,,2
html-keyboard-response,772,1638206,null,"",null,,,,,,,,
math-period,773,1639410,2208.3649998530746,"",,,,,,,,,3
html-keyboard-response,774,1639513,null,"",null,,,,,,,,
math-period,775,1640777,2353.1249999068677,"",,,,,,,,,2
html-keyboard-response,776,1640880,null,"",null,,,,,,,,
math-period,777,1641382,null,"",,,,,,,,,
html-keyboard-response,778,1642386,null,"Recall Period!",null,,,,,,,,
call-function,779,1642388,,"",,,,,,,,,
html-keyboard-response,780,1642491,null,"",null,,,,,,,,
recall-period,781,1644245,9333.095000591129,"",,,,,,,,,dragon
html-keyboard-response,782,1644348,null,"",null,,,,,,,,
recall-period,783,1645646,5544.040001463145,"",,,,,,,,,litter
html-keyboard-response,784,1645749,null,"",null,,,,,,,,
recall-period,785,1648603,17901.3750012964,"",,,,,,,,,butcher
html-keyboard-response,786,1648706,null,"",null,,,,,,,,
recall-period,787,1653373,53236.26499855891,"",,,,,,,,,sandwhich
html-keyboard-response,788,1653476,null,"",null,,,,,,,,
recall-period,789,1655306,7421.294999308884,"",,,,,,,,,donkey
html-keyboard-response,790,1655408,null,"",null,,,,,,,,
recall-period,791,1660322,35446.795001626015,"",,,,,,,,,kitchen
html-keyboard-response,792,1660425,null,"",null,,,,,,,,
recall-period,793,1673046,97305.45000126585,"",,,,,,,,,cattle
html-keyboard-response,794,1673150,null,"",null,,,,,,,,
recall-period,795,1717390,null,"",,,,,,,,,
html-keyboard-response,796,1717895,null,"Time's Up!",null,,,,,,,,
html-keyboard-response,797,1720623,2724.5199996978045,"<p> Good job! You responded correctly to 91% of the GREEN squares.</p>
                  <p>Be sure to keep your accuracy above 80%</p>
                  <p>Press any key to continue the experiment. Thank you!</p>",32,,,,,,,,
html-keyboard-response,798,1721786,1162.0299997739494,"<div style=""font-size:48px;"">Press any key to begin list 9 of 24 </div>",32,,,,,,,,
html-keyboard-response,799,1724290,null,"<div style=""font-size:60px;"">+</div>",null,,,,,,,,
html-keyboard-response,800,1724795,null,"ANKLE<img id = ""stim"" ><div class = red_square id = ""topsquare"" ></div><img id = ""stim"" ><div class = red_square  id = ""bottomsquare"" ></div>",null,word_square,response,0,none,true,,,
html-keyboard-response,801,1726299,null,"ANKLE",null,word,,,,, 'ANKLE',,
html-keyboard-response,802,1726803,null,"FAUCET<img id = ""stim"" ><div class = red_square id = ""topsquare"" ></div><img id = ""stim"" ><div class = red_square  id = ""bottomsquare"" ></div>",null,word_square,response,0,none,true,,,
html-keyboard-response,803,1728308,null,"FAUCET",null,word,,,,, 'FAUCET',,
html-keyboard-response,804,1728759,448.13999999314547,"DRUG<img id = ""stim"" ><div class = green_square id = ""topsquare"" ></div><img id = ""stim"" ><div class = green_square  id = ""bottomsquare"" ></div>",32,word_square,response,1,Space,true,,,
html-keyboard-response,805,1730262,null,"DRUG",null,word,,,,, 'DRUG',,
html-keyboard-response,806,1730711,446.37000001966953,"PEACH<img id = ""stim"" ><div class = red_square id = ""topsquare"" ></div><img id = ""stim"" ><div class = red_square  id = ""bottomsquare"" ></div>",32,word_square,response,0,none,false,,,
html-keyboard-response,807,1732214,null,"PEACH",null,word,,,,, 'PEACH',,
html-keyboard-response,808,1732718,null,"CITRUS<img id = ""stim"" ><div class = green_square id = ""topsquare"" ></div><img id = ""stim"" ><div class = green_square  id = ""bottomsquare"" ></div>",null,word_square,response,1,Space,false,,,
html-keyboard-response,809,1734221,null,"CITRUS",null,word,,,,, 'CITRUS',,
html-keyboard-response,810,1734726,null,"COURSE<img id = ""stim"" ><div class = red_square id = ""topsquare"" ></div><img id = ""stim"" ><div class = red_square  id = ""bottomsquare"" ></div>",null,word_square,response,0,none,true,,,
html-keyboard-response,811,1736229,null,"COURSE",null,word,,,,, 'COURSE',,
html-keyboard-response,812,1736622,390.61000011861324,"KETCHUP<img id = ""stim"" ><div class = green_square id = ""topsquare"" ></div><img id = ""stim"" ><div class = green_square  id = ""bottomsquare"" ></div>",32,word_square,response,1,Space,true,,,
html-keyboard-response,813,1738125,null,"KETCHUP",null,word,,,,, 'KETCHUP',,
html-keyboard-response,814,1738508,380.5900001898408,"WRIST<img id = ""stim"" ><div class = green_square id = ""topsquare"" ></div><img id = ""stim"" ><div class = green_square  id = ""bottomsquare"" ></div>",32,word_square,response,1,Space,true,,,
html-keyboard-response,815,1740011,null,"WRIST",null,word,,,,, 'WRIST',,
html-keyboard-response,816,1740397,383.3599998615682,"TULIP<img id = ""stim"" ><div class = green_square id = ""topsquare"" ></div><img id = ""stim"" ><div class = green_square  id = ""bottomsquare"" ></div>",32,word_square,response,1,Space,true,,,
html-keyboard-response,817,1741901,null,"TULIP",null,word,,,,, 'TULIP',,
html-keyboard-response,818,1742405,null,"WIFE<img id = ""stim"" ><div class = red_square id = ""topsquare"" ></div><img id = ""stim"" ><div class = red_square  id = ""bottomsquare"" ></div>",null,word_square,response,0,none,true,,,
html-keyboard-response,819,1743909,null,"WIFE",null,word,,,,, 'WIFE',,
html-keyboard-response,820,1744413,null,"PARTNER<img id = ""stim"" ><div class = red_square id = ""topsquare"" ></div><img id = ""stim"" ><div class = red_square  id = ""bottomsquare"" ></div>",null,word_square,response,0,none,true,,,
html-keyboard-response,821,1745917,null,"PARTNER",null,word,,,,, 'PARTNER',,
html-keyboard-response,822,1746352,432.4699998833239,"TRUMPET<img id = ""stim"" ><div class = green_square id = ""topsquare"" ></div><img id = ""stim"" ><div class = green_square  id = ""bottomsquare"" ></div>",32,word_square,response,1,Space,true,,,
html-keyboard-response,823,1747855,null,"TRUMPET",null,word,,,,, 'TRUMPET',,
html-keyboard-response,824,1748359,null,"BLADE<img id = ""stim"" ><div class = red_square id = ""topsquare"" ></div><img id = ""stim"" ><div class = red_square  id = ""bottomsquare"" ></div>",null,word_square,response,0,none,true,,,
html-keyboard-response,825,1749864,null,"BLADE",null,word,,,,, 'BLADE',,
html-keyboard-response,826,1750368,null,"GIFT<img id = ""stim"" ><div class = red_square id = ""topsquare"" ></div><img id = ""stim"" ><div class = red_square  id = ""bottomsquare"" ></div>",null,word_square,response,0,none,true,,,
html-keyboard-response,827,1751873,null,"GIFT",null,word,,,,, 'GIFT',,
html-keyboard-response,828,1752312,436.794999986887,"MUSTARD<img id = ""stim"" ><div class = green_square id = ""topsquare"" ></div><img id = ""stim"" ><div class = green_square  id = ""bottomsquare"" ></div>",32,word_square,response,1,Space,true,,,
html-keyboard-response,829,1753815,null,"MUSTARD",null,word,,,,, 'MUSTARD',,
html-keyboard-response,830,1754253,436.2200000323355,"PLAQUE<img id = ""stim"" ><div class = green_square id = ""topsquare"" ></div><img id = ""stim"" ><div class = green_square  id = ""bottomsquare"" ></div>",32,word_square,response,1,Space,true,,,
html-keyboard-response,831,1755756,null,"PLAQUE",null,word,,,,, 'PLAQUE',,
html-keyboard-response,832,1756261,null,"LETTUCE<img id = ""stim"" ><div class = red_square id = ""topsquare"" ></div><img id = ""stim"" ><div class = red_square  id = ""bottomsquare"" ></div>",null,word_square,response,0,none,true,,,
html-keyboard-response,833,1757765,null,"LETTUCE",null,word,,,,, 'LETTUCE',,
html-keyboard-response,834,1758218,450.1549997366965,"FUNGUS<img id = ""stim"" ><div class = green_square id = ""topsquare"" ></div><img id = ""stim"" ><div class = green_square  id = ""bottomsquare"" ></div>",32,word_square,response,1,Space,true,,,
html-keyboard-response,835,1759722,null,"FUNGUS",null,word,,,,, 'FUNGUS',,
call-function,836,1759724,,"",,,,,,,,,
html-keyboard-response,837,1759827,null,"",null,,,,,,,,
math-period,838,1762986,6014.790000393987,"",,,,,,,,,4
html-keyboard-response,839,1763089,null,"",null,,,,,,,,
math-period,840,1764663,2942.550000268966,"",,,,,,,,,5
html-keyboard-response,841,1764767,null,"",null,,,,,,,,
math-period,842,1765974,2166.415000334382,"",,,,,,,,,2
html-keyboard-response,843,1766078,null,"",null,,,,,,,,
math-period,844,1767410,2398.8199993036687,"",,,,,,,,,1
html-keyboard-response,845,1767513,null,"",null,,,,,,,,
math-period,846,1768863,2444.585000164807,"",,,,,,,,,5
html-keyboard-response,847,1768967,null,"",null,,,,,,,,
math-period,848,1770531,2957.405000459403,"",,,,,,,,,4
html-keyboard-response,849,1770633,null,"",null,,,,,,,,
math-period,850,1772601,3811.5850002504885,"",,,,,,,,,0
html-keyboard-response,851,1772705,null,"",null,,,,,,,,
math-period,852,1774667,3710.1049995981157,"",,,,,,,,,5
html-keyboard-response,853,1774771,null,"",null,,,,,,,,
math-period,854,1776173,2586.749999783933,"",,,,,,,,,3
html-keyboard-response,855,1776276,null,"",null,,,,,,,,
math-period,856,1777617,2411.7149994708598,"",,,,,,,,,2
html-keyboard-response,857,1777721,null,"",null,,,,,,,,
math-period,858,1778760,1843.670000322163,"",,,,,,,,,2
html-keyboard-response,859,1778861,null,"",null,,,,,,,,
math-period,860,1779866,1798.2550002634525,"",,,,,,,,,3
html-keyboard-response,861,1779970,null,"",null,,,,,,,,
math-period,862,1781069,1966.8499999679625,"",,,,,,,,,2
html-keyboard-response,863,1781172,null,"",null,,,,,,,,
math-period,864,1783060,3615.6200002878904,"",,,,,,,,,3
html-keyboard-response,865,1783163,null,"",null,,,,,,,,
math-period,866,1783727,null,"",,,,,,,,,
html-keyboard-response,867,1784731,null,"Recall Period!",null,,,,,,,,
call-function,868,1784733,,"",,,,,,,,,
html-keyboard-response,869,1784837,null,"",null,,,,,,,,
recall-period,870,1787668,17507.440001238137,"",,,,,,,,,lettuce
html-keyboard-response,871,1787771,null,"",null,,,,,,,,
recall-period,872,1789365,7232.580001465976,"",,,,,,,,,ketchup
html-keyboard-response,873,1789468,null,"",null,,,,,,,,
recall-period,874,1790888,6466.880001593381,"",,,,,,,,,mustard
html-keyboard-response,875,1790992,null,"",null,,,,,,,,
recall-period,876,1792207,4301.8449996598065,"",,,,,,,,,tulip
html-keyboard-response,877,1792310,null,"",null,,,,,,,,
recall-period,878,1795175,8796.42500076443,"",,,,,,,,,wife
html-keyboard-response,879,1795277,null,"",null,,,,,,,,
recall-period,880,1796502,4069.6799997240305,"",,,,,,,,,gift
html-keyboard-response,881,1796606,null,"",null,,,,,,,,
recall-period,882,1820749,162074.90000035614,"",,,,,,,,,plaque
html-keyboard-response,883,1820852,null,"",null,,,,,,,,
recall-period,884,1828038,46041.18000064045,"",,,,,,,,,citrus
html-keyboard-response,885,1828141,null,"",null,,,,,,,,
recall-period,886,1859735,null,"",,,,,,,,,
html-keyboard-response,887,1860241,null,"Time's Up!",null,,,,,,,,
html-keyboard-response,888,1889551,29306.055000051856,"<p> Good job! You responded correctly to 91% of the GREEN squares.</p>
                  <p>Be sure to keep your accuracy above 80%</p>
                  <p>Press any key to continue the experiment. Thank you!</p>",32,,,,,,,,
html-keyboard-response,889,1890320,767.8750003688037,"<div style=""font-size:48px;"">Press any key to begin list 10 of 24 </div>",32,,,,,,,,
html-keyboard-response,890,1892824,null,"<div style=""font-size:60px;"">+</div>",null,,,,,,,,
html-keyboard-response,891,1893328,null,"DIVER<img id = ""stim"" ><div class = red_square id = ""topsquare"" ></div><img id = ""stim"" ><div class = red_square  id = ""bottomsquare"" ></div>",null,word_square,response,0,none,true,,,
html-keyboard-response,892,1894832,null,"DIVER",null,word,,,,, 'DIVER',,
html-keyboard-response,893,1895336,null,"BROOK<img id = ""stim"" ><div class = red_square id = ""topsquare"" ></div><img id = ""stim"" ><div class = red_square  id = ""bottomsquare"" ></div>",null,word_square,response,0,none,true,,,
html-keyboard-response,894,1896840,null,"BROOK",null,word,,,,, 'BROOK',,
html-keyboard-response,895,1897306,462.4600000679493,"COSTUME<img id = ""stim"" ><div class = green_square id = ""topsquare"" ></div><img id = ""stim"" ><div class = green_square  id = ""bottomsquare"" ></div>",32,word_square,response,1,Space,true,,,
html-keyboard-response,896,1898810,null,"COSTUME",null,word,,,,, 'COSTUME',,
html-keyboard-response,897,1899315,null,"ASIA<img id = ""stim"" ><div class = red_square id = ""topsquare"" ></div><img id = ""stim"" ><div class = red_square  id = ""bottomsquare"" ></div>",null,word_square,response,0,none,true,,,
html-keyboard-response,898,1900819,null,"ASIA",null,word,,,,, 'ASIA',,
html-keyboard-response,899,1901203,381.74499990418553,"JOINT<img id = ""stim"" ><div class = green_square id = ""topsquare"" ></div><img id = ""stim"" ><div class = green_square  id = ""bottomsquare"" ></div>",32,word_square,response,1,Space,true,,,
html-keyboard-response,900,1902707,null,"JOINT",null,word,,,,, 'JOINT',,
html-keyboard-response,901,1903211,null,"SERVER<img id = ""stim"" ><div class = red_square id = ""topsquare"" ></div><img id = ""stim"" ><div class = red_square  id = ""bottomsquare"" ></div>",null,word_square,response,0,none,true,,,
html-keyboard-response,902,1904715,null,"SERVER",null,word,,,,, 'SERVER',,
html-keyboard-response,903,1905220,null,"DRESSER<img id = ""stim"" ><div class = green_square id = ""topsquare"" ></div><img id = ""stim"" ><div class = green_square  id = ""bottomsquare"" ></div>",null,word_square,response,1,Space,false,,,
html-keyboard-response,904,1906724,null,"DRESSER",null,word,,,,, 'DRESSER',,
html-keyboard-response,905,1907227,null,"LASER<img id = ""stim"" ><div class = green_square id = ""topsquare"" ></div><img id = ""stim"" ><div class = green_square  id = ""bottomsquare"" ></div>",null,word_square,response,1,Space,false,,,
html-keyboard-response,906,1908731,null,"LASER",null,word,,,,, 'LASER',,
html-keyboard-response,907,1909088,354.95000006631017,"SNEAKER<img id = ""stim"" ><div class = green_square id = ""topsquare"" ></div><img id = ""stim"" ><div class = green_square  id = ""bottomsquare"" ></div>",32,word_square,response,1,Space,true,,,
html-keyboard-response,908,1910592,null,"SNEAKER",null,word,,,,, 'SNEAKER',,
html-keyboard-response,909,1911096,null,"STATUE<img id = ""stim"" ><div class = red_square id = ""topsquare"" ></div><img id = ""stim"" ><div class = red_square  id = ""bottomsquare"" ></div>",null,word_square,response,0,none,true,,,
html-keyboard-response,910,1912600,null,"STATUE",null,word,,,,, 'STATUE',,
html-keyboard-response,911,1913105,null,"SKETCH<img id = ""stim"" ><div class = red_square id = ""topsquare"" ></div><img id = ""stim"" ><div class = red_square  id = ""bottomsquare"" ></div>",null,word_square,response,0,none,true,,,
html-keyboard-response,912,1914609,null,"SKETCH",null,word,,,,, 'SKETCH',,
html-keyboard-response,913,1915052,438.5400000028312,"RULER<img id = ""stim"" ><div class = green_square id = ""topsquare"" ></div><img id = ""stim"" ><div class = green_square  id = ""bottomsquare"" ></div>",32,word_square,response,1,Space,true,,,
html-keyboard-response,914,1916557,null,"RULER",null,word,,,,, 'RULER',,
html-keyboard-response,915,1917062,null,"BUBBLE<img id = ""stim"" ><div class = red_square id = ""topsquare"" ></div><img id = ""stim"" ><div class = red_square  id = ""bottomsquare"" ></div>",null,word_square,response,0,none,true,,,
html-keyboard-response,916,1918566,null,"BUBBLE",null,word,,,,, 'BUBBLE',,
html-keyboard-response,917,1919071,null,"MOTHER<img id = ""stim"" ><div class = red_square id = ""topsquare"" ></div><img id = ""stim"" ><div class = red_square  id = ""bottomsquare"" ></div>",null,word_square,response,0,none,true,,,
html-keyboard-response,918,1920575,null,"MOTHER",null,word,,,,, 'MOTHER',,
html-keyboard-response,919,1921079,null,"GREASE<img id = ""stim"" ><div class = green_square id = ""topsquare"" ></div><img id = ""stim"" ><div class = green_square  id = ""bottomsquare"" ></div>",null,word_square,response,1,Space,false,,,
html-keyboard-response,920,1922583,null,"GREASE",null,word,,,,, 'GREASE',,
