trial_type,trial_index,time_elapsed,rt,stimulus,key_press,test_part,task,targ_cond,correctKeyCode,correct,word,value,response
pavlovia,0,665,,"",,,,,,,,,
external-html,1,94598,93792.71000000881,"",,,,,,,,,
html-keyboard-response,2,97799,3196.055000007618,"Welcome to the experiment. Press any key to begin.",32,,,,,,,,
html-keyboard-response,3,107499,9696.94999998319,"<p>You will see a list of words and colored squares in the following task.<p><p>Press the spacebar whenever you see a GREEN square.<p><p>Do not press a key if the square is RED<p><p>Press the spacebar to continue.</p>",32,,,,,,,,
html-keyboard-response,4,120917,12915.94000000623,"<p>Please try to remember as many of the words as you can, and try to think about the meaning of each word as it appears.<p><p>After the detection and encoding task you will be asked to solve some math problems for 24 seconds.<p> Please solve as many problems as you can in the time given. <p>",32,,,,,,,,
html-keyboard-response,5,131197,9773.755000001984,"After solving the math problems, you will be asked to type in as many words <p>from the previous list as you can remember for 75 seconds.<p> If you finish recalling before the 75 seconds are up,<p> just sit tight and try to think of any more words you could have missed. <p><p>We will begin with a brief practice session<p>Press the spacebar to begin the practice.</p>",32,,,,,,,,
html-keyboard-response,6,133707,null,"<div style=""font-size:60px;"">+</div>",null,,,,,,,,
html-keyboard-response,7,134211,null,"HAPPY<img id = ""stim"" ><div class = red_square id = ""topsquare"" ></div><img id = ""stim"" ><div class = red_square  id = ""bottomsquare"" ></div>",null,word_square,prac_response,0,none,true,,,
html-keyboard-response,8,135714,null,"HAPPY",null,word,,,,,HAPPY,,
html-keyboard-response,9,136219,254.19499998679385,"COLD<img id = ""stim"" ><div class = green_square id = ""topsquare"" ></div><img id = ""stim"" ><div class = green_square  id = ""bottomsquare"" ></div>",32,word_square,prac_response,1,Space,true,,,
html-keyboard-response,10,137721,null,"COLD",null,word,,,,,COLD,,
html-keyboard-response,11,138226,401.57000001636334,"HEAVY<img id = ""stim"" ><div class = green_square id = ""topsquare"" ></div><img id = ""stim"" ><div class = green_square  id = ""bottomsquare"" ></div>",32,word_square,prac_response,1,Space,true,,,
html-keyboard-response,12,139729,null,"HEAVY",null,word,,,,,HEAVY,,
html-keyboard-response,13,140232,null,"FUNNY<img id = ""stim"" ><div class = red_square id = ""topsquare"" ></div><img id = ""stim"" ><div class = red_square  id = ""bottomsquare"" ></div>",null,word_square,prac_response,0,none,true,,,
html-keyboard-response,14,141736,null,"FUNNY",null,word,,,,,FUNNY,,
html-keyboard-response,15,142244,293.4349999995902,"SCARY<img id = ""stim"" ><div class = green_square id = ""topsquare"" ></div><img id = ""stim"" ><div class = green_square  id = ""bottomsquare"" ></div>",32,word_square,prac_response,1,Space,true,,,
html-keyboard-response,16,143746,null,"SCARY",null,word,,,,,SCARY,,
html-keyboard-response,17,144251,377.070000016829,"PEACEFUL<img id = ""stim"" ><div class = green_square id = ""topsquare"" ></div><img id = ""stim"" ><div class = green_square  id = ""bottomsquare"" ></div>",32,word_square,prac_response,1,Space,true,,,
html-keyboard-response,18,145755,null,"PEACEFUL",null,word,,,,,PEACEFUL,,
html-keyboard-response,19,146262,null,"LITTLE<img id = ""stim"" ><div class = red_square id = ""topsquare"" ></div><img id = ""stim"" ><div class = red_square  id = ""bottomsquare"" ></div>",null,word_square,prac_response,0,none,true,,,
html-keyboard-response,20,147765,null,"LITTLE",null,word,,,,,LITTLE,,
html-keyboard-response,21,148272,null,"TIRED<img id = ""stim"" ><div class = red_square id = ""topsquare"" ></div><img id = ""stim"" ><div class = red_square  id = ""bottomsquare"" ></div>",null,word_square,prac_response,0,none,true,,,
html-keyboard-response,22,149774,null,"TIRED",null,word,,,,,TIRED,,
html-keyboard-response,23,150278,null,"ENTERTAINING<img id = ""stim"" ><div class = red_square id = ""topsquare"" ></div><img id = ""stim"" ><div class = red_square  id = ""bottomsquare"" ></div>",null,word_square,prac_response,0,none,true,,,
html-keyboard-response,24,151781,null,"ENTERTAINING",null,word,,,,,ENTERTAINING,,
html-keyboard-response,25,152288,null,"GRATEFUL<img id = ""stim"" ><div class = green_square id = ""topsquare"" ></div><img id = ""stim"" ><div class = green_square  id = ""bottomsquare"" ></div>",null,word_square,prac_response,1,Space,false,,,
html-keyboard-response,26,153790,null,"GRATEFUL",null,word,,,,,GRATEFUL,,
html-keyboard-response,27,154297,null,"LOUD<img id = ""stim"" ><div class = red_square id = ""topsquare"" ></div><img id = ""stim"" ><div class = red_square  id = ""bottomsquare"" ></div>",null,word_square,prac_response,0,none,true,,,
html-keyboard-response,28,155802,null,"LOUD",null,word,,,,,LOUD,,
html-keyboard-response,29,156304,397.5700000009965,"SMART<img id = ""stim"" ><div class = green_square id = ""topsquare"" ></div><img id = ""stim"" ><div class = green_square  id = ""bottomsquare"" ></div>",32,word_square,prac_response,1,Space,true,,,
html-keyboard-response,30,157809,null,"SMART",null,word,,,,,SMART,,
html-keyboard-response,31,158317,396.840000001248,"SMOOTH<img id = ""stim"" ><div class = green_square id = ""topsquare"" ></div><img id = ""stim"" ><div class = green_square  id = ""bottomsquare"" ></div>",32,word_square,prac_response,1,Space,true,,,
html-keyboard-response,32,159819,null,"SMOOTH",null,word,,,,,SMOOTH,,
html-keyboard-response,33,160325,null,"DISHONEST<img id = ""stim"" ><div class = red_square id = ""topsquare"" ></div><img id = ""stim"" ><div class = red_square  id = ""bottomsquare"" ></div>",null,word_square,prac_response,0,none,true,,,
html-keyboard-response,34,161828,null,"DISHONEST",null,word,,,,,DISHONEST,,
html-keyboard-response,35,162331,275.77500001643784,"WEALTHY<img id = ""stim"" ><div class = green_square id = ""topsquare"" ></div><img id = ""stim"" ><div class = green_square  id = ""bottomsquare"" ></div>",32,word_square,prac_response,1,Space,true,,,
html-keyboard-response,36,163835,null,"WEALTHY",null,word,,,,,WEALTHY,,
html-keyboard-response,37,164339,null,"BEAUTIFUL<img id = ""stim"" ><div class = red_square id = ""topsquare"" ></div><img id = ""stim"" ><div class = red_square  id = ""bottomsquare"" ></div>",null,word_square,prac_response,0,none,true,,,
html-keyboard-response,38,165841,null,"BEAUTIFUL",null,word,,,,,BEAUTIFUL,,
html-keyboard-response,39,166344,null,"DREARY<img id = ""stim"" ><div class = red_square id = ""topsquare"" ></div><img id = ""stim"" ><div class = red_square  id = ""bottomsquare"" ></div>",null,word_square,prac_response,0,none,true,,,
html-keyboard-response,40,167847,null,"DREARY",null,word,,,,,DREARY,,
html-keyboard-response,41,168349,352.81000001123175,"PLAYFUL<img id = ""stim"" ><div class = green_square id = ""topsquare"" ></div><img id = ""stim"" ><div class = green_square  id = ""bottomsquare"" ></div>",32,word_square,prac_response,1,Space,true,,,
html-keyboard-response,42,169855,null,"PLAYFUL",null,word,,,,,PLAYFUL,,
html-keyboard-response,43,175055,5196.090000012191,"<p> Good job! You responded correctly to 94% of the GREEN squares.</p>
                  <p>Be sure to keep your accuracy above 80%</p>
                  <p>We're going to try once more to make sure you understand  the task. press any key to continue. </p>",32,,,,,,,,
html-keyboard-response,44,178835,3778.7050000042655,"<p>You will see a list of words and colored squares in the following task.<p><p>Press the spacebar whenever you see a GREEN square.<p><p>Do not press a key if the square is RED<p><p>Press the spacebar to continue.</p>",32,,,,,,,,
html-keyboard-response,45,181339,null,"<div style=""font-size:60px;"">+</div>",null,,,,,,,,
html-keyboard-response,46,181847,null,"HAPPY<img id = ""stim"" ><div class = red_square id = ""topsquare"" ></div><img id = ""stim"" ><div class = red_square  id = ""bottomsquare"" ></div>",null,word_square,response,0,none,true,,,
html-keyboard-response,47,183349,null,"HAPPY",null,word,,,,,HAPPY,,
html-keyboard-response,48,183737,385.8749999781139,"COLD<img id = ""stim"" ><div class = green_square id = ""topsquare"" ></div><img id = ""stim"" ><div class = green_square  id = ""bottomsquare"" ></div>",32,word_square,response,1,Space,true,,,
html-keyboard-response,49,185244,null,"COLD",null,word,,,,,COLD,,
html-keyboard-response,50,185641,394.9049999937415,"HEAVY<img id = ""stim"" ><div class = green_square id = ""topsquare"" ></div><img id = ""stim"" ><div class = green_square  id = ""bottomsquare"" ></div>",32,word_square,response,1,Space,true,,,
html-keyboard-response,51,187148,null,"HEAVY",null,word,,,,,HEAVY,,
html-keyboard-response,52,187655,null,"FUNNY<img id = ""stim"" ><div class = red_square id = ""topsquare"" ></div><img id = ""stim"" ><div class = red_square  id = ""bottomsquare"" ></div>",null,word_square,response,0,none,true,,,
html-keyboard-response,53,189162,null,"FUNNY",null,word,,,,,FUNNY,,
html-keyboard-response,54,189592,427.9899999964982,"SCARY<img id = ""stim"" ><div class = green_square id = ""topsquare"" ></div><img id = ""stim"" ><div class = green_square  id = ""bottomsquare"" ></div>",32,word_square,response,1,Space,true,,,
html-keyboard-response,55,191098,null,"SCARY",null,word,,,,,SCARY,,
html-keyboard-response,56,191511,410.97999998601153,"PEACEFUL<img id = ""stim"" ><div class = green_square id = ""topsquare"" ></div><img id = ""stim"" ><div class = green_square  id = ""bottomsquare"" ></div>",32,word_square,response,1,Space,true,,,
html-keyboard-response,57,193013,null,"PEACEFUL",null,word,,,,,PEACEFUL,,
html-keyboard-response,58,193521,null,"LITTLE<img id = ""stim"" ><div class = red_square id = ""topsquare"" ></div><img id = ""stim"" ><div class = red_square  id = ""bottomsquare"" ></div>",null,word_square,response,0,none,true,,,
html-keyboard-response,59,195028,null,"LITTLE",null,word,,,,,LITTLE,,
html-keyboard-response,60,195532,null,"TIRED<img id = ""stim"" ><div class = red_square id = ""topsquare"" ></div><img id = ""stim"" ><div class = red_square  id = ""bottomsquare"" ></div>",null,word_square,response,0,none,true,,,
html-keyboard-response,61,197038,null,"TIRED",null,word,,,,,TIRED,,
html-keyboard-response,62,197545,null,"ENTERTAINING<img id = ""stim"" ><div class = red_square id = ""topsquare"" ></div><img id = ""stim"" ><div class = red_square  id = ""bottomsquare"" ></div>",null,word_square,response,0,none,true,,,
html-keyboard-response,63,199052,null,"ENTERTAINING",null,word,,,,,ENTERTAINING,,
html-keyboard-response,64,199424,370.5150000168942,"GRATEFUL<img id = ""stim"" ><div class = green_square id = ""topsquare"" ></div><img id = ""stim"" ><div class = green_square  id = ""bottomsquare"" ></div>",32,word_square,response,1,Space,true,,,
html-keyboard-response,65,200927,null,"GRATEFUL",null,word,,,,,GRATEFUL,,
html-keyboard-response,66,201430,null,"LOUD<img id = ""stim"" ><div class = red_square id = ""topsquare"" ></div><img id = ""stim"" ><div class = red_square  id = ""bottomsquare"" ></div>",null,word_square,response,0,none,true,,,
html-keyboard-response,67,202937,null,"LOUD",null,word,,,,,LOUD,,
html-keyboard-response,68,203173,234.0750000148546,"SMART<img id = ""stim"" ><div class = green_square id = ""topsquare"" ></div><img id = ""stim"" ><div class = green_square  id = ""bottomsquare"" ></div>",32,word_square,response,1,Space,true,,,
html-keyboard-response,69,204681,null,"SMART",null,word,,,,,SMART,,
html-keyboard-response,70,205008,325.09999998728745,"SMOOTH<img id = ""stim"" ><div class = green_square id = ""topsquare"" ></div><img id = ""stim"" ><div class = green_square  id = ""bottomsquare"" ></div>",32,word_square,response,1,Space,true,,,
html-keyboard-response,71,206515,null,"SMOOTH",null,word,,,,,SMOOTH,,
html-keyboard-response,72,207023,null,"DISHONEST<img id = ""stim"" ><div class = red_square id = ""topsquare"" ></div><img id = ""stim"" ><div class = red_square  id = ""bottomsquare"" ></div>",null,word_square,response,0,none,true,,,
html-keyboard-response,73,208526,null,"DISHONEST",null,word,,,,,DISHONEST,,
html-keyboard-response,74,208960,431.89999999594875,"WEALTHY<img id = ""stim"" ><div class = green_square id = ""topsquare"" ></div><img id = ""stim"" ><div class = green_square  id = ""bottomsquare"" ></div>",32,word_square,response,1,Space,true,,,
html-keyboard-response,75,210462,null,"WEALTHY",null,word,,,,,WEALTHY,,
html-keyboard-response,76,210966,null,"BEAUTIFUL<img id = ""stim"" ><div class = red_square id = ""topsquare"" ></div><img id = ""stim"" ><div class = red_square  id = ""bottomsquare"" ></div>",null,word_square,response,0,none,true,,,
html-keyboard-response,77,212471,null,"BEAUTIFUL",null,word,,,,,BEAUTIFUL,,
html-keyboard-response,78,212978,null,"DREARY<img id = ""stim"" ><div class = red_square id = ""topsquare"" ></div><img id = ""stim"" ><div class = red_square  id = ""bottomsquare"" ></div>",null,word_square,response,0,none,true,,,
html-keyboard-response,79,214482,null,"DREARY",null,word,,,,,DREARY,,
html-keyboard-response,80,214856,370.070000004489,"PLAYFUL<img id = ""stim"" ><div class = green_square id = ""topsquare"" ></div><img id = ""stim"" ><div class = green_square  id = ""bottomsquare"" ></div>",32,word_square,response,1,Space,true,,,
html-keyboard-response,81,216364,null,"PLAYFUL",null,word,,,,,PLAYFUL,,
html-keyboard-response,82,217859,1492.4750000063796,"<p> Good job! You responded correctly to 100% of the GREEN squares.</p>
                  <p>Be sure to keep your accuracy above 80%</p>
                  <p>Press any key to begin the math and recall sections. Thank you!</p>",32,,,,,,,,
call-function,83,217860,,"",,,,,,,,,
html-keyboard-response,84,217964,null,"",null,,,,,,,,
math-period,85,223301,14371.2499999383,"",,,,,,,,,3 
html-keyboard-response,86,223406,null,"",null,,,,,,,,
math-period,87,225443,3802.174999989802,"",,,,,,,,,4
html-keyboard-response,88,225547,null,"",null,,,,,,,,
math-period,89,228938,6091.480000002775,"",,,,,,,,,1
html-keyboard-response,90,229042,null,"",null,,,,,,,,
math-period,91,231490,4736.800000013318,"",,,,,,,,,5
html-keyboard-response,92,231594,null,"",null,,,,,,,,
math-period,93,235711,7985.195000015665,"",,,,,,,,,1
html-keyboard-response,94,235815,null,"",null,,,,,,,,
math-period,95,237295,2854.865000001155,"",,,,,,,,,3
html-keyboard-response,96,237398,null,"",null,,,,,,,,
math-period,97,241265,10179.659999994328,"",,,,,,,,,undefined0
html-keyboard-response,98,241368,null,"",null,,,,,,,,
math-period,99,241861,null,"",,,,,,,,,
html-keyboard-response,100,242868,null,"Recall Period!",null,,,,,,,,
call-function,101,242869,,"",,,,,,,,,
html-keyboard-response,102,242976,null,"",null,,,,,,,,
recall-period,103,247332,38914.004999998724,"",,,,,,,,,dreary
html-keyboard-response,104,247436,null,"",null,,,,,,,,
recall-period,105,248761,4823.86999996379,"",,,,,,,,,happy
html-keyboard-response,106,248864,null,"",null,,,,,,,,
recall-period,107,250498,5636.665000027278,"",,,,,,,,,tired
html-keyboard-response,108,250604,null,"",null,,,,,,,,
recall-period,109,254510,30839.43499988527,"",,,,,,,,,beautiful
html-keyboard-response,110,254614,null,"",null,,,,,,,,
recall-period,111,257737,20616.69000002439,"",,,,,,,,,glum
html-keyboard-response,112,257840,null,"",null,,,,,,,,
recall-period,113,260465,19941.254999954253,"",,,,,,,,,peaceful
html-keyboard-response,114,260569,null,"",null,,,,,,,,
recall-period,115,262604,7456.444999930682,"",,,,,,,,,book
html-keyboard-response,116,262707,null,"",null,,,,,,,,
recall-period,117,268163,30022.179999941727,"",,,,,,,,,tired
html-keyboard-response,118,268267,null,"",null,,,,,,,,
recall-period,119,274067,53738.98999992525,"",,,,,,,,,peaceful
html-keyboard-response,120,274170,null,"",null,,,,,,,,
recall-period,121,285900,69513.4600001038,"",,,,,,,,,lonely
html-keyboard-response,122,286004,null,"",null,,,,,,,,
recall-period,123,300272,81654.46999997948,"",,,,,,,,,scary
html-keyboard-response,124,300376,null,"",null,,,,,,,,
recall-period,125,317876,null,"",,,,,,,,,
html-keyboard-response,126,318384,null,"Time's Up!",null,,,,,,,,
html-keyboard-response,127,323113,4727.164999989327,"<p>We will now begin the experiment!<p><p>Please try to remember all words from each list.<p><p>Press the spacebar whenever you see a GREEN square.<p><p><p><p>Press the spacebar to begin.</p>",32,,,,,,,,
html-keyboard-response,128,327922,4303.7400000030175,"<div style=""font-size:48px;"">Press any key to begin list 1 of 24 </div>",32,,,,,,,,
html-keyboard-response,129,330430,null,"<div style=""font-size:60px;"">+</div>",null,,,,,,,,
html-keyboard-response,130,330932,null,"STUMP<img id = ""stim"" ><div class = red_square id = ""topsquare"" ></div><img id = ""stim"" ><div class = red_square  id = ""bottomsquare"" ></div>",null,word_square,response,0,none,true,,,
html-keyboard-response,131,332435,null,"STUMP",null,word,,,,, 'STUMP',,
html-keyboard-response,132,332942,null,"TWISTER<img id = ""stim"" ><div class = red_square id = ""topsquare"" ></div><img id = ""stim"" ><div class = red_square  id = ""bottomsquare"" ></div>",null,word_square,response,0,none,true,,,
html-keyboard-response,133,334445,null,"TWISTER",null,word,,,,, 'TWISTER',,
html-keyboard-response,134,334953,null,"LIZARD<img id = ""stim"" ><div class = green_square id = ""topsquare"" ></div><img id = ""stim"" ><div class = green_square  id = ""bottomsquare"" ></div>",null,word_square,response,1,Space,false,,,
html-keyboard-response,135,336456,null,"LIZARD",null,word,,,,, 'LIZARD',,
html-keyboard-response,136,336959,null,"KETTLE<img id = ""stim"" ><div class = red_square id = ""topsquare"" ></div><img id = ""stim"" ><div class = red_square  id = ""bottomsquare"" ></div>",null,word_square,response,0,none,true,,,
html-keyboard-response,137,338465,null,"KETTLE",null,word,,,,, 'KETTLE',,
html-keyboard-response,138,338972,null,"MESSAGE<img id = ""stim"" ><div class = red_square id = ""topsquare"" ></div><img id = ""stim"" ><div class = red_square  id = ""bottomsquare"" ></div>",null,word_square,response,0,none,true,,,
html-keyboard-response,139,340475,null,"MESSAGE",null,word,,,,, 'MESSAGE',,
html-keyboard-response,140,340982,null,"CLERK<img id = ""stim"" ><div class = green_square id = ""topsquare"" ></div><img id = ""stim"" ><div class = green_square  id = ""bottomsquare"" ></div>",null,word_square,response,1,Space,false,,,
html-keyboard-response,141,342484,null,"CLERK",null,word,,,,, 'CLERK',,
html-keyboard-response,142,342991,null,"FATHER<img id = ""stim"" ><div class = red_square id = ""topsquare"" ></div><img id = ""stim"" ><div class = red_square  id = ""bottomsquare"" ></div>",null,word_square,response,0,none,true,,,
html-keyboard-response,143,344494,null,"FATHER",null,word,,,,, 'FATHER',,
html-keyboard-response,144,344900,404.13000000989996,"GARDEN<img id = ""stim"" ><div class = green_square id = ""topsquare"" ></div><img id = ""stim"" ><div class = green_square  id = ""bottomsquare"" ></div>",32,word_square,response,1,Space,true,,,
html-keyboard-response,145,346407,null,"GARDEN",null,word,,,,, 'GARDEN',,
html-keyboard-response,146,346909,null,"PEDAL<img id = ""stim"" ><div class = red_square id = ""topsquare"" ></div><img id = ""stim"" ><div class = red_square  id = ""bottomsquare"" ></div>",null,word_square,response,0,none,true,,,
html-keyboard-response,147,348411,null,"PEDAL",null,word,,,,, 'PEDAL',,
html-keyboard-response,148,348914,null,"BIKE<img id = ""stim"" ><div class = green_square id = ""topsquare"" ></div><img id = ""stim"" ><div class = green_square  id = ""bottomsquare"" ></div>",null,word_square,response,1,Space,false,,,
html-keyboard-response,149,350421,null,"BIKE",null,word,,,,, 'BIKE',,
html-keyboard-response,150,350928,null,"SLIME<img id = ""stim"" ><div class = red_square id = ""topsquare"" ></div><img id = ""stim"" ><div class = red_square  id = ""bottomsquare"" ></div>",null,word_square,response,0,none,true,,,
html-keyboard-response,151,352431,null,"SLIME",null,word,,,,, 'SLIME',,
html-keyboard-response,152,352810,377.52999999793246,"DAGGER<img id = ""stim"" ><div class = green_square id = ""topsquare"" ></div><img id = ""stim"" ><div class = green_square  id = ""bottomsquare"" ></div>",32,word_square,response,1,Space,true,,,
html-keyboard-response,153,354318,null,"DAGGER",null,word,,,,, 'DAGGER',,
html-keyboard-response,154,354721,401.3850000046659,"BRANDY<img id = ""stim"" ><div class = green_square id = ""topsquare"" ></div><img id = ""stim"" ><div class = green_square  id = ""bottomsquare"" ></div>",32,word_square,response,1,Space,true,,,
html-keyboard-response,155,356228,null,"BRANDY",null,word,,,,, 'BRANDY',,
html-keyboard-response,156,356606,375.8899999957066,"NEPHEW<img id = ""stim"" ><div class = green_square id = ""topsquare"" ></div><img id = ""stim"" ><div class = green_square  id = ""bottomsquare"" ></div>",32,word_square,response,1,Space,true,,,
html-keyboard-response,157,358109,null,"NEPHEW",null,word,,,,, 'NEPHEW',,
html-keyboard-response,158,358617,null,"TUNNEL<img id = ""stim"" ><div class = red_square id = ""topsquare"" ></div><img id = ""stim"" ><div class = red_square  id = ""bottomsquare"" ></div>",null,word_square,response,0,none,true,,,
html-keyboard-response,159,360124,null,"TUNNEL",null,word,,,,, 'TUNNEL',,
html-keyboard-response,160,360629,null,"BASEMENT<img id = ""stim"" ><div class = red_square id = ""topsquare"" ></div><img id = ""stim"" ><div class = red_square  id = ""bottomsquare"" ></div>",null,word_square,response,0,none,true,,,
html-keyboard-response,161,362135,null,"BASEMENT",null,word,,,,, 'BASEMENT',,
html-keyboard-response,162,362455,319.4050000165589,"RODENT<img id = ""stim"" ><div class = green_square id = ""topsquare"" ></div><img id = ""stim"" ><div class = green_square  id = ""bottomsquare"" ></div>",32,word_square,response,1,Space,true,,,
html-keyboard-response,163,363959,null,"RODENT",null,word,,,,, 'RODENT',,
html-keyboard-response,164,364460,null,"CYCLONE<img id = ""stim"" ><div class = green_square id = ""topsquare"" ></div><img id = ""stim"" ><div class = green_square  id = ""bottomsquare"" ></div>",null,word_square,response,1,Space,false,,,
html-keyboard-response,165,365962,null,"CYCLONE",null,word,,,,, 'CYCLONE',,
call-function,166,365962,,"",,,,,,,,,
html-keyboard-response,167,366065,null,"",null,,,,,,,,
math-period,168,368225,4092.7100000262726,"",,,,,,,,,3
html-keyboard-response,169,368326,null,"",null,,,,,,,,
math-period,170,369512,2190.7350000110455,"",,,,,,,,,4
html-keyboard-response,171,369614,null,"",null,,,,,,,,
math-period,172,370505,1699.6500000241213,"",,,,,,,,,4
html-keyboard-response,173,370609,null,"",null,,,,,,,,
math-period,174,371465,1597.7299999794923,"",,,,,,,,,4
html-keyboard-response,175,371567,null,"",null,,,,,,,,
math-period,176,373198,3116.5750000218395,"",,,,,,,,,5
html-keyboard-response,177,373301,null,"",null,,,,,,,,
math-period,178,376903,7073.21500001126,"",,,,,,,,,3
html-keyboard-response,179,377005,null,"",null,,,,,,,,
math-period,180,379761,5417.230000020936,"",,,,,,,,,1
html-keyboard-response,181,379863,null,"",null,,,,,,,,
math-period,182,382304,4648.024999973131,"",,,,,,,,,undefined
html-keyboard-response,183,382407,null,"",null,,,,,,,,
math-period,184,385011,4916.830000001937,"",,,,,,,,,0
html-keyboard-response,185,385113,null,"",null,,,,,,,,
math-period,186,386315,2272.144999995362,"",,,,,,,,,3
html-keyboard-response,187,386419,null,"",null,,,,,,,,
math-period,188,387794,2639.90000000922,"",,,,,,,,,4
html-keyboard-response,189,387898,null,"",null,,,,,,,,
math-period,190,389968,null,"",,,,,,,,,
html-keyboard-response,191,390973,null,"Recall Period!",null,,,,,,,,
call-function,192,390973,,"",,,,,,,,,
html-keyboard-response,193,391075,null,"",null,,,,,,,,
recall-period,194,394003,21816.724999865983,"",,,,,,,,,stump
html-keyboard-response,195,394110,null,"",null,,,,,,,,
recall-period,196,395883,5148.919999977807,"",,,,,,,,,rodent
html-keyboard-response,197,395986,null,"",null,,,,,,,,
recall-period,198,397412,5543.395000015153,"",,,,,,,,,five
html-keyboard-response,199,397518,null,"",null,,,,,,,,
recall-period,200,406975,62894.78499995312,"",,,,,,,,,rodent
html-keyboard-response,201,407081,null,"",null,,,,,,,,
recall-period,202,412100,26105.61999992933,"",,,,,,,,,animal
html-keyboard-response,203,412206,null,"",null,,,,,,,,
recall-period,204,414001,9352.435000037076,"",,,,,,,,,dagger
html-keyboard-response,205,414104,null,"",null,,,,,,,,
recall-period,206,417599,17028.4550000506,"",,,,,,,,,wrench
html-keyboard-response,207,417705,null,"",null,,,,,,,,
recall-period,208,421107,30641.18000018061,"",,,,,,,,,powerful
html-keyboard-response,209,421208,null,"",null,,,,,,,,
recall-period,210,433473,59521.52000006754,"",,,,,,,,,tree
html-keyboard-response,211,433577,null,"",null,,,,,,,,
recall-period,212,445843,69660.16000005766,"",,,,,,,,,blast
html-keyboard-response,213,445947,null,"",null,,,,,,,,
recall-period,214,466243,null,"",,,,,,,,,
html-keyboard-response,215,467707,null,"Time's Up!",null,,,,,,,,
html-keyboard-response,216,470893,3183.5399999981746,"<p> Good job! You responded correctly to 89% of the GREEN squares.</p>
                  <p>Be sure to keep your accuracy above 80%</p>
                  <p>Press any key to continue the experiment. Thank you!</p>",32,,,,,,,,
html-keyboard-response,217,475919,5024.859999975888,"<div style=""font-size:48px;"">Press any key to begin list 2 of 24 </div>",32,,,,,,,,
html-keyboard-response,218,478427,null,"<div style=""font-size:60px;"">+</div>",null,,,,,,,,
html-keyboard-response,219,478933,null,"BEDROOM<img id = ""stim"" ><div class = red_square id = ""topsquare"" ></div><img id = ""stim"" ><div class = red_square  id = ""bottomsquare"" ></div>",null,word_square,response,0,none,true,,,
html-keyboard-response,220,480436,null,"BEDROOM",null,word,,,,, 'BEDROOM',,
html-keyboard-response,221,480939,null,"LADDER<img id = ""stim"" ><div class = red_square id = ""topsquare"" ></div><img id = ""stim"" ><div class = red_square  id = ""bottomsquare"" ></div>",null,word_square,response,0,none,true,,,
html-keyboard-response,222,482443,null,"LADDER",null,word,,,,, 'LADDER',,
html-keyboard-response,223,482710,265.4449999972712,"BOUILLON<img id = ""stim"" ><div class = green_square id = ""topsquare"" ></div><img id = ""stim"" ><div class = green_square  id = ""bottomsquare"" ></div>",32,word_square,response,1,Space,true,,,
html-keyboard-response,224,484213,null,"BOUILLON",null,word,,,,, 'BOUILLON',,
html-keyboard-response,225,484720,null,"WIDOW<img id = ""stim"" ><div class = red_square id = ""topsquare"" ></div><img id = ""stim"" ><div class = red_square  id = ""bottomsquare"" ></div>",null,word_square,response,0,none,true,,,
html-keyboard-response,226,486224,null,"WIDOW",null,word,,,,, 'WIDOW',,
html-keyboard-response,227,486731,null,"MEDAL<img id = ""stim"" ><div class = red_square id = ""topsquare"" ></div><img id = ""stim"" ><div class = red_square  id = ""bottomsquare"" ></div>",null,word_square,response,0,none,true,,,
html-keyboard-response,228,488235,null,"MEDAL",null,word,,,,, 'MEDAL',,
html-keyboard-response,229,488667,430.08499999996275,"GYMNAST<img id = ""stim"" ><div class = green_square id = ""topsquare"" ></div><img id = ""stim"" ><div class = green_square  id = ""bottomsquare"" ></div>",32,word_square,response,1,Space,true,,,
html-keyboard-response,230,490171,null,"GYMNAST",null,word,,,,, 'GYMNAST',,
html-keyboard-response,231,490678,null,"CASKET<img id = ""stim"" ><div class = red_square id = ""topsquare"" ></div><img id = ""stim"" ><div class = red_square  id = ""bottomsquare"" ></div>",null,word_square,response,0,none,true,,,
html-keyboard-response,232,492181,null,"CASKET",null,word,,,,, 'CASKET',,
html-keyboard-response,233,492495,311.9249999872409,"OUTLAW<img id = ""stim"" ><div class = green_square id = ""topsquare"" ></div><img id = ""stim"" ><div class = green_square  id = ""bottomsquare"" ></div>",32,word_square,response,1,Space,true,,,
html-keyboard-response,234,494000,null,"OUTLAW",null,word,,,,, 'OUTLAW',,
html-keyboard-response,235,494507,null,"FOREST<img id = ""stim"" ><div class = red_square id = ""topsquare"" ></div><img id = ""stim"" ><div class = red_square  id = ""bottomsquare"" ></div>",null,word_square,response,0,none,true,,,
html-keyboard-response,236,496010,null,"FOREST",null,word,,,,, 'FOREST',,
html-keyboard-response,237,496444,431.685000017751,"EGYPT<img id = ""stim"" ><div class = green_square id = ""topsquare"" ></div><img id = ""stim"" ><div class = green_square  id = ""bottomsquare"" ></div>",32,word_square,response,1,Space,true,,,
html-keyboard-response,238,497947,null,"EGYPT",null,word,,,,, 'EGYPT',,
html-keyboard-response,239,498450,null,"SPONGE<img id = ""stim"" ><div class = red_square id = ""topsquare"" ></div><img id = ""stim"" ><div class = red_square  id = ""bottomsquare"" ></div>",null,word_square,response,0,none,true,,,
html-keyboard-response,240,499953,null,"SPONGE",null,word,,,,, 'SPONGE',,
html-keyboard-response,241,500248,294.14499999256805,"FOREHEAD<img id = ""stim"" ><div class = green_square id = ""topsquare"" ></div><img id = ""stim"" ><div class = green_square  id = ""bottomsquare"" ></div>",32,word_square,response,1,Space,true,,,
html-keyboard-response,242,501755,null,"FOREHEAD",null,word,,,,, 'FOREHEAD',,
html-keyboard-response,243,502075,317.799999989802,"CHEST<img id = ""stim"" ><div class = green_square id = ""topsquare"" ></div><img id = ""stim"" ><div class = green_square  id = ""bottomsquare"" ></div>",32,word_square,response,1,Space,true,,,
html-keyboard-response,244,503579,null,"CHEST",null,word,,,,, 'CHEST',,
html-keyboard-response,245,503994,412.5699999858625,"BARREL<img id = ""stim"" ><div class = green_square id = ""topsquare"" ></div><img id = ""stim"" ><div class = green_square  id = ""bottomsquare"" ></div>",32,word_square,response,1,Space,true,,,
html-keyboard-response,246,505499,null,"BARREL",null,word,,,,, 'BARREL',,
html-keyboard-response,247,506002,null,"SUSPECT<img id = ""stim"" ><div class = red_square id = ""topsquare"" ></div><img id = ""stim"" ><div class = red_square  id = ""bottomsquare"" ></div>",null,word_square,response,0,none,true,,,
html-keyboard-response,248,507504,null,"SUSPECT",null,word,,,,, 'SUSPECT',,
html-keyboard-response,249,508008,null,"WAREHOUSE<img id = ""stim"" ><div class = red_square id = ""topsquare"" ></div><img id = ""stim"" ><div class = red_square  id = ""bottomsquare"" ></div>",null,word_square,response,0,none,true,,,
html-keyboard-response,250,509515,null,"WAREHOUSE",null,word,,,,, 'WAREHOUSE',,
html-keyboard-response,251,509898,381.33500001276843,"FROG<img id = ""stim"" ><div class = green_square id = ""topsquare"" ></div><img id = ""stim"" ><div class = green_square  id = ""bottomsquare"" ></div>",32,word_square,response,1,Space,true,,,
html-keyboard-response,252,511404,null,"FROG",null,word,,,,, 'FROG',,
html-keyboard-response,253,511805,398.77500000875443,"COCKTAIL<img id = ""stim"" ><div class = green_square id = ""topsquare"" ></div><img id = ""stim"" ><div class = green_square  id = ""bottomsquare"" ></div>",32,word_square,response,1,Space,true,,,
html-keyboard-response,254,513311,null,"COCKTAIL",null,word,,,,, 'COCKTAIL',,
call-function,255,513312,,"",,,,,,,,,
html-keyboard-response,256,513414,null,"",null,,,,,,,,
math-period,257,515509,4020.8500000007916,"",,,,,,,,,5
html-keyboard-response,258,515611,null,"",null,,,,,,,,
math-period,259,517181,2921.330000011949,"",,,,,,,,,0
html-keyboard-response,260,517286,null,"",null,,,,,,,,
math-period,261,519187,3664.9750000215136,"",,,,,,,,,2
html-keyboard-response,262,519292,null,"",null,,,,,,,,
math-period,263,520500,2256.3349999836646,"",,,,,,,,,4
html-keyboard-response,264,520603,null,"",null,,,,,,,,
math-period,265,523795,11863.76999996719,"",,,,,,,,,1
html-keyboard-response,266,523900,null,"",null,,,,,,,,
math-period,267,527253,6525.560000009136,"",,,,,,,,,3
html-keyboard-response,268,527356,null,"",null,,,,,,,,
math-period,269,529393,3977.4999999790452,"",,,,,,,,,3
html-keyboard-response,270,529497,null,"",null,,,,,,,,
math-period,271,531386,3629.654999997001,"",,,,,,,,,1
html-keyboard-response,272,531489,null,"",null,,,,,,,,
math-period,273,533022,5085.554999997839,"",,,,,,,,,3
html-keyboard-response,274,533126,null,"",null,,,,,,,,
math-period,275,534458,2505.1800000073854,"",,,,,,,,,3
html-keyboard-response,276,534561,null,"",null,,,,,,,,
math-period,277,536074,2900.5350000225008,"",,,,,,,,,1
html-keyboard-response,278,536177,null,"",null,,,,,,,,
math-period,279,537317,null,"",,,,,,,,,
html-keyboard-response,280,538321,null,"Recall Period!",null,,,,,,,,
call-function,281,538323,,"",,,,,,,,,
html-keyboard-response,282,538428,null,"",null,,,,,,,,
recall-period,283,540284,10271.334999939427,"",,,,,,,,,bedroom 
html-keyboard-response,284,540391,null,"",null,,,,,,,,
recall-period,285,541860,5589.025000022957,"",,,,,,,,,ladder
html-keyboard-response,286,541964,null,"",null,,,,,,,,
recall-period,287,544292,15201.594999874942,"",,,,,,,,,forest
html-keyboard-response,288,544396,null,"",null,,,,,,,,
recall-period,289,546312,9825.819999939995,"",,,,,,,,,forehead
html-keyboard-response,290,546419,null,"",null,,,,,,,,
recall-period,291,547611,4303.359999932582,"",,,,,,,,,sponge
html-keyboard-response,292,547715,null,"",null,,,,,,,,
recall-period,293,549565,6447.579999949085,"",,,,,,,,,chest
html-keyboard-response,294,549671,null,"",null,,,,,,,,
recall-period,295,585019,208806.91999997362,"",,,,,,,,,quiet
html-keyboard-response,296,585122,null,"",null,,,,,,,,
recall-period,297,614515,null,"",,,,,,,,,
html-keyboard-response,298,615608,null,"Time's Up!",null,,,,,,,,
html-keyboard-response,299,620329,4718.359999998938,"<p> Good job! You responded correctly to 93% of the GREEN squares.</p>
                  <p>Be sure to keep your accuracy above 80%</p>
                  <p>Press any key to continue the experiment. Thank you!</p>",32,,,,,,,,
html-keyboard-response,300,624728,4397.614999994403,"<div style=""font-size:48px;"">Press any key to begin list 3 of 24 </div>",32,,,,,,,,
html-keyboard-response,301,627236,null,"<div style=""font-size:60px;"">+</div>",null,,,,,,,,
html-keyboard-response,302,627742,null,"TORCH<img id = ""stim"" ><div class = green_square id = ""topsquare"" ></div><img id = ""stim"" ><div class = green_square  id = ""bottomsquare"" ></div>",null,word_square,response,1,Space,false,,,
html-keyboard-response,303,629246,null,"TORCH",null,word,,,,, 'TORCH',,
html-keyboard-response,304,629586,338.8250000134576,"OUTFIT<img id = ""stim"" ><div class = green_square id = ""topsquare"" ></div><img id = ""stim"" ><div class = green_square  id = ""bottomsquare"" ></div>",32,word_square,response,1,Space,true,,,
html-keyboard-response,305,631091,null,"OUTFIT",null,word,,,,, 'OUTFIT',,
html-keyboard-response,306,631599,null,"TART<img id = ""stim"" ><div class = red_square id = ""topsquare"" ></div><img id = ""stim"" ><div class = red_square  id = ""bottomsquare"" ></div>",null,word_square,response,0,none,true,,,
html-keyboard-response,307,633102,null,"TART",null,word,,,,, 'TART',,
html-keyboard-response,308,633402,297.7299999911338,"OFFICE<img id = ""stim"" ><div class = green_square id = ""topsquare"" ></div><img id = ""stim"" ><div class = green_square  id = ""bottomsquare"" ></div>",32,word_square,response,1,Space,true,,,
html-keyboard-response,309,634905,null,"OFFICE",null,word,,,,, 'OFFICE',,
html-keyboard-response,310,635412,null,"SHOVEL<img id = ""stim"" ><div class = green_square id = ""topsquare"" ></div><img id = ""stim"" ><div class = green_square  id = ""bottomsquare"" ></div>",null,word_square,response,1,Space,false,,,
html-keyboard-response,311,636916,null,"SHOVEL",null,word,,,,, 'SHOVEL',,
html-keyboard-response,312,637423,null,"RAFT<img id = ""stim"" ><div class = red_square id = ""topsquare"" ></div><img id = ""stim"" ><div class = red_square  id = ""bottomsquare"" ></div>",null,word_square,response,0,none,true,,,
html-keyboard-response,313,638926,null,"RAFT",null,word,,,,, 'RAFT',,
html-keyboard-response,314,639293,364.82499999692664,"SENATE<img id = ""stim"" ><div class = green_square id = ""topsquare"" ></div><img id = ""stim"" ><div class = green_square  id = ""bottomsquare"" ></div>",32,word_square,response,1,Space,true,,,
html-keyboard-response,315,640798,null,"SENATE",null,word,,,,, 'SENATE',,
html-keyboard-response,316,641305,null,"JOURNAL<img id = ""stim"" ><div class = red_square id = ""topsquare"" ></div><img id = ""stim"" ><div class = red_square  id = ""bottomsquare"" ></div>",null,word_square,response,0,none,true,,,
html-keyboard-response,317,642809,null,"JOURNAL",null,word,,,,, 'JOURNAL',,
html-keyboard-response,318,643131,319.3250000185799,"TREAT<img id = ""stim"" ><div class = green_square id = ""topsquare"" ></div><img id = ""stim"" ><div class = green_square  id = ""bottomsquare"" ></div>",32,word_square,response,1,Space,true,,,
html-keyboard-response,319,644633,null,"TREAT",null,word,,,,, 'TREAT',,
html-keyboard-response,320,645140,null,"SHOELACE<img id = ""stim"" ><div class = red_square id = ""topsquare"" ></div><img id = ""stim"" ><div class = red_square  id = ""bottomsquare"" ></div>",null,word_square,response,0,none,true,,,
html-keyboard-response,321,646643,null,"SHOELACE",null,word,,,,, 'SHOELACE',,
html-keyboard-response,322,647148,null,"CANAL<img id = ""stim"" ><div class = green_square id = ""topsquare"" ></div><img id = ""stim"" ><div class = green_square  id = ""bottomsquare"" ></div>",null,word_square,response,1,Space,false,,,
html-keyboard-response,323,648650,null,"CANAL",null,word,,,,, 'CANAL',,
html-keyboard-response,324,649156,null,"MARINE<img id = ""stim"" ><div class = red_square id = ""topsquare"" ></div><img id = ""stim"" ><div class = red_square  id = ""bottomsquare"" ></div>",null,word_square,response,0,none,true,,,
html-keyboard-response,325,650659,null,"MARINE",null,word,,,,, 'MARINE',,
html-keyboard-response,326,651162,null,"POLICE<img id = ""stim"" ><div class = red_square id = ""topsquare"" ></div><img id = ""stim"" ><div class = red_square  id = ""bottomsquare"" ></div>",null,word_square,response,0,none,true,,,
html-keyboard-response,327,652665,null,"POLICE",null,word,,,,, 'POLICE',,
html-keyboard-response,328,653172,null,"PARTY<img id = ""stim"" ><div class = red_square id = ""topsquare"" ></div><img id = ""stim"" ><div class = red_square  id = ""bottomsquare"" ></div>",null,word_square,response,0,none,true,,,
html-keyboard-response,329,654675,null,"PARTY",null,word,,,,, 'PARTY',,
html-keyboard-response,330,655163,486.7249999952037,"SHAMPOO<img id = ""stim"" ><div class = green_square id = ""topsquare"" ></div><img id = ""stim"" ><div class = green_square  id = ""bottomsquare"" ></div>",32,word_square,response,1,Space,true,,,
html-keyboard-response,331,656666,null,"SHAMPOO",null,word,,,,, 'SHAMPOO',,
html-keyboard-response,332,657150,481.84500000206754,"WALRUS<img id = ""stim"" ><div class = green_square id = ""topsquare"" ></div><img id = ""stim"" ><div class = green_square  id = ""bottomsquare"" ></div>",32,word_square,response,1,Space,true,,,
html-keyboard-response,333,658655,null,"WALRUS",null,word,,,,, 'WALRUS',,
html-keyboard-response,334,659162,null,"PRIEST<img id = ""stim"" ><div class = red_square id = ""topsquare"" ></div><img id = ""stim"" ><div class = red_square  id = ""bottomsquare"" ></div>",null,word_square,response,0,none,true,,,
html-keyboard-response,335,660666,null,"PRIEST",null,word,,,,, 'PRIEST',,
html-keyboard-response,336,661173,null,"SPOUSE<img id = ""stim"" ><div class = red_square id = ""topsquare"" ></div><img id = ""stim"" ><div class = red_square  id = ""bottomsquare"" ></div>",null,word_square,response,0,none,true,,,
html-keyboard-response,337,662677,null,"SPOUSE",null,word,,,,, 'SPOUSE',,
call-function,338,662678,,"",,,,,,,,,
html-keyboard-response,339,662783,null,"",null,,,,,,,,
math-period,340,664279,2855.905000003986,"",,,,,,,,,3
html-keyboard-response,341,664383,null,"",null,,,,,,,,
math-period,342,665438,1933.4950000047684,"",,,,,,,,,4
html-keyboard-response,343,665541,null,"",null,,,,,,,,
math-period,344,667007,2769.9399999692105,"",,,,,,,,,5
html-keyboard-response,345,667114,null,"",null,,,,,,,,
math-period,346,668832,3291.014999995241,"",,,,,,,,,4
html-keyboard-response,347,668938,null,"",null,,,,,,,,
math-period,348,670431,2902.3849999939557,"",,,,,,,,,6
html-keyboard-response,349,670538,null,"",null,,,,,,,,
math-period,350,672335,3480.245000013383,"",,,,,,,,,5
html-keyboard-response,351,672439,null,"",null,,,,,,,,
math-period,352,673533,2068.10500001302,"",,,,,,,,,4
html-keyboard-response,353,673637,null,"",null,,,,,,,,
math-period,354,676937,6469.069999991916,"",,,,,,,,,2
html-keyboard-response,355,677041,null,"",null,,,,,,,,
math-period,356,678096,2001.5199999907054,"",,,,,,,,,2
html-keyboard-response,357,678202,null,"",null,,,,,,,,
math-period,358,679777,3017.1700000064448,"",,,,,,,,,4
html-keyboard-response,359,679882,null,"",null,,,,,,,,
math-period,360,683182,5754.765000019688,"",,,,,,,,,0
html-keyboard-response,361,683285,null,"",null,,,,,,,,
math-period,362,684969,3191.5050000243355,"",,,,,,,,,2
html-keyboard-response,363,685073,null,"",null,,,,,,,,
math-period,364,686176,1940.2099999715574,"",,,,,,,,,2
html-keyboard-response,365,686280,null,"",null,,,,,,,,
math-period,366,686680,null,"",,,,,,,,,
html-keyboard-response,367,687685,null,"Recall Period!",null,,,,,,,,
call-function,368,687686,,"",,,,,,,,,
html-keyboard-response,369,687793,null,"",null,,,,,,,,
recall-period,370,689407,5255.475000012666,"",,,,,,,,,torch 
html-keyboard-response,371,689509,null,"",null,,,,,,,,
recall-period,372,690876,4729.220000008354,"",,,,,,,,,office
html-keyboard-response,373,690981,null,"",null,,,,,,,,
recall-period,374,692266,4110.144999984186,"",,,,,,,,,outfit
html-keyboard-response,375,692368,null,"",null,,,,,,,,
recall-period,376,694437,9339.670000073966,"",,,,,,,,,marine
html-keyboard-response,377,694544,null,"",null,,,,,,,,
recall-period,378,697016,8717.345000070054,"",,,,,,,,,shoelace
html-keyboard-response,379,697120,null,"",null,,,,,,,,
recall-period,380,699462,12194.325000047684,"",,,,,,,,,shampoo
html-keyboard-response,381,699568,null,"",null,,,,,,,,
recall-period,382,701028,5081.699999864213,"",,,,,,,,,walrus
html-keyboard-response,383,701131,null,"",null,,,,,,,,
recall-period,384,746354,313507.9899999255,"",,,,,,,,,priest
html-keyboard-response,385,746460,null,"",null,,,,,,,,
recall-period,386,763410,null,"",,,,,,,,,
html-keyboard-response,387,764447,null,"Time's Up!",null,,,,,,,,
html-keyboard-response,388,772839,8389.640000008512,"<p> Good job! You responded correctly to 90% of the GREEN squares.</p>
                  <p>Be sure to keep your accuracy above 80%</p>
                  <p>Press any key to continue the experiment. Thank you!</p>",32,,,,,,,,
html-keyboard-response,389,773731,889.885000011418,"<div style=""font-size:48px;"">Press any key to begin list 4 of 24 </div>",32,,,,,,,,
html-keyboard-response,390,776236,null,"<div style=""font-size:60px;"">+</div>",null,,,,,,,,
html-keyboard-response,391,776742,null,"LETTER<img id = ""stim"" ><div class = green_square id = ""topsquare"" ></div><img id = ""stim"" ><div class = green_square  id = ""bottomsquare"" ></div>",null,word_square,response,1,Space,false,,,
html-keyboard-response,392,778245,null,"LETTER",null,word,,,,, 'LETTER',,
html-keyboard-response,393,778561,313.59999999403954,"THIEF<img id = ""stim"" ><div class = green_square id = ""topsquare"" ></div><img id = ""stim"" ><div class = green_square  id = ""bottomsquare"" ></div>",32,word_square,response,1,Space,true,,,
html-keyboard-response,394,780066,null,"THIEF",null,word,,,,, 'THIEF',,
html-keyboard-response,395,780573,null,"MARKET<img id = ""stim"" ><div class = red_square id = ""topsquare"" ></div><img id = ""stim"" ><div class = red_square  id = ""bottomsquare"" ></div>",null,word_square,response,0,none,true,,,
html-keyboard-response,396,782077,null,"MARKET",null,word,,,,, 'MARKET',,
html-keyboard-response,397,782358,279.0849999873899,"FIST<img id = ""stim"" ><div class = green_square id = ""topsquare"" ></div><img id = ""stim"" ><div class = green_square  id = ""bottomsquare"" ></div>",32,word_square,response,1,Space,true,,,
html-keyboard-response,398,783863,null,"FIST",null,word,,,,, 'FIST',,
html-keyboard-response,399,784301,435.58499999926426,"PORPOISE<img id = ""stim"" ><div class = green_square id = ""topsquare"" ></div><img id = ""stim"" ><div class = green_square  id = ""bottomsquare"" ></div>",32,word_square,response,1,Space,true,,,
html-keyboard-response,400,785805,null,"PORPOISE",null,word,,,,, 'PORPOISE',,
html-keyboard-response,401,786312,null,"WINDOW<img id = ""stim"" ><div class = red_square id = ""topsquare"" ></div><img id = ""stim"" ><div class = red_square  id = ""bottomsquare"" ></div>",null,word_square,response,0,none,true,,,
html-keyboard-response,402,787819,null,"WINDOW",null,word,,,,, 'WINDOW',,
html-keyboard-response,403,788281,460.1750000147149,"CURTAIN<img id = ""stim"" ><div class = green_square id = ""topsquare"" ></div><img id = ""stim"" ><div class = green_square  id = ""bottomsquare"" ></div>",32,word_square,response,1,Space,true,,,
html-keyboard-response,404,789784,null,"CURTAIN",null,word,,,,, 'CURTAIN',,
html-keyboard-response,405,790288,null,"BEAVER<img id = ""stim"" ><div class = red_square id = ""topsquare"" ></div><img id = ""stim"" ><div class = red_square  id = ""bottomsquare"" ></div>",null,word_square,response,0,none,true,,,
html-keyboard-response,406,791794,null,"BEAVER",null,word,,,,, 'BEAVER',,
html-keyboard-response,407,792052,255.9099999780301,"LAMP<img id = ""stim"" ><div class = green_square id = ""topsquare"" ></div><img id = ""stim"" ><div class = green_square  id = ""bottomsquare"" ></div>",32,word_square,response,1,Space,true,,,
html-keyboard-response,408,793559,null,"LAMP",null,word,,,,, 'LAMP',,
html-keyboard-response,409,794062,null,"BOYFRIEND<img id = ""stim"" ><div class = red_square id = ""topsquare"" ></div><img id = ""stim"" ><div class = red_square  id = ""bottomsquare"" ></div>",null,word_square,response,0,none,true,,,
html-keyboard-response,410,795565,null,"BOYFRIEND",null,word,,,,, 'BOYFRIEND',,
html-keyboard-response,411,795880,313.0249999812804,"SCRIBBLE<img id = ""stim"" ><div class = green_square id = ""topsquare"" ></div><img id = ""stim"" ><div class = green_square  id = ""bottomsquare"" ></div>",32,word_square,response,1,Space,true,,,
html-keyboard-response,412,797384,null,"SCRIBBLE",null,word,,,,, 'SCRIBBLE',,
html-keyboard-response,413,797891,null,"PLAZA<img id = ""stim"" ><div class = red_square id = ""topsquare"" ></div><img id = ""stim"" ><div class = red_square  id = ""bottomsquare"" ></div>",null,word_square,response,0,none,true,,,
html-keyboard-response,414,799395,null,"PLAZA",null,word,,,,, 'PLAZA',,
html-keyboard-response,415,799901,null,"FOSSIL<img id = ""stim"" ><div class = red_square id = ""topsquare"" ></div><img id = ""stim"" ><div class = red_square  id = ""bottomsquare"" ></div>",null,word_square,response,0,none,true,,,
html-keyboard-response,416,801408,null,"FOSSIL",null,word,,,,, 'FOSSIL',,
html-keyboard-response,417,801912,null,"PORCH<img id = ""stim"" ><div class = red_square id = ""topsquare"" ></div><img id = ""stim"" ><div class = red_square  id = ""bottomsquare"" ></div>",null,word_square,response,0,none,true,,,
html-keyboard-response,418,803414,null,"PORCH",null,word,,,,, 'PORCH',,
html-keyboard-response,419,803918,null,"TERMITE<img id = ""stim"" ><div class = green_square id = ""topsquare"" ></div><img id = ""stim"" ><div class = green_square  id = ""bottomsquare"" ></div>",null,word_square,response,1,Space,false,,,
html-keyboard-response,420,805422,null,"TERMITE",null,word,,,,, 'TERMITE',,
html-keyboard-response,421,805783,358.65999999805354,"COCOON<img id = ""stim"" ><div class = green_square id = ""topsquare"" ></div><img id = ""stim"" ><div class = green_square  id = ""bottomsquare"" ></div>",32,word_square,response,1,Space,true,,,
html-keyboard-response,422,807288,null,"COCOON",null,word,,,,, 'COCOON',,
html-keyboard-response,423,807795,null,"BASEBALL<img id = ""stim"" ><div class = red_square id = ""topsquare"" ></div><img id = ""stim"" ><div class = red_square  id = ""bottomsquare"" ></div>",null,word_square,response,0,none,true,,,
html-keyboard-response,424,809299,null,"BASEBALL",null,word,,,,, 'BASEBALL',,
html-keyboard-response,425,809806,null,"ACTRESS<img id = ""stim"" ><div class = red_square id = ""topsquare"" ></div><img id = ""stim"" ><div class = red_square  id = ""bottomsquare"" ></div>",null,word_square,response,0,none,true,,,
html-keyboard-response,426,811310,null,"ACTRESS",null,word,,,,, 'ACTRESS',,
call-function,427,811311,,"",,,,,,,,,
html-keyboard-response,428,811416,null,"",null,,,,,,,,
math-period,429,814363,5710.54500003811,"",,,,,,,,,3
html-keyboard-response,430,814467,null,"",null,,,,,,,,
math-period,431,815569,2051.550000003772,"",,,,,,,,,4
html-keyboard-response,432,815672,null,"",null,,,,,,,,
math-period,433,817246,3026.9850000040606,"",,,,,,,,,4
html-keyboard-response,434,817353,null,"",null,,,,,,,,
math-period,435,818661,2448.2650000136346,"",,,,,,,,,5
html-keyboard-response,436,818768,null,"",null,,,,,,,,
math-period,437,819884,2096.14499998861,"",,,,,,,,,2
html-keyboard-response,438,819987,null,"",null,,,,,,,,
math-period,439,821440,2733.254999970086,"",,,,,,,,,6
html-keyboard-response,440,821545,null,"",null,,,,,,,,
math-period,441,823470,3689.120000024559,"",,,,,,,,,1
html-keyboard-response,442,823573,null,"",null,,,,,,,,
math-period,443,825619,3993.6300000117626,"",,,,,,,,,4
html-keyboard-response,444,825723,null,"",null,,,,,,,,
math-period,445,827690,3781.879999965895,"",,,,,,,,,1
html-keyboard-response,446,827796,null,"",null,,,,,,,,
math-period,447,832544,9303.725000005215,"",,,,,,,,,1
html-keyboard-response,448,832649,null,"",null,,,,,,,,
math-period,449,835315,null,"",,,,,,,,,
html-keyboard-response,450,836320,null,"Recall Period!",null,,,,,,,,
call-function,451,836321,,"",,,,,,,,,
html-keyboard-response,452,836425,null,"",null,,,,,,,,
recall-period,453,838010,7157.765000039944,"",,,,,,,,,letter
html-keyboard-response,454,838112,null,"",null,,,,,,,,
recall-period,455,840283,15670.75499999919,"",,,,,,,,,actress
html-keyboard-response,456,840387,null,"",null,,,,,,,,
recall-period,457,844124,18181.88499993994,"",,,,,,,,,pourpoise
html-keyboard-response,458,844227,null,"",null,,,,,,,,
recall-period,459,846290,9219.705000112299,"",,,,,,,,,cocoon
html-keyboard-response,460,846393,null,"",null,,,,,,,,
recall-period,461,848501,13254.5050001645,"",,,,,,,,,mattress
html-keyboard-response,462,848607,null,"",null,,,,,,,,
recall-period,463,911328,113425.09500001324,"",,,,,,,,,  
html-keyboard-response,464,911833,null,"Time's Up!",null,,,,,,,,
html-keyboard-response,465,913251,1415.4100000159815,"<p> Good job! You responded correctly to 90% of the GREEN squares.</p>
                  <p>Be sure to keep your accuracy above 80%</p>
                  <p>Press any key to continue the experiment. Thank you!</p>",32,,,,,,,,
html-keyboard-response,466,916572,3319.5249999989755,"<div style=""font-size:48px;"">Press any key to begin list 5 of 24 </div>",32,,,,,,,,
html-keyboard-response,467,919078,null,"<div style=""font-size:60px;"">+</div>",null,,,,,,,,
html-keyboard-response,468,919585,null,"TOOTHBRUSH<img id = ""stim"" ><div class = red_square id = ""topsquare"" ></div><img id = ""stim"" ><div class = red_square  id = ""bottomsquare"" ></div>",null,word_square,response,0,none,true,,,
html-keyboard-response,469,921087,null,"TOOTHBRUSH",null,word,,,,, 'TOOTHBRUSH',,
html-keyboard-response,470,921421,332.1750000177417,"LAKE<img id = ""stim"" ><div class = green_square id = ""topsquare"" ></div><img id = ""stim"" ><div class = green_square  id = ""bottomsquare"" ></div>",32,word_square,response,1,Space,true,,,
html-keyboard-response,471,922923,null,"LAKE",null,word,,,,, 'LAKE',,
html-keyboard-response,472,923430,null,"FOOT<img id = ""stim"" ><div class = red_square id = ""topsquare"" ></div><img id = ""stim"" ><div class = red_square  id = ""bottomsquare"" ></div>",null,word_square,response,0,none,true,,,
html-keyboard-response,473,924934,null,"FOOT",null,word,,,,, 'FOOT',,
html-keyboard-response,474,925441,null,"CABIN<img id = ""stim"" ><div class = red_square id = ""topsquare"" ></div><img id = ""stim"" ><div class = red_square  id = ""bottomsquare"" ></div>",null,word_square,response,0,none,true,,,
html-keyboard-response,475,926945,null,"CABIN",null,word,,,,, 'CABIN',,
html-keyboard-response,476,927353,406.20500000659376,"FRANCE<img id = ""stim"" ><div class = green_square id = ""topsquare"" ></div><img id = ""stim"" ><div class = green_square  id = ""bottomsquare"" ></div>",32,word_square,response,1,Space,true,,,
html-keyboard-response,477,928859,null,"FRANCE",null,word,,,,, 'FRANCE',,
html-keyboard-response,478,929365,null,"PITCHFORK<img id = ""stim"" ><div class = red_square id = ""topsquare"" ></div><img id = ""stim"" ><div class = red_square  id = ""bottomsquare"" ></div>",null,word_square,response,0,none,true,,,
html-keyboard-response,479,930870,null,"PITCHFORK",null,word,,,,, 'PITCHFORK',,
html-keyboard-response,480,931377,null,"SLACKS<img id = ""stim"" ><div class = red_square id = ""topsquare"" ></div><img id = ""stim"" ><div class = red_square  id = ""bottomsquare"" ></div>",null,word_square,response,0,none,true,,,
html-keyboard-response,481,932881,null,"SLACKS",null,word,,,,, 'SLACKS',,
html-keyboard-response,482,933277,394.05500001157634,"POWDER<img id = ""stim"" ><div class = green_square id = ""topsquare"" ></div><img id = ""stim"" ><div class = green_square  id = ""bottomsquare"" ></div>",32,word_square,response,1,Space,true,,,
html-keyboard-response,483,934780,null,"POWDER",null,word,,,,, 'POWDER',,
html-keyboard-response,484,935154,372.6050000113901,"FRECKLE<img id = ""stim"" ><div class = green_square id = ""topsquare"" ></div><img id = ""stim"" ><div class = green_square  id = ""bottomsquare"" ></div>",32,word_square,response,1,Space,true,,,
html-keyboard-response,485,936657,null,"FRECKLE",null,word,,,,, 'FRECKLE',,
html-keyboard-response,486,937164,null,"GERM<img id = ""stim"" ><div class = red_square id = ""topsquare"" ></div><img id = ""stim"" ><div class = red_square  id = ""bottomsquare"" ></div>",null,word_square,response,0,none,true,,,
html-keyboard-response,487,938669,null,"GERM",null,word,,,,, 'GERM',,
html-keyboard-response,488,939175,null,"SIDEWALK<img id = ""stim"" ><div class = green_square id = ""topsquare"" ></div><img id = ""stim"" ><div class = green_square  id = ""bottomsquare"" ></div>",null,word_square,response,1,Space,false,,,
html-keyboard-response,489,940678,null,"SIDEWALK",null,word,,,,, 'SIDEWALK',,
html-keyboard-response,490,941185,null,"KNIFE<img id = ""stim"" ><div class = red_square id = ""topsquare"" ></div><img id = ""stim"" ><div class = red_square  id = ""bottomsquare"" ></div>",null,word_square,response,0,none,true,,,
html-keyboard-response,491,942689,null,"KNIFE",null,word,,,,, 'KNIFE',,
html-keyboard-response,492,943196,null,"CONVENT<img id = ""stim"" ><div class = red_square id = ""topsquare"" ></div><img id = ""stim"" ><div class = red_square  id = ""bottomsquare"" ></div>",null,word_square,response,0,none,true,,,
html-keyboard-response,493,944700,null,"CONVENT",null,word,,,,, 'CONVENT',,
html-keyboard-response,494,945154,452.2549999819603,"DUSTPAN<img id = ""stim"" ><div class = green_square id = ""topsquare"" ></div><img id = ""stim"" ><div class = green_square  id = ""bottomsquare"" ></div>",32,word_square,response,1,Space,true,,,
html-keyboard-response,495,946657,null,"DUSTPAN",null,word,,,,, 'DUSTPAN',,
html-keyboard-response,496,947018,358.14500000560656,"SWORD<img id = ""stim"" ><div class = green_square id = ""topsquare"" ></div><img id = ""stim"" ><div class = green_square  id = ""bottomsquare"" ></div>",32,word_square,response,1,Space,true,,,
html-keyboard-response,497,948524,null,"SWORD",null,word,,,,, 'SWORD',,
html-keyboard-response,498,948891,365.20000000018626,"CABLE<img id = ""stim"" ><div class = green_square id = ""topsquare"" ></div><img id = ""stim"" ><div class = green_square  id = ""bottomsquare"" ></div>",32,word_square,response,1,Space,true,,,
html-keyboard-response,499,950396,null,"CABLE",null,word,,,,, 'CABLE',,
html-keyboard-response,500,950903,null,"PECAN<img id = ""stim"" ><div class = red_square id = ""topsquare"" ></div><img id = ""stim"" ><div class = red_square  id = ""bottomsquare"" ></div>",null,word_square,response,0,none,true,,,
html-keyboard-response,501,952407,null,"PECAN",null,word,,,,, 'PECAN',,
html-keyboard-response,502,952801,392.53500002087094,"PEANUT<img id = ""stim"" ><div class = green_square id = ""topsquare"" ></div><img id = ""stim"" ><div class = green_square  id = ""bottomsquare"" ></div>",32,word_square,response,1,Space,true,,,
html-keyboard-response,503,954306,null,"PEANUT",null,word,,,,, 'PEANUT',,
call-function,504,954307,,"",,,,,,,,,
html-keyboard-response,505,954412,null,"",null,,,,,,,,
math-period,506,956542,7254.15500003146,"",,,,,,,,,4
html-keyboard-response,507,956647,null,"",null,,,,,,,,
math-period,508,959053,4700.279999990016,"",,,,,,,,,3
html-keyboard-response,509,959159,null,"",null,,,,,,,,
math-period,510,961042,3552.70000002929,"",,,,,,,,,2
html-keyboard-response,511,961148,null,"",null,,,,,,,,
math-period,512,964449,6497.95499999891,"",,,,,,,,,1
html-keyboard-response,513,964553,null,"",null,,,,,,,,
math-period,514,965885,2527.9150000133086,"",,,,,,,,,5
html-keyboard-response,515,965991,null,"",null,,,,,,,,
math-period,516,967134,2102.0400000270456,"",,,,,,,,,2
html-keyboard-response,517,967239,null,"",null,,,,,,,,
math-period,518,969639,4625.54999999702,"",,,,,,,,,2
html-keyboard-response,519,969746,null,"",null,,,,,,,,
math-period,520,971391,3165.3149999910966,"",,,,,,,,,2
html-keyboard-response,521,971495,null,"",null,,,,,,,,
math-period,522,977338,11494.159999972908,"",,,,,,,,,2
html-keyboard-response,523,977442,null,"",null,,,,,,,,
math-period,524,978312,null,"",,,,,,,,,
html-keyboard-response,525,979318,null,"Recall Period!",null,,,,,,,,
call-function,526,979319,,"",,,,,,,,,
html-keyboard-response,527,979424,null,"",null,,,,,,,,
recall-period,528,982148,18597.125000000233,"",,,,,,,,,toothbrush
html-keyboard-response,529,982253,null,"",null,,,,,,,,
recall-period,530,983533,4073.4550000634044,"",,,,,,,,,lake 
html-keyboard-response,531,983637,null,"",null,,,,,,,,
recall-period,532,984742,3863.564999977825,"",,,,,,,,,foot
html-keyboard-response,533,984845,null,"",null,,,,,,,,
recall-period,534,987652,9153.96999992663,"",,,,,,,,,pecan 
html-keyboard-response,535,987756,null,"",null,,,,,,,,
recall-period,536,989475,6481.675000017276,"",,,,,,,,,peanut
html-keyboard-response,537,989581,null,"",null,,,,,,,,
recall-period,538,995908,16963.080000074115,"",,,,,,,,,cabin
html-keyboard-response,539,996013,null,"",null,,,,,,,,
recall-period,540,1001410,14119.15000010049,"",,,,,,,,,france
html-keyboard-response,541,1001517,null,"",null,,,,,,,,
recall-period,542,1054324,null,"",,,,,,,,,
html-keyboard-response,543,1054829,null,"Time's Up!",null,,,,,,,,
html-keyboard-response,544,1059394,4562.930000014603,"<p> Good job! You responded correctly to 91% of the GREEN squares.</p>
                  <p>Be sure to keep your accuracy above 80%</p>
                  <p>Press any key to continue the experiment. Thank you!</p>",32,,,,,,,,
html-keyboard-response,545,1062159,2763.90999997966,"<div style=""font-size:48px;"">Press any key to begin list 6 of 24 </div>",32,,,,,,,,
html-keyboard-response,546,1064665,null,"<div style=""font-size:60px;"">+</div>",null,,,,,,,,
html-keyboard-response,547,1065171,null,"FEAST<img id = ""stim"" ><div class = red_square id = ""topsquare"" ></div><img id = ""stim"" ><div class = red_square  id = ""bottomsquare"" ></div>",null,word_square,response,0,none,true,,,
html-keyboard-response,548,1066674,null,"FEAST",null,word,,,,, 'FEAST',,
html-keyboard-response,549,1067148,472.18499999144115,"MOUNTAIN<img id = ""stim"" ><div class = green_square id = ""topsquare"" ></div><img id = ""stim"" ><div class = green_square  id = ""bottomsquare"" ></div>",32,word_square,response,1,Space,true,,,
html-keyboard-response,550,1068655,null,"MOUNTAIN",null,word,,,,, 'MOUNTAIN',,
html-keyboard-response,551,1069162,null,"OINTMENT<img id = ""stim"" ><div class = red_square id = ""topsquare"" ></div><img id = ""stim"" ><div class = red_square  id = ""bottomsquare"" ></div>",null,word_square,response,0,none,true,,,
html-keyboard-response,552,1070666,null,"OINTMENT",null,word,,,,, 'OINTMENT',,
html-keyboard-response,553,1071173,null,"BANQUET<img id = ""stim"" ><div class = red_square id = ""topsquare"" ></div><img id = ""stim"" ><div class = red_square  id = ""bottomsquare"" ></div>",null,word_square,response,0,none,true,,,
html-keyboard-response,554,1072676,null,"BANQUET",null,word,,,,, 'BANQUET',,
html-keyboard-response,555,1073145,466.4900000207126,"POND<img id = ""stim"" ><div class = green_square id = ""topsquare"" ></div><img id = ""stim"" ><div class = green_square  id = ""bottomsquare"" ></div>",32,word_square,response,1,Space,true,,,
html-keyboard-response,556,1074650,null,"POND",null,word,,,,, 'POND',,
html-keyboard-response,557,1075157,null,"KLEENEX<img id = ""stim"" ><div class = red_square id = ""topsquare"" ></div><img id = ""stim"" ><div class = red_square  id = ""bottomsquare"" ></div>",null,word_square,response,0,none,true,,,
html-keyboard-response,558,1076661,null,"KLEENEX",null,word,,,,, 'KLEENEX',,
html-keyboard-response,559,1077167,null,"FREEZER<img id = ""stim"" ><div class = red_square id = ""topsquare"" ></div><img id = ""stim"" ><div class = red_square  id = ""bottomsquare"" ></div>",null,word_square,response,0,none,true,,,
html-keyboard-response,560,1078671,null,"FREEZER",null,word,,,,, 'FREEZER',,
html-keyboard-response,561,1079096,422.58500002208166,"PIANO<img id = ""stim"" ><div class = green_square id = ""topsquare"" ></div><img id = ""stim"" ><div class = green_square  id = ""bottomsquare"" ></div>",32,word_square,response,1,Space,true,,,
html-keyboard-response,562,1080602,null,"PIANO",null,word,,,,, 'PIANO',,
html-keyboard-response,563,1081108,null,"DOCK<img id = ""stim"" ><div class = green_square id = ""topsquare"" ></div><img id = ""stim"" ><div class = green_square  id = ""bottomsquare"" ></div>",null,word_square,response,1,Space,false,,,
html-keyboard-response,564,1082613,null,"DOCK",null,word,,,,, 'DOCK',,
html-keyboard-response,565,1083119,null,"STALLION<img id = ""stim"" ><div class = red_square id = ""topsquare"" ></div><img id = ""stim"" ><div class = red_square  id = ""bottomsquare"" ></div>",null,word_square,response,0,none,true,,,
html-keyboard-response,566,1084625,null,"STALLION",null,word,,,,, 'STALLION',,
html-keyboard-response,567,1085012,384.8700000089593,"CARRIAGE<img id = ""stim"" ><div class = green_square id = ""topsquare"" ></div><img id = ""stim"" ><div class = green_square  id = ""bottomsquare"" ></div>",32,word_square,response,1,Space,true,,,
html-keyboard-response,568,1086517,null,"CARRIAGE",null,word,,,,, 'CARRIAGE',,
html-keyboard-response,569,1087021,null,"PLATE<img id = ""stim"" ><div class = red_square id = ""topsquare"" ></div><img id = ""stim"" ><div class = red_square  id = ""bottomsquare"" ></div>",null,word_square,response,0,none,true,,,
html-keyboard-response,570,1088528,null,"PLATE",null,word,,,,, 'PLATE',,
html-keyboard-response,571,1089034,null,"ICEBERG<img id = ""stim"" ><div class = red_square id = ""topsquare"" ></div><img id = ""stim"" ><div class = red_square  id = ""bottomsquare"" ></div>",null,word_square,response,0,none,true,,,
html-keyboard-response,572,1090538,null,"ICEBERG",null,word,,,,, 'ICEBERG',,
html-keyboard-response,573,1091045,null,"MONGOOSE<img id = ""stim"" ><div class = green_square id = ""topsquare"" ></div><img id = ""stim"" ><div class = green_square  id = ""bottomsquare"" ></div>",null,word_square,response,1,Space,false,,,
html-keyboard-response,574,1092549,null,"MONGOOSE",null,word,,,,, 'MONGOOSE',,
html-keyboard-response,575,1093023,472.21999999601394,"STAKE<img id = ""stim"" ><div class = green_square id = ""topsquare"" ></div><img id = ""stim"" ><div class = green_square  id = ""bottomsquare"" ></div>",32,word_square,response,1,Space,true,,,
html-keyboard-response,576,1094528,null,"STAKE",null,word,,,,, 'STAKE',,
html-keyboard-response,577,1095035,null,"GAZELLE<img id = ""stim"" ><div class = green_square id = ""topsquare"" ></div><img id = ""stim"" ><div class = green_square  id = ""bottomsquare"" ></div>",null,word_square,response,1,Space,false,,,
html-keyboard-response,578,1096539,null,"GAZELLE",null,word,,,,, 'GAZELLE',,
html-keyboard-response,579,1097045,null,"COOK<img id = ""stim"" ><div class = red_square id = ""topsquare"" ></div><img id = ""stim"" ><div class = red_square  id = ""bottomsquare"" ></div>",null,word_square,response,0,none,true,,,
html-keyboard-response,580,1098549,null,"COOK",null,word,,,,, 'COOK',,
html-keyboard-response,581,1099012,460.88999998755753,"JELLY<img id = ""stim"" ><div class = green_square id = ""topsquare"" ></div><img id = ""stim"" ><div class = green_square  id = ""bottomsquare"" ></div>",32,word_square,response,1,Space,true,,,
html-keyboard-response,582,1100517,null,"JELLY",null,word,,,,, 'JELLY',,
call-function,583,1100519,,"",,,,,,,,,
html-keyboard-response,584,1100624,null,"",null,,,,,,,,
math-period,585,1102231,2973.7650000024587,"",,,,,,,,,5
html-keyboard-response,586,1102335,null,"",null,,,,,,,,
math-period,587,1103571,2279.1350000188686,"",,,,,,,,,4
html-keyboard-response,588,1103674,null,"",null,,,,,,,,
math-period,589,1107041,6613.749999960419,"",,,,,,,,,3
html-keyboard-response,590,1107147,null,"",null,,,,,,,,
math-period,591,1108483,2518.575000023702,"",,,,,,,,,3
html-keyboard-response,592,1108587,null,"",null,,,,,,,,
math-period,593,1109825,2261.2499999813735,"",,,,,,,,,4
html-keyboard-response,594,1109931,null,"",null,,,,,,,,
math-period,595,1112678,4849.459999968531,"",,,,,,,,,3
html-keyboard-response,596,1112784,null,"",null,,,,,,,,
math-period,597,1114635,3632.2749999526422,"",,,,,,,,,2
html-keyboard-response,598,1114739,null,"",null,,,,,,,,
math-period,599,1117352,5126.710000011371,"",,,,,,,,,2
html-keyboard-response,600,1117456,null,"",null,,,,,,,,
math-period,601,1120168,5267.994999972871,"",,,,,,,,,2
html-keyboard-response,602,1120272,null,"",null,,,,,,,,
math-period,603,1121492,2223.9800000097603,"",,,,,,,,,2
html-keyboard-response,604,1121595,null,"",null,,,,,,,,
math-period,605,1124359,5378.4299999824725,"",,,,,,,,,3
html-keyboard-response,606,1124465,null,"",null,,,,,,,,
math-period,607,1124523,null,"",,,,,,,,,
html-keyboard-response,608,1125526,null,"Recall Period!",null,,,,,,,,
call-function,609,1125527,,"",,,,,,,,,
html-keyboard-response,610,1125633,null,"",null,,,,,,,,
recall-period,611,1127634,9752.48499988811,"",,,,,,,,,feast 
html-keyboard-response,612,1127739,null,"",null,,,,,,,,
recall-period,613,1130048,9297.700000053737,"",,,,,,,,,mountain
html-keyboard-response,614,1130152,null,"",null,,,,,,,,
recall-period,615,1132289,9891.539999982342,"",,,,,,,,,stake
html-keyboard-response,616,1132394,null,"",null,,,,,,,,
recall-period,617,1134694,4753.949999896577,"",,,,,,,,,steak
html-keyboard-response,618,1134800,null,"",null,,,,,,,,
recall-period,619,1136488,8387.940000073286,"",,,,,,,,,gazelle
html-keyboard-response,620,1136593,null,"",null,,,,,,,,
recall-period,621,1138925,11540.904999885242,"",,,,,,,,,kleenex
html-keyboard-response,622,1139030,null,"",null,,,,,,,,
recall-period,623,1150606,55749.01999995927,"",,,,,,,,,pipe
html-keyboard-response,624,1150710,null,"",null,,,,,,,,
recall-period,625,1165338,66019.54500001739,"",,,,,,,,,wild
html-keyboard-response,626,1165441,null,"",null,,,,,,,,
recall-period,627,1170965,25745.794999966165,"",,,,,,,,,pike
html-keyboard-response,628,1171068,null,"",null,,,,,,,,
recall-period,629,1200530,null,"",,,,,,,,,
html-keyboard-response,630,1201035,null,"Time's Up!",null,,,,,,,,
html-keyboard-response,631,1203839,2801.690000022063,"<p> Good job! You responded correctly to 90% of the GREEN squares.</p>
                  <p>Be sure to keep your accuracy above 80%</p>
                  <p>Press any key to continue the experiment. Thank you!</p>",32,,,,,,,,
html-keyboard-response,632,1210094,6254.294999991544,"<div style=""font-size:48px;"">Press any key to begin list 7 of 24 </div>",32,,,,,,,,
html-keyboard-response,633,1212606,null,"<div style=""font-size:60px;"">+</div>",null,,,,,,,,
html-keyboard-response,634,1213112,null,"FIELD<img id = ""stim"" ><div class = green_square id = ""topsquare"" ></div><img id = ""stim"" ><div class = green_square  id = ""bottomsquare"" ></div>",null,word_square,response,1,Space,false,,,
html-keyboard-response,635,1214615,null,"FIELD",null,word,,,,, 'FIELD',,
html-keyboard-response,636,1215118,null,"FRIES<img id = ""stim"" ><div class = red_square id = ""topsquare"" ></div><img id = ""stim"" ><div class = red_square  id = ""bottomsquare"" ></div>",null,word_square,response,0,none,true,,,
html-keyboard-response,637,1216621,null,"FRIES",null,word,,,,, 'FRIES',,
html-keyboard-response,638,1217088,464.9199999985285,"BEETLE<img id = ""stim"" ><div class = green_square id = ""topsquare"" ></div><img id = ""stim"" ><div class = green_square  id = ""bottomsquare"" ></div>",32,word_square,response,1,Space,true,,,
html-keyboard-response,639,1218595,null,"BEETLE",null,word,,,,, 'BEETLE',,
html-keyboard-response,640,1219081,483.6000000068452,"PILOT<img id = ""stim"" ><div class = green_square id = ""topsquare"" ></div><img id = ""stim"" ><div class = green_square  id = ""bottomsquare"" ></div>",32,word_square,response,1,Space,true,,,
html-keyboard-response,641,1220582,null,"PILOT",null,word,,,,, 'PILOT',,
html-keyboard-response,642,1221086,null,"RESORT<img id = ""stim"" ><div class = red_square id = ""topsquare"" ></div><img id = ""stim"" ><div class = red_square  id = ""bottomsquare"" ></div>",null,word_square,response,0,none,true,,,
html-keyboard-response,643,1222590,null,"RESORT",null,word,,,,, 'RESORT',,
html-keyboard-response,644,1223096,null,"SPACE<img id = ""stim"" ><div class = green_square id = ""topsquare"" ></div><img id = ""stim"" ><div class = green_square  id = ""bottomsquare"" ></div>",null,word_square,response,1,Space,false,,,
html-keyboard-response,645,1224600,null,"SPACE",null,word,,,,, 'SPACE',,
html-keyboard-response,646,1225107,null,"HEDGE<img id = ""stim"" ><div class = green_square id = ""topsquare"" ></div><img id = ""stim"" ><div class = green_square  id = ""bottomsquare"" ></div>",null,word_square,response,1,Space,false,,,
html-keyboard-response,647,1226611,null,"HEDGE",null,word,,,,, 'HEDGE',,
html-keyboard-response,648,1227118,null,"TWIG<img id = ""stim"" ><div class = red_square id = ""topsquare"" ></div><img id = ""stim"" ><div class = red_square  id = ""bottomsquare"" ></div>",null,word_square,response,0,none,true,,,
html-keyboard-response,649,1228622,null,"TWIG",null,word,,,,, 'TWIG',,
html-keyboard-response,650,1229129,null,"SPINACH<img id = ""stim"" ><div class = red_square id = ""topsquare"" ></div><img id = ""stim"" ><div class = red_square  id = ""bottomsquare"" ></div>",null,word_square,response,0,none,true,,,
html-keyboard-response,651,1230633,null,"SPINACH",null,word,,,,, 'SPINACH',,
html-keyboard-response,652,1231139,null,"CARROT<img id = ""stim"" ><div class = green_square id = ""topsquare"" ></div><img id = ""stim"" ><div class = green_square  id = ""bottomsquare"" ></div>",null,word_square,response,1,Space,false,,,
html-keyboard-response,653,1232643,null,"CARROT",null,word,,,,, 'CARROT',,
html-keyboard-response,654,1233150,null,"OYSTER<img id = ""stim"" ><div class = red_square id = ""topsquare"" ></div><img id = ""stim"" ><div class = red_square  id = ""bottomsquare"" ></div>",null,word_square,response,0,none,true,,,
html-keyboard-response,655,1234654,null,"OYSTER",null,word,,,,, 'OYSTER',,
html-keyboard-response,656,1235160,504.1800000180956,"FRIAR<img id = ""stim"" ><div class = green_square id = ""topsquare"" ></div><img id = ""stim"" ><div class = green_square  id = ""bottomsquare"" ></div>",32,word_square,response,1,Space,true,,,
html-keyboard-response,657,1236665,null,"FRIAR",null,word,,,,, 'FRIAR',,
html-keyboard-response,658,1237171,null,"FOX<img id = ""stim"" ><div class = green_square id = ""topsquare"" ></div><img id = ""stim"" ><div class = green_square  id = ""bottomsquare"" ></div>",null,word_square,response,1,Space,false,,,
html-keyboard-response,659,1238674,null,"FOX",null,word,,,,, 'FOX',,
html-keyboard-response,660,1239177,null,"LAPEL<img id = ""stim"" ><div class = red_square id = ""topsquare"" ></div><img id = ""stim"" ><div class = red_square  id = ""bottomsquare"" ></div>",null,word_square,response,0,none,true,,,
html-keyboard-response,661,1240681,null,"LAPEL",null,word,,,,, 'LAPEL',,
html-keyboard-response,662,1241188,null,"BLOUSE<img id = ""stim"" ><div class = red_square id = ""topsquare"" ></div><img id = ""stim"" ><div class = red_square  id = ""bottomsquare"" ></div>",null,word_square,response,0,none,true,,,
html-keyboard-response,663,1242691,null,"BLOUSE",null,word,,,,, 'BLOUSE',,
html-keyboard-response,664,1243197,null,"TORTOISE<img id = ""stim"" ><div class = red_square id = ""topsquare"" ></div><img id = ""stim"" ><div class = red_square  id = ""bottomsquare"" ></div>",null,word_square,response,0,none,true,,,
html-keyboard-response,665,1244700,null,"TORTOISE",null,word,,,,, 'TORTOISE',,
html-keyboard-response,666,1245204,null,"SAPPHIRE<img id = ""stim"" ><div class = green_square id = ""topsquare"" ></div><img id = ""stim"" ><div class = green_square  id = ""bottomsquare"" ></div>",null,word_square,response,1,Space,false,,,
html-keyboard-response,667,1246708,null,"SAPPHIRE",null,word,,,,, 'SAPPHIRE',,
html-keyboard-response,668,1247214,null,"WRENCH<img id = ""stim"" ><div class = red_square id = ""topsquare"" ></div><img id = ""stim"" ><div class = red_square  id = ""bottomsquare"" ></div>",null,word_square,response,0,none,true,,,
html-keyboard-response,669,1248718,null,"WRENCH",null,word,,,,, 'WRENCH',,
call-function,670,1248719,,"",,,,,,,,,
html-keyboard-response,671,1248825,null,"",null,,,,,,,,
math-period,672,1250656,3483.2149999565445,"",,,,,,,,,2
html-keyboard-response,673,1250761,null,"",null,,,,,,,,
math-period,674,1254973,8179.235000046901,"",,,,,,,,,0
html-keyboard-response,675,1255076,null,"",null,,,,,,,,
math-period,676,1256599,2879.3100000184495,"",,,,,,,,,6
html-keyboard-response,677,1256703,null,"",null,,,,,,,,
math-period,678,1257888,2212.3950000095647,"",,,,,,,,,6
html-keyboard-response,679,1257993,null,"",null,,,,,,,,
math-period,680,1259859,3615.265000000363,"",,,,,,,,,4
html-keyboard-response,681,1259966,null,"",null,,,,,,,,
math-period,682,1268637,17108.715000009397,"",,,,,,,,,3
html-keyboard-response,683,1268739,null,"",null,,,,,,,,
math-period,684,1270125,2564.140000002226,"",,,,,,,,,3
html-keyboard-response,685,1270231,null,"",null,,,,,,,,
math-period,686,1271471,2285.9150000149384,"",,,,,,,,,3
html-keyboard-response,687,1271578,null,"",null,,,,,,,,
math-period,688,1272724,null,"",,,,,,,,,
html-keyboard-response,689,1273730,null,"Recall Period!",null,,,,,,,,
call-function,690,1273732,,"",,,,,,,,,
html-keyboard-response,691,1273839,null,"",null,,,,,,,,
recall-period,692,1275482,6371.930000052089,"",,,,,,,,,feet
html-keyboard-response,693,1275588,null,"",null,,,,,,,,
recall-period,694,1276898,5647.199999919394,"",,,,,,,,,fries
html-keyboard-response,695,1277002,null,"",null,,,,,,,,
recall-period,696,1277919,3289.084999996703,"",,,,,,,,,space
html-keyboard-response,697,1278022,null,"",null,,,,,,,,
recall-period,698,1279383,5088.170000119135,"",,,,,,,,,pilot
html-keyboard-response,699,1279487,null,"",null,,,,,,,,
recall-period,700,1281176,6041.924999968614,"",,,,,,,,,resort
html-keyboard-response,701,1281279,null,"",null,,,,,,,,
recall-period,702,1282649,3887.765000050422,"",,,,,,,,,cake
html-keyboard-response,703,1282752,null,"",null,,,,,,,,
recall-period,704,1287946,26031.54500000528,"",,,,,,,,,beetle
html-keyboard-response,705,1288053,null,"",null,,,,,,,,
recall-period,706,1299321,53230.225000093924,"",,,,,,,,,walk
html-keyboard-response,707,1299425,null,"",null,,,,,,,,
recall-period,708,1302883,32502.609999792185,"",,,,,,,,,turquoise
html-keyboard-response,709,1302986,null,"",null,,,,,,,,
recall-period,710,1348738,null,"",,,,,,,,,
html-keyboard-response,711,1349243,null,"Time's Up!",null,,,,,,,,
html-keyboard-response,712,1353628,4382.509999995818,"<p> Good job! You responded correctly to 87% of the GREEN squares.</p>
                  <p>Be sure to keep your accuracy above 80%</p>
                  <p>Press any key to continue the experiment. Thank you!</p>",32,,,,,,,,
html-keyboard-response,713,1356662,3032.5599999923725,"<div style=""font-size:48px;"">Press any key to begin list 8 of 24 </div>",32,,,,,,,,
html-keyboard-response,714,1359169,null,"<div style=""font-size:60px;"">+</div>",null,,,,,,,,
html-keyboard-response,715,1359675,null,"APRON<img id = ""stim"" ><div class = green_square id = ""topsquare"" ></div><img id = ""stim"" ><div class = green_square  id = ""bottomsquare"" ></div>",null,word_square,response,1,Space,false,,,
html-keyboard-response,716,1361178,null,"APRON",null,word,,,,, 'APRON',,
html-keyboard-response,717,1361681,null,"HAND<img id = ""stim"" ><div class = red_square id = ""topsquare"" ></div><img id = ""stim"" ><div class = red_square  id = ""bottomsquare"" ></div>",null,word_square,response,0,none,true,,,
html-keyboard-response,718,1363185,null,"HAND",null,word,,,,, 'HAND',,
html-keyboard-response,719,1363534,346.14500001771376,"LITTER<img id = ""stim"" ><div class = green_square id = ""topsquare"" ></div><img id = ""stim"" ><div class = green_square  id = ""bottomsquare"" ></div>",32,word_square,response,1,Space,true,,,
html-keyboard-response,720,1365036,null,"LITTER",null,word,,,,, 'LITTER',,
html-keyboard-response,721,1365441,402.5450000190176,"SUBURB<img id = ""stim"" ><div class = green_square id = ""topsquare"" ></div><img id = ""stim"" ><div class = green_square  id = ""bottomsquare"" ></div>",32,word_square,response,1,Space,true,,,
html-keyboard-response,722,1366946,null,"SUBURB",null,word,,,,, 'SUBURB',,
html-keyboard-response,723,1367452,null,"BUTCHER<img id = ""stim"" ><div class = red_square id = ""topsquare"" ></div><img id = ""stim"" ><div class = red_square  id = ""bottomsquare"" ></div>",null,word_square,response,0,none,true,,,
html-keyboard-response,724,1368956,null,"BUTCHER",null,word,,,,, 'BUTCHER',,
html-keyboard-response,725,1369463,null,"LOFT<img id = ""stim"" ><div class = green_square id = ""topsquare"" ></div><img id = ""stim"" ><div class = green_square  id = ""bottomsquare"" ></div>",null,word_square,response,1,Space,false,,,
html-keyboard-response,726,1370966,null,"LOFT",null,word,,,,, 'LOFT',,
html-keyboard-response,727,1371468,null,"DORM<img id = ""stim"" ><div class = green_square id = ""topsquare"" ></div><img id = ""stim"" ><div class = green_square  id = ""bottomsquare"" ></div>",null,word_square,response,1,Space,false,,,
html-keyboard-response,728,1372972,null,"DORM",null,word,,,,, 'DORM',,
html-keyboard-response,729,1373479,null,"COUNTY<img id = ""stim"" ><div class = red_square id = ""topsquare"" ></div><img id = ""stim"" ><div class = red_square  id = ""bottomsquare"" ></div>",null,word_square,response,0,none,true,,,
html-keyboard-response,730,1374983,null,"COUNTY",null,word,,,,, 'COUNTY',,
html-keyboard-response,731,1375490,null,"BADGE<img id = ""stim"" ><div class = red_square id = ""topsquare"" ></div><img id = ""stim"" ><div class = red_square  id = ""bottomsquare"" ></div>",null,word_square,response,0,none,true,,,
html-keyboard-response,732,1376994,null,"BADGE",null,word,,,,, 'BADGE',,
html-keyboard-response,733,1377475,478.7450000003446,"TOASTER<img id = ""stim"" ><div class = green_square id = ""topsquare"" ></div><img id = ""stim"" ><div class = green_square  id = ""bottomsquare"" ></div>",32,word_square,response,1,Space,true,,,
html-keyboard-response,734,1378978,null,"TOASTER",null,word,,,,, 'TOASTER',,
html-keyboard-response,735,1379485,null,"COOKIE<img id = ""stim"" ><div class = red_square id = ""topsquare"" ></div><img id = ""stim"" ><div class = red_square  id = ""bottomsquare"" ></div>",null,word_square,response,0,none,true,,,
html-keyboard-response,736,1380988,null,"COOKIE",null,word,,,,, 'COOKIE',,
html-keyboard-response,737,1381351,361.1149999778718,"LEMON<img id = ""stim"" ><div class = green_square id = ""topsquare"" ></div><img id = ""stim"" ><div class = green_square  id = ""bottomsquare"" ></div>",32,word_square,response,1,Space,true,,,
html-keyboard-response,738,1382855,null,"LEMON",null,word,,,,, 'LEMON',,
html-keyboard-response,739,1383362,null,"CATTLE<img id = ""stim"" ><div class = green_square id = ""topsquare"" ></div><img id = ""stim"" ><div class = green_square  id = ""bottomsquare"" ></div>",null,word_square,response,1,Space,false,,,
html-keyboard-response,740,1384866,null,"CATTLE",null,word,,,,, 'CATTLE',,
html-keyboard-response,741,1385373,null,"SNOB<img id = ""stim"" ><div class = red_square id = ""topsquare"" ></div><img id = ""stim"" ><div class = red_square  id = ""bottomsquare"" ></div>",null,word_square,response,0,none,true,,,
html-keyboard-response,742,1386876,null,"SNOB",null,word,,,,, 'SNOB',,
html-keyboard-response,743,1387383,null,"DONKEY<img id = ""stim"" ><div class = red_square id = ""topsquare"" ></div><img id = ""stim"" ><div class = red_square  id = ""bottomsquare"" ></div>",null,word_square,response,0,none,true,,,
html-keyboard-response,744,1388887,null,"DONKEY",null,word,,,,, 'DONKEY',,
html-keyboard-response,745,1389394,null,"IDOL<img id = ""stim"" ><div class = red_square id = ""topsquare"" ></div><img id = ""stim"" ><div class = red_square  id = ""bottomsquare"" ></div>",null,word_square,response,0,none,true,,,
html-keyboard-response,746,1390898,null,"IDOL",null,word,,,,, 'IDOL',,
html-keyboard-response,747,1391359,458.3250000141561,"SANDWICH<img id = ""stim"" ><div class = green_square id = ""topsquare"" ></div><img id = ""stim"" ><div class = green_square  id = ""bottomsquare"" ></div>",32,word_square,response,1,Space,true,,,
html-keyboard-response,748,1392866,null,"SANDWICH",null,word,,,,, 'SANDWICH',,
html-keyboard-response,749,1393373,null,"DRAGON<img id = ""stim"" ><div class = red_square id = ""topsquare"" ></div><img id = ""stim"" ><div class = red_square  id = ""bottomsquare"" ></div>",null,word_square,response,0,none,true,,,
html-keyboard-response,750,1394876,null,"DRAGON",null,word,,,,, 'DRAGON',,
call-function,751,1394877,,"",,,,,,,,,
html-keyboard-response,752,1394984,null,"",null,,,,,,,,
math-period,753,1397604,5018.509999994421,"",,,,,,,,,0
html-keyboard-response,754,1397709,null,"",null,,,,,,,,
math-period,755,1400030,4474.480000033509,"",,,,,,,,,4
html-keyboard-response,756,1400136,null,"",null,,,,,,,,
math-period,757,1402517,4599.819999973988,"",,,,,,,,,5
html-keyboard-response,758,1402621,null,"",null,,,,,,,,
math-period,759,1404301,3235.76999999932,"",,,,,,,,,4
html-keyboard-response,760,1404405,null,"",null,,,,,,,,
math-period,761,1407045,5134.099999995669,"",,,,,,,,,2
html-keyboard-response,762,1407149,null,"",null,,,,,,,,
math-period,763,1408436,2403.85500001139,"",,,,,,,,,4
html-keyboard-response,764,1408541,null,"",null,,,,,,,,
math-period,765,1410269,3129.1850000270642,"",,,,,,,,,4
html-keyboard-response,766,1410376,null,"",null,,,,,,,,
math-period,767,1412196,3438.349999982165,"",,,,,,,,,3
html-keyboard-response,768,1412301,null,"",null,,,,,,,,
math-period,769,1414291,3494.8850000218954,"",,,,,,,,,1
html-keyboard-response,770,1414397,null,"",null,,,,,,,,
math-period,771,1415837,2779.0299999760464,"",,,,,,,,,3
html-keyboard-response,772,1415944,null,"",null,,,,,,,,
math-period,773,1418883,1794.4399999978486,"",,,,,,,,,5
html-keyboard-response,774,1419885,null,"Recall Period!",null,,,,,,,,
call-function,775,1419887,,"",,,,,,,,,
html-keyboard-response,776,1419992,null,"",null,,,,,,,,
recall-period,777,1421203,3833.8750000984874,"",,,,,,,,,apron
html-keyboard-response,778,1421309,null,"",null,,,,,,,,
recall-period,779,1422107,2199.6150000486523,"",,,,,,,,,hand
html-keyboard-response,780,1422211,null,"",null,,,,,,,,
recall-period,781,1424348,14907.895000069402,"",,,,,,,,,litter
html-keyboard-response,782,1424451,null,"",null,,,,,,,,
recall-period,783,1426282,6986.975000007078,"",,,,,,,,,suburb
html-keyboard-response,784,1426387,null,"",null,,,,,,,,
recall-period,785,1427448,2954.255000076955,"",,,,,,,,,loft
html-keyboard-response,786,1427551,null,"",null,,,,,,,,
recall-period,787,1428750,3113.905000005616,"",,,,,,,,,dorm
html-keyboard-response,788,1428856,null,"",null,,,,,,,,
recall-period,789,1431245,12817.964999994729,"",,,,,,,,,sandwich
html-keyboard-response,790,1431352,null,"",null,,,,,,,,
recall-period,791,1449938,123521.72999994946,"",,,,,,,,,duffel
html-keyboard-response,792,1450041,null,"",null,,,,,,,,
recall-period,793,1455643,30925.214999937452,"",,,,,,,,,badge
html-keyboard-response,794,1455747,null,"",null,,,,,,,,
recall-period,795,1494890,null,"",,,,,,,,,
html-keyboard-response,796,1495396,null,"Time's Up!",null,,,,,,,,
html-keyboard-response,797,1498501,3101.6599999857135,"<p> Good job! You responded correctly to 86% of the GREEN squares.</p>
                  <p>Be sure to keep your accuracy above 80%</p>
                  <p>Press any key to continue the experiment. Thank you!</p>",32,,,,,,,,
html-keyboard-response,798,1501415,2912.8250000067055,"<div style=""font-size:48px;"">Press any key to begin list 9 of 24 </div>",32,,,,,,,,
html-keyboard-response,799,1503925,null,"<div style=""font-size:60px;"">+</div>",null,,,,,,,,
html-keyboard-response,800,1504431,null,"ANKLE<img id = ""stim"" ><div class = red_square id = ""topsquare"" ></div><img id = ""stim"" ><div class = red_square  id = ""bottomsquare"" ></div>",null,word_square,response,0,none,true,,,
html-keyboard-response,801,1505937,null,"ANKLE",null,word,,,,, 'ANKLE',,
html-keyboard-response,802,1506442,null,"FAUCET<img id = ""stim"" ><div class = red_square id = ""topsquare"" ></div><img id = ""stim"" ><div class = red_square  id = ""bottomsquare"" ></div>",null,word_square,response,0,none,true,,,
html-keyboard-response,803,1507946,null,"FAUCET",null,word,,,,, 'FAUCET',,
html-keyboard-response,804,1508420,471.77999999257736,"DRUG<img id = ""stim"" ><div class = green_square id = ""topsquare"" ></div><img id = ""stim"" ><div class = green_square  id = ""bottomsquare"" ></div>",32,word_square,response,1,Space,true,,,
html-keyboard-response,805,1509925,null,"DRUG",null,word,,,,, 'DRUG',,
html-keyboard-response,806,1510432,null,"PEACH<img id = ""stim"" ><div class = red_square id = ""topsquare"" ></div><img id = ""stim"" ><div class = red_square  id = ""bottomsquare"" ></div>",null,word_square,response,0,none,true,,,
html-keyboard-response,807,1511936,null,"PEACH",null,word,,,,, 'PEACH',,
html-keyboard-response,808,1512332,394.9549999961164,"CITRUS<img id = ""stim"" ><div class = green_square id = ""topsquare"" ></div><img id = ""stim"" ><div class = green_square  id = ""bottomsquare"" ></div>",32,word_square,response,1,Space,true,,,
html-keyboard-response,809,1513838,null,"CITRUS",null,word,,,,, 'CITRUS',,
html-keyboard-response,810,1514311,472.0499999821186,"COURSE<img id = ""stim"" ><div class = green_square id = ""topsquare"" ></div><img id = ""stim"" ><div class = green_square  id = ""bottomsquare"" ></div>",32,word_square,response,1,Space,true,,,
html-keyboard-response,811,1515813,null,"COURSE",null,word,,,,, 'COURSE',,
html-keyboard-response,812,1516321,null,"KETCHUP<img id = ""stim"" ><div class = red_square id = ""topsquare"" ></div><img id = ""stim"" ><div class = red_square  id = ""bottomsquare"" ></div>",null,word_square,response,0,none,true,,,
html-keyboard-response,813,1517824,null,"KETCHUP",null,word,,,,, 'KETCHUP',,
html-keyboard-response,814,1518292,465.48999997321516,"WRIST<img id = ""stim"" ><div class = green_square id = ""topsquare"" ></div><img id = ""stim"" ><div class = green_square  id = ""bottomsquare"" ></div>",32,word_square,response,1,Space,true,,,
html-keyboard-response,815,1519797,null,"WRIST",null,word,,,,, 'WRIST',,
html-keyboard-response,816,1520218,417.9749999893829,"TULIP<img id = ""stim"" ><div class = green_square id = ""topsquare"" ></div><img id = ""stim"" ><div class = green_square  id = ""bottomsquare"" ></div>",32,word_square,response,1,Space,true,,,
html-keyboard-response,817,1521723,null,"TULIP",null,word,,,,, 'TULIP',,
html-keyboard-response,818,1522230,null,"WIFE<img id = ""stim"" ><div class = red_square id = ""topsquare"" ></div><img id = ""stim"" ><div class = red_square  id = ""bottomsquare"" ></div>",null,word_square,response,0,none,true,,,
html-keyboard-response,819,1523737,null,"WIFE",null,word,,,,, 'WIFE',,
html-keyboard-response,820,1524240,null,"PARTNER<img id = ""stim"" ><div class = red_square id = ""topsquare"" ></div><img id = ""stim"" ><div class = red_square  id = ""bottomsquare"" ></div>",null,word_square,response,0,none,true,,,
html-keyboard-response,821,1525744,null,"PARTNER",null,word,,,,, 'PARTNER',,
html-keyboard-response,822,1526251,null,"TRUMPET<img id = ""stim"" ><div class = green_square id = ""topsquare"" ></div><img id = ""stim"" ><div class = green_square  id = ""bottomsquare"" ></div>",null,word_square,response,1,Space,false,,,
html-keyboard-response,823,1527755,null,"TRUMPET",null,word,,,,, 'TRUMPET',,
html-keyboard-response,824,1528234,476.86000002431683,"BLADE<img id = ""stim"" ><div class = green_square id = ""topsquare"" ></div><img id = ""stim"" ><div class = green_square  id = ""bottomsquare"" ></div>",32,word_square,response,1,Space,true,,,
html-keyboard-response,825,1529739,null,"BLADE",null,word,,,,, 'BLADE',,
html-keyboard-response,826,1530246,null,"GIFT<img id = ""stim"" ><div class = red_square id = ""topsquare"" ></div><img id = ""stim"" ><div class = red_square  id = ""bottomsquare"" ></div>",null,word_square,response,0,none,true,,,
html-keyboard-response,827,1531750,null,"GIFT",null,word,,,,, 'GIFT',,
html-keyboard-response,828,1532081,329.0850000048522,"MUSTARD<img id = ""stim"" ><div class = red_square id = ""topsquare"" ></div><img id = ""stim"" ><div class = red_square  id = ""bottomsquare"" ></div>",32,word_square,response,0,none,false,,,
html-keyboard-response,829,1533584,null,"MUSTARD",null,word,,,,, 'MUSTARD',,
html-keyboard-response,830,1534091,null,"PLAQUE<img id = ""stim"" ><div class = green_square id = ""topsquare"" ></div><img id = ""stim"" ><div class = green_square  id = ""bottomsquare"" ></div>",null,word_square,response,1,Space,false,,,
html-keyboard-response,831,1535596,null,"PLAQUE",null,word,,,,, 'PLAQUE',,
html-keyboard-response,832,1536102,null,"LETTUCE<img id = ""stim"" ><div class = red_square id = ""topsquare"" ></div><img id = ""stim"" ><div class = red_square  id = ""bottomsquare"" ></div>",null,word_square,response,0,none,true,,,
html-keyboard-response,833,1537606,null,"LETTUCE",null,word,,,,, 'LETTUCE',,
html-keyboard-response,834,1538088,480.0550000218209,"FUNGUS<img id = ""stim"" ><div class = green_square id = ""topsquare"" ></div><img id = ""stim"" ><div class = green_square  id = ""bottomsquare"" ></div>",32,word_square,response,1,Space,true,,,
html-keyboard-response,835,1539595,null,"FUNGUS",null,word,,,,, 'FUNGUS',,
call-function,836,1539597,,"",,,,,,,,,
html-keyboard-response,837,1539702,null,"",null,,,,,,,,
math-period,838,1541965,4309.584999980871,"",,,,,,,,,2
html-keyboard-response,839,1542070,null,"",null,,,,,,,,
math-period,840,1543755,3159.4200000108685,"",,,,,,,,,4
html-keyboard-response,841,1543862,null,"",null,,,,,,,,
math-period,842,1547504,7030.805000016699,"",,,,,,,,,1
html-keyboard-response,843,1547606,null,"",null,,,,,,,,
math-period,844,1551774,8185.8850000135135,"",,,,,,,,,3
html-keyboard-response,845,1551878,null,"",null,,,,,,,,
math-period,846,1553068,2189.524999994319,"",,,,,,,,,5
html-keyboard-response,847,1553174,null,"",null,,,,,,,,
math-period,848,1558009,9524.330000014743,"",,,,,,,,,2
html-keyboard-response,849,1558113,null,"",null,,,,,,,,
math-period,850,1559567,2702.9299999703653,"",,,,,,,,,4
html-keyboard-response,851,1559671,null,"",null,,,,,,,,
math-period,852,1560782,2062.275000003865,"",,,,,,,,,3
html-keyboard-response,853,1560886,null,"",null,,,,,,,,
math-period,854,1562275,2539.3999999796506,"",,,,,,,,,3
html-keyboard-response,855,1562380,null,"",null,,,,,,,,
math-period,856,1563292,1629.9700000090525,"",,,,,,,,,3
html-keyboard-response,857,1563398,null,"",null,,,,,,,,
math-period,858,1563601,null,"",,,,,,,,,
html-keyboard-response,859,1564604,null,"Recall Period!",null,,,,,,,,
call-function,860,1564605,,"",,,,,,,,,
html-keyboard-response,861,1564711,null,"",null,,,,,,,,
recall-period,862,1566678,9010.205000027781,"",,,,,,,,,ketchup
html-keyboard-response,863,1566785,null,"",null,,,,,,,,
recall-period,864,1567945,3490.525000030175,"",,,,,,,,,wife
html-keyboard-response,865,1568049,null,"",null,,,,,,,,
recall-period,866,1569635,6109.295000002021,"",,,,,,,,,tulip
html-keyboard-response,867,1569740,null,"",null,,,,,,,,
recall-period,868,1571870,5343.22500001872,"",,,,,,,,,blade
html-keyboard-response,869,1571974,null,"",null,,,,,,,,
recall-period,870,1574820,15556.800000020303,"",,,,,,,,,spouse
html-keyboard-response,871,1574924,null,"",null,,,,,,,,
recall-period,872,1577273,10828.204999997979,"",,,,,,,,,ankle
html-keyboard-response,873,1577377,null,"",null,,,,,,,,
recall-period,874,1584819,40545.95499995048,"",,,,,,,,,knife
html-keyboard-response,875,1584924,null,"",null,,,,,,,,
recall-period,876,1608360,224401.41500011669,"",,,,,,,,,cottage
html-keyboard-response,877,1608466,null,"",null,,,,,,,,
recall-period,878,1639608,null,"",,,,,,,,,
html-keyboard-response,879,1640115,null,"Time's Up!",null,,,,,,,,
html-keyboard-response,880,1642126,2008.334999991348,"<p> Good job! You responded correctly to 86% of the GREEN squares.</p>
                  <p>Be sure to keep your accuracy above 80%</p>
                  <p>Press any key to continue the experiment. Thank you!</p>",32,,,,,,,,
html-keyboard-response,881,1646190,4063.1050000083633,"<div style=""font-size:48px;"">Press any key to begin list 10 of 24 </div>",32,,,,,,,,
html-keyboard-response,882,1648696,null,"<div style=""font-size:60px;"">+</div>",null,,,,,,,,
html-keyboard-response,883,1649203,null,"DIVER<img id = ""stim"" ><div class = red_square id = ""topsquare"" ></div><img id = ""stim"" ><div class = red_square  id = ""bottomsquare"" ></div>",null,word_square,response,0,none,true,,,
html-keyboard-response,884,1650706,null,"DIVER",null,word,,,,, 'DIVER',,
html-keyboard-response,885,1651209,null,"BROOK<img id = ""stim"" ><div class = red_square id = ""topsquare"" ></div><img id = ""stim"" ><div class = red_square  id = ""bottomsquare"" ></div>",null,word_square,response,0,none,true,,,
html-keyboard-response,886,1652713,null,"BROOK",null,word,,,,, 'BROOK',,
html-keyboard-response,887,1653160,444.52499999897555,"COSTUME<img id = ""stim"" ><div class = green_square id = ""topsquare"" ></div><img id = ""stim"" ><div class = green_square  id = ""bottomsquare"" ></div>",32,word_square,response,1,Space,true,,,
html-keyboard-response,888,1654665,null,"COSTUME",null,word,,,,, 'COSTUME',,
html-keyboard-response,889,1655172,null,"ASIA<img id = ""stim"" ><div class = red_square id = ""topsquare"" ></div><img id = ""stim"" ><div class = red_square  id = ""bottomsquare"" ></div>",null,word_square,response,0,none,true,,,
html-keyboard-response,890,1656675,null,"ASIA",null,word,,,,, 'ASIA',,
html-keyboard-response,891,1657182,null,"JOINT<img id = ""stim"" ><div class = green_square id = ""topsquare"" ></div><img id = ""stim"" ><div class = green_square  id = ""bottomsquare"" ></div>",null,word_square,response,1,Space,false,,,
html-keyboard-response,892,1658686,null,"JOINT",null,word,,,,, 'JOINT',,
html-keyboard-response,893,1659182,493.41000002459623,"SERVER<img id = ""stim"" ><div class = green_square id = ""topsquare"" ></div><img id = ""stim"" ><div class = green_square  id = ""bottomsquare"" ></div>",32,word_square,response,1,Space,true,,,
html-keyboard-response,894,1660686,null,"SERVER",null,word,,,,, 'SERVER',,
html-keyboard-response,895,1661193,null,"DRESSER<img id = ""stim"" ><div class = red_square id = ""topsquare"" ></div><img id = ""stim"" ><div class = red_square  id = ""bottomsquare"" ></div>",null,word_square,response,0,none,true,,,
html-keyboard-response,896,1662697,null,"DRESSER",null,word,,,,, 'DRESSER',,
html-keyboard-response,897,1663204,null,"LASER<img id = ""stim"" ><div class = green_square id = ""topsquare"" ></div><img id = ""stim"" ><div class = green_square  id = ""bottomsquare"" ></div>",null,word_square,response,1,Space,false,,,
html-keyboard-response,898,1664708,null,"LASER",null,word,,,,, 'LASER',,
html-keyboard-response,899,1665200,489.8799999791663,"SNEAKER<img id = ""stim"" ><div class = green_square id = ""topsquare"" ></div><img id = ""stim"" ><div class = green_square  id = ""bottomsquare"" ></div>",32,word_square,response,1,Space,true,,,
html-keyboard-response,900,1666702,null,"SNEAKER",null,word,,,,, 'SNEAKER',,
html-keyboard-response,901,1667209,null,"STATUE<img id = ""stim"" ><div class = red_square id = ""topsquare"" ></div><img id = ""stim"" ><div class = red_square  id = ""bottomsquare"" ></div>",null,word_square,response,0,none,true,,,
html-keyboard-response,902,1668713,null,"STATUE",null,word,,,,, 'STATUE',,
html-keyboard-response,903,1669220,null,"SKETCH<img id = ""stim"" ><div class = red_square id = ""topsquare"" ></div><img id = ""stim"" ><div class = red_square  id = ""bottomsquare"" ></div>",null,word_square,response,0,none,true,,,
html-keyboard-response,904,1670724,null,"SKETCH",null,word,,,,, 'SKETCH',,
html-keyboard-response,905,1670996,269.94999998714775,"RULER<img id = ""stim"" ><div class = green_square id = ""topsquare"" ></div><img id = ""stim"" ><div class = green_square  id = ""bottomsquare"" ></div>",32,word_square,response,1,Space,true,,,
html-keyboard-response,906,1672500,null,"RULER",null,word,,,,, 'RULER',,
html-keyboard-response,907,1673007,null,"BUBBLE<img id = ""stim"" ><div class = green_square id = ""topsquare"" ></div><img id = ""stim"" ><div class = green_square  id = ""bottomsquare"" ></div>",null,word_square,response,1,Space,false,,,
html-keyboard-response,908,1674510,null,"BUBBLE",null,word,,,,, 'BUBBLE',,
html-keyboard-response,909,1675017,null,"MOTHER<img id = ""stim"" ><div class = red_square id = ""topsquare"" ></div><img id = ""stim"" ><div class = red_square  id = ""bottomsquare"" ></div>",null,word_square,response,0,none,true,,,
html-keyboard-response,910,1676521,null,"MOTHER",null,word,,,,, 'MOTHER',,
html-keyboard-response,911,1677029,null,"GREASE<img id = ""stim"" ><div class = red_square id = ""topsquare"" ></div><img id = ""stim"" ><div class = red_square  id = ""bottomsquare"" ></div>",null,word_square,response,0,none,true,,,
html-keyboard-response,912,1678532,null,"GREASE",null,word,,,,, 'GREASE',,
html-keyboard-response,913,1679036,null,"SHEPHERD<img id = ""stim"" ><div class = green_square id = ""topsquare"" ></div><img id = ""stim"" ><div class = green_square  id = ""bottomsquare"" ></div>",null,word_square,response,1,Space,false,,,
html-keyboard-response,914,1680543,null,"SHEPHERD",null,word,,,,, 'SHEPHERD',,
html-keyboard-response,915,1681050,null,"BATHTUB<img id = ""stim"" ><div class = red_square id = ""topsquare"" ></div><img id = ""stim"" ><div class = red_square  id = ""bottomsquare"" ></div>",null,word_square,response,0,none,true,,,
html-keyboard-response,916,1682554,null,"BATHTUB",null,word,,,,, 'BATHTUB',,
