trial_type,trial_index,time_elapsed,rt,stimulus,key_press,test_part,task,targ_cond,correctKeyCode,correct,word,value,response
pavlovia,0,2767,,"",,,,,,,,,
external-html,1,61315,58317.09000000046,"",,,,,,,,,
html-keyboard-response,2,63447,2124.3200000008073,"Welcome to the experiment. Press any key to begin.",32,,,,,,,,
html-keyboard-response,3,72620,9169.825000000856,"<p>You will see a list of words and colored squares in the following task.<p><p>Press the spacebar whenever you see a GREEN square.<p><p>Do not press a key if the square is RED<p><p>Press the spacebar to continue.</p>",32,,,,,,,,
html-keyboard-response,4,82364,9242.714999998498,"<p>Please try to remember as many of the words as you can, and try to think about the meaning of each word as it appears.<p><p>After the detection and encoding task you will be asked to solve some math problems for 24 seconds.<p> Please solve as many problems as you can in the time given. <p>",32,,,,,,,,
html-keyboard-response,5,88440,5572.845000000598,"After solving the math problems, you will be asked to type in as many words <p>from the previous list as you can remember for 75 seconds.<p> If you finish recalling before the 75 seconds are up,<p> just sit tight and try to think of any more words you could have missed. <p><p>We will begin with a brief practice session<p>Press the spacebar to begin the practice.</p>",32,,,,,,,,
html-keyboard-response,6,90943,null,"<div style=""font-size:60px;"">+</div>",null,,,,,,,,
html-keyboard-response,7,91448,null,"HAPPY<img id = ""stim"" ><div class = red_square id = ""topsquare"" ></div><img id = ""stim"" ><div class = red_square  id = ""bottomsquare"" ></div>",null,word_square,prac_response,0,none,true,,,
html-keyboard-response,8,92951,null,"HAPPY",null,word,,,,,HAPPY,,
html-keyboard-response,9,93456,null,"COLD<img id = ""stim"" ><div class = green_square id = ""topsquare"" ></div><img id = ""stim"" ><div class = green_square  id = ""bottomsquare"" ></div>",null,word_square,prac_response,1,Space,false,,,
html-keyboard-response,10,94961,null,"COLD",null,word,,,,,COLD,,
html-keyboard-response,11,95468,418.68000000067696,"HEAVY<img id = ""stim"" ><div class = green_square id = ""topsquare"" ></div><img id = ""stim"" ><div class = green_square  id = ""bottomsquare"" ></div>",32,word_square,prac_response,1,Space,true,,,
html-keyboard-response,12,96971,null,"HEAVY",null,word,,,,,HEAVY,,
html-keyboard-response,13,97478,null,"FUNNY<img id = ""stim"" ><div class = red_square id = ""topsquare"" ></div><img id = ""stim"" ><div class = red_square  id = ""bottomsquare"" ></div>",null,word_square,prac_response,0,none,true,,,
html-keyboard-response,14,98980,null,"FUNNY",null,word,,,,,FUNNY,,
html-keyboard-response,15,99486,null,"SCARY<img id = ""stim"" ><div class = green_square id = ""topsquare"" ></div><img id = ""stim"" ><div class = green_square  id = ""bottomsquare"" ></div>",null,word_square,prac_response,1,Space,false,,,
html-keyboard-response,16,100990,null,"SCARY",null,word,,,,,SCARY,,
html-keyboard-response,17,101495,null,"PEACEFUL<img id = ""stim"" ><div class = green_square id = ""topsquare"" ></div><img id = ""stim"" ><div class = green_square  id = ""bottomsquare"" ></div>",null,word_square,prac_response,1,Space,false,,,
html-keyboard-response,18,103002,null,"PEACEFUL",null,word,,,,,PEACEFUL,,
html-keyboard-response,19,103506,null,"LITTLE<img id = ""stim"" ><div class = red_square id = ""topsquare"" ></div><img id = ""stim"" ><div class = red_square  id = ""bottomsquare"" ></div>",null,word_square,prac_response,0,none,true,,,
html-keyboard-response,20,105010,null,"LITTLE",null,word,,,,,LITTLE,,
html-keyboard-response,21,105515,null,"TIRED<img id = ""stim"" ><div class = red_square id = ""topsquare"" ></div><img id = ""stim"" ><div class = red_square  id = ""bottomsquare"" ></div>",null,word_square,prac_response,0,none,true,,,
html-keyboard-response,22,107021,null,"TIRED",null,word,,,,,TIRED,,
html-keyboard-response,23,107526,null,"ENTERTAINING<img id = ""stim"" ><div class = red_square id = ""topsquare"" ></div><img id = ""stim"" ><div class = red_square  id = ""bottomsquare"" ></div>",null,word_square,prac_response,0,none,true,,,
html-keyboard-response,24,109028,null,"ENTERTAINING",null,word,,,,,ENTERTAINING,,
html-keyboard-response,25,109534,370.8599999990838,"GRATEFUL<img id = ""stim"" ><div class = green_square id = ""topsquare"" ></div><img id = ""stim"" ><div class = green_square  id = ""bottomsquare"" ></div>",32,word_square,prac_response,1,Space,true,,,
html-keyboard-response,26,111039,null,"GRATEFUL",null,word,,,,,GRATEFUL,,
html-keyboard-response,27,111546,null,"LOUD<img id = ""stim"" ><div class = red_square id = ""topsquare"" ></div><img id = ""stim"" ><div class = red_square  id = ""bottomsquare"" ></div>",null,word_square,prac_response,0,none,true,,,
html-keyboard-response,28,113048,null,"LOUD",null,word,,,,,LOUD,,
html-keyboard-response,29,113552,326.24500000019907,"SMART<img id = ""stim"" ><div class = green_square id = ""topsquare"" ></div><img id = ""stim"" ><div class = green_square  id = ""bottomsquare"" ></div>",32,word_square,prac_response,1,Space,true,,,
html-keyboard-response,30,115055,null,"SMART",null,word,,,,,SMART,,
html-keyboard-response,31,115562,432.344999999259,"SMOOTH<img id = ""stim"" ><div class = green_square id = ""topsquare"" ></div><img id = ""stim"" ><div class = green_square  id = ""bottomsquare"" ></div>",32,word_square,prac_response,1,Space,true,,,
html-keyboard-response,32,117064,null,"SMOOTH",null,word,,,,,SMOOTH,,
html-keyboard-response,33,117568,null,"DISHONEST<img id = ""stim"" ><div class = red_square id = ""topsquare"" ></div><img id = ""stim"" ><div class = red_square  id = ""bottomsquare"" ></div>",null,word_square,prac_response,0,none,true,,,
html-keyboard-response,34,119070,null,"DISHONEST",null,word,,,,,DISHONEST,,
html-keyboard-response,35,119575,null,"WEALTHY<img id = ""stim"" ><div class = green_square id = ""topsquare"" ></div><img id = ""stim"" ><div class = green_square  id = ""bottomsquare"" ></div>",null,word_square,prac_response,1,Space,false,,,
html-keyboard-response,36,121079,null,"WEALTHY",null,word,,,,,WEALTHY,,
html-keyboard-response,37,121582,null,"BEAUTIFUL<img id = ""stim"" ><div class = red_square id = ""topsquare"" ></div><img id = ""stim"" ><div class = red_square  id = ""bottomsquare"" ></div>",null,word_square,prac_response,0,none,true,,,
html-keyboard-response,38,123085,null,"BEAUTIFUL",null,word,,,,,BEAUTIFUL,,
html-keyboard-response,39,123592,null,"DREARY<img id = ""stim"" ><div class = red_square id = ""topsquare"" ></div><img id = ""stim"" ><div class = red_square  id = ""bottomsquare"" ></div>",null,word_square,prac_response,0,none,true,,,
html-keyboard-response,40,125094,null,"DREARY",null,word,,,,,DREARY,,
html-keyboard-response,41,125598,389.6399999994319,"PLAYFUL<img id = ""stim"" ><div class = green_square id = ""topsquare"" ></div><img id = ""stim"" ><div class = green_square  id = ""bottomsquare"" ></div>",32,word_square,prac_response,1,Space,true,,,
html-keyboard-response,42,127104,null,"PLAYFUL",null,word,,,,,PLAYFUL,,
html-keyboard-response,43,136933,9825.78999999896,"<p> Uh oh. You responded correctly on 78% of the GREEN squares.</p>
                  <p>We need you keep your accuracy above 80%</p>
                  <p>We're going to try once more to make sure you understand the task. press any key to continue.</p>",32,,,,,,,,
html-keyboard-response,44,159134,22198.96499999959,"<p>You will see a list of words and colored squares in the following task.<p><p>Press the spacebar whenever you see a GREEN square.<p><p>Do not press a key if the square is RED<p><p>Press the spacebar to continue.</p>",32,,,,,,,,
html-keyboard-response,45,161641,null,"<div style=""font-size:60px;"">+</div>",null,,,,,,,,
html-keyboard-response,46,162149,null,"HAPPY<img id = ""stim"" ><div class = red_square id = ""topsquare"" ></div><img id = ""stim"" ><div class = red_square  id = ""bottomsquare"" ></div>",null,word_square,response,0,none,true,,,
html-keyboard-response,47,163653,null,"HAPPY",null,word,,,,,HAPPY,,
html-keyboard-response,48,164159,null,"COLD<img id = ""stim"" ><div class = green_square id = ""topsquare"" ></div><img id = ""stim"" ><div class = green_square  id = ""bottomsquare"" ></div>",null,word_square,response,1,Space,false,,,
html-keyboard-response,49,165662,null,"COLD",null,word,,,,,COLD,,
html-keyboard-response,50,166095,431.02499999987776,"HEAVY<img id = ""stim"" ><div class = green_square id = ""topsquare"" ></div><img id = ""stim"" ><div class = green_square  id = ""bottomsquare"" ></div>",32,word_square,response,1,Space,true,,,
html-keyboard-response,51,167602,null,"HEAVY",null,word,,,,,HEAVY,,
html-keyboard-response,52,168105,null,"FUNNY<img id = ""stim"" ><div class = red_square id = ""topsquare"" ></div><img id = ""stim"" ><div class = red_square  id = ""bottomsquare"" ></div>",null,word_square,response,0,none,true,,,
html-keyboard-response,53,169608,null,"FUNNY",null,word,,,,,FUNNY,,
html-keyboard-response,54,170106,495.6750000001339,"SCARY<img id = ""stim"" ><div class = green_square id = ""topsquare"" ></div><img id = ""stim"" ><div class = green_square  id = ""bottomsquare"" ></div>",32,word_square,response,1,Space,true,,,
html-keyboard-response,55,171611,null,"SCARY",null,word,,,,,SCARY,,
html-keyboard-response,56,172117,null,"PEACEFUL<img id = ""stim"" ><div class = green_square id = ""topsquare"" ></div><img id = ""stim"" ><div class = green_square  id = ""bottomsquare"" ></div>",null,word_square,response,1,Space,false,,,
html-keyboard-response,57,173623,null,"PEACEFUL",null,word,,,,,PEACEFUL,,
html-keyboard-response,58,174127,null,"LITTLE<img id = ""stim"" ><div class = red_square id = ""topsquare"" ></div><img id = ""stim"" ><div class = red_square  id = ""bottomsquare"" ></div>",null,word_square,response,0,none,true,,,
html-keyboard-response,59,175630,null,"LITTLE",null,word,,,,,LITTLE,,
html-keyboard-response,60,176137,null,"TIRED<img id = ""stim"" ><div class = red_square id = ""topsquare"" ></div><img id = ""stim"" ><div class = red_square  id = ""bottomsquare"" ></div>",null,word_square,response,0,none,true,,,
html-keyboard-response,61,177641,null,"TIRED",null,word,,,,,TIRED,,
html-keyboard-response,62,178143,null,"ENTERTAINING<img id = ""stim"" ><div class = red_square id = ""topsquare"" ></div><img id = ""stim"" ><div class = red_square  id = ""bottomsquare"" ></div>",null,word_square,response,0,none,true,,,
html-keyboard-response,63,179647,null,"ENTERTAINING",null,word,,,,,ENTERTAINING,,
html-keyboard-response,64,180083,433.5849999988568,"GRATEFUL<img id = ""stim"" ><div class = green_square id = ""topsquare"" ></div><img id = ""stim"" ><div class = green_square  id = ""bottomsquare"" ></div>",32,word_square,response,1,Space,true,,,
html-keyboard-response,65,181590,null,"GRATEFUL",null,word,,,,,GRATEFUL,,
html-keyboard-response,66,182096,null,"LOUD<img id = ""stim"" ><div class = red_square id = ""topsquare"" ></div><img id = ""stim"" ><div class = red_square  id = ""bottomsquare"" ></div>",null,word_square,response,0,none,true,,,
html-keyboard-response,67,183600,null,"LOUD",null,word,,,,,LOUD,,
html-keyboard-response,68,183957,355.7550000004994,"SMART<img id = ""stim"" ><div class = green_square id = ""topsquare"" ></div><img id = ""stim"" ><div class = green_square  id = ""bottomsquare"" ></div>",32,word_square,response,1,Space,true,,,
html-keyboard-response,69,185462,null,"SMART",null,word,,,,,SMART,,
html-keyboard-response,70,185892,428.05500000034226,"SMOOTH<img id = ""stim"" ><div class = green_square id = ""topsquare"" ></div><img id = ""stim"" ><div class = green_square  id = ""bottomsquare"" ></div>",32,word_square,response,1,Space,true,,,
html-keyboard-response,71,187397,null,"SMOOTH",null,word,,,,,SMOOTH,,
html-keyboard-response,72,187903,null,"DISHONEST<img id = ""stim"" ><div class = red_square id = ""topsquare"" ></div><img id = ""stim"" ><div class = red_square  id = ""bottomsquare"" ></div>",null,word_square,response,0,none,true,,,
html-keyboard-response,73,189407,null,"DISHONEST",null,word,,,,,DISHONEST,,
html-keyboard-response,74,189807,397.73000000059255,"WEALTHY<img id = ""stim"" ><div class = green_square id = ""topsquare"" ></div><img id = ""stim"" ><div class = green_square  id = ""bottomsquare"" ></div>",32,word_square,response,1,Space,true,,,
html-keyboard-response,75,191310,null,"WEALTHY",null,word,,,,,WEALTHY,,
html-keyboard-response,76,191814,null,"BEAUTIFUL<img id = ""stim"" ><div class = red_square id = ""topsquare"" ></div><img id = ""stim"" ><div class = red_square  id = ""bottomsquare"" ></div>",null,word_square,response,0,none,true,,,
html-keyboard-response,77,193320,null,"BEAUTIFUL",null,word,,,,,BEAUTIFUL,,
html-keyboard-response,78,193826,null,"DREARY<img id = ""stim"" ><div class = red_square id = ""topsquare"" ></div><img id = ""stim"" ><div class = red_square  id = ""bottomsquare"" ></div>",null,word_square,response,0,none,true,,,
html-keyboard-response,79,195328,null,"DREARY",null,word,,,,,DREARY,,
html-keyboard-response,80,195734,402.2249999998312,"PLAYFUL<img id = ""stim"" ><div class = green_square id = ""topsquare"" ></div><img id = ""stim"" ><div class = green_square  id = ""bottomsquare"" ></div>",32,word_square,response,1,Space,true,,,
html-keyboard-response,81,197238,null,"PLAYFUL",null,word,,,,,PLAYFUL,,
html-keyboard-response,82,202405,5164.099999999977,"<p> Good job! You responded correctly to 89% of the GREEN squares.</p>
                  <p>Be sure to keep your accuracy above 80%</p>
                  <p>Press any key to begin the math and recall sections. Thank you!</p>",32,,,,,,,,
call-function,83,202406,,"",,,,,,,,,
html-keyboard-response,84,202509,null,"",null,,,,,,,,
math-period,85,206428,7082.060000000638,"",,,,,,,,,5
html-keyboard-response,86,206531,null,"",null,,,,,,,,
math-period,87,209094,4983.9899999988265,"",,,,,,,,,5
html-keyboard-response,88,209198,null,"",null,,,,,,,,
math-period,89,211073,3607.4900000002817,"",,,,,,,,,2
html-keyboard-response,90,211176,null,"",null,,,,,,,,
math-period,91,213510,7588.389999998995,"",,,,,,,,,1
html-keyboard-response,92,213614,null,"",null,,,,,,,,
math-period,93,215369,3380.8950000002224,"",,,,,,,,,4
html-keyboard-response,94,215473,null,"",null,,,,,,,,
math-period,95,216713,2377.7449999980163,"",,,,,,,,,4
html-keyboard-response,96,216816,null,"",null,,,,,,,,
math-period,97,217646,1557.784999999043,"",,,,,,,,,4
html-keyboard-response,98,217751,null,"",null,,,,,,,,
math-period,99,218893,2163.5550000009825,"",,,,,,,,,3
html-keyboard-response,100,218996,null,"",null,,,,,,,,
math-period,101,220513,2938.5649999986053,"",,,,,,,,,1
html-keyboard-response,102,220616,null,"",null,,,,,,,,
math-period,103,222249,3214.40500000061,"",,,,,,,,,2
html-keyboard-response,104,222352,null,"",null,,,,,,,,
math-period,105,224081,3343.194999999454,"",,,,,,,,,4
html-keyboard-response,106,224185,null,"",null,,,,,,,,
math-period,107,225666,2894.17500000124,"",,,,,,,,,5
html-keyboard-response,108,225769,null,"",null,,,,,,,,
math-period,109,226411,null,"",,,,,,,,,
html-keyboard-response,110,227417,null,"Recall Period!",null,,,,,,,,
call-function,111,227418,,"",,,,,,,,,
html-keyboard-response,112,227520,null,"",null,,,,,,,,
recall-period,113,230344,14288.505000000354,"",,,,,,,,,Cold
html-keyboard-response,114,230448,null,"",null,,,,,,,,
recall-period,115,233982,22332.40499999735,"",,,,,,,,,Little
html-keyboard-response,116,234084,null,"",null,,,,,,,,
recall-period,117,236877,19519.750000005093,"",,,,,,,,,Belittle
html-keyboard-response,118,236980,null,"",null,,,,,,,,
recall-period,119,244335,48034.515000001295,"",,,,,,,,,Scary
html-keyboard-response,120,244438,null,"",null,,,,,,,,
recall-period,121,251539,84873.04999999108,"",,,,,,,,,Entertaining
html-keyboard-response,122,251643,null,"",null,,,,,,,,
recall-period,123,255485,16763.369999995077,"",,,,,,,,,Fun
html-keyboard-response,124,255588,null,"",null,,,,,,,,
recall-period,125,265526,101564.98000000266,"",,,,,,,,,Beautiful
html-keyboard-response,126,265628,null,"",null,,,,,,,,
recall-period,127,267432,7545.279999996594,"",,,,,,,,,Sad
html-keyboard-response,128,267534,null,"",null,,,,,,,,
recall-period,129,302424,4470.010000000941,"",,,,,,,,,undefined
html-keyboard-response,130,302929,null,"Time's Up!",null,,,,,,,,
html-keyboard-response,131,310324,7394.130000000587,"<p>We will now begin the experiment!<p><p>Please try to remember all words from each list.<p><p>Press the spacebar whenever you see a GREEN square.<p><p><p><p>Press the spacebar to begin.</p>",32,,,,,,,,
html-keyboard-response,132,314597,3770.7649999993155,"<div style=""font-size:48px;"">Press any key to begin list 1 of 24 </div>",32,,,,,,,,
html-keyboard-response,133,317101,null,"<div style=""font-size:60px;"">+</div>",null,,,,,,,,
html-keyboard-response,134,317490,386.44999999995343,"PITCHFORK<img id = ""stim"" ><div class = green_square id = ""topsquare"" ></div><img id = ""stim"" ><div class = green_square  id = ""bottomsquare"" ></div>",32,word_square,response,1,Space,true,,,
html-keyboard-response,135,318993,null,"PITCHFORK",null,word,,,,, 'PITCHFORK',,
html-keyboard-response,136,319458,462.86999999941327,"SPACE<img id = ""stim"" ><div class = green_square id = ""topsquare"" ></div><img id = ""stim"" ><div class = green_square  id = ""bottomsquare"" ></div>",32,word_square,response,1,Space,true,,,
html-keyboard-response,137,320965,null,"SPACE",null,word,,,,, 'SPACE',,
html-keyboard-response,138,321467,null,"PARROT<img id = ""stim"" ><div class = red_square id = ""topsquare"" ></div><img id = ""stim"" ><div class = red_square  id = ""bottomsquare"" ></div>",null,word_square,response,0,none,true,,,
html-keyboard-response,139,322970,null,"PARROT",null,word,,,,, 'PARROT',,
html-keyboard-response,140,323473,null,"SAUSAGE<img id = ""stim"" ><div class = red_square id = ""topsquare"" ></div><img id = ""stim"" ><div class = red_square  id = ""bottomsquare"" ></div>",null,word_square,response,0,none,true,,,
html-keyboard-response,141,324977,null,"SAUSAGE",null,word,,,,, 'SAUSAGE',,
html-keyboard-response,142,325452,473.61000000091735,"CEILING<img id = ""stim"" ><div class = green_square id = ""topsquare"" ></div><img id = ""stim"" ><div class = green_square  id = ""bottomsquare"" ></div>",32,word_square,response,1,Space,true,,,
html-keyboard-response,143,326955,null,"CEILING",null,word,,,,, 'CEILING',,
html-keyboard-response,144,327460,null,"TILE<img id = ""stim"" ><div class = red_square id = ""topsquare"" ></div><img id = ""stim"" ><div class = red_square  id = ""bottomsquare"" ></div>",null,word_square,response,0,none,true,,,
html-keyboard-response,145,328963,null,"TILE",null,word,,,,, 'TILE',,
html-keyboard-response,146,329440,475.1849999993574,"LIPSTICK<img id = ""stim"" ><div class = green_square id = ""topsquare"" ></div><img id = ""stim"" ><div class = green_square  id = ""bottomsquare"" ></div>",32,word_square,response,1,Space,true,,,
html-keyboard-response,147,330943,null,"LIPSTICK",null,word,,,,, 'LIPSTICK',,
html-keyboard-response,148,331447,null,"EYELASH<img id = ""stim"" ><div class = red_square id = ""topsquare"" ></div><img id = ""stim"" ><div class = red_square  id = ""bottomsquare"" ></div>",null,word_square,response,0,none,true,,,
html-keyboard-response,149,332952,null,"EYELASH",null,word,,,,, 'EYELASH',,
html-keyboard-response,150,333455,null,"COSTUME<img id = ""stim"" ><div class = red_square id = ""topsquare"" ></div><img id = ""stim"" ><div class = red_square  id = ""bottomsquare"" ></div>",null,word_square,response,0,none,true,,,
html-keyboard-response,151,334959,null,"COSTUME",null,word,,,,, 'COSTUME',,
html-keyboard-response,152,335301,339.92000000033295,"BLOSSOM<img id = ""stim"" ><div class = green_square id = ""topsquare"" ></div><img id = ""stim"" ><div class = green_square  id = ""bottomsquare"" ></div>",32,word_square,response,1,Space,true,,,
html-keyboard-response,153,336804,null,"BLOSSOM",null,word,,,,, 'BLOSSOM',,
html-keyboard-response,154,337306,null,"SERVER<img id = ""stim"" ><div class = red_square id = ""topsquare"" ></div><img id = ""stim"" ><div class = red_square  id = ""bottomsquare"" ></div>",null,word_square,response,0,none,true,,,
html-keyboard-response,155,338807,null,"SERVER",null,word,,,,, 'SERVER',,
html-keyboard-response,156,339200,390.8400000000256,"KIWI<img id = ""stim"" ><div class = green_square id = ""topsquare"" ></div><img id = ""stim"" ><div class = green_square  id = ""bottomsquare"" ></div>",32,word_square,response,1,Space,true,,,
html-keyboard-response,157,340705,null,"KIWI",null,word,,,,, 'KIWI',,
html-keyboard-response,158,341199,491.68000000098255,"GAVEL<img id = ""stim"" ><div class = green_square id = ""topsquare"" ></div><img id = ""stim"" ><div class = green_square  id = ""bottomsquare"" ></div>",32,word_square,response,1,Space,true,,,
html-keyboard-response,159,342705,null,"GAVEL",null,word,,,,, 'GAVEL',,
html-keyboard-response,160,343208,null,"KEYBOARD<img id = ""stim"" ><div class = red_square id = ""topsquare"" ></div><img id = ""stim"" ><div class = red_square  id = ""bottomsquare"" ></div>",null,word_square,response,0,none,true,,,
html-keyboard-response,161,344710,null,"KEYBOARD",null,word,,,,, 'KEYBOARD',,
html-keyboard-response,162,345201,488.2799999995623,"PLANET<img id = ""stim"" ><div class = green_square id = ""topsquare"" ></div><img id = ""stim"" ><div class = green_square  id = ""bottomsquare"" ></div>",32,word_square,response,1,Space,true,,,
html-keyboard-response,163,346704,null,"PLANET",null,word,,,,, 'PLANET',,
html-keyboard-response,164,347207,null,"KNIFE<img id = ""stim"" ><div class = red_square id = ""topsquare"" ></div><img id = ""stim"" ><div class = red_square  id = ""bottomsquare"" ></div>",null,word_square,response,0,none,true,,,
html-keyboard-response,165,348709,null,"KNIFE",null,word,,,,, 'KNIFE',,
html-keyboard-response,166,349212,null,"ATHLETE<img id = ""stim"" ><div class = red_square id = ""topsquare"" ></div><img id = ""stim"" ><div class = red_square  id = ""bottomsquare"" ></div>",null,word_square,response,0,none,true,,,
html-keyboard-response,167,350719,null,"ATHLETE",null,word,,,,, 'ATHLETE',,
html-keyboard-response,168,351099,377.5850000001956,"DRINK<img id = ""stim"" ><div class = green_square id = ""topsquare"" ></div><img id = ""stim"" ><div class = green_square  id = ""bottomsquare"" ></div>",32,word_square,response,1,Space,true,,,
html-keyboard-response,169,352603,null,"DRINK",null,word,,,,, 'DRINK',,
call-function,170,352604,,"",,,,,,,,,
html-keyboard-response,171,352708,null,"",null,,,,,,,,
math-period,172,353973,2369.3250000033295,"",,,,,,,,,3
html-keyboard-response,173,354076,null,"",null,,,,,,,,
math-period,174,355868,3440.284999998752,"",,,,,,,,,6
html-keyboard-response,175,355971,null,"",null,,,,,,,,
math-period,176,357393,2681.770000001008,"",,,,,,,,,4
html-keyboard-response,177,357497,null,"",null,,,,,,,,
math-period,178,358729,2282.2499999984284,"",,,,,,,,,5
html-keyboard-response,179,358832,null,"",null,,,,,,,,
math-period,180,360035,2158.914999998233,"",,,,,,,,,2
html-keyboard-response,181,360139,null,"",null,,,,,,,,
math-period,182,362317,4184.89500000031,"",,,,,,,,,1
html-keyboard-response,183,362420,null,"",null,,,,,,,,
math-period,184,364537,7499.880000002973,"",,,,,,,,,1
html-keyboard-response,185,364641,null,"",null,,,,,,,,
math-period,186,366263,3111.295000000624,"",,,,,,,,,2
html-keyboard-response,187,366366,null,"",null,,,,,,,,
math-period,188,367644,2459.820000000007,"",,,,,,,,,1
html-keyboard-response,189,367746,null,"",null,,,,,,,,
math-period,190,368692,1825.3999999996158,"",,,,,,,,,3
html-keyboard-response,191,368797,null,"",null,,,,,,,,
math-period,192,370428,3202.76500000176,"",,,,,,,,,4
html-keyboard-response,193,370532,null,"",null,,,,,,,,
math-period,194,371544,1930.0899999980466,"",,,,,,,,,3
html-keyboard-response,195,371646,null,"",null,,,,,,,,
math-period,196,372515,1698.755000001227,"",,,,,,,,,4
html-keyboard-response,197,372618,null,"",null,,,,,,,,
math-period,198,373484,863.9200000015553,"",,,,,,,,,
html-keyboard-response,199,373587,null,"",null,,,,,,,,
math-period,200,374549,1835.330000001588,"",,,,,,,,,2
html-keyboard-response,201,374652,null,"",null,,,,,,,,
math-period,202,376488,3590.8050000015646,"",,,,,,,,,4
html-keyboard-response,203,376592,null,"",null,,,,,,,,
math-period,204,376609,null,"",,,,,,,,,
html-keyboard-response,205,377616,null,"Recall Period!",null,,,,,,,,
call-function,206,377617,,"",,,,,,,,,
html-keyboard-response,207,377720,null,"",null,,,,,,,,
recall-period,208,379546,11994.360000002198,"",,,,,,,,,Sausage
html-keyboard-response,209,379649,null,"",null,,,,,,,,
recall-period,210,383262,25551.815000009607,"",,,,,,,,,Lipstick
html-keyboard-response,211,383364,null,"",null,,,,,,,,
recall-period,212,385070,7110.64000000275,"",,,,,,,,,Eyelash
html-keyboard-response,213,385172,null,"",null,,,,,,,,
recall-period,214,386341,4229.7100000013015,"",,,,,,,,,Tile
html-keyboard-response,215,386444,null,"",null,,,,,,,,
recall-period,216,388434,13311.98499999498,"",,,,,,,,,Ceiling
html-keyboard-response,217,388538,null,"",null,,,,,,,,
recall-period,218,389616,5003.184999999707,"",,,,,,,,,Athlete
html-keyboard-response,219,389719,null,"",null,,,,,,,,
recall-period,220,390833,3559.2200000048615,"",,,,,,,,,Drink
html-keyboard-response,221,390936,null,"",null,,,,,,,,
recall-period,222,452621,null,"",,,,,,,,,
html-keyboard-response,223,453123,null,"Time's Up!",null,,,,,,,,
html-keyboard-response,224,456641,3516.52999999898,"<p> Good job! You responded correctly to 94% of the GREEN squares.</p>
                  <p>Be sure to keep your accuracy above 80%</p>
                  <p>Press any key to continue the experiment. Thank you!</p>",32,,,,,,,,
html-keyboard-response,225,458697,2054.575000000128,"<div style=""font-size:48px;"">Press any key to begin list 2 of 24 </div>",32,,,,,,,,
html-keyboard-response,226,461200,null,"<div style=""font-size:60px;"">+</div>",null,,,,,,,,
html-keyboard-response,227,461630,428.00999999960186,"SALT<img id = ""stim"" ><div class = green_square id = ""topsquare"" ></div><img id = ""stim"" ><div class = green_square  id = ""bottomsquare"" ></div>",32,word_square,response,1,Space,true,,,
html-keyboard-response,228,463137,null,"SALT",null,word,,,,, 'SALT',,
html-keyboard-response,229,463555,415.81500000029337,"CHISEL<img id = ""stim"" ><div class = green_square id = ""topsquare"" ></div><img id = ""stim"" ><div class = green_square  id = ""bottomsquare"" ></div>",32,word_square,response,1,Space,true,,,
html-keyboard-response,230,465057,null,"CHISEL",null,word,,,,, 'CHISEL',,
html-keyboard-response,231,465562,null,"LILY<img id = ""stim"" ><div class = red_square id = ""topsquare"" ></div><img id = ""stim"" ><div class = red_square  id = ""bottomsquare"" ></div>",null,word_square,response,0,none,true,,,
html-keyboard-response,232,467067,null,"LILY",null,word,,,,, 'LILY',,
html-keyboard-response,233,467569,null,"CONVENT<img id = ""stim"" ><div class = red_square id = ""topsquare"" ></div><img id = ""stim"" ><div class = red_square  id = ""bottomsquare"" ></div>",null,word_square,response,0,none,true,,,
html-keyboard-response,234,469071,null,"CONVENT",null,word,,,,, 'CONVENT',,
html-keyboard-response,235,469574,null,"PEPPER<img id = ""stim"" ><div class = green_square id = ""topsquare"" ></div><img id = ""stim"" ><div class = green_square  id = ""bottomsquare"" ></div>",null,word_square,response,1,Space,false,,,
html-keyboard-response,236,471077,null,"PEPPER",null,word,,,,, 'PEPPER',,
html-keyboard-response,237,471581,null,"BUCKLE<img id = ""stim"" ><div class = red_square id = ""topsquare"" ></div><img id = ""stim"" ><div class = red_square  id = ""bottomsquare"" ></div>",null,word_square,response,0,none,true,,,
html-keyboard-response,238,473085,null,"BUCKLE",null,word,,,,, 'BUCKLE',,
html-keyboard-response,239,473587,null,"MERMAID<img id = ""stim"" ><div class = green_square id = ""topsquare"" ></div><img id = ""stim"" ><div class = green_square  id = ""bottomsquare"" ></div>",null,word_square,response,1,Space,false,,,
html-keyboard-response,240,475091,null,"MERMAID",null,word,,,,, 'MERMAID',,
html-keyboard-response,241,475596,null,"PENCIL<img id = ""stim"" ><div class = red_square id = ""topsquare"" ></div><img id = ""stim"" ><div class = red_square  id = ""bottomsquare"" ></div>",null,word_square,response,0,none,true,,,
html-keyboard-response,242,477098,null,"PENCIL",null,word,,,,, 'PENCIL',,
html-keyboard-response,243,477603,null,"PEDAL<img id = ""stim"" ><div class = red_square id = ""topsquare"" ></div><img id = ""stim"" ><div class = red_square  id = ""bottomsquare"" ></div>",null,word_square,response,0,none,true,,,
html-keyboard-response,244,479108,null,"PEDAL",null,word,,,,, 'PEDAL',,
html-keyboard-response,245,479452,341.29500000021653,"BIKE<img id = ""stim"" ><div class = green_square id = ""topsquare"" ></div><img id = ""stim"" ><div class = green_square  id = ""bottomsquare"" ></div>",32,word_square,response,1,Space,true,,,
html-keyboard-response,246,480961,null,"BIKE",null,word,,,,, 'BIKE',,
html-keyboard-response,247,481468,null,"MACHINE<img id = ""stim"" ><div class = red_square id = ""topsquare"" ></div><img id = ""stim"" ><div class = red_square  id = ""bottomsquare"" ></div>",null,word_square,response,0,none,true,,,
html-keyboard-response,248,482974,null,"MACHINE",null,word,,,,, 'MACHINE',,
html-keyboard-response,249,483305,328.81999999884283,"TOMBSTONE<img id = ""stim"" ><div class = green_square id = ""topsquare"" ></div><img id = ""stim"" ><div class = green_square  id = ""bottomsquare"" ></div>",32,word_square,response,1,Space,true,,,
html-keyboard-response,250,484811,null,"TOMBSTONE",null,word,,,,, 'TOMBSTONE',,
html-keyboard-response,251,485198,384.75499999913154,"FRIAR<img id = ""stim"" ><div class = green_square id = ""topsquare"" ></div><img id = ""stim"" ><div class = green_square  id = ""bottomsquare"" ></div>",32,word_square,response,1,Space,true,,,
html-keyboard-response,252,486705,null,"FRIAR",null,word,,,,, 'FRIAR',,
html-keyboard-response,253,487212,null,"MARSH<img id = ""stim"" ><div class = red_square id = ""topsquare"" ></div><img id = ""stim"" ><div class = red_square  id = ""bottomsquare"" ></div>",null,word_square,response,0,none,true,,,
html-keyboard-response,254,488713,null,"MARSH",null,word,,,,, 'MARSH',,
html-keyboard-response,255,489053,338.67999999888707,"LAGOON<img id = ""stim"" ><div class = green_square id = ""topsquare"" ></div><img id = ""stim"" ><div class = green_square  id = ""bottomsquare"" ></div>",32,word_square,response,1,Space,true,,,
html-keyboard-response,256,490555,null,"LAGOON",null,word,,,,, 'LAGOON',,
html-keyboard-response,257,491059,null,"BARREL<img id = ""stim"" ><div class = red_square id = ""topsquare"" ></div><img id = ""stim"" ><div class = red_square  id = ""bottomsquare"" ></div>",null,word_square,response,0,none,true,,,
html-keyboard-response,258,492562,null,"BARREL",null,word,,,,, 'BARREL',,
html-keyboard-response,259,493065,null,"RADISH<img id = ""stim"" ><div class = red_square id = ""topsquare"" ></div><img id = ""stim"" ><div class = red_square  id = ""bottomsquare"" ></div>",null,word_square,response,0,none,true,,,
html-keyboard-response,260,494568,null,"RADISH",null,word,,,,, 'RADISH',,
html-keyboard-response,261,494839,269.495000000461,"ZEBRA<img id = ""stim"" ><div class = green_square id = ""topsquare"" ></div><img id = ""stim"" ><div class = green_square  id = ""bottomsquare"" ></div>",32,word_square,response,1,Space,true,,,
html-keyboard-response,262,496344,null,"ZEBRA",null,word,,,,, 'ZEBRA',,
call-function,263,496345,,"",,,,,,,,,
html-keyboard-response,264,496451,null,"",null,,,,,,,,
math-period,265,497719,2380.889999998617,"",,,,,,,,,1
html-keyboard-response,266,497823,null,"",null,,,,,,,,
math-period,267,499795,8201.240000005579,"",,,,,,,,,=5
html-keyboard-response,268,499900,null,"",null,,,,,,,,
math-period,269,501421,2918.74000000098,"",,,,,,,,,6
html-keyboard-response,270,501524,null,"",null,,,,,,,,
math-period,271,502849,2502.3099999998813,"",,,,,,,,,2
html-keyboard-response,272,502952,null,"",null,,,,,,,,
math-period,273,504723,3439.469999999332,"",,,,,,,,,4
html-keyboard-response,274,504826,null,"",null,,,,,,,,
math-period,275,508028,6225.259999999253,"",,,,,,,,,3
html-keyboard-response,276,508131,null,"",null,,,,,,,,
math-period,277,509112,1814.3299999993178,"",,,,,,,,,2
html-keyboard-response,278,509215,null,"",null,,,,,,,,
math-period,279,510167,1745.5799999989104,"",,,,,,,,,3
html-keyboard-response,280,510268,null,"",null,,,,,,,,
math-period,281,511301,1940.4549999980954,"",,,,,,,,,1
html-keyboard-response,282,511406,null,"",null,,,,,,,,
math-period,283,512605,2226.024999999907,"",,,,,,,,,2
html-keyboard-response,284,512707,null,"",null,,,,,,,,
math-period,285,513672,1800.4999999993597,"",,,,,,,,,3
html-keyboard-response,286,513776,null,"",null,,,,,,,,
math-period,287,515191,2709.894999998098,"",,,,,,,,,1
html-keyboard-response,288,515296,null,"",null,,,,,,,,
math-period,289,516840,2986.045000001497,"",,,,,,,,,4
html-keyboard-response,290,516947,null,"",null,,,,,,,,
math-period,291,518280,2538.8049999984214,"",,,,,,,,,1
html-keyboard-response,292,518383,null,"",null,,,,,,,,
math-period,293,520349,1863.559999999823,"",,,,,,,,,4
html-keyboard-response,294,521351,null,"Recall Period!",null,,,,,,,,
call-function,295,521352,,"",,,,,,,,,
html-keyboard-response,296,521457,null,"",null,,,,,,,,
recall-period,297,524614,13106.505000007222,"",,,,,,,,,Chisel
html-keyboard-response,298,524716,null,"",null,,,,,,,,
recall-period,299,556839,197804.50999999628,"",,,,,,,,,Work
html-keyboard-response,300,556942,null,"",null,,,,,,,,
recall-period,301,562114,35644.275000000256,"",,,,,,,,,Sports
html-keyboard-response,302,562217,null,"",null,,,,,,,,
recall-period,303,596356,null,"",,,,,,,,,
html-keyboard-response,304,596863,null,"Time's Up!",null,,,,,,,,
html-keyboard-response,305,600975,4109.939999998431,"<p> Good job! You responded correctly to 93% of the GREEN squares.</p>
                  <p>Be sure to keep your accuracy above 80%</p>
                  <p>Press any key to continue the experiment. Thank you!</p>",32,,,,,,,,
html-keyboard-response,306,610031,9053.724999999744,"<div style=""font-size:48px;"">Press any key to begin list 3 of 24 </div>",32,,,,,,,,
html-keyboard-response,307,612535,null,"<div style=""font-size:60px;"">+</div>",null,,,,,,,,
html-keyboard-response,308,613040,null,"FREEWAY<img id = ""stim"" ><div class = red_square id = ""topsquare"" ></div><img id = ""stim"" ><div class = red_square  id = ""bottomsquare"" ></div>",null,word_square,response,0,none,true,,,
html-keyboard-response,309,614542,null,"FREEWAY",null,word,,,,, 'FREEWAY',,
html-keyboard-response,310,615047,null,"WALNUT<img id = ""stim"" ><div class = red_square id = ""topsquare"" ></div><img id = ""stim"" ><div class = red_square  id = ""bottomsquare"" ></div>",null,word_square,response,0,none,true,,,
html-keyboard-response,311,616550,null,"WALNUT",null,word,,,,, 'WALNUT',,
html-keyboard-response,312,617025,473.08999999950174,"CRATER<img id = ""stim"" ><div class = green_square id = ""topsquare"" ></div><img id = ""stim"" ><div class = green_square  id = ""bottomsquare"" ></div>",32,word_square,response,1,Space,true,,,
html-keyboard-response,313,618531,null,"CRATER",null,word,,,,, 'CRATER',,
html-keyboard-response,314,618986,453.7199999995064,"BIBLE<img id = ""stim"" ><div class = green_square id = ""topsquare"" ></div><img id = ""stim"" ><div class = green_square  id = ""bottomsquare"" ></div>",32,word_square,response,1,Space,true,,,
html-keyboard-response,315,620487,null,"BIBLE",null,word,,,,, 'BIBLE',,
html-keyboard-response,316,620990,null,"DANCER<img id = ""stim"" ><div class = red_square id = ""topsquare"" ></div><img id = ""stim"" ><div class = red_square  id = ""bottomsquare"" ></div>",null,word_square,response,0,none,true,,,
html-keyboard-response,317,622497,null,"DANCER",null,word,,,,, 'DANCER',,
html-keyboard-response,318,623001,null,"GOBLIN<img id = ""stim"" ><div class = green_square id = ""topsquare"" ></div><img id = ""stim"" ><div class = green_square  id = ""bottomsquare"" ></div>",null,word_square,response,1,Space,false,,,
html-keyboard-response,319,624507,null,"GOBLIN",null,word,,,,, 'GOBLIN',,
html-keyboard-response,320,625009,null,"FIGHTER<img id = ""stim"" ><div class = red_square id = ""topsquare"" ></div><img id = ""stim"" ><div class = red_square  id = ""bottomsquare"" ></div>",null,word_square,response,0,none,true,,,
html-keyboard-response,321,626514,null,"FIGHTER",null,word,,,,, 'FIGHTER',,
html-keyboard-response,322,627012,495.9500000004191,"CABLE<img id = ""stim"" ><div class = green_square id = ""topsquare"" ></div><img id = ""stim"" ><div class = green_square  id = ""bottomsquare"" ></div>",32,word_square,response,1,Space,true,,,
html-keyboard-response,323,628516,null,"CABLE",null,word,,,,, 'CABLE',,
html-keyboard-response,324,629019,null,"COBWEB<img id = ""stim"" ><div class = green_square id = ""topsquare"" ></div><img id = ""stim"" ><div class = green_square  id = ""bottomsquare"" ></div>",null,word_square,response,1,Space,false,,,
html-keyboard-response,325,630527,null,"COBWEB",null,word,,,,, 'COBWEB',,
html-keyboard-response,326,631033,null,"DASHBOARD<img id = ""stim"" ><div class = red_square id = ""topsquare"" ></div><img id = ""stim"" ><div class = red_square  id = ""bottomsquare"" ></div>",null,word_square,response,0,none,true,,,
html-keyboard-response,327,632535,null,"DASHBOARD",null,word,,,,, 'DASHBOARD',,
html-keyboard-response,328,632913,375.4700000009034,"RUST<img id = ""stim"" ><div class = green_square id = ""topsquare"" ></div><img id = ""stim"" ><div class = green_square  id = ""bottomsquare"" ></div>",32,word_square,response,1,Space,true,,,
html-keyboard-response,329,634417,null,"RUST",null,word,,,,, 'RUST',,
html-keyboard-response,330,634924,null,"LUNCH<img id = ""stim"" ><div class = red_square id = ""topsquare"" ></div><img id = ""stim"" ><div class = red_square  id = ""bottomsquare"" ></div>",null,word_square,response,0,none,true,,,
html-keyboard-response,331,636429,null,"LUNCH",null,word,,,,, 'LUNCH',,
html-keyboard-response,332,636936,null,"RODENT<img id = ""stim"" ><div class = red_square id = ""topsquare"" ></div><img id = ""stim"" ><div class = red_square  id = ""bottomsquare"" ></div>",null,word_square,response,0,none,true,,,
html-keyboard-response,333,638440,null,"RODENT",null,word,,,,, 'RODENT',,
html-keyboard-response,334,638833,391.4199999999255,"BUTLER<img id = ""stim"" ><div class = green_square id = ""topsquare"" ></div><img id = ""stim"" ><div class = green_square  id = ""bottomsquare"" ></div>",32,word_square,response,1,Space,true,,,
html-keyboard-response,335,640336,null,"BUTLER",null,word,,,,, 'BUTLER',,
html-keyboard-response,336,640840,null,"LAVA<img id = ""stim"" ><div class = red_square id = ""topsquare"" ></div><img id = ""stim"" ><div class = red_square  id = ""bottomsquare"" ></div>",null,word_square,response,0,none,true,,,
html-keyboard-response,337,642343,null,"LAVA",null,word,,,,, 'LAVA',,
html-keyboard-response,338,642723,377.6450000004843,"CREATURE<img id = ""stim"" ><div class = green_square id = ""topsquare"" ></div><img id = ""stim"" ><div class = green_square  id = ""bottomsquare"" ></div>",32,word_square,response,1,Space,true,,,
html-keyboard-response,339,644226,null,"CREATURE",null,word,,,,, 'CREATURE',,
html-keyboard-response,340,644638,411.20500000030734,"PICNIC<img id = ""stim"" ><div class = green_square id = ""topsquare"" ></div><img id = ""stim"" ><div class = green_square  id = ""bottomsquare"" ></div>",32,word_square,response,1,Space,true,,,
html-keyboard-response,341,646144,null,"PICNIC",null,word,,,,, 'PICNIC',,
html-keyboard-response,342,646649,null,"DRAGON<img id = ""stim"" ><div class = red_square id = ""topsquare"" ></div><img id = ""stim"" ><div class = red_square  id = ""bottomsquare"" ></div>",null,word_square,response,0,none,true,,,
html-keyboard-response,343,648151,null,"DRAGON",null,word,,,,, 'DRAGON',,
call-function,344,648152,,"",,,,,,,,,
html-keyboard-response,345,648255,null,"",null,,,,,,,,
math-period,346,651477,11170.909999998752,"",,,,,,,,,2
html-keyboard-response,347,651580,null,"",null,,,,,,,,
math-period,348,652618,1964.9150000003865,"",,,,,,,,,2
html-keyboard-response,349,652720,null,"",null,,,,,,,,
math-period,350,653638,1722.8549999982351,"",,,,,,,,,4
html-keyboard-response,351,653743,null,"",null,,,,,,,,
math-period,352,654807,2035.3400000003166,"",,,,,,,,,2
html-keyboard-response,353,654912,null,"",null,,,,,,,,
math-period,354,655813,1698.1600000000326,"",,,,,,,,,5
html-keyboard-response,355,655916,null,"",null,,,,,,,,
math-period,356,657077,2238.475000001956,"",,,,,,,,,4
html-keyboard-response,357,657182,null,"",null,,,,,,,,
math-period,358,657980,1484.560000002617,"",,,,,,,,,3
html-keyboard-response,359,658082,null,"",null,,,,,,,,
math-period,360,658948,1658.5799999992596,"",,,,,,,,,2
html-keyboard-response,361,659051,null,"",null,,,,,,,,
math-period,362,659837,1493.294999998412,"",,,,,,,,,3
html-keyboard-response,363,659940,null,"",null,,,,,,,,
math-period,364,662390,4740.25500000047,"",,,,,,,,,3
html-keyboard-response,365,662493,null,"",null,,,,,,,,
math-period,366,664905,4684.129999999772,"",,,,,,,,,3
html-keyboard-response,367,665009,null,"",null,,,,,,,,
math-period,368,666368,2604.1350000014063,"",,,,,,,,,2
html-keyboard-response,369,666471,null,"",null,,,,,,,,
math-period,370,667556,2059.864999999176,"",,,,,,,,,3
html-keyboard-response,371,667660,null,"",null,,,,,,,,
math-period,372,669433,3394.2549999991897,"",,,,,,,,,5
html-keyboard-response,373,669537,null,"",null,,,,,,,,
math-period,374,670249,1293.4100000018952,"",,,,,,,,,3
html-keyboard-response,375,670351,null,"",null,,,,,,,,
math-period,376,672156,null,"",,,,,,,,,
html-keyboard-response,377,673163,null,"Recall Period!",null,,,,,,,,
call-function,378,673164,,"",,,,,,,,,
html-keyboard-response,379,673266,null,"",null,,,,,,,,
recall-period,380,675623,12330.19999999809,"",,,,,,,,,Butler
html-keyboard-response,381,675727,null,"",null,,,,,,,,
recall-period,382,676774,4050.9949999979,"",,,,,,,,,Cable
html-keyboard-response,383,676877,null,"",null,,,,,,,,
recall-period,384,680222,21250.555000003777,"",,,,,,,,,Goblin
html-keyboard-response,385,680326,null,"",null,,,,,,,,
recall-period,386,683076,19070.41499999806,"",,,,,,,,,Fighter
html-keyboard-response,387,683179,null,"",null,,,,,,,,
recall-period,388,686280,21874.300000001094,"",,,,,,,,,Butler
html-keyboard-response,389,686382,null,"",null,,,,,,,,
recall-period,390,691531,67532.32999998471,"",,,,,,,,,Freewy
html-keyboard-response,391,691634,null,"",null,,,,,,,,
recall-period,392,693729,11435.884999993723,"",,,,,,,,,Freeway
html-keyboard-response,393,693831,null,"",null,,,,,,,,
recall-period,394,748169,null,"",,,,,,,,,
html-keyboard-response,395,748675,null,"Time's Up!",null,,,,,,,,
html-keyboard-response,396,755584,6906.050000001444,"<p> Good job! You responded correctly to 92% of the GREEN squares.</p>
                  <p>Be sure to keep your accuracy above 80%</p>
                  <p>Press any key to continue the experiment. Thank you!</p>",32,,,,,,,,
html-keyboard-response,397,756392,806.6850000013364,"<div style=""font-size:48px;"">Press any key to begin list 4 of 24 </div>",32,,,,,,,,
html-keyboard-response,398,758899,null,"<div style=""font-size:60px;"">+</div>",null,,,,,,,,
html-keyboard-response,399,759401,null,"MAGNET<img id = ""stim"" ><div class = red_square id = ""topsquare"" ></div><img id = ""stim"" ><div class = red_square  id = ""bottomsquare"" ></div>",null,word_square,response,0,none,true,,,
html-keyboard-response,400,760904,null,"MAGNET",null,word,,,,, 'MAGNET',,
html-keyboard-response,401,761408,null,"OYSTER<img id = ""stim"" ><div class = red_square id = ""topsquare"" ></div><img id = ""stim"" ><div class = red_square  id = ""bottomsquare"" ></div>",null,word_square,response,0,none,true,,,
html-keyboard-response,402,762912,null,"OYSTER",null,word,,,,, 'OYSTER',,
html-keyboard-response,403,763287,371.61000000010245,"CLAM<img id = ""stim"" ><div class = green_square id = ""topsquare"" ></div><img id = ""stim"" ><div class = green_square  id = ""bottomsquare"" ></div>",32,word_square,response,1,Space,true,,,
html-keyboard-response,404,764790,null,"CLAM",null,word,,,,, 'CLAM',,
html-keyboard-response,405,765228,436.08499999926426,"COOKIE<img id = ""stim"" ><div class = green_square id = ""topsquare"" ></div><img id = ""stim"" ><div class = green_square  id = ""bottomsquare"" ></div>",32,word_square,response,1,Space,true,,,
html-keyboard-response,406,766733,null,"COOKIE",null,word,,,,, 'COOKIE',,
html-keyboard-response,407,767239,null,"MEDAL<img id = ""stim"" ><div class = red_square id = ""topsquare"" ></div><img id = ""stim"" ><div class = red_square  id = ""bottomsquare"" ></div>",null,word_square,response,0,none,true,,,
html-keyboard-response,408,768743,null,"MEDAL",null,word,,,,, 'MEDAL',,
html-keyboard-response,409,769132,387.3300000013551,"TORCH<img id = ""stim"" ><div class = green_square id = ""topsquare"" ></div><img id = ""stim"" ><div class = green_square  id = ""bottomsquare"" ></div>",32,word_square,response,1,Space,true,,,
html-keyboard-response,410,770636,null,"TORCH",null,word,,,,, 'TORCH',,
html-keyboard-response,411,771142,null,"LANDSCAPE<img id = ""stim"" ><div class = red_square id = ""topsquare"" ></div><img id = ""stim"" ><div class = red_square  id = ""bottomsquare"" ></div>",null,word_square,response,0,none,true,,,
html-keyboard-response,412,772647,null,"LANDSCAPE",null,word,,,,, 'LANDSCAPE',,
html-keyboard-response,413,772953,305.2400000015041,"OFFICE<img id = ""stim"" ><div class = green_square id = ""topsquare"" ></div><img id = ""stim"" ><div class = green_square  id = ""bottomsquare"" ></div>",32,word_square,response,1,Space,true,,,
html-keyboard-response,414,774455,null,"OFFICE",null,word,,,,, 'OFFICE',,
html-keyboard-response,415,774941,482.95499999949243,"POND<img id = ""stim"" ><div class = green_square id = ""topsquare"" ></div><img id = ""stim"" ><div class = green_square  id = ""bottomsquare"" ></div>",32,word_square,response,1,Space,true,,,
html-keyboard-response,416,776444,null,"POND",null,word,,,,, 'POND',,
html-keyboard-response,417,776948,null,"TRANSPLANT<img id = ""stim"" ><div class = red_square id = ""topsquare"" ></div><img id = ""stim"" ><div class = red_square  id = ""bottomsquare"" ></div>",null,word_square,response,0,none,true,,,
html-keyboard-response,418,778452,null,"TRANSPLANT",null,word,,,,, 'TRANSPLANT',,
html-keyboard-response,419,778872,418.714999999851,"BEAVER<img id = ""stim"" ><div class = green_square id = ""topsquare"" ></div><img id = ""stim"" ><div class = green_square  id = ""bottomsquare"" ></div>",32,word_square,response,1,Space,true,,,
html-keyboard-response,420,780378,null,"BEAVER",null,word,,,,, 'BEAVER',,
html-keyboard-response,421,780882,null,"SCAPEGOAT<img id = ""stim"" ><div class = red_square id = ""topsquare"" ></div><img id = ""stim"" ><div class = red_square  id = ""bottomsquare"" ></div>",null,word_square,response,0,none,true,,,
html-keyboard-response,422,782386,null,"SCAPEGOAT",null,word,,,,, 'SCAPEGOAT',,
html-keyboard-response,423,782887,null,"DOLPHIN<img id = ""stim"" ><div class = red_square id = ""topsquare"" ></div><img id = ""stim"" ><div class = red_square  id = ""bottomsquare"" ></div>",null,word_square,response,0,none,true,,,
html-keyboard-response,424,784390,null,"DOLPHIN",null,word,,,,, 'DOLPHIN',,
html-keyboard-response,425,784787,395.6450000004843,"GAZELLE<img id = ""stim"" ><div class = green_square id = ""topsquare"" ></div><img id = ""stim"" ><div class = green_square  id = ""bottomsquare"" ></div>",32,word_square,response,1,Space,true,,,
html-keyboard-response,426,786289,null,"GAZELLE",null,word,,,,, 'GAZELLE',,
html-keyboard-response,427,786796,null,"TULIP<img id = ""stim"" ><div class = red_square id = ""topsquare"" ></div><img id = ""stim"" ><div class = red_square  id = ""bottomsquare"" ></div>",null,word_square,response,0,none,true,,,
html-keyboard-response,428,788299,null,"TULIP",null,word,,,,, 'TULIP',,
html-keyboard-response,429,788651,350.4950000005774,"DONOR<img id = ""stim"" ><div class = green_square id = ""topsquare"" ></div><img id = ""stim"" ><div class = green_square  id = ""bottomsquare"" ></div>",32,word_square,response,1,Space,true,,,
html-keyboard-response,430,790155,null,"DONOR",null,word,,,,, 'DONOR',,
html-keyboard-response,431,790592,434.5350000002654,"PIMPLE<img id = ""stim"" ><div class = green_square id = ""topsquare"" ></div><img id = ""stim"" ><div class = green_square  id = ""bottomsquare"" ></div>",32,word_square,response,1,Space,true,,,
html-keyboard-response,432,792094,null,"PIMPLE",null,word,,,,, 'PIMPLE',,
html-keyboard-response,433,792597,null,"FRECKLE<img id = ""stim"" ><div class = red_square id = ""topsquare"" ></div><img id = ""stim"" ><div class = red_square  id = ""bottomsquare"" ></div>",null,word_square,response,0,none,true,,,
html-keyboard-response,434,794100,null,"FRECKLE",null,word,,,,, 'FRECKLE',,
call-function,435,794101,,"",,,,,,,,,
html-keyboard-response,436,794203,null,"",null,,,,,,,,
math-period,437,795619,2701.120000001625,"",,,,,,,,,1
html-keyboard-response,438,795721,null,"",null,,,,,,,,
math-period,439,796466,1377.3499999986961,"",,,,,,,,,3
html-keyboard-response,440,796570,null,"",null,,,,,,,,
math-period,441,797215,1220.7599999983795,"",,,,,,,,,3
html-keyboard-response,442,797318,null,"",null,,,,,,,,
math-period,443,798172,1631.2049999978626,"",,,,,,,,,4
html-keyboard-response,444,798274,null,"",null,,,,,,,,
math-period,445,799401,2176.644999999553,"",,,,,,,,,2
html-keyboard-response,446,799504,null,"",null,,,,,,,,
math-period,447,800194,1295.8600000003353,"",,,,,,,,,3
html-keyboard-response,448,800299,null,"",null,,,,,,,,
math-period,449,801021,1378.6800000017975,"",,,,,,,,,4
html-keyboard-response,450,801125,null,"",null,,,,,,,,
math-period,451,802364,2443.429999999469,"",,,,,,,,,6
html-keyboard-response,452,802466,null,"",null,,,,,,,,
math-period,453,803183,1378.0999999998603,"",,,,,,,,,3
html-keyboard-response,454,803287,null,"",null,,,,,,,,
math-period,455,804234,1824.045000001206,"",,,,,,,,,5
html-keyboard-response,456,804337,null,"",null,,,,,,,,
math-period,457,805539,2214.389999999199,"",,,,,,,,,1
html-keyboard-response,458,805641,null,"",null,,,,,,,,
math-period,459,807239,3030.7449999999953,"",,,,,,,,,4
html-keyboard-response,460,807344,null,"",null,,,,,,,,
math-period,461,808255,1727.579999998794,"",,,,,,,,,4
html-keyboard-response,462,808358,null,"",null,,,,,,,,
math-period,463,809704,2620.745000000228,"",,,,,,,,,1
html-keyboard-response,464,809809,null,"",null,,,,,,,,
math-period,465,811037,2362.885000000475,"",,,,,,,,,6
html-keyboard-response,466,811141,null,"",null,,,,,,,,
math-period,467,813121,3745.474999997765,"",,,,,,,,,0
html-keyboard-response,468,813224,null,"",null,,,,,,,,
math-period,469,814764,2994.2850000004983,"",,,,,,,,,5
html-keyboard-response,470,814866,null,"",null,,,,,,,,
math-period,471,815857,1907.2099999977509,"",,,,,,,,,5
html-keyboard-response,472,815965,null,"",null,,,,,,,,
math-period,473,817052,2091.344999998808,"",,,,,,,,,4
html-keyboard-response,474,817156,null,"",null,,,,,,,,
math-period,475,818105,null,"",,,,,,,,,
html-keyboard-response,476,819109,null,"Recall Period!",null,,,,,,,,
call-function,477,819112,,"",,,,,,,,,
html-keyboard-response,478,819215,null,"",null,,,,,,,,
recall-period,479,822882,22201.459999999846,"",,,,,,,,,Dolphin
html-keyboard-response,480,822986,null,"",null,,,,,,,,
recall-period,481,824533,7440.035000005388,"",,,,,,,,,Pimple
html-keyboard-response,482,824635,null,"",null,,,,,,,,
recall-period,483,827915,11534.149999994203,"",,,,,,,,,Freckles
html-keyboard-response,484,828018,null,"",null,,,,,,,,
recall-period,485,829082,4629.124999996042,"",,,,,,,,,Beaver
html-keyboard-response,486,829184,null,"",null,,,,,,,,
recall-period,487,830648,1461.274999999674,"",,,,,,,,,
html-keyboard-response,488,830752,null,"",null,,,,,,,,
recall-period,489,832697,12152.904999997234,"",,,,,,,,,Goblin
html-keyboard-response,490,832801,null,"",null,,,,,,,,
recall-period,491,894114,14499.120000000228,"",,,,,,,,,altundefined
html-keyboard-response,492,894617,null,"Time's Up!",null,,,,,,,,
html-keyboard-response,493,897980,3360.5349999997998,"<p> Good job! You responded correctly to 93% of the GREEN squares.</p>
                  <p>Be sure to keep your accuracy above 80%</p>
                  <p>Press any key to continue the experiment. Thank you!</p>",32,,,,,,,,
html-keyboard-response,494,898648,666.290000001085,"<div style=""font-size:48px;"">Press any key to begin list 5 of 24 </div>",32,,,,,,,,
html-keyboard-response,495,901152,null,"<div style=""font-size:60px;"">+</div>",null,,,,,,,,
html-keyboard-response,496,901655,null,"TIGER<img id = ""stim"" ><div class = red_square id = ""topsquare"" ></div><img id = ""stim"" ><div class = red_square  id = ""bottomsquare"" ></div>",null,word_square,response,0,none,true,,,
html-keyboard-response,497,903160,null,"TIGER",null,word,,,,, 'TIGER',,
html-keyboard-response,498,903641,479.64000000129454,"CRAB<img id = ""stim"" ><div class = green_square id = ""topsquare"" ></div><img id = ""stim"" ><div class = green_square  id = ""bottomsquare"" ></div>",32,word_square,response,1,Space,true,,,
html-keyboard-response,499,905148,null,"CRAB",null,word,,,,, 'CRAB',,
html-keyboard-response,500,905513,363.3150000005262,"COD<img id = ""stim"" ><div class = green_square id = ""topsquare"" ></div><img id = ""stim"" ><div class = green_square  id = ""bottomsquare"" ></div>",32,word_square,response,1,Space,true,,,
html-keyboard-response,501,907015,null,"COD",null,word,,,,, 'COD',,
html-keyboard-response,502,907520,null,"DENIM<img id = ""stim"" ><div class = red_square id = ""topsquare"" ></div><img id = ""stim"" ><div class = red_square  id = ""bottomsquare"" ></div>",null,word_square,response,0,none,true,,,
html-keyboard-response,503,909022,null,"DENIM",null,word,,,,, 'DENIM',,
html-keyboard-response,504,909527,null,"COOKBOOK<img id = ""stim"" ><div class = red_square id = ""topsquare"" ></div><img id = ""stim"" ><div class = red_square  id = ""bottomsquare"" ></div>",null,word_square,response,0,none,true,,,
html-keyboard-response,505,911031,null,"COOKBOOK",null,word,,,,, 'COOKBOOK',,
html-keyboard-response,506,911404,370.66000000049826,"BRANCH<img id = ""stim"" ><div class = green_square id = ""topsquare"" ></div><img id = ""stim"" ><div class = green_square  id = ""bottomsquare"" ></div>",32,word_square,response,1,Space,true,,,
html-keyboard-response,507,912906,null,"BRANCH",null,word,,,,, 'BRANCH',,
html-keyboard-response,508,913310,401.7649999987334,"DOORBELL<img id = ""stim"" ><div class = green_square id = ""topsquare"" ></div><img id = ""stim"" ><div class = green_square  id = ""bottomsquare"" ></div>",32,word_square,response,1,Space,true,,,
html-keyboard-response,509,914814,null,"DOORBELL",null,word,,,,, 'DOORBELL',,
html-keyboard-response,510,915251,435.0900000008987,"PLAID<img id = ""stim"" ><div class = green_square id = ""topsquare"" ></div><img id = ""stim"" ><div class = green_square  id = ""bottomsquare"" ></div>",32,word_square,response,1,Space,true,,,
html-keyboard-response,511,916753,null,"PLAID",null,word,,,,, 'PLAID',,
html-keyboard-response,512,917256,null,"CRYSTAL<img id = ""stim"" ><div class = red_square id = ""topsquare"" ></div><img id = ""stim"" ><div class = red_square  id = ""bottomsquare"" ></div>",null,word_square,response,0,none,true,,,
html-keyboard-response,513,918761,null,"CRYSTAL",null,word,,,,, 'CRYSTAL',,
html-keyboard-response,514,919263,null,"CABIN<img id = ""stim"" ><div class = red_square id = ""topsquare"" ></div><img id = ""stim"" ><div class = red_square  id = ""bottomsquare"" ></div>",null,word_square,response,0,none,true,,,
html-keyboard-response,515,920766,null,"CABIN",null,word,,,,, 'CABIN',,
html-keyboard-response,516,921151,383.41000000038184,"SHELTER<img id = ""stim"" ><div class = green_square id = ""topsquare"" ></div><img id = ""stim"" ><div class = green_square  id = ""bottomsquare"" ></div>",32,word_square,response,1,Space,true,,,
html-keyboard-response,517,922654,null,"SHELTER",null,word,,,,, 'SHELTER',,
html-keyboard-response,518,923156,null,"PEBBLE<img id = ""stim"" ><div class = red_square id = ""topsquare"" ></div><img id = ""stim"" ><div class = red_square  id = ""bottomsquare"" ></div>",null,word_square,response,0,none,true,,,
html-keyboard-response,519,924661,null,"PEBBLE",null,word,,,,, 'PEBBLE',,
html-keyboard-response,520,925054,390.04000000015367,"FROST<img id = ""stim"" ><div class = green_square id = ""topsquare"" ></div><img id = ""stim"" ><div class = green_square  id = ""bottomsquare"" ></div>",32,word_square,response,1,Space,true,,,
html-keyboard-response,521,926560,null,"FROST",null,word,,,,, 'FROST',,
html-keyboard-response,522,927063,null,"YARD<img id = ""stim"" ><div class = red_square id = ""topsquare"" ></div><img id = ""stim"" ><div class = red_square  id = ""bottomsquare"" ></div>",null,word_square,response,0,none,true,,,
html-keyboard-response,523,928566,null,"YARD",null,word,,,,, 'YARD',,
html-keyboard-response,524,929068,null,"CABOOSE<img id = ""stim"" ><div class = green_square id = ""topsquare"" ></div><img id = ""stim"" ><div class = green_square  id = ""bottomsquare"" ></div>",null,word_square,response,1,Space,false,,,
html-keyboard-response,525,930572,null,"CABOOSE",null,word,,,,, 'CABOOSE',,
html-keyboard-response,526,931079,null,"STONE<img id = ""stim"" ><div class = red_square id = ""topsquare"" ></div><img id = ""stim"" ><div class = red_square  id = ""bottomsquare"" ></div>",null,word_square,response,0,none,true,,,
html-keyboard-response,527,932585,null,"STONE",null,word,,,,, 'STONE',,
html-keyboard-response,528,933089,null,"DIVER<img id = ""stim"" ><div class = red_square id = ""topsquare"" ></div><img id = ""stim"" ><div class = red_square  id = ""bottomsquare"" ></div>",null,word_square,response,0,none,true,,,
html-keyboard-response,529,934594,null,"DIVER",null,word,,,,, 'DIVER',,
html-keyboard-response,530,934954,357.48000000056345,"PADDLE<img id = ""stim"" ><div class = green_square id = ""topsquare"" ></div><img id = ""stim"" ><div class = green_square  id = ""bottomsquare"" ></div>",32,word_square,response,1,Space,true,,,
html-keyboard-response,531,936460,null,"PADDLE",null,word,,,,, 'PADDLE',,
call-function,532,936461,,"",,,,,,,,,
html-keyboard-response,533,936565,null,"",null,,,,,,,,
math-period,534,937833,2265.400000000256,"",,,,,,,,,3
html-keyboard-response,535,937937,null,"",null,,,,,,,,
math-period,536,939324,2588.9449999976205,"",,,,,,,,,5
html-keyboard-response,537,939427,null,"",null,,,,,,,,
math-period,538,942011,5005.209999999264,"",,,,,,,,,5
html-keyboard-response,539,942114,null,"",null,,,,,,,,
math-period,540,943391,2392.7349999995204,"",,,,,,,,,1
html-keyboard-response,541,943495,null,"",null,,,,,,,,
math-period,542,944594,2083.3100000001723,"",,,,,,,,,1
html-keyboard-response,543,944697,null,"",null,,,,,,,,
math-period,544,945605,1719.8649999990594,"",,,,,,,,,1
html-keyboard-response,545,945707,null,"",null,,,,,,,,
math-period,546,946752,1965.2999999999302,"",,,,,,,,,3
html-keyboard-response,547,946855,null,"",null,,,,,,,,
math-period,548,947760,1730.4500000010012,"",,,,,,,,,4
html-keyboard-response,549,947864,null,"",null,,,,,,,,
math-period,550,951008,15869.114999999758,"",,,,,,,,,3
html-keyboard-response,551,951112,null,"",null,,,,,,,,
math-period,552,952295,2249.2750000001397,"",,,,,,,,,4
html-keyboard-response,553,952400,null,"",null,,,,,,,,
math-period,554,954444,3862.05000000156,"",,,,,,,,,0
html-keyboard-response,555,954547,null,"",null,,,,,,,,
math-period,556,955786,2171.7549999974435,"",,,,,,,,,0
html-keyboard-response,557,955888,null,"",null,,,,,,,,
math-period,558,957467,2925.710000001476,"",,,,,,,,,4
html-keyboard-response,559,957571,null,"",null,,,,,,,,
math-period,560,958597,1850.1499999985099,"",,,,,,,,,3
html-keyboard-response,561,958700,null,"",null,,,,,,,,
math-period,562,959911,2255.719999999157,"",,,,,,,,,5
html-keyboard-response,563,960015,null,"",null,,,,,,,,
math-period,564,960461,null,"",,,,,,,,,
html-keyboard-response,565,961466,null,"Recall Period!",null,,,,,,,,
call-function,566,961468,,"",,,,,,,,,
html-keyboard-response,567,961573,null,"",null,,,,,,,,
recall-period,568,963914,9853.899999996647,"",,,,,,,,,Cod
html-keyboard-response,569,964017,null,"",null,,,,,,,,
recall-period,570,966515,14445.285000003525,"",,,,,,,,,Caboose
html-keyboard-response,571,966618,null,"",null,,,,,,,,
recall-period,572,968042,6754.145000004442,"",,,,,,,,,Stone
html-keyboard-response,573,968144,null,"",null,,,,,,,,
recall-period,574,972789,25732.54000000283,"",,,,,,,,,Tile
html-keyboard-response,575,972892,null,"",null,,,,,,,,
recall-period,576,975250,16302.09500000847,"",,,,,,,,,Gorilla
html-keyboard-response,577,975354,null,"",null,,,,,,,,
recall-period,578,979042,24005.630000008736,"",,,,,,,,,Cod
html-keyboard-response,579,979145,null,"",null,,,,,,,,
recall-period,580,1036470,null,"",,,,,,,,,
html-keyboard-response,581,1036974,null,"Time's Up!",null,,,,,,,,
html-keyboard-response,582,1038426,1448.7250000002095,"<p> Good job! You responded correctly to 94% of the GREEN squares.</p>
                  <p>Be sure to keep your accuracy above 80%</p>
                  <p>Press any key to continue the experiment. Thank you!</p>",32,,,,,,,,
html-keyboard-response,583,1038818,390.69999999995343,"<div style=""font-size:48px;"">Press any key to begin list 6 of 24 </div>",32,,,,,,,,
html-keyboard-response,584,1041325,null,"<div style=""font-size:60px;"">+</div>",null,,,,,,,,
html-keyboard-response,585,1041831,null,"CARRIAGE<img id = ""stim"" ><div class = red_square id = ""topsquare"" ></div><img id = ""stim"" ><div class = red_square  id = ""bottomsquare"" ></div>",null,word_square,response,0,none,true,,,
html-keyboard-response,586,1043333,null,"CARRIAGE",null,word,,,,, 'CARRIAGE',,
html-keyboard-response,587,1043708,373.19000000017695,"FRAME<img id = ""stim"" ><div class = green_square id = ""topsquare"" ></div><img id = ""stim"" ><div class = green_square  id = ""bottomsquare"" ></div>",32,word_square,response,1,Space,true,,,
html-keyboard-response,588,1045210,null,"FRAME",null,word,,,,, 'FRAME',,
html-keyboard-response,589,1045591,378.7150000007823,"RECORD<img id = ""stim"" ><div class = green_square id = ""topsquare"" ></div><img id = ""stim"" ><div class = green_square  id = ""bottomsquare"" ></div>",32,word_square,response,1,Space,true,,,
html-keyboard-response,590,1047097,null,"RECORD",null,word,,,,, 'RECORD',,
html-keyboard-response,591,1047602,null,"RIVER<img id = ""stim"" ><div class = red_square id = ""topsquare"" ></div><img id = ""stim"" ><div class = red_square  id = ""bottomsquare"" ></div>",null,word_square,response,0,none,true,,,
html-keyboard-response,592,1049109,null,"RIVER",null,word,,,,, 'RIVER',,
html-keyboard-response,593,1049615,null,"THRONE<img id = ""stim"" ><div class = red_square id = ""topsquare"" ></div><img id = ""stim"" ><div class = red_square  id = ""bottomsquare"" ></div>",null,word_square,response,0,none,true,,,
html-keyboard-response,594,1051120,null,"THRONE",null,word,,,,, 'THRONE',,
html-keyboard-response,595,1051623,null,"PROTON<img id = ""stim"" ><div class = green_square id = ""topsquare"" ></div><img id = ""stim"" ><div class = green_square  id = ""bottomsquare"" ></div>",null,word_square,response,1,Space,false,,,
html-keyboard-response,596,1053127,null,"PROTON",null,word,,,,, 'PROTON',,
html-keyboard-response,597,1053633,null,"MAPLE<img id = ""stim"" ><div class = green_square id = ""topsquare"" ></div><img id = ""stim"" ><div class = green_square  id = ""bottomsquare"" ></div>",null,word_square,response,1,Space,false,,,
html-keyboard-response,598,1055136,null,"MAPLE",null,word,,,,, 'MAPLE',,
html-keyboard-response,599,1055448,310.45499999891035,"TRENCH<img id = ""stim"" ><div class = green_square id = ""topsquare"" ></div><img id = ""stim"" ><div class = green_square  id = ""bottomsquare"" ></div>",32,word_square,response,1,Space,true,,,
html-keyboard-response,600,1056956,null,"TRENCH",null,word,,,,, 'TRENCH',,
html-keyboard-response,601,1057461,null,"PAIL<img id = ""stim"" ><div class = red_square id = ""topsquare"" ></div><img id = ""stim"" ><div class = red_square  id = ""bottomsquare"" ></div>",null,word_square,response,0,none,true,,,
html-keyboard-response,602,1058968,null,"PAIL",null,word,,,,, 'PAIL',,
html-keyboard-response,603,1059389,418.9099999985192,"SENATE<img id = ""stim"" ><div class = red_square id = ""topsquare"" ></div><img id = ""stim"" ><div class = red_square  id = ""bottomsquare"" ></div>",32,word_square,response,0,none,false,,,
html-keyboard-response,604,1060895,null,"SENATE",null,word,,,,, 'SENATE',,
html-keyboard-response,605,1061246,346.910000000149,"HOOD<img id = ""stim"" ><div class = green_square id = ""topsquare"" ></div><img id = ""stim"" ><div class = green_square  id = ""bottomsquare"" ></div>",32,word_square,response,1,Space,true,,,
html-keyboard-response,606,1062751,null,"HOOD",null,word,,,,, 'HOOD',,
html-keyboard-response,607,1063255,null,"MOTHER<img id = ""stim"" ><div class = red_square id = ""topsquare"" ></div><img id = ""stim"" ><div class = red_square  id = ""bottomsquare"" ></div>",null,word_square,response,0,none,true,,,
html-keyboard-response,608,1064757,null,"MOTHER",null,word,,,,, 'MOTHER',,
html-keyboard-response,609,1065261,null,"ADULT<img id = ""stim"" ><div class = green_square id = ""topsquare"" ></div><img id = ""stim"" ><div class = green_square  id = ""bottomsquare"" ></div>",null,word_square,response,1,Space,false,,,
html-keyboard-response,610,1066765,null,"ADULT",null,word,,,,, 'ADULT',,
html-keyboard-response,611,1067271,null,"CRADLE<img id = ""stim"" ><div class = red_square id = ""topsquare"" ></div><img id = ""stim"" ><div class = red_square  id = ""bottomsquare"" ></div>",null,word_square,response,0,none,true,,,
html-keyboard-response,612,1068775,null,"CRADLE",null,word,,,,, 'CRADLE',,
html-keyboard-response,613,1069184,407.839999999851,"ATLAS<img id = ""stim"" ><div class = green_square id = ""topsquare"" ></div><img id = ""stim"" ><div class = green_square  id = ""bottomsquare"" ></div>",32,word_square,response,1,Space,true,,,
html-keyboard-response,614,1070688,null,"ATLAS",null,word,,,,, 'ATLAS',,
html-keyboard-response,615,1071197,null,"PLAQUE<img id = ""stim"" ><div class = red_square id = ""topsquare"" ></div><img id = ""stim"" ><div class = red_square  id = ""bottomsquare"" ></div>",null,word_square,response,0,none,true,,,
html-keyboard-response,616,1072702,null,"PLAQUE",null,word,,,,, 'PLAQUE',,
html-keyboard-response,617,1073207,null,"MOTOR<img id = ""stim"" ><div class = red_square id = ""topsquare"" ></div><img id = ""stim"" ><div class = red_square  id = ""bottomsquare"" ></div>",null,word_square,response,0,none,true,,,
html-keyboard-response,618,1074711,null,"MOTOR",null,word,,,,, 'MOTOR',,
html-keyboard-response,619,1075207,493.87000000011176,"CROWN<img id = ""stim"" ><div class = green_square id = ""topsquare"" ></div><img id = ""stim"" ><div class = green_square  id = ""bottomsquare"" ></div>",32,word_square,response,1,Space,true,,,
html-keyboard-response,620,1076710,null,"CROWN",null,word,,,,, 'CROWN',,
call-function,621,1076711,,"",,,,,,,,,
html-keyboard-response,622,1076813,null,"",null,,,,,,,,
math-period,623,1078840,6079.654999999562,"",,,,,,,,,2
html-keyboard-response,624,1078945,null,"",null,,,,,,,,
math-period,625,1080421,2858.4400000018068,"",,,,,,,,,2
html-keyboard-response,626,1080523,null,"",null,,,,,,,,
math-period,627,1081364,1553.1299999984913,"",,,,,,,,,3
html-keyboard-response,628,1081466,null,"",null,,,,,,,,
math-period,629,1082215,1373.9299999980722,"",,,,,,,,,3
html-keyboard-response,630,1082319,null,"",null,,,,,,,,
math-period,631,1084370,3770.470000001369,"",,,,,,,,,0
html-keyboard-response,632,1084474,null,"",null,,,,,,,,
math-period,633,1085869,2675.4000000001397,"",,,,,,,,,1
html-keyboard-response,634,1085973,null,"",null,,,,,,,,
math-period,635,1086940,1766.4649999989197,"",,,,,,,,,2
html-keyboard-response,636,1087044,null,"",null,,,,,,,,
math-period,637,1088265,2199.76999999932,"",,,,,,,,,2
html-keyboard-response,638,1088368,null,"",null,,,,,,,,
math-period,639,1089319,1708.9299999985378,"",,,,,,,,,2
html-keyboard-response,640,1089422,null,"",null,,,,,,,,
math-period,641,1091206,3222.895000000717,"",,,,,,,,,0
html-keyboard-response,642,1091308,null,"",null,,,,,,,,
math-period,643,1097990,13121.549999999814,"",,,,,,,,,2
html-keyboard-response,644,1098094,null,"",null,,,,,,,,
math-period,645,1099392,2406.1449999988545,"",,,,,,,,,3
html-keyboard-response,646,1099499,null,"",null,,,,,,,,
math-period,647,1100693,2232.734999999637,"",,,,,,,,,1
html-keyboard-response,648,1100795,null,"",null,,,,,,,,
math-period,649,1100800,null,"",,,,,,,,,
html-keyboard-response,650,1101802,null,"Recall Period!",null,,,,,,,,
call-function,651,1101804,,"",,,,,,,,,
html-keyboard-response,652,1101909,null,"",null,,,,,,,,
recall-period,653,1104545,15617.179999997374,"",,,,,,,,,Stone
html-keyboard-response,654,1104647,null,"",null,,,,,,,,
recall-period,655,1106749,11850.015000004089,"",,,,,,,,,Goose
html-keyboard-response,656,1106853,null,"",null,,,,,,,,
recall-period,657,1116283,49155.074999993434,"",,,,,,,,,Tile
html-keyboard-response,658,1116387,null,"",null,,,,,,,,
recall-period,659,1117448,4108.929999999702,"",,,,,,,,,Crown
html-keyboard-response,660,1117551,null,"",null,,,,,,,,
recall-period,661,1120885,24241.309999996098,"",,,,,,,,,Throne
html-keyboard-response,662,1120987,null,"",null,,,,,,,,
recall-period,663,1176808,null,"",,,,,,,,,
html-keyboard-response,664,1177313,null,"Time's Up!",null,,,,,,,,
html-keyboard-response,665,1178975,1659.669999999227,"<p> Good job! You responded correctly to 91% of the GREEN squares.</p>
                  <p>Be sure to keep your accuracy above 80%</p>
                  <p>Press any key to continue the experiment. Thank you!</p>",32,,,,,,,,
html-keyboard-response,666,1179399,422.91499999933876,"<div style=""font-size:48px;"">Press any key to begin list 7 of 24 </div>",32,,,,,,,,
html-keyboard-response,667,1181903,null,"<div style=""font-size:60px;"">+</div>",null,,,,,,,,
html-keyboard-response,668,1182371,466.21500000031665,"MARKER<img id = ""stim"" ><div class = green_square id = ""topsquare"" ></div><img id = ""stim"" ><div class = green_square  id = ""bottomsquare"" ></div>",32,word_square,response,1,Space,true,,,
html-keyboard-response,669,1183875,null,"MARKER",null,word,,,,, 'MARKER',,
html-keyboard-response,670,1184378,null,"MEADOW<img id = ""stim"" ><div class = red_square id = ""topsquare"" ></div><img id = ""stim"" ><div class = red_square  id = ""bottomsquare"" ></div>",null,word_square,response,0,none,true,,,
html-keyboard-response,671,1185885,null,"MEADOW",null,word,,,,, 'MEADOW',,
html-keyboard-response,672,1186388,null,"HAWK<img id = ""stim"" ><div class = red_square id = ""topsquare"" ></div><img id = ""stim"" ><div class = red_square  id = ""bottomsquare"" ></div>",null,word_square,response,0,none,true,,,
html-keyboard-response,673,1187891,null,"HAWK",null,word,,,,, 'HAWK',,
html-keyboard-response,674,1188397,null,"ROBIN<img id = ""stim"" ><div class = green_square id = ""topsquare"" ></div><img id = ""stim"" ><div class = green_square  id = ""bottomsquare"" ></div>",null,word_square,response,1,Space,false,,,
html-keyboard-response,675,1189902,null,"ROBIN",null,word,,,,, 'ROBIN',,
html-keyboard-response,676,1190402,498.2349999991711,"PENGUIN<img id = ""stim"" ><div class = green_square id = ""topsquare"" ></div><img id = ""stim"" ><div class = green_square  id = ""bottomsquare"" ></div>",32,word_square,response,1,Space,true,,,
html-keyboard-response,677,1191903,null,"PENGUIN",null,word,,,,, 'PENGUIN',,
html-keyboard-response,678,1192407,null,"FLOWER<img id = ""stim"" ><div class = red_square id = ""topsquare"" ></div><img id = ""stim"" ><div class = red_square  id = ""bottomsquare"" ></div>",null,word_square,response,0,none,true,,,
html-keyboard-response,679,1193910,null,"FLOWER",null,word,,,,, 'FLOWER',,
html-keyboard-response,680,1194413,null,"TUNNEL<img id = ""stim"" ><div class = red_square id = ""topsquare"" ></div><img id = ""stim"" ><div class = red_square  id = ""bottomsquare"" ></div>",null,word_square,response,0,none,true,,,
html-keyboard-response,681,1195917,null,"TUNNEL",null,word,,,,, 'TUNNEL',,
html-keyboard-response,682,1196423,null,"FLAG<img id = ""stim"" ><div class = red_square id = ""topsquare"" ></div><img id = ""stim"" ><div class = red_square  id = ""bottomsquare"" ></div>",null,word_square,response,0,none,true,,,
html-keyboard-response,683,1197928,null,"FLAG",null,word,,,,, 'FLAG',,
html-keyboard-response,684,1198434,null,"PIGMENT<img id = ""stim"" ><div class = green_square id = ""topsquare"" ></div><img id = ""stim"" ><div class = green_square  id = ""bottomsquare"" ></div>",null,word_square,response,1,Space,false,,,
html-keyboard-response,685,1199935,null,"PIGMENT",null,word,,,,, 'PIGMENT',,
html-keyboard-response,686,1200349,412.7599999993108,"KETTLE<img id = ""stim"" ><div class = green_square id = ""topsquare"" ></div><img id = ""stim"" ><div class = green_square  id = ""bottomsquare"" ></div>",32,word_square,response,1,Space,true,,,
html-keyboard-response,687,1201853,null,"KETTLE",null,word,,,,, 'KETTLE',,
html-keyboard-response,688,1202355,null,"HEDGE<img id = ""stim"" ><div class = red_square id = ""topsquare"" ></div><img id = ""stim"" ><div class = red_square  id = ""bottomsquare"" ></div>",null,word_square,response,0,none,true,,,
html-keyboard-response,689,1203860,null,"HEDGE",null,word,,,,, 'HEDGE',,
html-keyboard-response,690,1204295,432.1550000004936,"LONDON<img id = ""stim"" ><div class = green_square id = ""topsquare"" ></div><img id = ""stim"" ><div class = green_square  id = ""bottomsquare"" ></div>",32,word_square,response,1,Space,true,,,
html-keyboard-response,691,1205798,null,"LONDON",null,word,,,,, 'LONDON',,
html-keyboard-response,692,1206300,null,"RESORT<img id = ""stim"" ><div class = red_square id = ""topsquare"" ></div><img id = ""stim"" ><div class = red_square  id = ""bottomsquare"" ></div>",null,word_square,response,0,none,true,,,
html-keyboard-response,693,1207805,null,"RESORT",null,word,,,,, 'RESORT',,
html-keyboard-response,694,1208230,422.02499999990687,"STABLE<img id = ""stim"" ><div class = green_square id = ""topsquare"" ></div><img id = ""stim"" ><div class = green_square  id = ""bottomsquare"" ></div>",32,word_square,response,1,Space,true,,,
html-keyboard-response,695,1209736,null,"STABLE",null,word,,,,, 'STABLE',,
html-keyboard-response,696,1210238,null,"EUROPE<img id = ""stim"" ><div class = red_square id = ""topsquare"" ></div><img id = ""stim"" ><div class = red_square  id = ""bottomsquare"" ></div>",null,word_square,response,0,none,true,,,
html-keyboard-response,697,1211743,null,"EUROPE",null,word,,,,, 'EUROPE',,
html-keyboard-response,698,1212115,370.6799999999348,"SHRIMP<img id = ""stim"" ><div class = green_square id = ""topsquare"" ></div><img id = ""stim"" ><div class = green_square  id = ""bottomsquare"" ></div>",32,word_square,response,1,Space,true,,,
html-keyboard-response,699,1213621,null,"SHRIMP",null,word,,,,, 'SHRIMP',,
html-keyboard-response,700,1214126,null,"MISTER<img id = ""stim"" ><div class = green_square id = ""topsquare"" ></div><img id = ""stim"" ><div class = green_square  id = ""bottomsquare"" ></div>",null,word_square,response,1,Space,false,,,
html-keyboard-response,701,1215629,null,"MISTER",null,word,,,,, 'MISTER',,
html-keyboard-response,702,1216133,null,"SHOELACE<img id = ""stim"" ><div class = red_square id = ""topsquare"" ></div><img id = ""stim"" ><div class = red_square  id = ""bottomsquare"" ></div>",null,word_square,response,0,none,true,,,
html-keyboard-response,703,1217638,null,"SHOELACE",null,word,,,,, 'SHOELACE',,
call-function,704,1217639,,"",,,,,,,,,
html-keyboard-response,705,1217744,null,"",null,,,,,,,,
math-period,706,1219091,2520.16500000027,"",,,,,,,,,4
html-keyboard-response,707,1219197,null,"",null,,,,,,,,
math-period,708,1220058,1530.7000000008848,"",,,,,,,,,5
html-keyboard-response,709,1220162,null,"",null,,,,,,,,
math-period,710,1221098,1672.6499999987427,"",,,,,,,,,4
html-keyboard-response,711,1221203,null,"",null,,,,,,,,
math-period,712,1223290,4059.7649999998976,"",,,,,,,,,1
html-keyboard-response,713,1223394,null,"",null,,,,,,,,
math-period,714,1224484,1943.2450000003446,"",,,,,,,,,2
html-keyboard-response,715,1224586,null,"",null,,,,,,,,
math-period,716,1226066,2447.4399999980815,"",,,,,,,,,2
html-keyboard-response,717,1226169,null,"",null,,,,,,,,
math-period,718,1228468,4443.089999998687,"",,,,,,,,,2
html-keyboard-response,719,1228570,null,"",null,,,,,,,,
math-period,720,1230413,5632.074999997625,"",,,,,,,,,4
html-keyboard-response,721,1230515,null,"",null,,,,,,,,
math-period,722,1232834,4482.900000000838,"",,,,,,,,,4
html-keyboard-response,723,1232938,null,"",null,,,,,,,,
math-period,724,1234654,3279.114999999292,"",,,,,,,,,1
html-keyboard-response,725,1234760,null,"",null,,,,,,,,
math-period,726,1238516,13353.574999999255,"",,,,,,,,,4
html-keyboard-response,727,1238619,null,"",null,,,,,,,,
math-period,728,1240465,3517.265000000363,"",,,,,,,,,2
html-keyboard-response,729,1240568,null,"",null,,,,,,,,
math-period,730,1241647,null,"",,,,,,,,,
html-keyboard-response,731,1242650,null,"Recall Period!",null,,,,,,,,
call-function,732,1242650,,"",,,,,,,,,
html-keyboard-response,733,1242755,null,"",null,,,,,,,,
recall-period,734,1245435,16438.98000000976,"",,,,,,,,,Penguin
html-keyboard-response,735,1245538,null,"",null,,,,,,,,
recall-period,736,1248330,8415.405000003986,"",,,,,,,,,Kettle
html-keyboard-response,737,1248436,null,"",null,,,,,,,,
recall-period,738,1256225,43663.44499999797,"",,,,,,,,,King
html-keyboard-response,739,1256327,null,"",null,,,,,,,,
recall-period,740,1278677,174138.62500000163,"",,,,,,,,,London
html-keyboard-response,741,1278780,null,"",null,,,,,,,,
recall-period,742,1281576,12604.279999998165,"",,,,,,,,,Art
html-keyboard-response,743,1281679,null,"",null,,,,,,,,
recall-period,744,1317655,null,"",,,,,,,,,
html-keyboard-response,745,1318162,null,"Time's Up!",null,,,,,,,,
html-keyboard-response,746,1318198,33.37499999906868,"<p> Good job! You responded correctly to 90% of the GREEN squares.</p>
                  <p>Be sure to keep your accuracy above 80%</p>
                  <p>Press any key to continue the experiment. Thank you!</p>",32,,,,,,,,
html-keyboard-response,747,1318678,478.1899999997113,"<div style=""font-size:48px;"">Press any key to begin list 8 of 24 </div>",32,,,,,,,,
html-keyboard-response,748,1321182,null,"<div style=""font-size:60px;"">+</div>",null,,,,,,,,
html-keyboard-response,749,1321584,400.4650000005495,"PORPOISE<img id = ""stim"" ><div class = green_square id = ""topsquare"" ></div><img id = ""stim"" ><div class = green_square  id = ""bottomsquare"" ></div>",32,word_square,response,1,Space,true,,,
html-keyboard-response,750,1323086,null,"PORPOISE",null,word,,,,, 'PORPOISE',,
html-keyboard-response,751,1323591,null,"TUBA<img id = ""stim"" ><div class = red_square id = ""topsquare"" ></div><img id = ""stim"" ><div class = red_square  id = ""bottomsquare"" ></div>",null,word_square,response,0,none,true,,,
html-keyboard-response,752,1325097,null,"TUBA",null,word,,,,, 'TUBA',,
html-keyboard-response,753,1325602,null,"PIANO<img id = ""stim"" ><div class = red_square id = ""topsquare"" ></div><img id = ""stim"" ><div class = red_square  id = ""bottomsquare"" ></div>",null,word_square,response,0,none,true,,,
html-keyboard-response,754,1327105,null,"PIANO",null,word,,,,, 'PIANO',,
html-keyboard-response,755,1327509,401.9900000002235,"PLASTER<img id = ""stim"" ><div class = green_square id = ""topsquare"" ></div><img id = ""stim"" ><div class = green_square  id = ""bottomsquare"" ></div>",32,word_square,response,1,Space,true,,,
html-keyboard-response,756,1329018,null,"PLASTER",null,word,,,,, 'PLASTER',,
html-keyboard-response,757,1329452,432.8699999987148,"BRICK<img id = ""stim"" ><div class = green_square id = ""topsquare"" ></div><img id = ""stim"" ><div class = green_square  id = ""bottomsquare"" ></div>",32,word_square,response,1,Space,true,,,
html-keyboard-response,758,1330956,null,"BRICK",null,word,,,,, 'BRICK',,
html-keyboard-response,759,1331465,null,"NEPHEW<img id = ""stim"" ><div class = red_square id = ""topsquare"" ></div><img id = ""stim"" ><div class = red_square  id = ""bottomsquare"" ></div>",null,word_square,response,0,none,true,,,
html-keyboard-response,760,1332970,null,"NEPHEW",null,word,,,,, 'NEPHEW',,
html-keyboard-response,761,1333473,null,"BLENDER<img id = ""stim"" ><div class = red_square id = ""topsquare"" ></div><img id = ""stim"" ><div class = red_square  id = ""bottomsquare"" ></div>",null,word_square,response,0,none,true,,,
html-keyboard-response,762,1334980,null,"BLENDER",null,word,,,,, 'BLENDER',,
html-keyboard-response,763,1335482,null,"CHECKERS<img id = ""stim"" ><div class = red_square id = ""topsquare"" ></div><img id = ""stim"" ><div class = red_square  id = ""bottomsquare"" ></div>",null,word_square,response,0,none,true,,,
html-keyboard-response,764,1336986,null,"CHECKERS",null,word,,,,, 'CHECKERS',,
html-keyboard-response,765,1337489,null,"FEMALE<img id = ""stim"" ><div class = green_square id = ""topsquare"" ></div><img id = ""stim"" ><div class = green_square  id = ""bottomsquare"" ></div>",null,word_square,response,1,Space,false,,,
html-keyboard-response,766,1338993,null,"FEMALE",null,word,,,,, 'FEMALE',,
html-keyboard-response,767,1339401,405.9049999997951,"GLASSES<img id = ""stim"" ><div class = green_square id = ""topsquare"" ></div><img id = ""stim"" ><div class = green_square  id = ""bottomsquare"" ></div>",32,word_square,response,1,Space,true,,,
html-keyboard-response,768,1340904,null,"GLASSES",null,word,,,,, 'GLASSES',,
html-keyboard-response,769,1341408,null,"FROG<img id = ""stim"" ><div class = red_square id = ""topsquare"" ></div><img id = ""stim"" ><div class = red_square  id = ""bottomsquare"" ></div>",null,word_square,response,0,none,true,,,
html-keyboard-response,770,1342914,null,"FROG",null,word,,,,, 'FROG',,
html-keyboard-response,771,1343417,null,"TOASTER<img id = ""stim"" ><div class = green_square id = ""topsquare"" ></div><img id = ""stim"" ><div class = green_square  id = ""bottomsquare"" ></div>",null,word_square,response,1,Space,false,,,
html-keyboard-response,772,1344922,null,"TOASTER",null,word,,,,, 'TOASTER',,
html-keyboard-response,773,1345428,null,"ATTIC<img id = ""stim"" ><div class = red_square id = ""topsquare"" ></div><img id = ""stim"" ><div class = red_square  id = ""bottomsquare"" ></div>",null,word_square,response,0,none,true,,,
html-keyboard-response,774,1346930,null,"ATTIC",null,word,,,,, 'ATTIC',,
html-keyboard-response,775,1347433,null,"MILDEW<img id = ""stim"" ><div class = green_square id = ""topsquare"" ></div><img id = ""stim"" ><div class = green_square  id = ""bottomsquare"" ></div>",null,word_square,response,1,Space,false,,,
html-keyboard-response,776,1348939,null,"MILDEW",null,word,,,,, 'MILDEW',,
html-keyboard-response,777,1349444,null,"LUGGAGE<img id = ""stim"" ><div class = red_square id = ""topsquare"" ></div><img id = ""stim"" ><div class = red_square  id = ""bottomsquare"" ></div>",null,word_square,response,0,none,true,,,
html-keyboard-response,778,1350947,null,"LUGGAGE",null,word,,,,, 'LUGGAGE',,
html-keyboard-response,779,1351405,456.02999999932945,"STAIRS<img id = ""stim"" ><div class = green_square id = ""topsquare"" ></div><img id = ""stim"" ><div class = green_square  id = ""bottomsquare"" ></div>",32,word_square,response,1,Space,true,,,
html-keyboard-response,780,1352911,null,"STAIRS",null,word,,,,, 'STAIRS',,
html-keyboard-response,781,1353381,468.6850000016857,"GERM<img id = ""stim"" ><div class = green_square id = ""topsquare"" ></div><img id = ""stim"" ><div class = green_square  id = ""bottomsquare"" ></div>",32,word_square,response,1,Space,true,,,
html-keyboard-response,782,1354885,null,"GERM",null,word,,,,, 'GERM',,
html-keyboard-response,783,1355388,null,"TREAT<img id = ""stim"" ><div class = red_square id = ""topsquare"" ></div><img id = ""stim"" ><div class = red_square  id = ""bottomsquare"" ></div>",null,word_square,response,0,none,true,,,
html-keyboard-response,784,1356891,null,"TREAT",null,word,,,,, 'TREAT',,
call-function,785,1356892,,"",,,,,,,,,
html-keyboard-response,786,1356994,null,"",null,,,,,,,,
math-period,787,1358569,3069.4599999987986,"",,,,,,,,,2
html-keyboard-response,788,1358672,null,"",null,,,,,,,,
math-period,789,1359767,2076.0149999987334,"",,,,,,,,,4
html-keyboard-response,790,1359870,null,"",null,,,,,,,,
math-period,791,1360729,1606.31000000122,"",,,,,,,,,3
html-keyboard-response,792,1360833,null,"",null,,,,,,,,
math-period,793,1362031,2329.305000001099,"",,,,,,,,,6
html-keyboard-response,794,1362137,null,"",null,,,,,,,,
math-period,795,1363764,3095.5500000002794,"",,,,,,,,,4
html-keyboard-response,796,1363867,null,"",null,,,,,,,,
math-period,797,1365798,3755.9149999998044,"",,,,,,,,,3
html-keyboard-response,798,1365900,null,"",null,,,,,,,,
math-period,799,1366803,1715.8650000016205,"",,,,,,,,,3
html-keyboard-response,800,1366904,null,"",null,,,,,,,,
math-period,801,1368598,3299.114999998128,"",,,,,,,,,1
html-keyboard-response,802,1368701,null,"",null,,,,,,,,
math-period,803,1370040,2586.330000001937,"",,,,,,,,,5
html-keyboard-response,804,1370145,null,"",null,,,,,,,,
math-period,805,1371061,1750.3399999986868,"",,,,,,,,,2
html-keyboard-response,806,1371164,null,"",null,,,,,,,,
math-period,807,1372402,2457.5750000001863,"",,,,,,,,,5
html-keyboard-response,808,1372507,null,"",null,,,,,,,,
math-period,809,1374165,3195.3099999991246,"",,,,,,,,,4
html-keyboard-response,810,1374268,null,"",null,,,,,,,,
math-period,811,1375633,2659.614999998361,"",,,,,,,,,1
html-keyboard-response,812,1375736,null,"",null,,,,,,,,
math-period,813,1377084,2610.7999999984168,"",,,,,,,,,5
html-keyboard-response,814,1377190,null,"",null,,,,,,,,
math-period,815,1377976,1499.0300000007264,"",,,,,,,,,3
html-keyboard-response,816,1378080,null,"",null,,,,,,,,
math-period,817,1380075,3871.8249999985565,"",,,,,,,,,5
html-keyboard-response,818,1380179,null,"",null,,,,,,,,
math-period,819,1380895,null,"",,,,,,,,,
html-keyboard-response,820,1381901,null,"Recall Period!",null,,,,,,,,
call-function,821,1381902,,"",,,,,,,,,
html-keyboard-response,822,1382006,null,"",null,,,,,,,,
recall-period,823,1385644,25353.96000000206,"",,,,,,,,,Female
html-keyboard-response,824,1385747,null,"",null,,,,,,,,
recall-period,825,1388348,11630.924999991665,"",,,,,,,,,Toaster
html-keyboard-response,826,1388455,null,"",null,,,,,,,,
recall-period,827,1402915,124972.11999999802,"",,,,,,,,,Glasses
html-keyboard-response,828,1403021,null,"",null,,,,,,,,
recall-period,829,1433641,240917.40999999852,"",,,,,,,,,Gildew
html-keyboard-response,830,1433745,null,"",null,,,,,,,,
recall-period,831,1456904,null,"",,,,,,,,,
html-keyboard-response,832,1457407,null,"Time's Up!",null,,,,,,,,
html-keyboard-response,833,1458940,1532.009999999078,"<p> Good job! You responded correctly to 90% of the GREEN squares.</p>
                  <p>Be sure to keep your accuracy above 80%</p>
                  <p>Press any key to continue the experiment. Thank you!</p>",32,,,,,,,,
html-keyboard-response,834,1460110,1167.5050000012852,"<div style=""font-size:48px;"">Press any key to begin list 9 of 24 </div>",32,,,,,,,,
html-keyboard-response,835,1462614,null,"<div style=""font-size:60px;"">+</div>",null,,,,,,,,
html-keyboard-response,836,1463034,418.42499999981374,"SHIRT<img id = ""stim"" ><div class = green_square id = ""topsquare"" ></div><img id = ""stim"" ><div class = green_square  id = ""bottomsquare"" ></div>",32,word_square,response,1,Space,true,,,
html-keyboard-response,837,1464540,null,"SHIRT",null,word,,,,, 'SHIRT',,
html-keyboard-response,838,1465043,null,"SCULPTURE<img id = ""stim"" ><div class = red_square id = ""topsquare"" ></div><img id = ""stim"" ><div class = red_square  id = ""bottomsquare"" ></div>",null,word_square,response,0,none,true,,,
html-keyboard-response,839,1466547,null,"SCULPTURE",null,word,,,,, 'SCULPTURE',,
html-keyboard-response,840,1467052,null,"KIDNEY<img id = ""stim"" ><div class = red_square id = ""topsquare"" ></div><img id = ""stim"" ><div class = red_square  id = ""bottomsquare"" ></div>",null,word_square,response,0,none,true,,,
html-keyboard-response,841,1468557,null,"KIDNEY",null,word,,,,, 'KIDNEY',,
html-keyboard-response,842,1468980,421.1399999987334,"PAINTING<img id = ""stim"" ><div class = green_square id = ""topsquare"" ></div><img id = ""stim"" ><div class = green_square  id = ""bottomsquare"" ></div>",32,word_square,response,1,Space,true,,,
html-keyboard-response,843,1470483,null,"PAINTING",null,word,,,,, 'PAINTING',,
html-keyboard-response,844,1470988,null,"TART<img id = ""stim"" ><div class = red_square id = ""topsquare"" ></div><img id = ""stim"" ><div class = red_square  id = ""bottomsquare"" ></div>",null,word_square,response,0,none,true,,,
html-keyboard-response,845,1472491,null,"TART",null,word,,,,, 'TART',,
html-keyboard-response,846,1472878,384.0149999996647,"VIRUS<img id = ""stim"" ><div class = green_square id = ""topsquare"" ></div><img id = ""stim"" ><div class = green_square  id = ""bottomsquare"" ></div>",32,word_square,response,1,Space,true,,,
html-keyboard-response,847,1474382,null,"VIRUS",null,word,,,,, 'VIRUS',,
html-keyboard-response,848,1474885,null,"VILLAGE<img id = ""stim"" ><div class = red_square id = ""topsquare"" ></div><img id = ""stim"" ><div class = red_square  id = ""bottomsquare"" ></div>",null,word_square,response,0,none,true,,,
html-keyboard-response,849,1476391,null,"VILLAGE",null,word,,,,, 'VILLAGE',,
html-keyboard-response,850,1476893,null,"WAX<img id = ""stim"" ><div class = red_square id = ""topsquare"" ></div><img id = ""stim"" ><div class = red_square  id = ""bottomsquare"" ></div>",null,word_square,response,0,none,true,,,
html-keyboard-response,851,1478397,null,"WAX",null,word,,,,, 'WAX',,
html-keyboard-response,852,1478843,443.70499999960884,"JACKET<img id = ""stim"" ><div class = green_square id = ""topsquare"" ></div><img id = ""stim"" ><div class = green_square  id = ""bottomsquare"" ></div>",32,word_square,response,1,Space,true,,,
html-keyboard-response,853,1480345,null,"JACKET",null,word,,,,, 'JACKET',,
html-keyboard-response,854,1480850,null,"PEACH<img id = ""stim"" ><div class = red_square id = ""topsquare"" ></div><img id = ""stim"" ><div class = red_square  id = ""bottomsquare"" ></div>",null,word_square,response,0,none,true,,,
html-keyboard-response,855,1482356,null,"PEACH",null,word,,,,, 'PEACH',,
html-keyboard-response,856,1482860,null,"CURTAIN<img id = ""stim"" ><div class = red_square id = ""topsquare"" ></div><img id = ""stim"" ><div class = red_square  id = ""bottomsquare"" ></div>",null,word_square,response,0,none,true,,,
html-keyboard-response,857,1484364,null,"CURTAIN",null,word,,,,, 'CURTAIN',,
html-keyboard-response,858,1484788,421.65500000002794,"LEAF<img id = ""stim"" ><div class = green_square id = ""topsquare"" ></div><img id = ""stim"" ><div class = green_square  id = ""bottomsquare"" ></div>",32,word_square,response,1,Space,true,,,
html-keyboard-response,859,1486294,null,"LEAF",null,word,,,,, 'LEAF',,
html-keyboard-response,860,1486689,392.6350000000093,"LACE<img id = ""stim"" ><div class = green_square id = ""topsquare"" ></div><img id = ""stim"" ><div class = green_square  id = ""bottomsquare"" ></div>",32,word_square,response,1,Space,true,,,
html-keyboard-response,861,1488194,null,"LACE",null,word,,,,, 'LACE',,
html-keyboard-response,862,1488700,null,"TAVERN<img id = ""stim"" ><div class = red_square id = ""topsquare"" ></div><img id = ""stim"" ><div class = red_square  id = ""bottomsquare"" ></div>",null,word_square,response,0,none,true,,,
html-keyboard-response,863,1490206,null,"TAVERN",null,word,,,,, 'TAVERN',,
html-keyboard-response,864,1490638,429.3850000014063,"RULER<img id = ""stim"" ><div class = green_square id = ""topsquare"" ></div><img id = ""stim"" ><div class = green_square  id = ""bottomsquare"" ></div>",32,word_square,response,1,Space,true,,,
html-keyboard-response,865,1492140,null,"RULER",null,word,,,,, 'RULER',,
html-keyboard-response,866,1492647,null,"BANQUET<img id = ""stim"" ><div class = red_square id = ""topsquare"" ></div><img id = ""stim"" ><div class = red_square  id = ""bottomsquare"" ></div>",null,word_square,response,0,none,true,,,
html-keyboard-response,867,1494149,null,"BANQUET",null,word,,,,, 'BANQUET',,
html-keyboard-response,868,1494578,426.77499999990687,"DENTIST<img id = ""stim"" ><div class = green_square id = ""topsquare"" ></div><img id = ""stim"" ><div class = green_square  id = ""bottomsquare"" ></div>",32,word_square,response,1,Space,true,,,
html-keyboard-response,869,1496083,null,"DENTIST",null,word,,,,, 'DENTIST',,
html-keyboard-response,870,1496451,366.3099999993574,"PORT<img id = ""stim"" ><div class = green_square id = ""topsquare"" ></div><img id = ""stim"" ><div class = green_square  id = ""bottomsquare"" ></div>",32,word_square,response,1,Space,true,,,
html-keyboard-response,871,1497953,null,"PORT",null,word,,,,, 'PORT',,
call-function,872,1497954,,"",,,,,,,,,
html-keyboard-response,873,1498060,null,"",null,,,,,,,,
math-period,874,1499018,1754.0500000012107,"",,,,,,,,,4
html-keyboard-response,875,1499121,null,"",null,,,,,,,,
math-period,876,1500223,2099.1699999996927,"",,,,,,,,,6
html-keyboard-response,877,1500325,null,"",null,,,,,,,,
math-period,878,1501152,1555.849999998929,"",,,,,,,,,3
html-keyboard-response,879,1501255,null,"",null,,,,,,,,
math-period,880,1502255,1911.66999999783,"",,,,,,,,,5
html-keyboard-response,881,1502359,null,"",null,,,,,,,,
math-period,882,1503220,1657.4700000020675,"",,,,,,,,,3
html-keyboard-response,883,1503326,null,"",null,,,,,,,,
math-period,884,1504107,1526.1500000013039,"",,,,,,,,,2
html-keyboard-response,885,1504210,null,"",null,,,,,,,,
math-period,886,1505062,1661.5650000022724,"",,,,,,,,,1
html-keyboard-response,887,1505165,null,"",null,,,,,,,,
math-period,888,1506068,1782.1899999983143,"",,,,,,,,,5
html-keyboard-response,889,1506171,null,"",null,,,,,,,,
math-period,890,1507584,2746.7250000024214,"",,,,,,,,,2
html-keyboard-response,891,1507685,null,"",null,,,,,,,,
math-period,892,1509543,3666.554999999935,"",,,,,,,,,4
html-keyboard-response,893,1509646,null,"",null,,,,,,,,
math-period,894,1511493,3484.9600000018254,"",,,,,,,,,0
html-keyboard-response,895,1511596,null,"",null,,,,,,,,
math-period,896,1512799,1884.0550000006333,"",,,,,,,,,4
html-keyboard-response,897,1512904,null,"",null,,,,,,,,
math-period,898,1513826,1740.2100000018254,"",,,,,,,,,4
html-keyboard-response,899,1513933,null,"",null,,,,,,,,
math-period,900,1514885,1844.1850000000559,"",,,,,,,,,2
html-keyboard-response,901,1514988,null,"",null,,,,,,,,
math-period,902,1515767,1465.5600000005215,"",,,,,,,,,2
html-keyboard-response,903,1515870,null,"",null,,,,,,,,
math-period,904,1516762,1703.7350000012666,"",,,,,,,,,3
html-keyboard-response,905,1516865,null,"",null,,,,,,,,
math-period,906,1518149,2448.5600000005215,"",,,,,,,,,2
html-keyboard-response,907,1518250,null,"",null,,,,,,,,
math-period,908,1519757,2929.909999998985,"",,,,,,,,,2
html-keyboard-response,909,1519859,null,"",null,,,,,,,,
math-period,910,1521136,2530.404999999795,"",,,,,,,,,6
html-keyboard-response,911,1521239,null,"",null,,,,,,,,
math-period,912,1521957,null,"",,,,,,,,,
html-keyboard-response,913,1522963,null,"Recall Period!",null,,,,,,,,
call-function,914,1522964,,"",,,,,,,,,
html-keyboard-response,915,1523068,null,"",null,,,,,,,,
recall-period,916,1525539,17231.405000005616,"",,,,,,,,,Blanket
html-keyboard-response,917,1525642,null,"",null,,,,,,,,
recall-period,918,1529292,9986.915000002598,"",,,,,,,,,Kidney
html-keyboard-response,919,1529396,null,"",null,,,,,,,,
recall-period,920,1530480,3959.554999998305,"",,,,,,,,,Shirt
html-keyboard-response,921,1530583,null,"",null,,,,,,,,
recall-period,922,1543128,94685.11500000744,"",,,,,,,,,Tavern
html-keyboard-response,923,1543230,null,"",null,,,,,,,,
recall-period,924,1597968,null,"",,,,,,,,,
html-keyboard-response,925,1598470,null,"Time's Up!",null,,,,,,,,
html-keyboard-response,926,1606134,7661.400000000838,"<p> Good job! You responded correctly to 91% of the GREEN squares.</p>
                  <p>Be sure to keep your accuracy above 80%</p>
                  <p>Press any key to continue the experiment. Thank you!</p>",32,,,,,,,,
html-keyboard-response,927,1608087,1951.0900000005495,"<div style=""font-size:48px;"">Press any key to begin list 10 of 24 </div>",32,,,,,,,,
html-keyboard-response,928,1610589,null,"<div style=""font-size:60px;"">+</div>",null,,,,,,,,
html-keyboard-response,929,1611096,null,"BUREAU<img id = ""stim"" ><div class = green_square id = ""topsquare"" ></div><img id = ""stim"" ><div class = green_square  id = ""bottomsquare"" ></div>",null,word_square,response,1,Space,false,,,
html-keyboard-response,930,1612598,null,"BUREAU",null,word,,,,, 'BUREAU',,
html-keyboard-response,931,1613108,null,"CHEST<img id = ""stim"" ><div class = red_square id = ""topsquare"" ></div><img id = ""stim"" ><div class = red_square  id = ""bottomsquare"" ></div>",null,word_square,response,0,none,true,,,
html-keyboard-response,932,1614610,null,"CHEST",null,word,,,,, 'CHEST',,
html-keyboard-response,933,1615113,null,"SIDING<img id = ""stim"" ><div class = red_square id = ""topsquare"" ></div><img id = ""stim"" ><div class = red_square  id = ""bottomsquare"" ></div>",null,word_square,response,0,none,true,,,
html-keyboard-response,934,1616616,null,"SIDING",null,word,,,,, 'SIDING',,
html-keyboard-response,935,1617028,409.384999999078,"DINER<img id = ""stim"" ><div class = green_square id = ""topsquare"" ></div><img id = ""stim"" ><div class = green_square  id = ""bottomsquare"" ></div>",32,word_square,response,1,Space,true,,,
html-keyboard-response,936,1618533,null,"DINER",null,word,,,,, 'DINER',,
html-keyboard-response,937,1619035,null,"SLOPE<img id = ""stim"" ><div class = red_square id = ""topsquare"" ></div><img id = ""stim"" ><div class = red_square  id = ""bottomsquare"" ></div>",null,word_square,response,0,none,true,,,
html-keyboard-response,938,1620539,null,"SLOPE",null,word,,,,, 'SLOPE',,
html-keyboard-response,939,1620879,338.5899999993853,"FLEET<img id = ""stim"" ><div class = green_square id = ""topsquare"" ></div><img id = ""stim"" ><div class = green_square  id = ""bottomsquare"" ></div>",32,word_square,response,1,Space,true,,,
html-keyboard-response,940,1622383,null,"FLEET",null,word,,,,, 'FLEET',,
html-keyboard-response,941,1622886,null,"COLONEL<img id = ""stim"" ><div class = red_square id = ""topsquare"" ></div><img id = ""stim"" ><div class = red_square  id = ""bottomsquare"" ></div>",null,word_square,response,0,none,true,,,
html-keyboard-response,942,1624389,null,"COLONEL",null,word,,,,, 'COLONEL',,
html-keyboard-response,943,1624893,null,"PRIEST<img id = ""stim"" ><div class = red_square id = ""topsquare"" ></div><img id = ""stim"" ><div class = red_square  id = ""bottomsquare"" ></div>",null,word_square,response,0,none,true,,,
html-keyboard-response,944,1626396,null,"PRIEST",null,word,,,,, 'PRIEST',,
html-keyboard-response,945,1626899,null,"LODGE<img id = ""stim"" ><div class = green_square id = ""topsquare"" ></div><img id = ""stim"" ><div class = green_square  id = ""bottomsquare"" ></div>",null,word_square,response,1,Space,false,,,
html-keyboard-response,946,1628401,null,"LODGE",null,word,,,,, 'LODGE',,
