trial_type,trial_index,time_elapsed,rt,stimulus,key_press,test_part,task,targ_cond,correctKeyCode,correct,word,value,response
pavlovia,0,905,,"",,,,,,,,,
external-html,1,14314,13253.18500000867,"",,,,,,,,,
html-keyboard-response,2,15956,1634.8200000065845,"Welcome to the experiment. Press any key to begin.",71,,,,,,,,
html-keyboard-response,3,61452,45490.729999990435,"<p>You will see a list of words and colored squares in the following task.<p><p>Press the spacebar whenever you see a GREEN square.<p><p>Do not press a key if the square is RED<p><p>Press the spacebar to continue.</p>",32,,,,,,,,
html-keyboard-response,4,70348,8384.799999999814,"<p>Please try to remember as many of the words as you can, and try to think about the meaning of each word as it appears.<p><p>After the detection and encoding task you will be asked to solve some math problems for 24 seconds.<p> Please solve as many problems as you can in the time given. <p>",32,,,,,,,,
html-keyboard-response,5,75645,4777.6449999946635,"After solving the math problems, you will be asked to type in as many words <p>from the previous list as you can remember for 75 seconds.<p> If you finish recalling before the 75 seconds are up,<p> just sit tight and try to think of any more words you could have missed. <p><p>We will begin with a brief practice session<p>Press the spacebar to begin the practice.</p>",32,,,,,,,,
html-keyboard-response,6,78160,null,"<div style=""font-size:60px;"">+</div>",null,,,,,,,,
html-keyboard-response,7,78688,null,"HAPPY<img id = ""stim"" ><div class = red_square id = ""topsquare"" ></div><img id = ""stim"" ><div class = red_square  id = ""bottomsquare"" ></div>",null,word_square,prac_response,0,none,true,,,
html-keyboard-response,8,80194,null,"HAPPY",null,word,,,,,HAPPY,,
html-keyboard-response,9,80702,null,"COLD<img id = ""stim"" ><div class = green_square id = ""topsquare"" ></div><img id = ""stim"" ><div class = green_square  id = ""bottomsquare"" ></div>",null,word_square,prac_response,1,Space,false,,,
html-keyboard-response,10,82220,null,"COLD",null,word,,,,,COLD,,
html-keyboard-response,11,82730,424.6700000076089,"HEAVY<img id = ""stim"" ><div class = green_square id = ""topsquare"" ></div><img id = ""stim"" ><div class = green_square  id = ""bottomsquare"" ></div>",32,word_square,prac_response,1,Space,true,,,
html-keyboard-response,12,84243,null,"HEAVY",null,word,,,,,HEAVY,,
html-keyboard-response,13,84754,null,"FUNNY<img id = ""stim"" ><div class = red_square id = ""topsquare"" ></div><img id = ""stim"" ><div class = red_square  id = ""bottomsquare"" ></div>",null,word_square,prac_response,0,none,true,,,
html-keyboard-response,14,86266,null,"FUNNY",null,word,,,,,FUNNY,,
html-keyboard-response,15,86771,307.88499998743646,"SCARY<img id = ""stim"" ><div class = green_square id = ""topsquare"" ></div><img id = ""stim"" ><div class = green_square  id = ""bottomsquare"" ></div>",32,word_square,prac_response,1,Space,true,,,
html-keyboard-response,16,88282,null,"SCARY",null,word,,,,,SCARY,,
html-keyboard-response,17,88802,425.3899999894202,"PEACEFUL<img id = ""stim"" ><div class = green_square id = ""topsquare"" ></div><img id = ""stim"" ><div class = green_square  id = ""bottomsquare"" ></div>",32,word_square,prac_response,1,Space,true,,,
html-keyboard-response,18,90306,null,"PEACEFUL",null,word,,,,,PEACEFUL,,
html-keyboard-response,19,90814,null,"LITTLE<img id = ""stim"" ><div class = red_square id = ""topsquare"" ></div><img id = ""stim"" ><div class = red_square  id = ""bottomsquare"" ></div>",null,word_square,prac_response,0,none,true,,,
html-keyboard-response,20,92320,null,"LITTLE",null,word,,,,,LITTLE,,
html-keyboard-response,21,92840,null,"TIRED<img id = ""stim"" ><div class = red_square id = ""topsquare"" ></div><img id = ""stim"" ><div class = red_square  id = ""bottomsquare"" ></div>",null,word_square,prac_response,0,none,true,,,
html-keyboard-response,22,94348,null,"TIRED",null,word,,,,,TIRED,,
html-keyboard-response,23,94856,null,"ENTERTAINING<img id = ""stim"" ><div class = red_square id = ""topsquare"" ></div><img id = ""stim"" ><div class = red_square  id = ""bottomsquare"" ></div>",null,word_square,prac_response,0,none,true,,,
html-keyboard-response,24,96360,null,"ENTERTAINING",null,word,,,,,ENTERTAINING,,
html-keyboard-response,25,96876,346.9049999839626,"GRATEFUL<img id = ""stim"" ><div class = green_square id = ""topsquare"" ></div><img id = ""stim"" ><div class = green_square  id = ""bottomsquare"" ></div>",32,word_square,prac_response,1,Space,true,,,
html-keyboard-response,26,98383,null,"GRATEFUL",null,word,,,,,GRATEFUL,,
html-keyboard-response,27,98886,null,"LOUD<img id = ""stim"" ><div class = red_square id = ""topsquare"" ></div><img id = ""stim"" ><div class = red_square  id = ""bottomsquare"" ></div>",null,word_square,prac_response,0,none,true,,,
html-keyboard-response,28,100404,null,"LOUD",null,word,,,,,LOUD,,
html-keyboard-response,29,100924,358.77500000060536,"SMART<img id = ""stim"" ><div class = green_square id = ""topsquare"" ></div><img id = ""stim"" ><div class = green_square  id = ""bottomsquare"" ></div>",32,word_square,prac_response,1,Space,true,,,
html-keyboard-response,30,102435,null,"SMART",null,word,,,,,SMART,,
html-keyboard-response,31,102955,341.50499998941086,"SMOOTH<img id = ""stim"" ><div class = green_square id = ""topsquare"" ></div><img id = ""stim"" ><div class = green_square  id = ""bottomsquare"" ></div>",32,word_square,prac_response,1,Space,true,,,
html-keyboard-response,32,104465,null,"SMOOTH",null,word,,,,,SMOOTH,,
html-keyboard-response,33,104971,null,"DISHONEST<img id = ""stim"" ><div class = red_square id = ""topsquare"" ></div><img id = ""stim"" ><div class = red_square  id = ""bottomsquare"" ></div>",null,word_square,prac_response,0,none,true,,,
html-keyboard-response,34,106481,null,"DISHONEST",null,word,,,,,DISHONEST,,
html-keyboard-response,35,106987,409.50499998871237,"WEALTHY<img id = ""stim"" ><div class = green_square id = ""topsquare"" ></div><img id = ""stim"" ><div class = green_square  id = ""bottomsquare"" ></div>",32,word_square,prac_response,1,Space,true,,,
html-keyboard-response,36,108491,null,"WEALTHY",null,word,,,,,WEALTHY,,
html-keyboard-response,37,109002,null,"BEAUTIFUL<img id = ""stim"" ><div class = red_square id = ""topsquare"" ></div><img id = ""stim"" ><div class = red_square  id = ""bottomsquare"" ></div>",null,word_square,prac_response,0,none,true,,,
html-keyboard-response,38,110519,null,"BEAUTIFUL",null,word,,,,,BEAUTIFUL,,
html-keyboard-response,39,111027,null,"DREARY<img id = ""stim"" ><div class = red_square id = ""topsquare"" ></div><img id = ""stim"" ><div class = red_square  id = ""bottomsquare"" ></div>",null,word_square,prac_response,0,none,true,,,
html-keyboard-response,40,112536,null,"DREARY",null,word,,,,,DREARY,,
html-keyboard-response,41,113046,335.69000000716187,"PLAYFUL<img id = ""stim"" ><div class = green_square id = ""topsquare"" ></div><img id = ""stim"" ><div class = green_square  id = ""bottomsquare"" ></div>",32,word_square,prac_response,1,Space,true,,,
html-keyboard-response,42,114550,null,"PLAYFUL",null,word,,,,,PLAYFUL,,
html-keyboard-response,43,118001,3445.435000001453,"<p> Good job! You responded correctly to 94% of the GREEN squares.</p>
                  <p>Be sure to keep your accuracy above 80%</p>
                  <p>We're going to try once more to make sure you understand  the task. press any key to continue. </p>",32,,,,,,,,
html-keyboard-response,44,119190,1185.4100000055041,"<p>You will see a list of words and colored squares in the following task.<p><p>Press the spacebar whenever you see a GREEN square.<p><p>Do not press a key if the square is RED<p><p>Press the spacebar to continue.</p>",32,,,,,,,,
html-keyboard-response,45,121719,null,"<div style=""font-size:60px;"">+</div>",null,,,,,,,,
html-keyboard-response,46,122240,null,"HAPPY<img id = ""stim"" ><div class = red_square id = ""topsquare"" ></div><img id = ""stim"" ><div class = red_square  id = ""bottomsquare"" ></div>",null,word_square,response,0,none,true,,,
html-keyboard-response,47,123753,null,"HAPPY",null,word,,,,,HAPPY,,
html-keyboard-response,48,124150,394.56000001518987,"COLD<img id = ""stim"" ><div class = green_square id = ""topsquare"" ></div><img id = ""stim"" ><div class = green_square  id = ""bottomsquare"" ></div>",32,word_square,response,1,Space,true,,,
html-keyboard-response,49,125660,null,"COLD",null,word,,,,,COLD,,
html-keyboard-response,50,126112,450.1499999896623,"HEAVY<img id = ""stim"" ><div class = green_square id = ""topsquare"" ></div><img id = ""stim"" ><div class = green_square  id = ""bottomsquare"" ></div>",32,word_square,response,1,Space,true,,,
html-keyboard-response,51,127619,null,"HEAVY",null,word,,,,,HEAVY,,
html-keyboard-response,52,128127,null,"FUNNY<img id = ""stim"" ><div class = red_square id = ""topsquare"" ></div><img id = ""stim"" ><div class = red_square  id = ""bottomsquare"" ></div>",null,word_square,response,0,none,true,,,
html-keyboard-response,53,129636,null,"FUNNY",null,word,,,,,FUNNY,,
html-keyboard-response,54,129955,316.34499999927357,"SCARY<img id = ""stim"" ><div class = green_square id = ""topsquare"" ></div><img id = ""stim"" ><div class = green_square  id = ""bottomsquare"" ></div>",32,word_square,response,1,Space,true,,,
html-keyboard-response,55,131462,null,"SCARY",null,word,,,,,SCARY,,
html-keyboard-response,56,131803,338.46999998786487,"PEACEFUL<img id = ""stim"" ><div class = green_square id = ""topsquare"" ></div><img id = ""stim"" ><div class = green_square  id = ""bottomsquare"" ></div>",32,word_square,response,1,Space,true,,,
html-keyboard-response,57,133309,null,"PEACEFUL",null,word,,,,,PEACEFUL,,
html-keyboard-response,58,133817,null,"LITTLE<img id = ""stim"" ><div class = red_square id = ""topsquare"" ></div><img id = ""stim"" ><div class = red_square  id = ""bottomsquare"" ></div>",null,word_square,response,0,none,true,,,
html-keyboard-response,59,135329,null,"LITTLE",null,word,,,,,LITTLE,,
html-keyboard-response,60,135849,null,"TIRED<img id = ""stim"" ><div class = red_square id = ""topsquare"" ></div><img id = ""stim"" ><div class = red_square  id = ""bottomsquare"" ></div>",null,word_square,response,0,none,true,,,
html-keyboard-response,61,137354,null,"TIRED",null,word,,,,,TIRED,,
html-keyboard-response,62,137866,null,"ENTERTAINING<img id = ""stim"" ><div class = red_square id = ""topsquare"" ></div><img id = ""stim"" ><div class = red_square  id = ""bottomsquare"" ></div>",null,word_square,response,0,none,true,,,
html-keyboard-response,63,139371,null,"ENTERTAINING",null,word,,,,,ENTERTAINING,,
html-keyboard-response,64,139662,287.05499999341555,"GRATEFUL<img id = ""stim"" ><div class = green_square id = ""topsquare"" ></div><img id = ""stim"" ><div class = green_square  id = ""bottomsquare"" ></div>",32,word_square,response,1,Space,true,,,
html-keyboard-response,65,141170,null,"GRATEFUL",null,word,,,,,GRATEFUL,,
html-keyboard-response,66,141684,null,"LOUD<img id = ""stim"" ><div class = red_square id = ""topsquare"" ></div><img id = ""stim"" ><div class = red_square  id = ""bottomsquare"" ></div>",null,word_square,response,0,none,true,,,
html-keyboard-response,67,143195,null,"LOUD",null,word,,,,,LOUD,,
html-keyboard-response,68,143563,365.8999999752268,"SMART<img id = ""stim"" ><div class = green_square id = ""topsquare"" ></div><img id = ""stim"" ><div class = green_square  id = ""bottomsquare"" ></div>",32,word_square,response,1,Space,true,,,
html-keyboard-response,69,145082,null,"SMART",null,word,,,,,SMART,,
html-keyboard-response,70,145464,379.39499999629334,"SMOOTH<img id = ""stim"" ><div class = green_square id = ""topsquare"" ></div><img id = ""stim"" ><div class = green_square  id = ""bottomsquare"" ></div>",32,word_square,response,1,Space,true,,,
html-keyboard-response,71,146982,null,"SMOOTH",null,word,,,,,SMOOTH,,
html-keyboard-response,72,147498,null,"DISHONEST<img id = ""stim"" ><div class = red_square id = ""topsquare"" ></div><img id = ""stim"" ><div class = red_square  id = ""bottomsquare"" ></div>",null,word_square,response,0,none,true,,,
html-keyboard-response,73,149013,null,"DISHONEST",null,word,,,,,DISHONEST,,
html-keyboard-response,74,149352,336.53500000946224,"WEALTHY<img id = ""stim"" ><div class = green_square id = ""topsquare"" ></div><img id = ""stim"" ><div class = green_square  id = ""bottomsquare"" ></div>",32,word_square,response,1,Space,true,,,
html-keyboard-response,75,150857,null,"WEALTHY",null,word,,,,,WEALTHY,,
html-keyboard-response,76,151362,null,"BEAUTIFUL<img id = ""stim"" ><div class = red_square id = ""topsquare"" ></div><img id = ""stim"" ><div class = red_square  id = ""bottomsquare"" ></div>",null,word_square,response,0,none,true,,,
html-keyboard-response,77,152875,null,"BEAUTIFUL",null,word,,,,,BEAUTIFUL,,
html-keyboard-response,78,153390,null,"DREARY<img id = ""stim"" ><div class = red_square id = ""topsquare"" ></div><img id = ""stim"" ><div class = red_square  id = ""bottomsquare"" ></div>",null,word_square,response,0,none,true,,,
html-keyboard-response,79,154902,null,"DREARY",null,word,,,,,DREARY,,
html-keyboard-response,80,155252,345.00000000116415,"PLAYFUL<img id = ""stim"" ><div class = green_square id = ""topsquare"" ></div><img id = ""stim"" ><div class = green_square  id = ""bottomsquare"" ></div>",32,word_square,response,1,Space,true,,,
html-keyboard-response,81,156766,null,"PLAYFUL",null,word,,,,,PLAYFUL,,
html-keyboard-response,82,161037,4267.214999999851,"<p> Good job! You responded correctly to 100% of the GREEN squares.</p>
                  <p>Be sure to keep your accuracy above 80%</p>
                  <p>Press any key to begin the math and recall sections. Thank you!</p>",32,,,,,,,,
call-function,83,161039,,"",,,,,,,,,
html-keyboard-response,84,161143,null,"",null,,,,,,,,
math-period,85,164678,4952.570000023115,"",,,,,,,,,6
html-keyboard-response,86,164788,null,"",null,,,,,,,,
math-period,87,166197,2714.140000025509,"",,,,,,,,,5
html-keyboard-response,88,166315,null,"",null,,,,,,,,
math-period,89,170891,12357.515000010608,"",,,,,,,,,2
html-keyboard-response,90,171005,null,"",null,,,,,,,,
math-period,91,172759,3397.2199999843724,"",,,,,,,,,4
html-keyboard-response,92,172865,null,"",null,,,,,,,,
math-period,93,174153,2461.810000007972,"",,,,,,,,,5
html-keyboard-response,94,174274,null,"",null,,,,,,,,
math-period,95,175391,2122.5349999731407,"",,,,,,,,,3
html-keyboard-response,96,175499,null,"",null,,,,,,,,
math-period,97,176872,2625.769999984186,"",,,,,,,,,4
html-keyboard-response,98,176976,null,"",null,,,,,,,,
math-period,99,178134,2194.759999983944,"",,,,,,,,,3
html-keyboard-response,100,178236,null,"",null,,,,,,,,
math-period,101,180275,3975.3900000068825,"",,,,,,,,,2
html-keyboard-response,102,180384,null,"",null,,,,,,,,
math-period,103,181602,2282.340000005206,"",,,,,,,,,2
html-keyboard-response,104,181707,null,"",null,,,,,,,,
math-period,105,183879,4215.350000013132,"",,,,,,,,,1
html-keyboard-response,106,183989,null,"",null,,,,,,,,
math-period,107,185062,null,"",,,,,,,,,
html-keyboard-response,108,186066,null,"Recall Period!",null,,,,,,,,
call-function,109,186067,,"",,,,,,,,,
html-keyboard-response,110,186171,null,"",null,,,,,,,,
recall-period,111,189655,17541.834999952698,"",,,,,,,,,happy
html-keyboard-response,112,189758,null,"",null,,,,,,,,
recall-period,113,191174,7266.290000028675,"",,,,,,,,,playful
html-keyboard-response,114,191281,null,"",null,,,,,,,,
recall-period,115,192572,6199.2699999245815,"",,,,,,,,,peaceful
html-keyboard-response,116,192676,null,"",null,,,,,,,,
recall-period,117,195479,12637.06499998807,"",,,,,,,,,cold
html-keyboard-response,118,195583,null,"",null,,,,,,,,
recall-period,119,203804,61427.945000032196,"",,,,,,,,,helpful
html-keyboard-response,120,203912,null,"",null,,,,,,,,
recall-period,121,207851,13283.04500001832,"",,,,,,,,,sad
html-keyboard-response,122,207958,null,"",null,,,,,,,,
recall-period,123,210502,15979.024999949615,"",,,,,,,,,content
html-keyboard-response,124,210618,null,"",null,,,,,,,,
recall-period,125,220932,69680.33000009018,"",,,,,,,,,honest
html-keyboard-response,126,221035,null,"",null,,,,,,,,
recall-period,127,232035,63049.97500005993,"",,,,,,,,,crazy
html-keyboard-response,128,232150,null,"",null,,,,,,,,
recall-period,129,255727,207659.97499990044,"",,,,,,,,,grateful
html-keyboard-response,130,255837,null,"",null,,,,,,,,
recall-period,131,261074,null,"",,,,,,,,,
html-keyboard-response,132,261585,null,"Time's Up!",null,,,,,,,,
html-keyboard-response,133,265820,4231.954999995651,"<p>We will now begin the experiment!<p><p>Please try to remember all words from each list.<p><p>Press the spacebar whenever you see a GREEN square.<p><p><p><p>Press the spacebar to begin.</p>",32,,,,,,,,
html-keyboard-response,134,267988,1660.1249999948777,"<div style=""font-size:48px;"">Press any key to begin list 1 of 24 </div>",32,,,,,,,,
html-keyboard-response,135,270513,null,"<div style=""font-size:60px;"">+</div>",null,,,,,,,,
html-keyboard-response,136,270845,327.85999999032356,"BLUEJAY<img id = ""stim"" ><div class = green_square id = ""topsquare"" ></div><img id = ""stim"" ><div class = green_square  id = ""bottomsquare"" ></div>",32,word_square,response,1,Space,true,,,
html-keyboard-response,137,272353,null,"BLUEJAY",null,word,,,,, 'BLUEJAY',,
html-keyboard-response,138,272857,null,"FIGHTER<img id = ""stim"" ><div class = red_square id = ""topsquare"" ></div><img id = ""stim"" ><div class = red_square  id = ""bottomsquare"" ></div>",null,word_square,response,0,none,true,,,
html-keyboard-response,139,274368,null,"FIGHTER",null,word,,,,, 'FIGHTER',,
html-keyboard-response,140,274871,null,"BIBLE<img id = ""stim"" ><div class = red_square id = ""topsquare"" ></div><img id = ""stim"" ><div class = red_square  id = ""bottomsquare"" ></div>",null,word_square,response,0,none,true,,,
html-keyboard-response,141,276380,null,"BIBLE",null,word,,,,, 'BIBLE',,
html-keyboard-response,142,276693,310.5700000014622,"LILY<img id = ""stim"" ><div class = green_square id = ""topsquare"" ></div><img id = ""stim"" ><div class = green_square  id = ""bottomsquare"" ></div>",32,word_square,response,1,Space,true,,,
html-keyboard-response,143,278198,null,"LILY",null,word,,,,, 'LILY',,
html-keyboard-response,144,278540,339.9900000076741,"PROTON<img id = ""stim"" ><div class = green_square id = ""topsquare"" ></div><img id = ""stim"" ><div class = green_square  id = ""bottomsquare"" ></div>",32,word_square,response,1,Space,true,,,
html-keyboard-response,145,280062,null,"PROTON",null,word,,,,, 'PROTON',,
html-keyboard-response,146,280566,null,"NEUTRON<img id = ""stim"" ><div class = red_square id = ""topsquare"" ></div><img id = ""stim"" ><div class = red_square  id = ""bottomsquare"" ></div>",null,word_square,response,0,none,true,,,
html-keyboard-response,147,282075,null,"NEUTRON",null,word,,,,, 'NEUTRON',,
html-keyboard-response,148,282368,289.53499998897314,"MOP<img id = ""stim"" ><div class = green_square id = ""topsquare"" ></div><img id = ""stim"" ><div class = green_square  id = ""bottomsquare"" ></div>",32,word_square,response,1,Space,true,,,
html-keyboard-response,149,283873,null,"MOP",null,word,,,,, 'MOP',,
html-keyboard-response,150,284392,null,"PENCIL<img id = ""stim"" ><div class = red_square id = ""topsquare"" ></div><img id = ""stim"" ><div class = red_square  id = ""bottomsquare"" ></div>",null,word_square,response,0,none,true,,,
html-keyboard-response,151,285902,null,"PENCIL",null,word,,,,, 'PENCIL',,
html-keyboard-response,152,286416,null,"CUPBOARD<img id = ""stim"" ><div class = red_square id = ""topsquare"" ></div><img id = ""stim"" ><div class = red_square  id = ""bottomsquare"" ></div>",null,word_square,response,0,none,true,,,
html-keyboard-response,153,287920,null,"CUPBOARD",null,word,,,,, 'CUPBOARD',,
html-keyboard-response,154,288206,283.8900000206195,"SALT<img id = ""stim"" ><div class = green_square id = ""topsquare"" ></div><img id = ""stim"" ><div class = green_square  id = ""bottomsquare"" ></div>",32,word_square,response,1,Space,true,,,
html-keyboard-response,155,289712,null,"SALT",null,word,,,,, 'SALT',,
html-keyboard-response,156,290048,332.8450000262819,"NURSE<img id = ""stim"" ><div class = green_square id = ""topsquare"" ></div><img id = ""stim"" ><div class = green_square  id = ""bottomsquare"" ></div>",32,word_square,response,1,Space,true,,,
html-keyboard-response,157,291561,null,"NURSE",null,word,,,,, 'NURSE',,
html-keyboard-response,158,292073,null,"OINTMENT<img id = ""stim"" ><div class = red_square id = ""topsquare"" ></div><img id = ""stim"" ><div class = red_square  id = ""bottomsquare"" ></div>",null,word_square,response,0,none,true,,,
html-keyboard-response,159,293577,null,"OINTMENT",null,word,,,,, 'OINTMENT',,
html-keyboard-response,160,293868,289.6400000026915,"LION<img id = ""stim"" ><div class = green_square id = ""topsquare"" ></div><img id = ""stim"" ><div class = green_square  id = ""bottomsquare"" ></div>",32,word_square,response,1,Space,true,,,
html-keyboard-response,161,295385,null,"LION",null,word,,,,, 'LION',,
html-keyboard-response,162,295891,null,"SLEEVE<img id = ""stim"" ><div class = red_square id = ""topsquare"" ></div><img id = ""stim"" ><div class = red_square  id = ""bottomsquare"" ></div>",null,word_square,response,0,none,true,,,
html-keyboard-response,163,297397,null,"SLEEVE",null,word,,,,, 'SLEEVE',,
html-keyboard-response,164,297913,null,"WINDSHIELD<img id = ""stim"" ><div class = red_square id = ""topsquare"" ></div><img id = ""stim"" ><div class = red_square  id = ""bottomsquare"" ></div>",null,word_square,response,0,none,true,,,
html-keyboard-response,165,299423,null,"WINDSHIELD",null,word,,,,, 'WINDSHIELD',,
html-keyboard-response,166,299734,309.2049999977462,"RUG<img id = ""stim"" ><div class = green_square id = ""topsquare"" ></div><img id = ""stim"" ><div class = green_square  id = ""bottomsquare"" ></div>",32,word_square,response,1,Space,true,,,
html-keyboard-response,167,301248,null,"RUG",null,word,,,,, 'RUG',,
html-keyboard-response,168,301759,null,"LEOPARD<img id = ""stim"" ><div class = red_square id = ""topsquare"" ></div><img id = ""stim"" ><div class = red_square  id = ""bottomsquare"" ></div>",null,word_square,response,0,none,true,,,
html-keyboard-response,169,303277,null,"LEOPARD",null,word,,,,, 'LEOPARD',,
html-keyboard-response,170,303603,323.57999999658205,"DUNGEON<img id = ""stim"" ><div class = green_square id = ""topsquare"" ></div><img id = ""stim"" ><div class = green_square  id = ""bottomsquare"" ></div>",32,word_square,response,1,Space,true,,,
html-keyboard-response,171,305110,null,"DUNGEON",null,word,,,,, 'DUNGEON',,
call-function,172,305112,,"",,,,,,,,,
html-keyboard-response,173,305221,null,"",null,,,,,,,,
math-period,174,308684,6405.335000017658,"",,,,,,,,,3
html-keyboard-response,175,308792,null,"",null,,,,,,,,
math-period,176,310354,2971.2199999776203,"",,,,,,,,,1
html-keyboard-response,177,310462,null,"",null,,,,,,,,
math-period,178,311877,2672.3499999789055,"",,,,,,,,,3
html-keyboard-response,179,311981,null,"",null,,,,,,,,
math-period,180,313190,2243.789999978617,"",,,,,,,,,4
html-keyboard-response,181,313295,null,"",null,,,,,,,,
math-period,182,314664,2623.300000006566,"",,,,,,,,,5
html-keyboard-response,183,314766,null,"",null,,,,,,,,
math-period,184,316294,2929.8100000305567,"",,,,,,,,,1
html-keyboard-response,185,316403,null,"",null,,,,,,,,
math-period,186,318154,3377.204999967944,"",,,,,,,,,1
html-keyboard-response,187,318272,null,"",null,,,,,,,,
math-period,188,319778,2841.9750000175554,"",,,,,,,,,5
html-keyboard-response,189,319884,null,"",null,,,,,,,,
math-period,190,321313,2701.2399999657646,"",,,,,,,,,5
html-keyboard-response,191,321426,null,"",null,,,,,,,,
math-period,192,324547,6077.344999997877,"",,,,,,,,,3
html-keyboard-response,193,324659,null,"",null,,,,,,,,
math-period,194,326627,3793.344999983674,"",,,,,,,,,0
html-keyboard-response,195,326740,null,"",null,,,,,,,,
math-period,196,327903,2188.2499999774154,"",,,,,,,,,2
html-keyboard-response,197,328014,null,"",null,,,,,,,,
math-period,198,329121,null,"",,,,,,,,,
html-keyboard-response,199,330129,null,"Recall Period!",null,,,,,,,,
call-function,200,330130,,"",,,,,,,,,
html-keyboard-response,201,330248,null,"",null,,,,,,,,
recall-period,202,331651,7150.514999986626,"",,,,,,,,,dungeon
html-keyboard-response,203,331765,null,"",null,,,,,,,,
recall-period,204,332510,2564.3500000878703,"",,,,,,,,,bible
html-keyboard-response,205,332612,null,"",null,,,,,,,,
recall-period,206,334976,14524.455000122543,"",,,,,,,,,bluejay
html-keyboard-response,207,335083,null,"",null,,,,,,,,
recall-period,208,405139,null,"",,,,,,,,,
html-keyboard-response,209,405644,null,"Time's Up!",null,,,,,,,,
html-keyboard-response,210,407644,1996.6950000089128,"<p> Good job! You responded correctly to 100% of the GREEN squares.</p>
                  <p>Be sure to keep your accuracy above 80%</p>
                  <p>Press any key to continue the experiment. Thank you!</p>",32,,,,,,,,
html-keyboard-response,211,408412,765.1099999784492,"<div style=""font-size:48px;"">Press any key to begin list 2 of 24 </div>",32,,,,,,,,
html-keyboard-response,212,410929,null,"<div style=""font-size:60px;"">+</div>",null,,,,,,,,
html-keyboard-response,213,411343,410.7400000211783,"FEATHER<img id = ""stim"" ><div class = green_square id = ""topsquare"" ></div><img id = ""stim"" ><div class = green_square  id = ""bottomsquare"" ></div>",32,word_square,response,1,Space,true,,,
html-keyboard-response,214,412847,null,"FEATHER",null,word,,,,, 'FEATHER',,
html-keyboard-response,215,413356,null,"SCOTCH<img id = ""stim"" ><div class = red_square id = ""topsquare"" ></div><img id = ""stim"" ><div class = red_square  id = ""bottomsquare"" ></div>",null,word_square,response,0,none,true,,,
html-keyboard-response,216,414874,null,"SCOTCH",null,word,,,,, 'SCOTCH',,
html-keyboard-response,217,415384,null,"BUTLER<img id = ""stim"" ><div class = red_square id = ""topsquare"" ></div><img id = ""stim"" ><div class = red_square  id = ""bottomsquare"" ></div>",null,word_square,response,0,none,true,,,
html-keyboard-response,218,416896,null,"BUTLER",null,word,,,,, 'BUTLER',,
html-keyboard-response,219,417321,422.3549999878742,"SALESMAN<img id = ""stim"" ><div class = green_square id = ""topsquare"" ></div><img id = ""stim"" ><div class = green_square  id = ""bottomsquare"" ></div>",32,word_square,response,1,Space,true,,,
html-keyboard-response,220,418833,null,"SALESMAN",null,word,,,,, 'SALESMAN',,
html-keyboard-response,221,419262,424.40499999793246,"JAR<img id = ""stim"" ><div class = green_square id = ""topsquare"" ></div><img id = ""stim"" ><div class = green_square  id = ""bottomsquare"" ></div>",32,word_square,response,1,Space,true,,,
html-keyboard-response,222,420766,null,"JAR",null,word,,,,, 'JAR',,
html-keyboard-response,223,421279,null,"ATHLETE<img id = ""stim"" ><div class = red_square id = ""topsquare"" ></div><img id = ""stim"" ><div class = red_square  id = ""bottomsquare"" ></div>",null,word_square,response,0,none,true,,,
html-keyboard-response,224,422796,null,"ATHLETE",null,word,,,,, 'ATHLETE',,
html-keyboard-response,225,423166,367.21500000567175,"MARSH<img id = ""stim"" ><div class = green_square id = ""topsquare"" ></div><img id = ""stim"" ><div class = green_square  id = ""bottomsquare"" ></div>",32,word_square,response,1,Space,true,,,
html-keyboard-response,226,424682,null,"MARSH",null,word,,,,, 'MARSH',,
html-keyboard-response,227,425195,null,"TOASTER<img id = ""stim"" ><div class = red_square id = ""topsquare"" ></div><img id = ""stim"" ><div class = red_square  id = ""bottomsquare"" ></div>",null,word_square,response,0,none,true,,,
html-keyboard-response,228,426703,null,"TOASTER",null,word,,,,, 'TOASTER',,
html-keyboard-response,229,427215,null,"WIDOW<img id = ""stim"" ><div class = red_square id = ""topsquare"" ></div><img id = ""stim"" ><div class = red_square  id = ""bottomsquare"" ></div>",null,word_square,response,0,none,true,,,
html-keyboard-response,230,428725,null,"WIDOW",null,word,,,,, 'WIDOW',,
html-keyboard-response,231,429111,383.69999997667037,"MISTER<img id = ""stim"" ><div class = green_square id = ""topsquare"" ></div><img id = ""stim"" ><div class = green_square  id = ""bottomsquare"" ></div>",32,word_square,response,1,Space,true,,,
html-keyboard-response,232,430621,null,"MISTER",null,word,,,,, 'MISTER',,
html-keyboard-response,233,431131,null,"DRESSER<img id = ""stim"" ><div class = green_square id = ""topsquare"" ></div><img id = ""stim"" ><div class = green_square  id = ""bottomsquare"" ></div>",null,word_square,response,1,Space,false,,,
html-keyboard-response,234,432636,null,"DRESSER",null,word,,,,, 'DRESSER',,
html-keyboard-response,235,433153,null,"CABLE<img id = ""stim"" ><div class = red_square id = ""topsquare"" ></div><img id = ""stim"" ><div class = red_square  id = ""bottomsquare"" ></div>",null,word_square,response,0,none,true,,,
html-keyboard-response,236,434672,null,"CABLE",null,word,,,,, 'CABLE',,
html-keyboard-response,237,434983,307.84999998286366,"HAMMER<img id = ""stim"" ><div class = green_square id = ""topsquare"" ></div><img id = ""stim"" ><div class = green_square  id = ""bottomsquare"" ></div>",32,word_square,response,1,Space,true,,,
html-keyboard-response,238,436489,null,"HAMMER",null,word,,,,, 'HAMMER',,
html-keyboard-response,239,436992,null,"FIDDLE<img id = ""stim"" ><div class = red_square id = ""topsquare"" ></div><img id = ""stim"" ><div class = red_square  id = ""bottomsquare"" ></div>",null,word_square,response,0,none,true,,,
html-keyboard-response,240,438501,null,"FIDDLE",null,word,,,,, 'FIDDLE',,
html-keyboard-response,241,439019,null,"EYELASH<img id = ""stim"" ><div class = red_square id = ""topsquare"" ></div><img id = ""stim"" ><div class = red_square  id = ""bottomsquare"" ></div>",null,word_square,response,0,none,true,,,
html-keyboard-response,242,440533,null,"EYELASH",null,word,,,,, 'EYELASH',,
html-keyboard-response,243,440856,320.8499999891501,"COCKTAIL<img id = ""stim"" ><div class = green_square id = ""topsquare"" ></div><img id = ""stim"" ><div class = green_square  id = ""bottomsquare"" ></div>",32,word_square,response,1,Space,true,,,
html-keyboard-response,244,442374,null,"COCKTAIL",null,word,,,,, 'COCKTAIL',,
html-keyboard-response,245,442882,null,"SHOVEL<img id = ""stim"" ><div class = red_square id = ""topsquare"" ></div><img id = ""stim"" ><div class = red_square  id = ""bottomsquare"" ></div>",null,word_square,response,0,none,true,,,
html-keyboard-response,246,444389,null,"SHOVEL",null,word,,,,, 'SHOVEL',,
html-keyboard-response,247,444833,440.32999998307787,"TORTOISE<img id = ""stim"" ><div class = green_square id = ""topsquare"" ></div><img id = ""stim"" ><div class = green_square  id = ""bottomsquare"" ></div>",32,word_square,response,1,Space,true,,,
html-keyboard-response,248,446339,null,"TORTOISE",null,word,,,,, 'TORTOISE',,
call-function,249,446340,,"",,,,,,,,,
html-keyboard-response,250,446446,null,"",null,,,,,,,,
math-period,251,448892,4394.839999993565,"",,,,,,,,,2
html-keyboard-response,252,448998,null,"",null,,,,,,,,
math-period,253,449816,1445.7300000358373,"",,,,,,,,,2
html-keyboard-response,254,449919,null,"",null,,,,,,,,
math-period,255,451502,3023.8350000290666,"",,,,,,,,,1
html-keyboard-response,256,451605,null,"",null,,,,,,,,
math-period,257,452839,2330.294999963371,"",,,,,,,,,4
html-keyboard-response,258,452946,null,"",null,,,,,,,,
math-period,259,454007,1976.1449999932665,"",,,,,,,,,4
html-keyboard-response,260,454119,null,"",null,,,,,,,,
math-period,261,455457,2526.834999996936,"",,,,,,,,,5
html-keyboard-response,262,455569,null,"",null,,,,,,,,
math-period,263,457428,3593.360000028042,"",,,,,,,,,4
html-keyboard-response,264,457533,null,"",null,,,,,,,,
math-period,265,459542,3932.534999999916,"",,,,,,,,,2
html-keyboard-response,266,459648,null,"",null,,,,,,,,
math-period,267,460852,2272.335000016028,"",,,,,,,,,6
html-keyboard-response,268,460956,null,"",null,,,,,,,,
math-period,269,462371,2615.525000001071,"",,,,,,,,,5
html-keyboard-response,270,462481,null,"",null,,,,,,,,
math-period,271,463865,2624.969999975292,"",,,,,,,,,5
html-keyboard-response,272,463977,null,"",null,,,,,,,,
math-period,273,465392,2679.5449999626726,"",,,,,,,,,4
html-keyboard-response,274,465500,null,"",null,,,,,,,,
math-period,275,467405,3675.9999999776483,"",,,,,,,,,5
html-keyboard-response,276,467511,null,"",null,,,,,,,,
math-period,277,468920,2676.8400000291876,"",,,,,,,,,4
html-keyboard-response,278,469023,null,"",null,,,,,,,,
math-period,279,470355,null,"",,,,,,,,,
html-keyboard-response,280,471364,null,"Recall Period!",null,,,,,,,,
call-function,281,471366,,"",,,,,,,,,
html-keyboard-response,282,471469,null,"",null,,,,,,,,
recall-period,283,472950,8428.279999934603,"",,,,,,,,,athlete
html-keyboard-response,284,473058,null,"",null,,,,,,,,
recall-period,285,473851,3592.3049999400973,"",,,,,,,,,mister
html-keyboard-response,286,473958,null,"",null,,,,,,,,
recall-period,287,474875,3042.719999939436,"",,,,,,,,,marsh
html-keyboard-response,288,474986,null,"",null,,,,,,,,
recall-period,289,476937,12823.895000095945,"",,,,,,,,,feather
html-keyboard-response,290,477045,null,"",null,,,,,,,,
recall-period,291,477768,1782.9700000293087,"",,,,,,,,,jay
html-keyboard-response,292,477879,null,"",null,,,,,,,,
recall-period,293,546377,null,"",,,,,,,,,
html-keyboard-response,294,546892,null,"Time's Up!",null,,,,,,,,
html-keyboard-response,295,550447,3550.8949999930337,"<p> Good job! You responded correctly to 98% of the GREEN squares.</p>
                  <p>Be sure to keep your accuracy above 80%</p>
                  <p>Press any key to continue the experiment. Thank you!</p>",32,,,,,,,,
html-keyboard-response,296,572115,21663.914999982808,"<div style=""font-size:48px;"">Press any key to begin list 3 of 24 </div>",32,,,,,,,,
html-keyboard-response,297,574642,null,"<div style=""font-size:60px;"">+</div>",null,,,,,,,,
html-keyboard-response,298,575158,null,"ALMOND<img id = ""stim"" ><div class = red_square id = ""topsquare"" ></div><img id = ""stim"" ><div class = red_square  id = ""bottomsquare"" ></div>",null,word_square,response,0,none,true,,,
html-keyboard-response,299,576669,null,"ALMOND",null,word,,,,, 'ALMOND',,
html-keyboard-response,300,577074,401.400000002468,"MONKEY<img id = ""stim"" ><div class = green_square id = ""topsquare"" ></div><img id = ""stim"" ><div class = green_square  id = ""bottomsquare"" ></div>",32,word_square,response,1,Space,true,,,
html-keyboard-response,301,578592,null,"MONKEY",null,word,,,,, 'MONKEY',,
html-keyboard-response,302,578916,321.7599999916274,"LUNCH<img id = ""stim"" ><div class = green_square id = ""topsquare"" ></div><img id = ""stim"" ><div class = green_square  id = ""bottomsquare"" ></div>",32,word_square,response,1,Space,true,,,
html-keyboard-response,303,580422,null,"LUNCH",null,word,,,,, 'LUNCH',,
html-keyboard-response,304,580932,null,"CRADLE<img id = ""stim"" ><div class = red_square id = ""topsquare"" ></div><img id = ""stim"" ><div class = red_square  id = ""bottomsquare"" ></div>",null,word_square,response,0,none,true,,,
html-keyboard-response,305,582437,null,"CRADLE",null,word,,,,, 'CRADLE',,
html-keyboard-response,306,582955,null,"LAPEL<img id = ""stim"" ><div class = red_square id = ""topsquare"" ></div><img id = ""stim"" ><div class = red_square  id = ""bottomsquare"" ></div>",null,word_square,response,0,none,true,,,
html-keyboard-response,307,584469,null,"LAPEL",null,word,,,,, 'LAPEL',,
html-keyboard-response,308,584777,305.4450000054203,"SHEPHERD<img id = ""stim"" ><div class = green_square id = ""topsquare"" ></div><img id = ""stim"" ><div class = green_square  id = ""bottomsquare"" ></div>",32,word_square,response,1,Space,true,,,
html-keyboard-response,309,586295,null,"SHEPHERD",null,word,,,,, 'SHEPHERD',,
html-keyboard-response,310,586800,null,"SHIRT<img id = ""stim"" ><div class = red_square id = ""topsquare"" ></div><img id = ""stim"" ><div class = red_square  id = ""bottomsquare"" ></div>",null,word_square,response,0,none,true,,,
html-keyboard-response,311,588314,null,"SHIRT",null,word,,,,, 'SHIRT',,
html-keyboard-response,312,588655,337.4400000029709,"DRESS<img id = ""stim"" ><div class = green_square id = ""topsquare"" ></div><img id = ""stim"" ><div class = green_square  id = ""bottomsquare"" ></div>",32,word_square,response,1,Space,true,,,
html-keyboard-response,313,590160,null,"DRESS",null,word,,,,, 'DRESS',,
html-keyboard-response,314,590637,474.9149999988731,"AIRPLANE<img id = ""stim"" ><div class = green_square id = ""topsquare"" ></div><img id = ""stim"" ><div class = green_square  id = ""bottomsquare"" ></div>",32,word_square,response,1,Space,true,,,
html-keyboard-response,315,592143,null,"AIRPLANE",null,word,,,,, 'AIRPLANE',,
html-keyboard-response,316,592658,null,"CIGAR<img id = ""stim"" ><div class = red_square id = ""topsquare"" ></div><img id = ""stim"" ><div class = red_square  id = ""bottomsquare"" ></div>",null,word_square,response,0,none,true,,,
html-keyboard-response,317,594167,null,"CIGAR",null,word,,,,, 'CIGAR',,
html-keyboard-response,318,594678,null,"SNACK<img id = ""stim"" ><div class = red_square id = ""topsquare"" ></div><img id = ""stim"" ><div class = red_square  id = ""bottomsquare"" ></div>",null,word_square,response,0,none,true,,,
html-keyboard-response,319,596185,null,"SNACK",null,word,,,,, 'SNACK',,
html-keyboard-response,320,596487,298.58500001137145,"BLACKBOARD<img id = ""stim"" ><div class = green_square id = ""topsquare"" ></div><img id = ""stim"" ><div class = green_square  id = ""bottomsquare"" ></div>",32,word_square,response,1,Space,true,,,
html-keyboard-response,321,597998,null,"BLACKBOARD",null,word,,,,, 'BLACKBOARD',,
html-keyboard-response,322,598516,null,"CRUTCH<img id = ""stim"" ><div class = red_square id = ""topsquare"" ></div><img id = ""stim"" ><div class = red_square  id = ""bottomsquare"" ></div>",null,word_square,response,0,none,true,,,
html-keyboard-response,323,600028,null,"CRUTCH",null,word,,,,, 'CRUTCH',,
html-keyboard-response,324,600331,300.390000018524,"LEG<img id = ""stim"" ><div class = green_square id = ""topsquare"" ></div><img id = ""stim"" ><div class = green_square  id = ""bottomsquare"" ></div>",32,word_square,response,1,Space,true,,,
html-keyboard-response,325,601844,null,"LEG",null,word,,,,, 'LEG',,
html-keyboard-response,326,602152,304.41500002052635,"DAISY<img id = ""stim"" ><div class = green_square id = ""topsquare"" ></div><img id = ""stim"" ><div class = green_square  id = ""bottomsquare"" ></div>",32,word_square,response,1,Space,true,,,
html-keyboard-response,327,603672,null,"DAISY",null,word,,,,, 'DAISY',,
html-keyboard-response,328,604178,null,"BUGGY<img id = ""stim"" ><div class = red_square id = ""topsquare"" ></div><img id = ""stim"" ><div class = red_square  id = ""bottomsquare"" ></div>",null,word_square,response,0,none,true,,,
html-keyboard-response,329,605685,null,"BUGGY",null,word,,,,, 'BUGGY',,
html-keyboard-response,330,605993,305.0099999818485,"CONVENT<img id = ""stim"" ><div class = green_square id = ""topsquare"" ></div><img id = ""stim"" ><div class = green_square  id = ""bottomsquare"" ></div>",32,word_square,response,1,Space,true,,,
html-keyboard-response,331,607507,null,"CONVENT",null,word,,,,, 'CONVENT',,
html-keyboard-response,332,608012,null,"SKIRT<img id = ""stim"" ><div class = red_square id = ""topsquare"" ></div><img id = ""stim"" ><div class = red_square  id = ""bottomsquare"" ></div>",null,word_square,response,0,none,true,,,
html-keyboard-response,333,609532,null,"SKIRT",null,word,,,,, 'SKIRT',,
call-function,334,609536,,"",,,,,,,,,
html-keyboard-response,335,609656,null,"",null,,,,,,,,
math-period,336,611645,3536.3149999757297,"",,,,,,,,,2
html-keyboard-response,337,611753,null,"",null,,,,,,,,
math-period,338,613041,2406.1750000109896,"",,,,,,,,,3
html-keyboard-response,339,613147,null,"",null,,,,,,,,
math-period,340,615563,4732.154999976046,"",,,,,,,,,3
html-keyboard-response,341,615687,null,"",null,,,,,,,,
math-period,342,616830,2147.6149999944028,"",,,,,,,,,4
html-keyboard-response,343,616949,null,"",null,,,,,,,,
math-period,344,618260,2365.785000001779,"",,,,,,,,,2
html-keyboard-response,345,618383,null,"",null,,,,,,,,
math-period,346,619739,2523.425000021234,"",,,,,,,,,6
html-keyboard-response,347,619854,null,"",null,,,,,,,,
math-period,348,622042,4209.294999978738,"",,,,,,,,,4
html-keyboard-response,349,622156,null,"",null,,,,,,,,
math-period,350,623595,2761.125000019092,"",,,,,,,,,3
html-keyboard-response,351,623698,null,"",null,,,,,,,,
math-period,352,625370,3260.8449999825098,"",,,,,,,,,2
html-keyboard-response,353,625476,null,"",null,,,,,,,,
math-period,354,626565,2054.969999997411,"",,,,,,,,,4
html-keyboard-response,355,626672,null,"",null,,,,,,,,
math-period,356,627746,2062.180000008084,"",,,,,,,,,3
html-keyboard-response,357,627852,null,"",null,,,,,,,,
math-period,358,629144,2452.2150000266265,"",,,,,,,,,4
html-keyboard-response,359,629252,null,"",null,,,,,,,,
math-period,360,631228,3855.9149999928195,"",,,,,,,,,3
html-keyboard-response,361,631335,null,"",null,,,,,,,,
math-period,362,632423,2063.3399999933317,"",,,,,,,,,2
html-keyboard-response,363,632532,null,"",null,,,,,,,,
math-period,364,633553,885.6249999953434,"",,,,,,,,,5
html-keyboard-response,365,634570,null,"Recall Period!",null,,,,,,,,
call-function,366,634572,,"",,,,,,,,,
html-keyboard-response,367,634685,null,"",null,,,,,,,,
recall-period,368,636079,6078.1199999619275,"",,,,,,,,,shirt
html-keyboard-response,369,636182,null,"",null,,,,,,,,
recall-period,370,637065,3189.0000000130385,"",,,,,,,,,dress
html-keyboard-response,371,637180,null,"",null,,,,,,,,
recall-period,372,648654,77071.35000010021,"",,,,,,,,,sailor
html-keyboard-response,373,648763,null,"",null,,,,,,,,
recall-period,374,665169,153416.23999999138,"",,,,,,,,,shepherd 
html-keyboard-response,375,665275,null,"",null,,,,,,,,
recall-period,376,709586,null,"",,,,,,,,,
html-keyboard-response,377,710090,null,"Time's Up!",null,,,,,,,,
html-keyboard-response,378,711282,1188.0449999880511,"<p> Good job! You responded correctly to 99% of the GREEN squares.</p>
                  <p>Be sure to keep your accuracy above 80%</p>
                  <p>Press any key to continue the experiment. Thank you!</p>",32,,,,,,,,
html-keyboard-response,379,712045,761.0899999854155,"<div style=""font-size:48px;"">Press any key to begin list 4 of 24 </div>",32,,,,,,,,
html-keyboard-response,380,714555,null,"<div style=""font-size:60px;"">+</div>",null,,,,,,,,
html-keyboard-response,381,715064,null,"THIEF<img id = ""stim"" ><div class = red_square id = ""topsquare"" ></div><img id = ""stim"" ><div class = red_square  id = ""bottomsquare"" ></div>",null,word_square,response,0,none,true,,,
html-keyboard-response,382,716573,null,"THIEF",null,word,,,,, 'THIEF',,
html-keyboard-response,383,716908,332.6200000010431,"FRIES<img id = ""stim"" ><div class = green_square id = ""topsquare"" ></div><img id = ""stim"" ><div class = green_square  id = ""bottomsquare"" ></div>",32,word_square,response,1,Space,true,,,
html-keyboard-response,384,718411,null,"FRIES",null,word,,,,, 'FRIES',,
html-keyboard-response,385,718802,387.4350000114646,"FOX<img id = ""stim"" ><div class = green_square id = ""topsquare"" ></div><img id = ""stim"" ><div class = green_square  id = ""bottomsquare"" ></div>",32,word_square,response,1,Space,true,,,
html-keyboard-response,386,720316,null,"FOX",null,word,,,,, 'FOX',,
html-keyboard-response,387,720835,null,"SURGEON<img id = ""stim"" ><div class = red_square id = ""topsquare"" ></div><img id = ""stim"" ><div class = red_square  id = ""bottomsquare"" ></div>",null,word_square,response,0,none,true,,,
html-keyboard-response,388,722341,null,"SURGEON",null,word,,,,, 'SURGEON',,
html-keyboard-response,389,722854,null,"SUSPECT<img id = ""stim"" ><div class = red_square id = ""topsquare"" ></div><img id = ""stim"" ><div class = red_square  id = ""bottomsquare"" ></div>",null,word_square,response,0,none,true,,,
html-keyboard-response,390,724360,null,"SUSPECT",null,word,,,,, 'SUSPECT',,
html-keyboard-response,391,724770,406.36999998241663,"PLIERS<img id = ""stim"" ><div class = green_square id = ""topsquare"" ></div><img id = ""stim"" ><div class = green_square  id = ""bottomsquare"" ></div>",32,word_square,response,1,Space,true,,,
html-keyboard-response,392,726282,null,"PLIERS",null,word,,,,, 'PLIERS',,
html-keyboard-response,393,726792,null,"FLESH<img id = ""stim"" ><div class = red_square id = ""topsquare"" ></div><img id = ""stim"" ><div class = red_square  id = ""bottomsquare"" ></div>",null,word_square,response,0,none,true,,,
html-keyboard-response,394,728302,null,"FLESH",null,word,,,,, 'FLESH',,
html-keyboard-response,395,728675,370.3650000097696,"REBEL<img id = ""stim"" ><div class = green_square id = ""topsquare"" ></div><img id = ""stim"" ><div class = green_square  id = ""bottomsquare"" ></div>",32,word_square,response,1,Space,true,,,
html-keyboard-response,396,730188,null,"REBEL",null,word,,,,, 'REBEL',,
html-keyboard-response,397,730553,360.80999998375773,"WRENCH<img id = ""stim"" ><div class = green_square id = ""topsquare"" ></div><img id = ""stim"" ><div class = green_square  id = ""bottomsquare"" ></div>",32,word_square,response,1,Space,true,,,
html-keyboard-response,398,732063,null,"WRENCH",null,word,,,,, 'WRENCH',,
html-keyboard-response,399,732395,330.6849999935366,"CANOE<img id = ""stim"" ><div class = red_square id = ""topsquare"" ></div><img id = ""stim"" ><div class = red_square  id = ""bottomsquare"" ></div>",32,word_square,response,0,none,false,,,
html-keyboard-response,400,733912,null,"CANOE",null,word,,,,, 'CANOE',,
html-keyboard-response,401,734419,null,"SAUCER<img id = ""stim"" ><div class = red_square id = ""topsquare"" ></div><img id = ""stim"" ><div class = red_square  id = ""bottomsquare"" ></div>",null,word_square,response,0,none,true,,,
html-keyboard-response,402,735928,null,"SAUCER",null,word,,,,, 'SAUCER',,
html-keyboard-response,403,736229,299.0050000080373,"STUDENT<img id = ""stim"" ><div class = green_square id = ""topsquare"" ></div><img id = ""stim"" ><div class = green_square  id = ""bottomsquare"" ></div>",32,word_square,response,1,Space,true,,,
html-keyboard-response,404,737735,null,"STUDENT",null,word,,,,, 'STUDENT',,
html-keyboard-response,405,738241,null,"RUST<img id = ""stim"" ><div class = red_square id = ""topsquare"" ></div><img id = ""stim"" ><div class = red_square  id = ""bottomsquare"" ></div>",null,word_square,response,0,none,true,,,
html-keyboard-response,406,739750,null,"RUST",null,word,,,,, 'RUST',,
html-keyboard-response,407,740080,326.93499999004416,"FOOT<img id = ""stim"" ><div class = green_square id = ""topsquare"" ></div><img id = ""stim"" ><div class = green_square  id = ""bottomsquare"" ></div>",32,word_square,response,1,Space,true,,,
html-keyboard-response,408,741600,null,"FOOT",null,word,,,,, 'FOOT',,
html-keyboard-response,409,741962,358.9450000145007,"ANKLE<img id = ""stim"" ><div class = green_square id = ""topsquare"" ></div><img id = ""stim"" ><div class = green_square  id = ""bottomsquare"" ></div>",32,word_square,response,1,Space,true,,,
html-keyboard-response,410,743480,null,"ANKLE",null,word,,,,, 'ANKLE',,
html-keyboard-response,411,743988,null,"BARREL<img id = ""stim"" ><div class = red_square id = ""topsquare"" ></div><img id = ""stim"" ><div class = red_square  id = ""bottomsquare"" ></div>",null,word_square,response,0,none,true,,,
html-keyboard-response,412,745497,null,"BARREL",null,word,,,,, 'BARREL',,
html-keyboard-response,413,745827,327.50499999383464,"CHAMPAGNE<img id = ""stim"" ><div class = green_square id = ""topsquare"" ></div><img id = ""stim"" ><div class = green_square  id = ""bottomsquare"" ></div>",32,word_square,response,1,Space,true,,,
html-keyboard-response,414,747342,null,"CHAMPAGNE",null,word,,,,, 'CHAMPAGNE',,
html-keyboard-response,415,747861,null,"CANVAS<img id = ""stim"" ><div class = red_square id = ""topsquare"" ></div><img id = ""stim"" ><div class = red_square  id = ""bottomsquare"" ></div>",null,word_square,response,0,none,true,,,
html-keyboard-response,416,749377,null,"CANVAS",null,word,,,,, 'CANVAS',,
call-function,417,749379,,"",,,,,,,,,
html-keyboard-response,418,749484,null,"",null,,,,,,,,
math-period,419,751347,3308.3199999819044,"",,,,,,,,,5
html-keyboard-response,420,751456,null,"",null,,,,,,,,
math-period,421,752481,1907.2250000026543,"",,,,,,,,,6
html-keyboard-response,422,752598,null,"",null,,,,,,,,
math-period,423,753726,2124.3050000048243,"",,,,,,,,,5
html-keyboard-response,424,753836,null,"",null,,,,,,,,
math-period,425,755336,2923.1399999989662,"",,,,,,,,,3
html-keyboard-response,426,755445,null,"",null,,,,,,,,
math-period,427,757136,3273.464999976568,"",,,,,,,,,2
html-keyboard-response,428,757243,null,"",null,,,,,,,,
math-period,429,758358,2035.9450000105426,"",,,,,,,,,6
html-keyboard-response,430,758472,null,"",null,,,,,,,,
math-period,431,760470,3883.5500000277534,"",,,,,,,,,1
html-keyboard-response,432,760578,null,"",null,,,,,,,,
math-period,433,762330,3374.924999981886,"",,,,,,,,,1
html-keyboard-response,434,762437,null,"",null,,,,,,,,
math-period,435,763476,1959.965000016382,"",,,,,,,,,4
html-keyboard-response,436,763583,null,"",null,,,,,,,,
math-period,437,764779,2276.6000000410713,"",,,,,,,,,5
html-keyboard-response,438,764895,null,"",null,,,,,,,,
math-period,439,766657,3382.7000000164844,"",,,,,,,,,2
html-keyboard-response,440,766767,null,"",null,,,,,,,,
math-period,441,768307,2945.830000040587,"",,,,,,,,,2
html-keyboard-response,442,768414,null,"",null,,,,,,,,
math-period,443,769599,2185.4349999921396,"",,,,,,,,,2
html-keyboard-response,444,769703,null,"",null,,,,,,,,
math-period,445,770849,2156.7050000012387,"",,,,,,,,,3
html-keyboard-response,446,770959,null,"",null,,,,,,,,
math-period,447,772555,2810.880000004545,"",,,,,,,,,5
html-keyboard-response,448,772662,null,"",null,,,,,,,,
math-period,449,773385,null,"",,,,,,,,,
html-keyboard-response,450,774390,null,"Recall Period!",null,,,,,,,,
call-function,451,774392,,"",,,,,,,,,
html-keyboard-response,452,774499,null,"",null,,,,,,,,
recall-period,453,775512,3388.6599999386817,"",,,,,,,,,foot
html-keyboard-response,454,775619,null,"",null,,,,,,,,
recall-period,455,776352,2867.3300000082236,"",,,,,,,,,fries
html-keyboard-response,456,776455,null,"",null,,,,,,,,
recall-period,457,778673,10844.445000053383,"",,,,,,,,,pliers
html-keyboard-response,458,778776,null,"",null,,,,,,,,
recall-period,459,780108,4994.7599999723025,"",,,,,,,,,wrench
html-keyboard-response,460,780224,null,"",null,,,,,,,,
recall-period,461,782645,6877.324999892153,"",,,,,,,,,skin
html-keyboard-response,462,782753,null,"",null,,,,,,,,
recall-period,463,783809,3737.595000071451,"",,,,,,,,,flesh
html-keyboard-response,464,783918,null,"",null,,,,,,,,
recall-period,465,791293,42130.684999981895,"",,,,,,,,,ankle
html-keyboard-response,466,791396,null,"",null,,,,,,,,
recall-period,467,849404,null,"",,,,,,,,,
html-keyboard-response,468,849915,null,"Time's Up!",null,,,,,,,,
html-keyboard-response,469,852218,2298.1200000212993,"<p> Good job! You responded correctly to 98% of the GREEN squares.</p>
                  <p>Be sure to keep your accuracy above 80%</p>
                  <p>Press any key to continue the experiment. Thank you!</p>",32,,,,,,,,
html-keyboard-response,470,852822,602.0549999957439,"<div style=""font-size:48px;"">Press any key to begin list 5 of 24 </div>",32,,,,,,,,
html-keyboard-response,471,855334,null,"<div style=""font-size:60px;"">+</div>",null,,,,,,,,
html-keyboard-response,472,855845,null,"TABLET<img id = ""stim"" ><div class = green_square id = ""topsquare"" ></div><img id = ""stim"" ><div class = green_square  id = ""bottomsquare"" ></div>",null,word_square,response,1,Space,false,,,
html-keyboard-response,473,857355,null,"TABLET",null,word,,,,, 'TABLET',,
html-keyboard-response,474,857864,null,"DRUG<img id = ""stim"" ><div class = red_square id = ""topsquare"" ></div><img id = ""stim"" ><div class = red_square  id = ""bottomsquare"" ></div>",null,word_square,response,0,none,true,,,
html-keyboard-response,475,859376,null,"DRUG",null,word,,,,, 'DRUG',,
html-keyboard-response,476,859881,null,"SISTER<img id = ""stim"" ><div class = red_square id = ""topsquare"" ></div><img id = ""stim"" ><div class = red_square  id = ""bottomsquare"" ></div>",null,word_square,response,0,none,true,,,
html-keyboard-response,477,861394,null,"SISTER",null,word,,,,, 'SISTER',,
html-keyboard-response,478,861702,304.99000000418164,"SPHINX<img id = ""stim"" ><div class = green_square id = ""topsquare"" ></div><img id = ""stim"" ><div class = green_square  id = ""bottomsquare"" ></div>",32,word_square,response,1,Space,true,,,
html-keyboard-response,479,863211,null,"SPHINX",null,word,,,,, 'SPHINX',,
html-keyboard-response,480,863721,null,"COUNTRY<img id = ""stim"" ><div class = red_square id = ""topsquare"" ></div><img id = ""stim"" ><div class = red_square  id = ""bottomsquare"" ></div>",null,word_square,response,0,none,true,,,
html-keyboard-response,481,865230,null,"COUNTRY",null,word,,,,, 'COUNTRY',,
html-keyboard-response,482,865604,371.10000001848675,"CARTON<img id = ""stim"" ><div class = green_square id = ""topsquare"" ></div><img id = ""stim"" ><div class = green_square  id = ""bottomsquare"" ></div>",32,word_square,response,1,Space,true,,,
html-keyboard-response,483,867111,null,"CARTON",null,word,,,,, 'CARTON',,
html-keyboard-response,484,867615,null,"CABOOSE<img id = ""stim"" ><div class = red_square id = ""topsquare"" ></div><img id = ""stim"" ><div class = red_square  id = ""bottomsquare"" ></div>",null,word_square,response,0,none,true,,,
html-keyboard-response,485,869122,null,"CABOOSE",null,word,,,,, 'CABOOSE',,
html-keyboard-response,486,869636,null,"TIGER<img id = ""stim"" ><div class = red_square id = ""topsquare"" ></div><img id = ""stim"" ><div class = red_square  id = ""bottomsquare"" ></div>",null,word_square,response,0,none,true,,,
html-keyboard-response,487,871144,null,"TIGER",null,word,,,,, 'TIGER',,
html-keyboard-response,488,871466,320.39999999688007,"MONGOOSE<img id = ""stim"" ><div class = green_square id = ""topsquare"" ></div><img id = ""stim"" ><div class = green_square  id = ""bottomsquare"" ></div>",32,word_square,response,1,Space,true,,,
html-keyboard-response,489,872969,null,"MONGOOSE",null,word,,,,, 'MONGOOSE',,
html-keyboard-response,490,873475,null,"PUPPY<img id = ""stim"" ><div class = red_square id = ""topsquare"" ></div><img id = ""stim"" ><div class = red_square  id = ""bottomsquare"" ></div>",null,word_square,response,0,none,true,,,
html-keyboard-response,491,874985,null,"PUPPY",null,word,,,,, 'PUPPY',,
html-keyboard-response,492,875326,337.78000000165775,"PORPOISE<img id = ""stim"" ><div class = green_square id = ""topsquare"" ></div><img id = ""stim"" ><div class = green_square  id = ""bottomsquare"" ></div>",32,word_square,response,1,Space,true,,,
html-keyboard-response,493,876832,null,"PORPOISE",null,word,,,,, 'PORPOISE',,
html-keyboard-response,494,877340,null,"TEACHER<img id = ""stim"" ><div class = red_square id = ""topsquare"" ></div><img id = ""stim"" ><div class = red_square  id = ""bottomsquare"" ></div>",null,word_square,response,0,none,true,,,
html-keyboard-response,495,878846,null,"TEACHER",null,word,,,,, 'TEACHER',,
html-keyboard-response,496,879355,null,"TRIGGER<img id = ""stim"" ><div class = red_square id = ""topsquare"" ></div><img id = ""stim"" ><div class = red_square  id = ""bottomsquare"" ></div>",null,word_square,response,0,none,true,,,
html-keyboard-response,497,880860,null,"TRIGGER",null,word,,,,, 'TRIGGER',,
html-keyboard-response,498,881204,339.2500000190921,"CLIFF<img id = ""stim"" ><div class = green_square id = ""topsquare"" ></div><img id = ""stim"" ><div class = green_square  id = ""bottomsquare"" ></div>",32,word_square,response,1,Space,true,,,
html-keyboard-response,499,882723,null,"CLIFF",null,word,,,,, 'CLIFF',,
html-keyboard-response,500,883237,null,"HOSTAGE<img id = ""stim"" ><div class = green_square id = ""topsquare"" ></div><img id = ""stim"" ><div class = green_square  id = ""bottomsquare"" ></div>",null,word_square,response,1,Space,false,,,
html-keyboard-response,501,884745,null,"HOSTAGE",null,word,,,,, 'HOSTAGE',,
html-keyboard-response,502,885253,null,"GYMNAST<img id = ""stim"" ><div class = red_square id = ""topsquare"" ></div><img id = ""stim"" ><div class = red_square  id = ""bottomsquare"" ></div>",null,word_square,response,0,none,true,,,
html-keyboard-response,503,886765,null,"GYMNAST",null,word,,,,, 'GYMNAST',,
html-keyboard-response,504,887052,284.2149999924004,"HOUND<img id = ""stim"" ><div class = green_square id = ""topsquare"" ></div><img id = ""stim"" ><div class = green_square  id = ""bottomsquare"" ></div>",32,word_square,response,1,Space,true,,,
html-keyboard-response,505,888566,null,"HOUND",null,word,,,,, 'HOUND',,
html-keyboard-response,506,888950,380.5200000060722,"TYPIST<img id = ""stim"" ><div class = green_square id = ""topsquare"" ></div><img id = ""stim"" ><div class = green_square  id = ""bottomsquare"" ></div>",32,word_square,response,1,Space,true,,,
html-keyboard-response,507,890455,null,"TYPIST",null,word,,,,, 'TYPIST',,
call-function,508,890456,,"",,,,,,,,,
html-keyboard-response,509,890577,null,"",null,,,,,,,,
math-period,510,893848,13230.060000059893,"",,,,,,,,,5
html-keyboard-response,511,893957,null,"",null,,,,,,,,
math-period,512,896133,6515.959999960614,"",,,,,,,,,4
html-keyboard-response,513,896239,null,"",null,,,,,,,,
math-period,514,897257,1936.745000013616,"",,,,,,,,,5
html-keyboard-response,515,897371,null,"",null,,,,,,,,
math-period,516,898389,1945.2650000166614,"",,,,,,,,,3
html-keyboard-response,517,898494,null,"",null,,,,,,,,
math-period,518,899542,1993.929999996908,"",,,,,,,,,5
html-keyboard-response,519,899646,null,"",null,,,,,,,,
math-period,520,900654,1922.4400000239257,"",,,,,,,,,3
html-keyboard-response,521,900760,null,"",null,,,,,,,,
math-period,522,902093,2551.88499999349,"",,,,,,,,,5
html-keyboard-response,523,902204,null,"",null,,,,,,,,
math-period,524,903227,1943.360000004759,"",,,,,,,,,3
html-keyboard-response,525,903335,null,"",null,,,,,,,,
math-period,526,904775,2780.35000001546,"",,,,,,,,,4
html-keyboard-response,527,904889,null,"",null,,,,,,,,
math-period,528,906025,2174.380000011297,"",,,,,,,,,3
html-keyboard-response,529,906132,null,"",null,,,,,,,,
math-period,530,907598,2750.6949999951757,"",,,,,,,,,4
html-keyboard-response,531,907710,null,"",null,,,,,,,,
math-period,532,908676,1826.7899999918882,"",,,,,,,,,3
html-keyboard-response,533,908781,null,"",null,,,,,,,,
math-period,534,910968,4275.244999967981,"",,,,,,,,,1
html-keyboard-response,535,911073,null,"",null,,,,,,,,
math-period,536,912032,1814.5500000100583,"",,,,,,,,,3
html-keyboard-response,537,912139,null,"",null,,,,,,,,
math-period,538,913846,3343.0700000026263,"",,,,,,,,,2
html-keyboard-response,539,913952,null,"",null,,,,,,,,
math-period,540,914464,null,"",,,,,,,,,
html-keyboard-response,541,915470,null,"Recall Period!",null,,,,,,,,
call-function,542,915472,,"",,,,,,,,,
html-keyboard-response,543,915580,null,"",null,,,,,,,,
recall-period,544,916612,4083.520000014687,"",,,,,,,,,drugs
html-keyboard-response,545,916727,null,"",null,,,,,,,,
recall-period,546,917440,3109.7000000299886,"",,,,,,,,,sister
html-keyboard-response,547,917550,null,"",null,,,,,,,,
recall-period,548,918285,2905.955000082031,"",,,,,,,,,typist
html-keyboard-response,549,918390,null,"",null,,,,,,,,
recall-period,550,990482,null,"",,,,,,,,,
html-keyboard-response,551,990991,null,"Time's Up!",null,,,,,,,,
html-keyboard-response,552,993569,2574.61000001058,"<p> Good job! You responded correctly to 96% of the GREEN squares.</p>
                  <p>Be sure to keep your accuracy above 80%</p>
                  <p>Press any key to continue the experiment. Thank you!</p>",32,,,,,,,,
html-keyboard-response,553,994117,545.6149999808986,"<div style=""font-size:48px;"">Press any key to begin list 6 of 24 </div>",32,,,,,,,,
html-keyboard-response,554,996630,null,"<div style=""font-size:60px;"">+</div>",null,,,,,,,,
html-keyboard-response,555,996952,318.7549999856856,"TAXI<img id = ""stim"" ><div class = green_square id = ""topsquare"" ></div><img id = ""stim"" ><div class = green_square  id = ""bottomsquare"" ></div>",32,word_square,response,1,Space,true,,,
html-keyboard-response,556,998465,null,"TAXI",null,word,,,,, 'TAXI',,
html-keyboard-response,557,998972,null,"DINER<img id = ""stim"" ><div class = red_square id = ""topsquare"" ></div><img id = ""stim"" ><div class = red_square  id = ""bottomsquare"" ></div>",null,word_square,response,0,none,true,,,
html-keyboard-response,558,1000474,null,"DINER",null,word,,,,, 'DINER',,
html-keyboard-response,559,1000978,null,"CUSTARD<img id = ""stim"" ><div class = red_square id = ""topsquare"" ></div><img id = ""stim"" ><div class = red_square  id = ""bottomsquare"" ></div>",null,word_square,response,0,none,true,,,
html-keyboard-response,560,1002483,null,"CUSTARD",null,word,,,,, 'CUSTARD',,
html-keyboard-response,561,1002853,366.18000001180917,"HEART<img id = ""stim"" ><div class = green_square id = ""topsquare"" ></div><img id = ""stim"" ><div class = green_square  id = ""bottomsquare"" ></div>",32,word_square,response,1,Space,true,,,
html-keyboard-response,562,1004370,null,"HEART",null,word,,,,, 'HEART',,
html-keyboard-response,563,1004884,null,"GROUND<img id = ""stim"" ><div class = red_square id = ""topsquare"" ></div><img id = ""stim"" ><div class = red_square  id = ""bottomsquare"" ></div>",null,word_square,response,0,none,true,,,
html-keyboard-response,564,1006399,null,"GROUND",null,word,,,,, 'GROUND',,
html-keyboard-response,565,1006766,363.6349999869708,"BRIDE<img id = ""stim"" ><div class = green_square id = ""topsquare"" ></div><img id = ""stim"" ><div class = green_square  id = ""bottomsquare"" ></div>",32,word_square,response,1,Space,true,,,
html-keyboard-response,566,1008284,null,"BRIDE",null,word,,,,, 'BRIDE',,
html-keyboard-response,567,1008793,null,"WOMAN<img id = ""stim"" ><div class = red_square id = ""topsquare"" ></div><img id = ""stim"" ><div class = red_square  id = ""bottomsquare"" ></div>",null,word_square,response,0,none,true,,,
html-keyboard-response,568,1010297,null,"WOMAN",null,word,,,,, 'WOMAN',,
html-keyboard-response,569,1010808,null,"CRICKET<img id = ""stim"" ><div class = red_square id = ""topsquare"" ></div><img id = ""stim"" ><div class = red_square  id = ""bottomsquare"" ></div>",null,word_square,response,0,none,true,,,
html-keyboard-response,570,1012313,null,"CRICKET",null,word,,,,, 'CRICKET',,
html-keyboard-response,571,1012751,434.80000001727603,"COCOON<img id = ""stim"" ><div class = green_square id = ""topsquare"" ></div><img id = ""stim"" ><div class = green_square  id = ""bottomsquare"" ></div>",32,word_square,response,1,Space,true,,,
html-keyboard-response,572,1014261,null,"COCOON",null,word,,,,, 'COCOON',,
html-keyboard-response,573,1014773,null,"NEPHEW<img id = ""stim"" ><div class = red_square id = ""topsquare"" ></div><img id = ""stim"" ><div class = red_square  id = ""bottomsquare"" ></div>",null,word_square,response,0,none,true,,,
html-keyboard-response,574,1016287,null,"NEPHEW",null,word,,,,, 'NEPHEW',,
html-keyboard-response,575,1016605,315.2949999785051,"PANTHER<img id = ""stim"" ><div class = green_square id = ""topsquare"" ></div><img id = ""stim"" ><div class = green_square  id = ""bottomsquare"" ></div>",32,word_square,response,1,Space,true,,,
html-keyboard-response,576,1018112,null,"PANTHER",null,word,,,,, 'PANTHER',,
html-keyboard-response,577,1018625,null,"PAIL<img id = ""stim"" ><div class = red_square id = ""topsquare"" ></div><img id = ""stim"" ><div class = red_square  id = ""bottomsquare"" ></div>",null,word_square,response,0,none,true,,,
html-keyboard-response,578,1020129,null,"PAIL",null,word,,,,, 'PAIL',,
html-keyboard-response,579,1020640,null,"STRANGER<img id = ""stim"" ><div class = red_square id = ""topsquare"" ></div><img id = ""stim"" ><div class = red_square  id = ""bottomsquare"" ></div>",null,word_square,response,0,none,true,,,
html-keyboard-response,580,1022167,null,"STRANGER",null,word,,,,, 'STRANGER',,
html-keyboard-response,581,1022573,402.55500000785105,"CASTLE<img id = ""stim"" ><div class = green_square id = ""topsquare"" ></div><img id = ""stim"" ><div class = green_square  id = ""bottomsquare"" ></div>",32,word_square,response,1,Space,true,,,
html-keyboard-response,582,1024090,null,"CASTLE",null,word,,,,, 'CASTLE',,
html-keyboard-response,583,1024500,406.67499997653067,"BASEBALL<img id = ""stim"" ><div class = green_square id = ""topsquare"" ></div><img id = ""stim"" ><div class = green_square  id = ""bottomsquare"" ></div>",32,word_square,response,1,Space,true,,,
html-keyboard-response,584,1026018,null,"BASEBALL",null,word,,,,, 'BASEBALL',,
html-keyboard-response,585,1026526,null,"LADY<img id = ""stim"" ><div class = red_square id = ""topsquare"" ></div><img id = ""stim"" ><div class = red_square  id = ""bottomsquare"" ></div>",null,word_square,response,0,none,true,,,
html-keyboard-response,586,1028044,null,"LADY",null,word,,,,, 'LADY',,
html-keyboard-response,587,1028388,341.195000015432,"BOULDER<img id = ""stim"" ><div class = green_square id = ""topsquare"" ></div><img id = ""stim"" ><div class = green_square  id = ""bottomsquare"" ></div>",32,word_square,response,1,Space,true,,,
html-keyboard-response,588,1029901,null,"BOULDER",null,word,,,,, 'BOULDER',,
html-keyboard-response,589,1030241,334.2399999964982,"TREASURE<img id = ""stim"" ><div class = green_square id = ""topsquare"" ></div><img id = ""stim"" ><div class = green_square  id = ""bottomsquare"" ></div>",32,word_square,response,1,Space,true,,,
html-keyboard-response,590,1031748,null,"TREASURE",null,word,,,,, 'TREASURE',,
call-function,591,1031750,,"",,,,,,,,,
html-keyboard-response,592,1031855,null,"",null,,,,,,,,
math-period,593,1033646,3271.2650000175927,"",,,,,,,,,3
html-keyboard-response,594,1033751,null,"",null,,,,,,,,
math-period,595,1034427,1229.3299999728333,"",,,,,,,,,3
html-keyboard-response,596,1034530,null,"",null,,,,,,,,
math-period,597,1038802,8405.105000012554,"",,,,,,,,,1
html-keyboard-response,598,1038907,null,"",null,,,,,,,,
math-period,599,1040239,2488.5850000136998,"",,,,,,,,,5
html-keyboard-response,600,1040342,null,"",null,,,,,,,,
math-period,601,1041323,1886.8249999650288,"",,,,,,,,,4
html-keyboard-response,602,1041426,null,"",null,,,,,,,,
math-period,603,1042793,2639.865000033751,"",,,,,,,,,1
html-keyboard-response,604,1042897,null,"",null,,,,,,,,
math-period,605,1044344,2779.5749999932013,"",,,,,,,,,1
html-keyboard-response,606,1044454,null,"",null,,,,,,,,
math-period,607,1045691,2333.600000012666,"",,,,,,,,,5
html-keyboard-response,608,1045803,null,"",null,,,,,,,,
math-period,609,1046833,1929.7000000078697,"",,,,,,,,,4
html-keyboard-response,610,1046937,null,"",null,,,,,,,,
math-period,611,1050099,6140.665000013541,"",,,,,,,,,0
html-keyboard-response,612,1050204,null,"",null,,,,,,,,
math-period,613,1052326,4075.215000018943,"",,,,,,,,,0
html-keyboard-response,614,1052438,null,"",null,,,,,,,,
math-period,615,1056174,null,"",,,,,,,,,
html-keyboard-response,616,1058168,null,"Recall Period!",null,,,,,,,,
call-function,617,1058172,,"",,,,,,,,,
html-keyboard-response,618,1059004,null,"",null,,,,,,,,
recall-period,619,1061603,9985.985000035726,"",,,,,,,,,taxi
html-keyboard-response,620,1061709,null,"",null,,,,,,,,
recall-period,621,1062367,2348.744999966584,"",,,,,,,,,heart
html-keyboard-response,622,1062475,null,"",null,,,,,,,,
recall-period,623,1063170,2500.9950000967365,"",,,,,,,,,bride
html-keyboard-response,624,1063280,null,"",null,,,,,,,,
recall-period,625,1063854,1503.474999917671,"",,,,,,,,,lady
html-keyboard-response,626,1063961,null,"",null,,,,,,,,
recall-period,627,1064978,4283.280000032391,"",,,,,,,,,woman
html-keyboard-response,628,1065085,null,"",null,,,,,,,,
recall-period,629,1071132,49319.065000046976,"",,,,,,,,,baseball
html-keyboard-response,630,1071241,null,"",null,,,,,,,,
recall-period,631,1133179,null,"",,,,,,,,,
html-keyboard-response,632,1133697,null,"Time's Up!",null,,,,,,,,
html-keyboard-response,633,1137832,4130.020000011427,"<p> Good job! You responded correctly to 97% of the GREEN squares.</p>
                  <p>Be sure to keep your accuracy above 80%</p>
                  <p>Press any key to continue the experiment. Thank you!</p>",32,,,,,,,,
html-keyboard-response,634,1138396,561.4350000105333,"<div style=""font-size:48px;"">Press any key to begin list 7 of 24 </div>",32,,,,,,,,
html-keyboard-response,635,1140910,null,"<div style=""font-size:60px;"">+</div>",null,,,,,,,,
html-keyboard-response,636,1141417,null,"PIRATE<img id = ""stim"" ><div class = red_square id = ""topsquare"" ></div><img id = ""stim"" ><div class = red_square  id = ""bottomsquare"" ></div>",null,word_square,response,0,none,true,,,
html-keyboard-response,637,1142923,null,"PIRATE",null,word,,,,, 'PIRATE',,
html-keyboard-response,638,1143267,340.7299999962561,"DASHBOARD<img id = ""stim"" ><div class = green_square id = ""topsquare"" ></div><img id = ""stim"" ><div class = green_square  id = ""bottomsquare"" ></div>",32,word_square,response,1,Space,true,,,
html-keyboard-response,639,1144778,null,"DASHBOARD",null,word,,,,, 'DASHBOARD',,
html-keyboard-response,640,1145128,346.18999998201616,"CLOUD<img id = ""stim"" ><div class = green_square id = ""topsquare"" ></div><img id = ""stim"" ><div class = green_square  id = ""bottomsquare"" ></div>",32,word_square,response,1,Space,true,,,
html-keyboard-response,641,1146631,null,"CLOUD",null,word,,,,, 'CLOUD',,
html-keyboard-response,642,1147146,null,"SHOULDER<img id = ""stim"" ><div class = red_square id = ""topsquare"" ></div><img id = ""stim"" ><div class = red_square  id = ""bottomsquare"" ></div>",null,word_square,response,0,none,true,,,
html-keyboard-response,643,1148655,null,"SHOULDER",null,word,,,,, 'SHOULDER',,
html-keyboard-response,644,1148969,310.05999998888,"WRIST<img id = ""stim"" ><div class = green_square id = ""topsquare"" ></div><img id = ""stim"" ><div class = green_square  id = ""bottomsquare"" ></div>",32,word_square,response,1,Space,true,,,
html-keyboard-response,645,1150479,null,"WRIST",null,word,,,,, 'WRIST',,
html-keyboard-response,646,1150993,null,"FLASHLIGHT<img id = ""stim"" ><div class = red_square id = ""topsquare"" ></div><img id = ""stim"" ><div class = red_square  id = ""bottomsquare"" ></div>",null,word_square,response,0,none,true,,,
html-keyboard-response,647,1152512,null,"FLASHLIGHT",null,word,,,,, 'FLASHLIGHT',,
html-keyboard-response,648,1152803,288.3099999744445,"PRISON<img id = ""stim"" ><div class = green_square id = ""topsquare"" ></div><img id = ""stim"" ><div class = green_square  id = ""bottomsquare"" ></div>",32,word_square,response,1,Space,true,,,
html-keyboard-response,649,1154312,null,"PRISON",null,word,,,,, 'PRISON',,
html-keyboard-response,650,1154650,336.16500001517124,"LAGOON<img id = ""stim"" ><div class = green_square id = ""topsquare"" ></div><img id = ""stim"" ><div class = green_square  id = ""bottomsquare"" ></div>",32,word_square,response,1,Space,true,,,
html-keyboard-response,651,1156160,null,"LAGOON",null,word,,,,, 'LAGOON',,
html-keyboard-response,652,1156669,null,"FLASK<img id = ""stim"" ><div class = red_square id = ""topsquare"" ></div><img id = ""stim"" ><div class = red_square  id = ""bottomsquare"" ></div>",null,word_square,response,0,none,true,,,
html-keyboard-response,653,1158185,null,"FLASK",null,word,,,,, 'FLASK',,
html-keyboard-response,654,1158544,355.69999998551793,"SUGAR<img id = ""stim"" ><div class = green_square id = ""topsquare"" ></div><img id = ""stim"" ><div class = green_square  id = ""bottomsquare"" ></div>",32,word_square,response,1,Space,true,,,
html-keyboard-response,655,1160055,null,"SUGAR",null,word,,,,, 'SUGAR',,
html-keyboard-response,656,1160564,null,"CIRCUS<img id = ""stim"" ><div class = red_square id = ""topsquare"" ></div><img id = ""stim"" ><div class = red_square  id = ""bottomsquare"" ></div>",null,word_square,response,0,none,true,,,
html-keyboard-response,657,1162069,null,"CIRCUS",null,word,,,,, 'CIRCUS',,
html-keyboard-response,658,1162382,309.6500000101514,"PISTON<img id = ""stim"" ><div class = green_square id = ""topsquare"" ></div><img id = ""stim"" ><div class = green_square  id = ""bottomsquare"" ></div>",32,word_square,response,1,Space,true,,,
html-keyboard-response,659,1163907,null,"PISTON",null,word,,,,, 'PISTON',,
html-keyboard-response,660,1164244,334.2300000076648,"BANJO<img id = ""stim"" ><div class = green_square id = ""topsquare"" ></div><img id = ""stim"" ><div class = green_square  id = ""bottomsquare"" ></div>",32,word_square,response,1,Space,true,,,
html-keyboard-response,661,1165761,null,"BANJO",null,word,,,,, 'BANJO',,
html-keyboard-response,662,1166273,null,"STAR<img id = ""stim"" ><div class = red_square id = ""topsquare"" ></div><img id = ""stim"" ><div class = red_square  id = ""bottomsquare"" ></div>",null,word_square,response,0,none,true,,,
html-keyboard-response,663,1167778,null,"STAR",null,word,,,,, 'STAR',,
html-keyboard-response,664,1168285,null,"SPACE<img id = ""stim"" ><div class = red_square id = ""topsquare"" ></div><img id = ""stim"" ><div class = red_square  id = ""bottomsquare"" ></div>",null,word_square,response,0,none,true,,,
html-keyboard-response,665,1169795,null,"SPACE",null,word,,,,, 'SPACE',,
html-keyboard-response,666,1170111,314.2750000115484,"STRING<img id = ""stim"" ><div class = green_square id = ""topsquare"" ></div><img id = ""stim"" ><div class = green_square  id = ""bottomsquare"" ></div>",32,word_square,response,1,Space,true,,,
html-keyboard-response,667,1171615,null,"STRING",null,word,,,,, 'STRING',,
html-keyboard-response,668,1172124,null,"RECORD<img id = ""stim"" ><div class = red_square id = ""topsquare"" ></div><img id = ""stim"" ><div class = red_square  id = ""bottomsquare"" ></div>",null,word_square,response,0,none,true,,,
html-keyboard-response,669,1173638,null,"RECORD",null,word,,,,, 'RECORD',,
html-keyboard-response,670,1174152,null,"CRACKER<img id = ""stim"" ><div class = red_square id = ""topsquare"" ></div><img id = ""stim"" ><div class = red_square  id = ""bottomsquare"" ></div>",null,word_square,response,0,none,true,,,
html-keyboard-response,671,1175658,null,"CRACKER",null,word,,,,, 'CRACKER',,
call-function,672,1175659,,"",,,,,,,,,
html-keyboard-response,673,1175769,null,"",null,,,,,,,,
math-period,674,1177744,3651.4699999825098,"",,,,,,,,,4
html-keyboard-response,675,1177866,null,"",null,,,,,,,,
math-period,676,1179241,2494.3399999756366,"",,,,,,,,,4
html-keyboard-response,677,1179347,null,"",null,,,,,,,,
math-period,678,1180465,2130.944999982603,"",,,,,,,,,5
html-keyboard-response,679,1180579,null,"",null,,,,,,,,
math-period,680,1181938,2599.919999978738,"",,,,,,,,,1
html-keyboard-response,681,1182044,null,"",null,,,,,,,,
math-period,682,1183063,1910.1950000040233,"",,,,,,,,,4
html-keyboard-response,683,1183169,null,"",null,,,,,,,,
math-period,684,1185149,3692.040000023553,"",,,,,,,,,0
html-keyboard-response,685,1185253,null,"",null,,,,,,,,
math-period,686,1186775,2926.7950000066776,"",,,,,,,,,3
html-keyboard-response,687,1186877,null,"",null,,,,,,,,
math-period,688,1187794,1706.175000028452,"",,,,,,,,,3
html-keyboard-response,689,1187899,null,"",null,,,,,,,,
math-period,690,1189608,3261.675000016112,"",,,,,,,,,3
html-keyboard-response,691,1189719,null,"",null,,,,,,,,
math-period,692,1190707,1839.9450000433717,"",,,,,,,,,2
html-keyboard-response,693,1190823,null,"",null,,,,,,,,
math-period,694,1191967,2109.2049999861047,"",,,,,,,,,4
html-keyboard-response,695,1192071,null,"",null,,,,,,,,
math-period,696,1193523,2726.6200000303797,"",,,,,,,,,3
html-keyboard-response,697,1193633,null,"",null,,,,,,,,
math-period,698,1195315,3218.544999981532,"",,,,,,,,,2
html-keyboard-response,699,1195421,null,"",null,,,,,,,,
math-period,700,1197073,3165.6399999919813,"",,,,,,,,,3
html-keyboard-response,701,1197189,null,"",null,,,,,,,,
math-period,702,1199673,null,"",,,,,,,,,
html-keyboard-response,703,1200684,null,"Recall Period!",null,,,,,,,,
call-function,704,1200686,,"",,,,,,,,,
html-keyboard-response,705,1200801,null,"",null,,,,,,,,
recall-period,706,1203410,7870.089999982156,"",,,,,,,,,sugar
html-keyboard-response,707,1203518,null,"",null,,,,,,,,
recall-period,708,1214195,51605.95499997726,"",,,,,,,,,boat
html-keyboard-response,709,1214302,null,"",null,,,,,,,,
recall-period,710,1275701,null,"",,,,,,,,,
html-keyboard-response,711,1276217,null,"Time's Up!",null,,,,,,,,
html-keyboard-response,712,1344845,68621.32500001462,"<p> Good job! You responded correctly to 97% of the GREEN squares.</p>
                  <p>Be sure to keep your accuracy above 80%</p>
                  <p>Press any key to continue the experiment. Thank you!</p>",32,,,,,,,,
html-keyboard-response,713,1345486,638.5449999943376,"<div style=""font-size:48px;"">Press any key to begin list 8 of 24 </div>",32,,,,,,,,
html-keyboard-response,714,1348006,null,"<div style=""font-size:60px;"">+</div>",null,,,,,,,,
html-keyboard-response,715,1348513,null,"GODDESS<img id = ""stim"" ><div class = red_square id = ""topsquare"" ></div><img id = ""stim"" ><div class = red_square  id = ""bottomsquare"" ></div>",null,word_square,response,0,none,true,,,
html-keyboard-response,716,1350022,null,"GODDESS",null,word,,,,, 'GODDESS',,
html-keyboard-response,717,1350460,434.1650000133086,"LODGE<img id = ""stim"" ><div class = green_square id = ""topsquare"" ></div><img id = ""stim"" ><div class = green_square  id = ""bottomsquare"" ></div>",32,word_square,response,1,Space,true,,,
html-keyboard-response,718,1351973,null,"LODGE",null,word,,,,, 'LODGE',,
html-keyboard-response,719,1352307,329.8450000002049,"GREASE<img id = ""stim"" ><div class = green_square id = ""topsquare"" ></div><img id = ""stim"" ><div class = green_square  id = ""bottomsquare"" ></div>",32,word_square,response,1,Space,true,,,
html-keyboard-response,720,1353811,null,"GREASE",null,word,,,,, 'GREASE',,
html-keyboard-response,721,1354316,null,"DRIVER<img id = ""stim"" ><div class = red_square id = ""topsquare"" ></div><img id = ""stim"" ><div class = red_square  id = ""bottomsquare"" ></div>",null,word_square,response,0,none,true,,,
html-keyboard-response,722,1355836,null,"DRIVER",null,word,,,,, 'DRIVER',,
html-keyboard-response,723,1356200,360.36000002059154,"COUCH<img id = ""stim"" ><div class = green_square id = ""topsquare"" ></div><img id = ""stim"" ><div class = green_square  id = ""bottomsquare"" ></div>",32,word_square,response,1,Space,true,,,
html-keyboard-response,724,1357711,null,"COUCH",null,word,,,,, 'COUCH',,
html-keyboard-response,725,1358024,311.08499999390915,"ANGEL<img id = ""stim"" ><div class = red_square id = ""topsquare"" ></div><img id = ""stim"" ><div class = red_square  id = ""bottomsquare"" ></div>",32,word_square,response,0,none,false,,,
html-keyboard-response,726,1359537,null,"ANGEL",null,word,,,,, 'ANGEL',,
html-keyboard-response,727,1359889,348.8849999848753,"FLOWER<img id = ""stim"" ><div class = green_square id = ""topsquare"" ></div><img id = ""stim"" ><div class = green_square  id = ""bottomsquare"" ></div>",32,word_square,response,1,Space,true,,,
html-keyboard-response,728,1361404,null,"FLOWER",null,word,,,,, 'FLOWER',,
html-keyboard-response,729,1361769,362.9499999806285,"STREAM<img id = ""stim"" ><div class = green_square id = ""topsquare"" ></div><img id = ""stim"" ><div class = green_square  id = ""bottomsquare"" ></div>",32,word_square,response,1,Space,true,,,
html-keyboard-response,730,1363281,null,"STREAM",null,word,,,,, 'STREAM',,
html-keyboard-response,731,1363801,null,"PIZZA<img id = ""stim"" ><div class = red_square id = ""topsquare"" ></div><img id = ""stim"" ><div class = red_square  id = ""bottomsquare"" ></div>",null,word_square,response,0,none,true,,,
html-keyboard-response,732,1365316,null,"PIZZA",null,word,,,,, 'PIZZA',,
html-keyboard-response,733,1365631,312.2249999723863,"HANGER<img id = ""stim"" ><div class = green_square id = ""topsquare"" ></div><img id = ""stim"" ><div class = green_square  id = ""bottomsquare"" ></div>",32,word_square,response,1,Space,true,,,
html-keyboard-response,734,1367150,null,"HANGER",null,word,,,,, 'HANGER',,
html-keyboard-response,735,1367672,null,"JAPAN<img id = ""stim"" ><div class = red_square id = ""topsquare"" ></div><img id = ""stim"" ><div class = red_square  id = ""bottomsquare"" ></div>",null,word_square,response,0,none,true,,,
html-keyboard-response,736,1369183,null,"JAPAN",null,word,,,,, 'JAPAN',,
html-keyboard-response,737,1369477,292.1150000183843,"LOFT<img id = ""stim"" ><div class = green_square id = ""topsquare"" ></div><img id = ""stim"" ><div class = green_square  id = ""bottomsquare"" ></div>",32,word_square,response,1,Space,true,,,
html-keyboard-response,738,1370993,null,"LOFT",null,word,,,,, 'LOFT',,
html-keyboard-response,739,1371488,491.9250000093598,"CABIN<img id = ""stim"" ><div class = green_square id = ""topsquare"" ></div><img id = ""stim"" ><div class = green_square  id = ""bottomsquare"" ></div>",32,word_square,response,1,Space,true,,,
html-keyboard-response,740,1372996,null,"CABIN",null,word,,,,, 'CABIN',,
html-keyboard-response,741,1373506,null,"GRASS<img id = ""stim"" ><div class = red_square id = ""topsquare"" ></div><img id = ""stim"" ><div class = red_square  id = ""bottomsquare"" ></div>",null,word_square,response,0,none,true,,,
html-keyboard-response,742,1375012,null,"GRASS",null,word,,,,, 'GRASS',,
html-keyboard-response,743,1375519,null,"ELBOW<img id = ""stim"" ><div class = red_square id = ""topsquare"" ></div><img id = ""stim"" ><div class = red_square  id = ""bottomsquare"" ></div>",null,word_square,response,0,none,true,,,
html-keyboard-response,744,1377028,null,"ELBOW",null,word,,,,, 'ELBOW',,
html-keyboard-response,745,1377397,366.03499998454936,"ARM<img id = ""stim"" ><div class = green_square id = ""topsquare"" ></div><img id = ""stim"" ><div class = green_square  id = ""bottomsquare"" ></div>",32,word_square,response,1,Space,true,,,
html-keyboard-response,746,1378909,null,"ARM",null,word,,,,, 'ARM',,
html-keyboard-response,747,1379413,null,"JOKER<img id = ""stim"" ><div class = red_square id = ""topsquare"" ></div><img id = ""stim"" ><div class = red_square  id = ""bottomsquare"" ></div>",null,word_square,response,0,none,true,,,
html-keyboard-response,748,1380921,null,"JOKER",null,word,,,,, 'JOKER',,
html-keyboard-response,749,1381437,null,"WAITER<img id = ""stim"" ><div class = red_square id = ""topsquare"" ></div><img id = ""stim"" ><div class = red_square  id = ""bottomsquare"" ></div>",null,word_square,response,0,none,true,,,
html-keyboard-response,750,1382941,null,"WAITER",null,word,,,,, 'WAITER',,
call-function,751,1382943,,"",,,,,,,,,
html-keyboard-response,752,1383053,null,"",null,,,,,,,,
math-period,753,1384542,2723.3899999700952,"",,,,,,,,,4
html-keyboard-response,754,1384646,null,"",null,,,,,,,,
math-period,755,1385690,1860.660000005737,"",,,,,,,,,4
html-keyboard-response,756,1385799,null,"",null,,,,,,,,
math-period,757,1386887,2015.8050000027288,"",,,,,,,,,4
html-keyboard-response,758,1386997,null,"",null,,,,,,,,
math-period,759,1388222,2139.1049999801908,"",,,,,,,,,5
html-keyboard-response,760,1388327,null,"",null,,,,,,,,
math-period,761,1389373,1901.5650000073947,"",,,,,,,,,6
html-keyboard-response,762,1389477,null,"",null,,,,,,,,
math-period,763,1390615,1936.024999973597,"",,,,,,,,,5
html-keyboard-response,764,1390720,null,"",null,,,,,,,,
math-period,765,1391588,1596.975000022212,"",,,,,,,,,5
html-keyboard-response,766,1391694,null,"",null,,,,,,,,
math-period,767,1393398,3159.3299999658484,"",,,,,,,,,4
html-keyboard-response,768,1393512,null,"",null,,,,,,,,
math-period,769,1394941,2658.2150000031106,"",,,,,,,,,4
html-keyboard-response,770,1395046,null,"",null,,,,,,,,
math-period,771,1396457,2638.885000022128,"",,,,,,,,,5
html-keyboard-response,772,1396560,null,"",null,,,,,,,,
math-period,773,1398062,2731.98000001139,"",,,,,,,,,2
html-keyboard-response,774,1398166,null,"",null,,,,,,,,
math-period,775,1399753,3055.2049999823794,"",,,,,,,,,4
html-keyboard-response,776,1399874,null,"",null,,,,,,,,
math-period,777,1401242,2581.9849999970756,"",,,,,,,,,4
html-keyboard-response,778,1401355,null,"",null,,,,,,,,
math-period,779,1403466,4040.1399999973364,"",,,,,,,,,4
html-keyboard-response,780,1403572,null,"",null,,,,,,,,
math-period,781,1404634,2017.2849999798927,"",,,,,,,,,3
html-keyboard-response,782,1404745,null,"",null,,,,,,,,
math-period,783,1406956,2027.074999990873,"",,,,,,,,,0
html-keyboard-response,784,1407959,null,"Recall Period!",null,,,,,,,,
call-function,785,1407960,,"",,,,,,,,,
html-keyboard-response,786,1408074,null,"",null,,,,,,,,
recall-period,787,1409316,5393.214999901829,"",,,,,,,,,goddess
html-keyboard-response,788,1409433,null,"",null,,,,,,,,
recall-period,789,1410328,3502.405000064755,"",,,,,,,,,angel
html-keyboard-response,790,1410436,null,"",null,,,,,,,,
recall-period,791,1410979,1244.0399999904912,"",,,,,,,,,arm
html-keyboard-response,792,1411098,null,"",null,,,,,,,,
recall-period,793,1411710,1926.1900000856258,"",,,,,,,,,elbow
html-keyboard-response,794,1411818,null,"",null,,,,,,,,
recall-period,795,1482970,null,"",,,,,,,,,
html-keyboard-response,796,1483475,null,"Time's Up!",null,,,,,,,,
html-keyboard-response,797,1484922,1444.115000020247,"<p> Good job! You responded correctly to 97% of the GREEN squares.</p>
                  <p>Be sure to keep your accuracy above 80%</p>
                  <p>Press any key to continue the experiment. Thank you!</p>",32,,,,,,,,
html-keyboard-response,798,1485686,761.1000000033528,"<div style=""font-size:48px;"">Press any key to begin list 9 of 24 </div>",32,,,,,,,,
html-keyboard-response,799,1488214,null,"<div style=""font-size:60px;"">+</div>",null,,,,,,,,
html-keyboard-response,800,1488726,null,"GLACIER<img id = ""stim"" ><div class = red_square id = ""topsquare"" ></div><img id = ""stim"" ><div class = red_square  id = ""bottomsquare"" ></div>",null,word_square,response,0,none,true,,,
html-keyboard-response,801,1490238,null,"GLACIER",null,word,,,,, 'GLACIER',,
html-keyboard-response,802,1490635,394.655000010971,"OATMEAL<img id = ""stim"" ><div class = green_square id = ""topsquare"" ></div><img id = ""stim"" ><div class = green_square  id = ""bottomsquare"" ></div>",32,word_square,response,1,Space,true,,,
html-keyboard-response,803,1492141,null,"OATMEAL",null,word,,,,, 'OATMEAL',,
html-keyboard-response,804,1492649,null,"CAPTAIN<img id = ""stim"" ><div class = red_square id = ""topsquare"" ></div><img id = ""stim"" ><div class = red_square  id = ""bottomsquare"" ></div>",null,word_square,response,0,none,true,,,
html-keyboard-response,805,1494153,null,"CAPTAIN",null,word,,,,, 'CAPTAIN',,
html-keyboard-response,806,1494480,324.28500000969507,"POND<img id = ""stim"" ><div class = green_square id = ""topsquare"" ></div><img id = ""stim"" ><div class = green_square  id = ""bottomsquare"" ></div>",32,word_square,response,1,Space,true,,,
html-keyboard-response,807,1495995,null,"POND",null,word,,,,, 'POND',,
html-keyboard-response,808,1496507,null,"ZIPPER<img id = ""stim"" ><div class = red_square id = ""topsquare"" ></div><img id = ""stim"" ><div class = red_square  id = ""bottomsquare"" ></div>",null,word_square,response,0,none,true,,,
html-keyboard-response,809,1498013,null,"ZIPPER",null,word,,,,, 'ZIPPER',,
html-keyboard-response,810,1498523,null,"BANDIT<img id = ""stim"" ><div class = red_square id = ""topsquare"" ></div><img id = ""stim"" ><div class = red_square  id = ""bottomsquare"" ></div>",null,word_square,response,0,none,true,,,
html-keyboard-response,811,1500047,null,"BANDIT",null,word,,,,, 'BANDIT',,
html-keyboard-response,812,1500372,320.68999999319203,"SNAKE<img id = ""stim"" ><div class = green_square id = ""topsquare"" ></div><img id = ""stim"" ><div class = green_square  id = ""bottomsquare"" ></div>",32,word_square,response,1,Space,true,,,
html-keyboard-response,813,1501882,null,"SNAKE",null,word,,,,, 'SNAKE',,
html-keyboard-response,814,1502391,null,"OZONE<img id = ""stim"" ><div class = red_square id = ""topsquare"" ></div><img id = ""stim"" ><div class = red_square  id = ""bottomsquare"" ></div>",null,word_square,response,0,none,true,,,
html-keyboard-response,815,1503907,null,"OZONE",null,word,,,,, 'OZONE',,
html-keyboard-response,816,1504416,null,"TRACTOR<img id = ""stim"" ><div class = red_square id = ""topsquare"" ></div><img id = ""stim"" ><div class = red_square  id = ""bottomsquare"" ></div>",null,word_square,response,0,none,true,,,
html-keyboard-response,817,1505936,null,"TRACTOR",null,word,,,,, 'TRACTOR',,
html-keyboard-response,818,1506354,414.5149999822024,"PICNIC<img id = ""stim"" ><div class = green_square id = ""topsquare"" ></div><img id = ""stim"" ><div class = green_square  id = ""bottomsquare"" ></div>",32,word_square,response,1,Space,true,,,
html-keyboard-response,819,1507863,null,"PICNIC",null,word,,,,, 'PICNIC',,
html-keyboard-response,820,1508371,null,"MEAT<img id = ""stim"" ><div class = red_square id = ""topsquare"" ></div><img id = ""stim"" ><div class = red_square  id = ""bottomsquare"" ></div>",null,word_square,response,0,none,true,,,
html-keyboard-response,821,1509885,null,"MEAT",null,word,,,,, 'MEAT',,
html-keyboard-response,822,1510394,null,"PALACE<img id = ""stim"" ><div class = red_square id = ""topsquare"" ></div><img id = ""stim"" ><div class = red_square  id = ""bottomsquare"" ></div>",null,word_square,response,0,none,true,,,
html-keyboard-response,823,1511904,null,"PALACE",null,word,,,,, 'PALACE',,
html-keyboard-response,824,1512194,286.7449999903329,"BULLET<img id = ""stim"" ><div class = green_square id = ""topsquare"" ></div><img id = ""stim"" ><div class = green_square  id = ""bottomsquare"" ></div>",32,word_square,response,1,Space,true,,,
html-keyboard-response,825,1513703,null,"BULLET",null,word,,,,, 'BULLET',,
html-keyboard-response,826,1514045,338.31500000087544,"COUGAR<img id = ""stim"" ><div class = green_square id = ""topsquare"" ></div><img id = ""stim"" ><div class = green_square  id = ""bottomsquare"" ></div>",32,word_square,response,1,Space,true,,,
html-keyboard-response,827,1515549,null,"COUGAR",null,word,,,,, 'COUGAR',,
html-keyboard-response,828,1515990,438.15999999060296,"CATTLE<img id = ""stim"" ><div class = green_square id = ""topsquare"" ></div><img id = ""stim"" ><div class = green_square  id = ""bottomsquare"" ></div>",32,word_square,response,1,Space,true,,,
html-keyboard-response,829,1517498,null,"CATTLE",null,word,,,,, 'CATTLE',,
html-keyboard-response,830,1518010,null,"PRINCE<img id = ""stim"" ><div class = red_square id = ""topsquare"" ></div><img id = ""stim"" ><div class = red_square  id = ""bottomsquare"" ></div>",null,word_square,response,0,none,true,,,
html-keyboard-response,831,1519530,null,"PRINCE",null,word,,,,, 'PRINCE',,
html-keyboard-response,832,1519875,342.33499999390915,"SUNSET<img id = ""stim"" ><div class = green_square id = ""topsquare"" ></div><img id = ""stim"" ><div class = green_square  id = ""bottomsquare"" ></div>",32,word_square,response,1,Space,true,,,
html-keyboard-response,833,1521380,null,"SUNSET",null,word,,,,, 'SUNSET',,
html-keyboard-response,834,1521791,408.0499999981839,"ONION<img id = ""stim"" ><div class = green_square id = ""topsquare"" ></div><img id = ""stim"" ><div class = green_square  id = ""bottomsquare"" ></div>",32,word_square,response,1,Space,true,,,
html-keyboard-response,835,1523311,null,"ONION",null,word,,,,, 'ONION',,
call-function,836,1523314,,"",,,,,,,,,
html-keyboard-response,837,1523432,null,"",null,,,,,,,,
math-period,838,1525165,3177.5399999751244,"",,,,,,,,,5
html-keyboard-response,839,1525269,null,"",null,,,,,,,,
math-period,840,1525998,1350.224999972852,"",,,,,,,,,5
html-keyboard-response,841,1526111,null,"",null,,,,,,,,
math-period,842,1527049,1759.2100000183564,"",,,,,,,,,4
html-keyboard-response,843,1527159,null,"",null,,,,,,,,
math-period,844,1527897,1369.829999981448,"",,,,,,,,,4
html-keyboard-response,845,1528008,null,"",null,,,,,,,,
math-period,846,1528977,1849.9200000078417,"",,,,,,,,,5
html-keyboard-response,847,1529083,null,"",null,,,,,,,,
math-period,848,1530154,2064.650000014808,"",,,,,,,,,3
html-keyboard-response,849,1530262,null,"",null,,,,,,,,
math-period,850,1531585,2556.524999992689,"",,,,,,,,,1
html-keyboard-response,851,1531692,null,"",null,,,,,,,,
math-period,852,1533175,2843.0799999914598,"",,,,,,,,,1
html-keyboard-response,853,1533280,null,"",null,,,,,,,,
math-period,854,1534218,1765.240000007907,"",,,,,,,,,4
html-keyboard-response,855,1534322,null,"",null,,,,,,,,
math-period,856,1538488,8090.564999991329,"",,,,,,,,,4
html-keyboard-response,857,1538597,null,"",null,,,,,,,,
math-period,858,1541328,4990.505000023404,"",,,,,,,,,5
html-keyboard-response,859,1541434,null,"",null,,,,,,,,
math-period,860,1543599,3828.0249999661464,"",,,,,,,,,3
html-keyboard-response,861,1543706,null,"",null,,,,,,,,
math-period,862,1547333,null,"",,,,,,,,,
html-keyboard-response,863,1548343,null,"Recall Period!",null,,,,,,,,
call-function,864,1548348,,"",,,,,,,,,
html-keyboard-response,865,1548458,null,"",null,,,,,,,,
recall-period,866,1550004,7467.279999895254,"",,,,,,,,,oatmeal
html-keyboard-response,867,1550110,null,"",null,,,,,,,,
recall-period,868,1550784,2277.630000084173,"",,,,,,,,,snake
html-keyboard-response,869,1550901,null,"",null,,,,,,,,
recall-period,870,1552133,5972.119999991264,"",,,,,,,,,prince
html-keyboard-response,871,1552237,null,"",null,,,,,,,,
recall-period,872,1553318,5117.079999996349,"",,,,,,,,,captain
html-keyboard-response,873,1553419,null,"",null,,,,,,,,
recall-period,874,1623359,null,"",,,,,,,,,
html-keyboard-response,875,1623879,null,"Time's Up!",null,,,,,,,,
html-keyboard-response,876,1673134,49248.9399999904,"<p> Good job! You responded correctly to 97% of the GREEN squares.</p>
                  <p>Be sure to keep your accuracy above 80%</p>
                  <p>Press any key to continue the experiment. Thank you!</p>",32,,,,,,,,
html-keyboard-response,877,1674506,1369.54000001424,"<div style=""font-size:48px;"">Press any key to begin list 10 of 24 </div>",32,,,,,,,,
html-keyboard-response,878,1677020,null,"<div style=""font-size:60px;"">+</div>",null,,,,,,,,
html-keyboard-response,879,1677541,null,"GAUZE<img id = ""stim"" ><div class = red_square id = ""topsquare"" ></div><img id = ""stim"" ><div class = red_square  id = ""bottomsquare"" ></div>",null,word_square,response,0,none,true,,,
html-keyboard-response,880,1679051,null,"GAUZE",null,word,,,,, 'GAUZE',,
html-keyboard-response,881,1679427,372.93000001227483,"TRANSPLANT<img id = ""stim"" ><div class = green_square id = ""topsquare"" ></div><img id = ""stim"" ><div class = green_square  id = ""bottomsquare"" ></div>",32,word_square,response,1,Space,true,,,
html-keyboard-response,882,1680931,null,"TRANSPLANT",null,word,,,,, 'TRANSPLANT',,
html-keyboard-response,883,1681457,null,"CLOTHES<img id = ""stim"" ><div class = red_square id = ""topsquare"" ></div><img id = ""stim"" ><div class = red_square  id = ""bottomsquare"" ></div>",null,word_square,response,0,none,true,,,
html-keyboard-response,884,1682974,null,"CLOTHES",null,word,,,,, 'CLOTHES',,
html-keyboard-response,885,1683478,null,"CHEST<img id = ""stim"" ><div class = green_square id = ""topsquare"" ></div><img id = ""stim"" ><div class = green_square  id = ""bottomsquare"" ></div>",null,word_square,response,1,Space,false,,,
html-keyboard-response,886,1684988,null,"CHEST",null,word,,,,, 'CHEST',,
html-keyboard-response,887,1685504,null,"BACON<img id = ""stim"" ><div class = red_square id = ""topsquare"" ></div><img id = ""stim"" ><div class = red_square  id = ""bottomsquare"" ></div>",null,word_square,response,0,none,true,,,
html-keyboard-response,888,1687014,null,"BACON",null,word,,,,, 'BACON',,
html-keyboard-response,889,1687521,null,"SAUSAGE<img id = ""stim"" ><div class = red_square id = ""topsquare"" ></div><img id = ""stim"" ><div class = red_square  id = ""bottomsquare"" ></div>",null,word_square,response,0,none,true,,,
html-keyboard-response,890,1689034,null,"SAUSAGE",null,word,,,,, 'SAUSAGE',,
html-keyboard-response,891,1689418,379.6999999904074,"CARROT<img id = ""stim"" ><div class = green_square id = ""topsquare"" ></div><img id = ""stim"" ><div class = green_square  id = ""bottomsquare"" ></div>",32,word_square,response,1,Space,true,,,
html-keyboard-response,892,1690929,null,"CARROT",null,word,,,,, 'CARROT',,
html-keyboard-response,893,1691446,null,"KIDNEY<img id = ""stim"" ><div class = red_square id = ""topsquare"" ></div><img id = ""stim"" ><div class = red_square  id = ""bottomsquare"" ></div>",null,word_square,response,0,none,true,,,
html-keyboard-response,894,1692950,null,"KIDNEY",null,word,,,,, 'KIDNEY',,
html-keyboard-response,895,1693460,null,"VESSEL<img id = ""stim"" ><div class = red_square id = ""topsquare"" ></div><img id = ""stim"" ><div class = red_square  id = ""bottomsquare"" ></div>",null,word_square,response,0,none,true,,,
html-keyboard-response,896,1694974,null,"VESSEL",null,word,,,,, 'VESSEL',,
html-keyboard-response,897,1695486,508.11500000418164,"LAVA<img id = ""stim"" ><div class = green_square id = ""topsquare"" ></div><img id = ""stim"" ><div class = green_square  id = ""bottomsquare"" ></div>",32,word_square,response,1,Space,true,,,
html-keyboard-response,898,1696991,null,"LAVA",null,word,,,,, 'LAVA',,
html-keyboard-response,899,1697504,null,"SEASHORE<img id = ""stim"" ><div class = red_square id = ""topsquare"" ></div><img id = ""stim"" ><div class = red_square  id = ""bottomsquare"" ></div>",null,word_square,response,0,none,true,,,
html-keyboard-response,900,1699009,null,"SEASHORE",null,word,,,,, 'SEASHORE',,
html-keyboard-response,901,1699516,null,"BLOUSE<img id = ""stim"" ><div class = red_square id = ""topsquare"" ></div><img id = ""stim"" ><div class = red_square  id = ""bottomsquare"" ></div>",null,word_square,response,0,none,true,,,
html-keyboard-response,902,1701029,null,"BLOUSE",null,word,,,,, 'BLOUSE',,
html-keyboard-response,903,1701544,null,"PLAID<img id = ""stim"" ><div class = green_square id = ""topsquare"" ></div><img id = ""stim"" ><div class = green_square  id = ""bottomsquare"" ></div>",null,word_square,response,1,Space,false,,,
html-keyboard-response,904,1703054,null,"PLAID",null,word,,,,, 'PLAID',,
html-keyboard-response,905,1703561,null,"SCHOOL<img id = ""stim"" ><div class = green_square id = ""topsquare"" ></div><img id = ""stim"" ><div class = green_square  id = ""bottomsquare"" ></div>",null,word_square,response,1,Space,false,,,
html-keyboard-response,906,1705072,null,"SCHOOL",null,word,,,,, 'SCHOOL',,
html-keyboard-response,907,1705580,null,"STONE<img id = ""stim"" ><div class = green_square id = ""topsquare"" ></div><img id = ""stim"" ><div class = green_square  id = ""bottomsquare"" ></div>",null,word_square,response,1,Space,false,,,
html-keyboard-response,908,1707107,null,"STONE",null,word,,,,, 'STONE',,
html-keyboard-response,909,1707620,null,"ICING<img id = ""stim"" ><div class = red_square id = ""topsquare"" ></div><img id = ""stim"" ><div class = red_square  id = ""bottomsquare"" ></div>",null,word_square,response,0,none,true,,,
html-keyboard-response,910,1709123,null,"ICING",null,word,,,,, 'ICING',,
html-keyboard-response,911,1709634,null,"BLOSSOM<img id = ""stim"" ><div class = green_square id = ""topsquare"" ></div><img id = ""stim"" ><div class = green_square  id = ""bottomsquare"" ></div>",null,word_square,response,1,Space,false,,,
html-keyboard-response,912,1711158,null,"BLOSSOM",null,word,,,,, 'BLOSSOM',,
html-keyboard-response,913,1711625,464.8400000005495,"SIBLING<img id = ""stim"" ><div class = green_square id = ""topsquare"" ></div><img id = ""stim"" ><div class = green_square  id = ""bottomsquare"" ></div>",32,word_square,response,1,Space,true,,,
html-keyboard-response,914,1713134,null,"SIBLING",null,word,,,,, 'SIBLING',,
