trial_type,trial_index,time_elapsed,rt,stimulus,key_press,test_part,task,targ_cond,correctKeyCode,correct,word,value,response
pavlovia,0,1352,,"",,,,,,,,,
external-html,1,69954,68294.00000000001,"",,,,,,,,,
html-keyboard-response,2,71577,1619,"Welcome to the experiment. Press any key to begin.",32,,,,,,,,
html-keyboard-response,3,89530,17950.999999999985,"<p>You will see a list of words and colored squares in the following task.<p><p>Press the spacebar whenever you see a GREEN square.<p><p>Do not press a key if the square is RED<p><p>Press the spacebar to continue.</p>",32,,,,,,,,
html-keyboard-response,4,108977,18944,"<p>Please try to remember as many of the words as you can, and try to think about the meaning of each word as it appears.<p><p>After the detection and encoding task you will be asked to solve some math problems for 24 seconds.<p> Please solve as many problems as you can in the time given. <p>",32,,,,,,,,
html-keyboard-response,5,119011,9531,"After solving the math problems, you will be asked to type in as many words <p>from the previous list as you can remember for 75 seconds.<p> If you finish recalling before the 75 seconds are up,<p> just sit tight and try to think of any more words you could have missed. <p><p>We will begin with a brief practice session<p>Press the spacebar to begin the practice.</p>",32,,,,,,,,
html-keyboard-response,6,121514,null,"<div style=""font-size:60px;"">+</div>",null,,,,,,,,
html-keyboard-response,7,122017,null,"HAPPY<img id = ""stim"" ><div class = red_square id = ""topsquare"" ></div><img id = ""stim"" ><div class = red_square  id = ""bottomsquare"" ></div>",null,word_square,prac_response,0,none,true,,,
html-keyboard-response,8,123520,null,"HAPPY",null,word,,,,,HAPPY,,
html-keyboard-response,9,124024,null,"COLD<img id = ""stim"" ><div class = green_square id = ""topsquare"" ></div><img id = ""stim"" ><div class = green_square  id = ""bottomsquare"" ></div>",null,word_square,prac_response,1,Space,false,,,
html-keyboard-response,10,125527,null,"COLD",null,word,,,,,COLD,,
html-keyboard-response,11,126031,null,"HEAVY<img id = ""stim"" ><div class = green_square id = ""topsquare"" ></div><img id = ""stim"" ><div class = green_square  id = ""bottomsquare"" ></div>",null,word_square,prac_response,1,Space,false,,,
html-keyboard-response,12,127534,null,"HEAVY",null,word,,,,,HEAVY,,
html-keyboard-response,13,128037,null,"FUNNY<img id = ""stim"" ><div class = red_square id = ""topsquare"" ></div><img id = ""stim"" ><div class = red_square  id = ""bottomsquare"" ></div>",null,word_square,prac_response,0,none,true,,,
html-keyboard-response,14,129540,null,"FUNNY",null,word,,,,,FUNNY,,
html-keyboard-response,15,130043,null,"SCARY<img id = ""stim"" ><div class = green_square id = ""topsquare"" ></div><img id = ""stim"" ><div class = green_square  id = ""bottomsquare"" ></div>",null,word_square,prac_response,1,Space,false,,,
html-keyboard-response,16,131547,null,"SCARY",null,word,,,,,SCARY,,
html-keyboard-response,17,132050,null,"PEACEFUL<img id = ""stim"" ><div class = green_square id = ""topsquare"" ></div><img id = ""stim"" ><div class = green_square  id = ""bottomsquare"" ></div>",null,word_square,prac_response,1,Space,false,,,
html-keyboard-response,18,133553,null,"PEACEFUL",null,word,,,,,PEACEFUL,,
html-keyboard-response,19,134057,null,"LITTLE<img id = ""stim"" ><div class = red_square id = ""topsquare"" ></div><img id = ""stim"" ><div class = red_square  id = ""bottomsquare"" ></div>",null,word_square,prac_response,0,none,true,,,
html-keyboard-response,20,135560,null,"LITTLE",null,word,,,,,LITTLE,,
html-keyboard-response,21,136063,null,"TIRED<img id = ""stim"" ><div class = red_square id = ""topsquare"" ></div><img id = ""stim"" ><div class = red_square  id = ""bottomsquare"" ></div>",null,word_square,prac_response,0,none,true,,,
html-keyboard-response,22,137567,null,"TIRED",null,word,,,,,TIRED,,
html-keyboard-response,23,138070,null,"ENTERTAINING<img id = ""stim"" ><div class = red_square id = ""topsquare"" ></div><img id = ""stim"" ><div class = red_square  id = ""bottomsquare"" ></div>",null,word_square,prac_response,0,none,true,,,
html-keyboard-response,24,139573,null,"ENTERTAINING",null,word,,,,,ENTERTAINING,,
html-keyboard-response,25,140077,416,"GRATEFUL<img id = ""stim"" ><div class = green_square id = ""topsquare"" ></div><img id = ""stim"" ><div class = green_square  id = ""bottomsquare"" ></div>",32,word_square,prac_response,1,Space,true,,,
html-keyboard-response,26,141580,null,"GRATEFUL",null,word,,,,,GRATEFUL,,
html-keyboard-response,27,142083,null,"LOUD<img id = ""stim"" ><div class = red_square id = ""topsquare"" ></div><img id = ""stim"" ><div class = red_square  id = ""bottomsquare"" ></div>",null,word_square,prac_response,0,none,true,,,
html-keyboard-response,28,143587,null,"LOUD",null,word,,,,,LOUD,,
html-keyboard-response,29,144090,null,"SMART<img id = ""stim"" ><div class = green_square id = ""topsquare"" ></div><img id = ""stim"" ><div class = green_square  id = ""bottomsquare"" ></div>",null,word_square,prac_response,1,Space,false,,,
html-keyboard-response,30,145593,null,"SMART",null,word,,,,,SMART,,
html-keyboard-response,31,146096,null,"SMOOTH<img id = ""stim"" ><div class = green_square id = ""topsquare"" ></div><img id = ""stim"" ><div class = green_square  id = ""bottomsquare"" ></div>",null,word_square,prac_response,1,Space,false,,,
html-keyboard-response,32,147600,null,"SMOOTH",null,word,,,,,SMOOTH,,
html-keyboard-response,33,148103,null,"DISHONEST<img id = ""stim"" ><div class = red_square id = ""topsquare"" ></div><img id = ""stim"" ><div class = red_square  id = ""bottomsquare"" ></div>",null,word_square,prac_response,0,none,true,,,
html-keyboard-response,34,149606,null,"DISHONEST",null,word,,,,,DISHONEST,,
html-keyboard-response,35,150108,427,"WEALTHY<img id = ""stim"" ><div class = green_square id = ""topsquare"" ></div><img id = ""stim"" ><div class = green_square  id = ""bottomsquare"" ></div>",32,word_square,prac_response,1,Space,true,,,
html-keyboard-response,36,151612,null,"WEALTHY",null,word,,,,,WEALTHY,,
html-keyboard-response,37,152115,null,"BEAUTIFUL<img id = ""stim"" ><div class = red_square id = ""topsquare"" ></div><img id = ""stim"" ><div class = red_square  id = ""bottomsquare"" ></div>",null,word_square,prac_response,0,none,true,,,
html-keyboard-response,38,153618,null,"BEAUTIFUL",null,word,,,,,BEAUTIFUL,,
html-keyboard-response,39,154121,323,"DREARY<img id = ""stim"" ><div class = red_square id = ""topsquare"" ></div><img id = ""stim"" ><div class = red_square  id = ""bottomsquare"" ></div>",32,word_square,prac_response,0,none,true,,,
html-keyboard-response,40,155625,null,"DREARY",null,word,,,,,DREARY,,
html-keyboard-response,41,156128,null,"PLAYFUL<img id = ""stim"" ><div class = green_square id = ""topsquare"" ></div><img id = ""stim"" ><div class = green_square  id = ""bottomsquare"" ></div>",null,word_square,prac_response,1,Space,false,,,
html-keyboard-response,42,157632,null,"PLAYFUL",null,word,,,,,PLAYFUL,,
html-keyboard-response,43,164926,7291,"<p> Uh oh. You responded correctly on 61% of the GREEN squares.</p>
                  <p>We need you keep your accuracy above 80%</p>
                  <p>We're going to try once more to make sure you understand the task. press any key to continue.</p>",32,,,,,,,,
html-keyboard-response,44,167633,2704.999999999971,"<p>You will see a list of words and colored squares in the following task.<p><p>Press the spacebar whenever you see a GREEN square.<p><p>Do not press a key if the square is RED<p><p>Press the spacebar to continue.</p>",32,,,,,,,,
html-keyboard-response,45,170137,null,"<div style=""font-size:60px;"">+</div>",null,,,,,,,,
html-keyboard-response,46,170640,null,"HAPPY<img id = ""stim"" ><div class = red_square id = ""topsquare"" ></div><img id = ""stim"" ><div class = red_square  id = ""bottomsquare"" ></div>",null,word_square,response,0,none,true,,,
html-keyboard-response,47,172144,null,"HAPPY",null,word,,,,,HAPPY,,
html-keyboard-response,48,172647,null,"COLD<img id = ""stim"" ><div class = green_square id = ""topsquare"" ></div><img id = ""stim"" ><div class = green_square  id = ""bottomsquare"" ></div>",null,word_square,response,1,Space,false,,,
html-keyboard-response,49,174151,null,"COLD",null,word,,,,,COLD,,
html-keyboard-response,50,174517,365,"HEAVY<img id = ""stim"" ><div class = green_square id = ""topsquare"" ></div><img id = ""stim"" ><div class = green_square  id = ""bottomsquare"" ></div>",32,word_square,response,1,Space,true,,,
html-keyboard-response,51,176021,null,"HEAVY",null,word,,,,,HEAVY,,
html-keyboard-response,52,176524,null,"FUNNY<img id = ""stim"" ><div class = red_square id = ""topsquare"" ></div><img id = ""stim"" ><div class = red_square  id = ""bottomsquare"" ></div>",null,word_square,response,0,none,true,,,
html-keyboard-response,53,178026,null,"FUNNY",null,word,,,,,FUNNY,,
html-keyboard-response,54,178530,null,"SCARY<img id = ""stim"" ><div class = green_square id = ""topsquare"" ></div><img id = ""stim"" ><div class = green_square  id = ""bottomsquare"" ></div>",null,word_square,response,1,Space,false,,,
html-keyboard-response,55,180033,null,"SCARY",null,word,,,,,SCARY,,
html-keyboard-response,56,180536,null,"PEACEFUL<img id = ""stim"" ><div class = green_square id = ""topsquare"" ></div><img id = ""stim"" ><div class = green_square  id = ""bottomsquare"" ></div>",null,word_square,response,1,Space,false,,,
html-keyboard-response,57,182039,null,"PEACEFUL",null,word,,,,,PEACEFUL,,
html-keyboard-response,58,182542,null,"LITTLE<img id = ""stim"" ><div class = red_square id = ""topsquare"" ></div><img id = ""stim"" ><div class = red_square  id = ""bottomsquare"" ></div>",null,word_square,response,0,none,true,,,
html-keyboard-response,59,184046,null,"LITTLE",null,word,,,,,LITTLE,,
html-keyboard-response,60,184549,null,"TIRED<img id = ""stim"" ><div class = red_square id = ""topsquare"" ></div><img id = ""stim"" ><div class = red_square  id = ""bottomsquare"" ></div>",null,word_square,response,0,none,true,,,
html-keyboard-response,61,186052,null,"TIRED",null,word,,,,,TIRED,,
html-keyboard-response,62,186555,null,"ENTERTAINING<img id = ""stim"" ><div class = red_square id = ""topsquare"" ></div><img id = ""stim"" ><div class = red_square  id = ""bottomsquare"" ></div>",null,word_square,response,0,none,true,,,
html-keyboard-response,63,188058,null,"ENTERTAINING",null,word,,,,,ENTERTAINING,,
html-keyboard-response,64,188513,453,"GRATEFUL<img id = ""stim"" ><div class = green_square id = ""topsquare"" ></div><img id = ""stim"" ><div class = green_square  id = ""bottomsquare"" ></div>",32,word_square,response,1,Space,true,,,
html-keyboard-response,65,190015,null,"GRATEFUL",null,word,,,,,GRATEFUL,,
html-keyboard-response,66,190518,null,"LOUD<img id = ""stim"" ><div class = red_square id = ""topsquare"" ></div><img id = ""stim"" ><div class = red_square  id = ""bottomsquare"" ></div>",null,word_square,response,0,none,true,,,
html-keyboard-response,67,192021,null,"LOUD",null,word,,,,,LOUD,,
html-keyboard-response,68,192524,null,"SMART<img id = ""stim"" ><div class = green_square id = ""topsquare"" ></div><img id = ""stim"" ><div class = green_square  id = ""bottomsquare"" ></div>",null,word_square,response,1,Space,false,,,
html-keyboard-response,69,194028,null,"SMART",null,word,,,,,SMART,,
html-keyboard-response,70,194531,null,"SMOOTH<img id = ""stim"" ><div class = green_square id = ""topsquare"" ></div><img id = ""stim"" ><div class = green_square  id = ""bottomsquare"" ></div>",null,word_square,response,1,Space,false,,,
html-keyboard-response,71,196034,null,"SMOOTH",null,word,,,,,SMOOTH,,
html-keyboard-response,72,196538,null,"DISHONEST<img id = ""stim"" ><div class = red_square id = ""topsquare"" ></div><img id = ""stim"" ><div class = red_square  id = ""bottomsquare"" ></div>",null,word_square,response,0,none,true,,,
html-keyboard-response,73,198041,null,"DISHONEST",null,word,,,,,DISHONEST,,
html-keyboard-response,74,198462,420,"WEALTHY<img id = ""stim"" ><div class = green_square id = ""topsquare"" ></div><img id = ""stim"" ><div class = green_square  id = ""bottomsquare"" ></div>",32,word_square,response,1,Space,true,,,
html-keyboard-response,75,199964,null,"WEALTHY",null,word,,,,,WEALTHY,,
html-keyboard-response,76,200468,null,"BEAUTIFUL<img id = ""stim"" ><div class = red_square id = ""topsquare"" ></div><img id = ""stim"" ><div class = red_square  id = ""bottomsquare"" ></div>",null,word_square,response,0,none,true,,,
html-keyboard-response,77,201971,null,"BEAUTIFUL",null,word,,,,,BEAUTIFUL,,
html-keyboard-response,78,202474,null,"DREARY<img id = ""stim"" ><div class = red_square id = ""topsquare"" ></div><img id = ""stim"" ><div class = red_square  id = ""bottomsquare"" ></div>",null,word_square,response,0,none,true,,,
html-keyboard-response,79,203977,null,"DREARY",null,word,,,,,DREARY,,
html-keyboard-response,80,204481,null,"PLAYFUL<img id = ""stim"" ><div class = green_square id = ""topsquare"" ></div><img id = ""stim"" ><div class = green_square  id = ""bottomsquare"" ></div>",null,word_square,response,1,Space,false,,,
html-keyboard-response,81,205984,null,"PLAYFUL",null,word,,,,,PLAYFUL,,
html-keyboard-response,82,214246,8260,"<p> Uh oh. You responded correctly on 67% of the GREEN squares.</p>
                  <p>We need you keep your accuracy above 80%</p>
                  <p>Press any key to begin the math and recall sections. Thank you!</p>",32,,,,,,,,
call-function,83,214247,,"",,,,,,,,,
html-keyboard-response,84,214350,null,"",null,,,,,,,,
math-period,85,218235,6445.999999999942,"",,,,,,,,,5
html-keyboard-response,86,218338,null,"",null,,,,,,,,
math-period,87,220524,3675.999999999971,"",,,,,,,,,4
html-keyboard-response,88,220625,null,"",null,,,,,,,,
math-period,89,223371,6730,"",,,,,,,,,4
html-keyboard-response,90,223473,null,"",null,,,,,,,,
math-period,91,225921,4161,"",,,,,,,,,4
html-keyboard-response,92,226023,null,"",null,,,,,,,,
math-period,93,228080,3468,"",,,,,,,,,6
html-keyboard-response,94,228183,null,"",null,,,,,,,,
math-period,95,231732,6390.999999999942,"",,,,,,,,,3
html-keyboard-response,96,231834,null,"",null,,,,,,,,
math-period,97,234392,4363,"",,,,,,,,,2
html-keyboard-response,98,234495,null,"",null,,,,,,,,
math-period,99,236627,3613,"",,,,,,,,,2
html-keyboard-response,100,236730,null,"",null,,,,,,,,
math-period,101,238251,null,"",,,,,,,,,
html-keyboard-response,102,239254,null,"Recall Period!",null,,,,,,,,
call-function,103,239257,,"",,,,,,,,,
html-keyboard-response,104,239405,null,"",null,,,,,,,,
recall-period,105,244707,25380.00000000003,"",,,,,,,,,cold
html-keyboard-response,106,244808,null,"",null,,,,,,,,
recall-period,107,247294,8574.999999999825,"",,,,,,,,,scary
html-keyboard-response,108,247397,null,"",null,,,,,,,,
recall-period,109,249671,9002,"",,,,,,,,,funny
html-keyboard-response,110,249774,null,"",null,,,,,,,,
recall-period,111,252941,13849.000000000058,"",,,,,,,,,playful
html-keyboard-response,112,253043,null,"",null,,,,,,,,
recall-period,113,255688,9827.000000000058,"",,,,,,,,,smart
html-keyboard-response,114,255791,null,"",null,,,,,,,,
recall-period,115,258009,7940.000000000029,"",,,,,,,,,heavy
html-keyboard-response,116,258111,null,"",null,,,,,,,,
recall-period,117,261215,14958.00000000035,"",,,,,,,,,peaceful
html-keyboard-response,118,261318,null,"",null,,,,,,,,
recall-period,119,286452,144408.9999999997,"",,,,,,,,,scary
html-keyboard-response,120,286555,null,"",null,,,,,,,,
recall-period,121,314260,null,"",,,,,,,,,
html-keyboard-response,122,314764,null,"Time's Up!",null,,,,,,,,
html-keyboard-response,123,322914,8148,"<p>We will now begin the experiment!<p><p>Please try to remember all words from each list.<p><p>Press the spacebar whenever you see a GREEN square.<p><p><p><p>Press the spacebar to begin.</p>",32,,,,,,,,
html-keyboard-response,124,326353,2935.999999999942,"<div style=""font-size:48px;"">Press any key to begin list 1 of 24 </div>",32,,,,,,,,
html-keyboard-response,125,328857,null,"<div style=""font-size:60px;"">+</div>",null,,,,,,,,
html-keyboard-response,126,329360,null,"SIBLING<img id = ""stim"" ><div class = red_square id = ""topsquare"" ></div><img id = ""stim"" ><div class = red_square  id = ""bottomsquare"" ></div>",null,word_square,response,0,none,true,,,
html-keyboard-response,127,330863,null,"SIBLING",null,word,,,,, 'SIBLING',,
html-keyboard-response,128,331367,null,"SISTER<img id = ""stim"" ><div class = green_square id = ""topsquare"" ></div><img id = ""stim"" ><div class = green_square  id = ""bottomsquare"" ></div>",null,word_square,response,1,Space,false,,,
html-keyboard-response,129,332870,null,"SISTER",null,word,,,,, 'SISTER',,
html-keyboard-response,130,333373,null,"MONKEY<img id = ""stim"" ><div class = red_square id = ""topsquare"" ></div><img id = ""stim"" ><div class = red_square  id = ""bottomsquare"" ></div>",null,word_square,response,0,none,true,,,
html-keyboard-response,131,334876,null,"MONKEY",null,word,,,,, 'MONKEY',,
html-keyboard-response,132,335379,null,"OX<img id = ""stim"" ><div class = green_square id = ""topsquare"" ></div><img id = ""stim"" ><div class = green_square  id = ""bottomsquare"" ></div>",null,word_square,response,1,Space,false,,,
html-keyboard-response,133,336884,null,"OX",null,word,,,,, 'OX',,
html-keyboard-response,134,337386,null,"LEMON<img id = ""stim"" ><div class = red_square id = ""topsquare"" ></div><img id = ""stim"" ><div class = red_square  id = ""bottomsquare"" ></div>",null,word_square,response,0,none,true,,,
html-keyboard-response,135,338890,null,"LEMON",null,word,,,,, 'LEMON',,
html-keyboard-response,136,339393,null,"PORTRAIT<img id = ""stim"" ><div class = red_square id = ""topsquare"" ></div><img id = ""stim"" ><div class = red_square  id = ""bottomsquare"" ></div>",null,word_square,response,0,none,true,,,
html-keyboard-response,137,340896,null,"PORTRAIT",null,word,,,,, 'PORTRAIT',,
html-keyboard-response,138,341400,null,"BLENDER<img id = ""stim"" ><div class = green_square id = ""topsquare"" ></div><img id = ""stim"" ><div class = green_square  id = ""bottomsquare"" ></div>",null,word_square,response,1,Space,false,,,
html-keyboard-response,139,342903,null,"BLENDER",null,word,,,,, 'BLENDER',,
html-keyboard-response,140,343407,null,"PATROL<img id = ""stim"" ><div class = red_square id = ""topsquare"" ></div><img id = ""stim"" ><div class = red_square  id = ""bottomsquare"" ></div>",null,word_square,response,0,none,true,,,
html-keyboard-response,141,344910,null,"PATROL",null,word,,,,, 'PATROL',,
html-keyboard-response,142,345413,null,"CONCRETE<img id = ""stim"" ><div class = green_square id = ""topsquare"" ></div><img id = ""stim"" ><div class = green_square  id = ""bottomsquare"" ></div>",null,word_square,response,1,Space,false,,,
html-keyboard-response,143,346917,null,"CONCRETE",null,word,,,,, 'CONCRETE',,
html-keyboard-response,144,347420,null,"PLIERS<img id = ""stim"" ><div class = red_square id = ""topsquare"" ></div><img id = ""stim"" ><div class = red_square  id = ""bottomsquare"" ></div>",null,word_square,response,0,none,true,,,
html-keyboard-response,145,348923,null,"PLIERS",null,word,,,,, 'PLIERS',,
html-keyboard-response,146,349427,null,"BANK<img id = ""stim"" ><div class = red_square id = ""topsquare"" ></div><img id = ""stim"" ><div class = red_square  id = ""bottomsquare"" ></div>",null,word_square,response,0,none,true,,,
html-keyboard-response,147,350930,null,"BANK",null,word,,,,, 'BANK',,
html-keyboard-response,148,351433,null,"ROBBER<img id = ""stim"" ><div class = green_square id = ""topsquare"" ></div><img id = ""stim"" ><div class = green_square  id = ""bottomsquare"" ></div>",null,word_square,response,1,Space,false,,,
html-keyboard-response,149,352937,null,"ROBBER",null,word,,,,, 'ROBBER',,
html-keyboard-response,150,353440,null,"RECORD<img id = ""stim"" ><div class = green_square id = ""topsquare"" ></div><img id = ""stim"" ><div class = green_square  id = ""bottomsquare"" ></div>",null,word_square,response,1,Space,false,,,
html-keyboard-response,151,354943,null,"RECORD",null,word,,,,, 'RECORD',,
html-keyboard-response,152,355446,null,"WRENCH<img id = ""stim"" ><div class = green_square id = ""topsquare"" ></div><img id = ""stim"" ><div class = green_square  id = ""bottomsquare"" ></div>",null,word_square,response,1,Space,false,,,
html-keyboard-response,153,356950,null,"WRENCH",null,word,,,,, 'WRENCH',,
html-keyboard-response,154,357452,null,"FOX<img id = ""stim"" ><div class = red_square id = ""topsquare"" ></div><img id = ""stim"" ><div class = red_square  id = ""bottomsquare"" ></div>",null,word_square,response,0,none,true,,,
html-keyboard-response,155,358955,null,"FOX",null,word,,,,, 'FOX',,
html-keyboard-response,156,359459,null,"MAJOR<img id = ""stim"" ><div class = red_square id = ""topsquare"" ></div><img id = ""stim"" ><div class = red_square  id = ""bottomsquare"" ></div>",null,word_square,response,0,none,true,,,
html-keyboard-response,157,360962,null,"MAJOR",null,word,,,,, 'MAJOR',,
html-keyboard-response,158,361465,null,"PLASTER<img id = ""stim"" ><div class = green_square id = ""topsquare"" ></div><img id = ""stim"" ><div class = green_square  id = ""bottomsquare"" ></div>",null,word_square,response,1,Space,false,,,
html-keyboard-response,159,362968,null,"PLASTER",null,word,,,,, 'PLASTER',,
html-keyboard-response,160,363472,null,"CHISEL<img id = ""stim"" ><div class = green_square id = ""topsquare"" ></div><img id = ""stim"" ><div class = green_square  id = ""bottomsquare"" ></div>",null,word_square,response,1,Space,false,,,
html-keyboard-response,161,364975,null,"CHISEL",null,word,,,,, 'CHISEL',,
call-function,162,364976,,"",,,,,,,,,
html-keyboard-response,163,365079,null,"",null,,,,,,,,
math-period,164,367456,4057,"",,,,,,,,,4
html-keyboard-response,165,367559,null,"",null,,,,,,,,
math-period,166,371611,7464,"",,,,,,,,,3
html-keyboard-response,167,371714,null,"",null,,,,,,,,
math-period,168,374586,5091,"",,,,,,,,,2
html-keyboard-response,169,374689,null,"",null,,,,,,,,
math-period,170,376462,3010.000000000058,"",,,,,,,,,2
html-keyboard-response,171,376564,null,"",null,,,,,,,,
math-period,172,379103,4278.000000000058,"",,,,,,,,,1
html-keyboard-response,173,379206,null,"",null,,,,,,,,
math-period,174,381429,3686.000000000058,"",,,,,,,,,3
html-keyboard-response,175,381530,null,"",null,,,,,,,,
math-period,176,383504,3452,"",,,,,,,,,4
html-keyboard-response,177,383606,null,"",null,,,,,,,,
math-period,178,385715,3633.9999999998836,"",,,,,,,,,2
html-keyboard-response,179,385818,null,"",null,,,,,,,,
math-period,180,388979,2977,"",,,,,,,,,1
html-keyboard-response,181,389983,null,"Recall Period!",null,,,,,,,,
call-function,182,389984,,"",,,,,,,,,
html-keyboard-response,183,390086,null,"",null,,,,,,,,
recall-period,184,395958,38629.000000000175,"",,,,,,,,,sibling
html-keyboard-response,185,396059,null,"",null,,,,,,,,
recall-period,186,399413,15253.99999999965,"",,,,,,,,,sister
html-keyboard-response,187,399516,null,"",null,,,,,,,,
recall-period,188,401448,7382.000000000175,"",,,,,,,,,monkey
html-keyboard-response,189,401551,null,"",null,,,,,,,,
recall-period,190,402485,1991,"",,,,,,,,,ok
html-keyboard-response,191,402588,null,"",null,,,,,,,,
recall-period,192,405122,9929.000000000058,"",,,,,,,,,chisel
html-keyboard-response,193,405225,null,"",null,,,,,,,,
recall-period,194,408827,13121.000000000058,"",,,,,,,,,bank
html-keyboard-response,195,408930,null,"",null,,,,,,,,
recall-period,196,464988,null,"",,,,,,,,,
html-keyboard-response,197,465492,null,"Time's Up!",null,,,,,,,,
html-keyboard-response,198,477524,12029,"<p> Uh oh. You responded correctly on 58% of the GREEN squares.</p>
                  <p>We need you keep your accuracy above 80%</p>
                  <p>Press any key to continue the experiment. Thank you!</p>",32,,,,,,,,
html-keyboard-response,199,478733,1207,"<div style=""font-size:48px;"">Press any key to begin list 2 of 24 </div>",32,,,,,,,,
html-keyboard-response,200,481238,null,"<div style=""font-size:60px;"">+</div>",null,,,,,,,,
html-keyboard-response,201,481741,null,"RULER<img id = ""stim"" ><div class = red_square id = ""topsquare"" ></div><img id = ""stim"" ><div class = red_square  id = ""bottomsquare"" ></div>",null,word_square,response,0,none,true,,,
html-keyboard-response,202,483245,null,"RULER",null,word,,,,, 'RULER',,
html-keyboard-response,203,483565,319,"TROPHY<img id = ""stim"" ><div class = green_square id = ""topsquare"" ></div><img id = ""stim"" ><div class = green_square  id = ""bottomsquare"" ></div>",32,word_square,response,1,Space,true,,,
html-keyboard-response,204,485069,null,"TROPHY",null,word,,,,, 'TROPHY',,
html-keyboard-response,205,485572,null,"TORTOISE<img id = ""stim"" ><div class = red_square id = ""topsquare"" ></div><img id = ""stim"" ><div class = red_square  id = ""bottomsquare"" ></div>",null,word_square,response,0,none,true,,,
html-keyboard-response,206,487076,null,"TORTOISE",null,word,,,,, 'TORTOISE',,
html-keyboard-response,207,487417,340,"MARBLE<img id = ""stim"" ><div class = green_square id = ""topsquare"" ></div><img id = ""stim"" ><div class = green_square  id = ""bottomsquare"" ></div>",32,word_square,response,1,Space,true,,,
html-keyboard-response,208,488920,null,"MARBLE",null,word,,,,, 'MARBLE',,
html-keyboard-response,209,489423,null,"TEACHER<img id = ""stim"" ><div class = red_square id = ""topsquare"" ></div><img id = ""stim"" ><div class = red_square  id = ""bottomsquare"" ></div>",null,word_square,response,0,none,true,,,
html-keyboard-response,210,490927,null,"TEACHER",null,word,,,,, 'TEACHER',,
html-keyboard-response,211,491430,null,"STUDENT<img id = ""stim"" ><div class = red_square id = ""topsquare"" ></div><img id = ""stim"" ><div class = red_square  id = ""bottomsquare"" ></div>",null,word_square,response,0,none,true,,,
html-keyboard-response,212,492933,null,"STUDENT",null,word,,,,, 'STUDENT',,
html-keyboard-response,213,493300,365.0000000000582,"DONOR<img id = ""stim"" ><div class = green_square id = ""topsquare"" ></div><img id = ""stim"" ><div class = green_square  id = ""bottomsquare"" ></div>",32,word_square,response,1,Space,true,,,
html-keyboard-response,214,494804,null,"DONOR",null,word,,,,, 'DONOR',,
html-keyboard-response,215,495307,null,"BOTTLE<img id = ""stim"" ><div class = red_square id = ""topsquare"" ></div><img id = ""stim"" ><div class = red_square  id = ""bottomsquare"" ></div>",null,word_square,response,0,none,true,,,
html-keyboard-response,216,496809,null,"BOTTLE",null,word,,,,, 'BOTTLE',,
html-keyboard-response,217,497311,null,"MESSAGE<img id = ""stim"" ><div class = green_square id = ""topsquare"" ></div><img id = ""stim"" ><div class = green_square  id = ""bottomsquare"" ></div>",null,word_square,response,1,Space,false,,,
html-keyboard-response,218,498815,null,"MESSAGE",null,word,,,,, 'MESSAGE',,
html-keyboard-response,219,499318,null,"WALNUT<img id = ""stim"" ><div class = red_square id = ""topsquare"" ></div><img id = ""stim"" ><div class = red_square  id = ""bottomsquare"" ></div>",null,word_square,response,0,none,true,,,
html-keyboard-response,220,500821,null,"WALNUT",null,word,,,,, 'WALNUT',,
html-keyboard-response,221,501324,null,"CURTAIN<img id = ""stim"" ><div class = red_square id = ""topsquare"" ></div><img id = ""stim"" ><div class = red_square  id = ""bottomsquare"" ></div>",null,word_square,response,0,none,true,,,
html-keyboard-response,222,502827,null,"CURTAIN",null,word,,,,, 'CURTAIN',,
html-keyboard-response,223,503319,491.0000000000582,"GLASS<img id = ""stim"" ><div class = green_square id = ""topsquare"" ></div><img id = ""stim"" ><div class = green_square  id = ""bottomsquare"" ></div>",32,word_square,response,1,Space,true,,,
html-keyboard-response,224,504822,null,"GLASS",null,word,,,,, 'GLASS',,
html-keyboard-response,225,505285,461,"TURTLE<img id = ""stim"" ><div class = green_square id = ""topsquare"" ></div><img id = ""stim"" ><div class = green_square  id = ""bottomsquare"" ></div>",32,word_square,response,1,Space,true,,,
html-keyboard-response,226,506788,null,"TURTLE",null,word,,,,, 'TURTLE',,
html-keyboard-response,227,507290,null,"TYPIST<img id = ""stim"" ><div class = green_square id = ""topsquare"" ></div><img id = ""stim"" ><div class = green_square  id = ""bottomsquare"" ></div>",null,word_square,response,1,Space,false,,,
html-keyboard-response,228,508793,null,"TYPIST",null,word,,,,, 'TYPIST',,
html-keyboard-response,229,509296,null,"NEUTRON<img id = ""stim"" ><div class = red_square id = ""topsquare"" ></div><img id = ""stim"" ><div class = red_square  id = ""bottomsquare"" ></div>",null,word_square,response,0,none,true,,,
html-keyboard-response,230,510799,null,"NEUTRON",null,word,,,,, 'NEUTRON',,
html-keyboard-response,231,511302,null,"DRUG<img id = ""stim"" ><div class = red_square id = ""topsquare"" ></div><img id = ""stim"" ><div class = red_square  id = ""bottomsquare"" ></div>",null,word_square,response,0,none,true,,,
html-keyboard-response,232,512805,null,"DRUG",null,word,,,,, 'DRUG',,
html-keyboard-response,233,513218,411.0000000000582,"KIDNEY<img id = ""stim"" ><div class = green_square id = ""topsquare"" ></div><img id = ""stim"" ><div class = green_square  id = ""bottomsquare"" ></div>",32,word_square,response,1,Space,true,,,
html-keyboard-response,234,514721,null,"KIDNEY",null,word,,,,, 'KIDNEY',,
html-keyboard-response,235,515224,null,"SKATE<img id = ""stim"" ><div class = green_square id = ""topsquare"" ></div><img id = ""stim"" ><div class = green_square  id = ""bottomsquare"" ></div>",null,word_square,response,1,Space,false,,,
html-keyboard-response,236,516727,null,"SKATE",null,word,,,,, 'SKATE',,
call-function,237,516728,,"",,,,,,,,,
html-keyboard-response,238,516831,null,"",null,,,,,,,,
math-period,239,518637,3227.0000000001164,"",,,,,,,,,3
html-keyboard-response,240,518740,null,"",null,,,,,,,,
math-period,241,520561,3344.999999999942,"",,,,,,,,,5
html-keyboard-response,242,520665,null,"",null,,,,,,,,
math-period,243,522334,3017.0000000001164,"",,,,,,,,,5
html-keyboard-response,244,522437,null,"",null,,,,,,,,
math-period,245,524374,3397.999999999767,"",,,,,,,,,3
html-keyboard-response,246,524477,null,"",null,,,,,,,,
math-period,247,525800,2243,"",,,,,,,,,3
html-keyboard-response,248,525903,null,"",null,,,,,,,,
math-period,249,527813,3312,"",,,,,,,,,2
html-keyboard-response,250,527916,null,"",null,,,,,,,,
math-period,251,529451,2706,"",,,,,,,,,6
html-keyboard-response,252,529554,null,"",null,,,,,,,,
math-period,253,531915,4212.000000000116,"",,,,,,,,,2
html-keyboard-response,254,532018,null,"",null,,,,,,,,
math-period,255,533957,3099,"",,,,,,,,,2
html-keyboard-response,256,534060,null,"",null,,,,,,,,
math-period,257,535763,2890,"",,,,,,,,,2
html-keyboard-response,258,535866,null,"",null,,,,,,,,
math-period,259,540358,8578.999999999767,"",,,,,,,,,3
html-keyboard-response,260,540459,null,"",null,,,,,,,,
math-period,261,540731,null,"",,,,,,,,,
html-keyboard-response,262,541734,null,"Recall Period!",null,,,,,,,,
call-function,263,541736,,"",,,,,,,,,
html-keyboard-response,264,541838,null,"",null,,,,,,,,
recall-period,265,546024,16151,"",,,,,,,,,turtle
html-keyboard-response,266,546127,null,"",null,,,,,,,,
recall-period,267,549166,16909,"",,,,,,,,,tortoise
html-keyboard-response,268,549269,null,"",null,,,,,,,,
recall-period,269,616740,null,"",,,,,,,,,
html-keyboard-response,270,617244,null,"Time's Up!",null,,,,,,,,
html-keyboard-response,271,623979,6732,"<p> Uh oh. You responded correctly on 67% of the GREEN squares.</p>
                  <p>We need you keep your accuracy above 80%</p>
                  <p>Press any key to continue the experiment. Thank you!</p>",32,,,,,,,,
html-keyboard-response,272,625543,1561.0000000001164,"<div style=""font-size:48px;"">Press any key to begin list 3 of 24 </div>",32,,,,,,,,
html-keyboard-response,273,628047,null,"<div style=""font-size:60px;"">+</div>",null,,,,,,,,
html-keyboard-response,274,628463,414,"BRICK<img id = ""stim"" ><div class = green_square id = ""topsquare"" ></div><img id = ""stim"" ><div class = green_square  id = ""bottomsquare"" ></div>",32,word_square,response,1,Space,true,,,
html-keyboard-response,275,629966,null,"BRICK",null,word,,,,, 'BRICK',,
html-keyboard-response,276,630470,null,"BEAST<img id = ""stim"" ><div class = red_square id = ""topsquare"" ></div><img id = ""stim"" ><div class = red_square  id = ""bottomsquare"" ></div>",null,word_square,response,0,none,true,,,
html-keyboard-response,277,631973,null,"BEAST",null,word,,,,, 'BEAST',,
html-keyboard-response,278,632333,358,"PUDDLE<img id = ""stim"" ><div class = green_square id = ""topsquare"" ></div><img id = ""stim"" ><div class = green_square  id = ""bottomsquare"" ></div>",32,word_square,response,1,Space,true,,,
html-keyboard-response,279,633836,null,"PUDDLE",null,word,,,,, 'PUDDLE',,
html-keyboard-response,280,634339,null,"LAGOON<img id = ""stim"" ><div class = red_square id = ""topsquare"" ></div><img id = ""stim"" ><div class = red_square  id = ""bottomsquare"" ></div>",null,word_square,response,0,none,true,,,
html-keyboard-response,281,635843,null,"LAGOON",null,word,,,,, 'LAGOON',,
html-keyboard-response,282,636211,367,"PORPOISE<img id = ""stim"" ><div class = green_square id = ""topsquare"" ></div><img id = ""stim"" ><div class = green_square  id = ""bottomsquare"" ></div>",32,word_square,response,1,Space,true,,,
html-keyboard-response,283,637714,null,"PORPOISE",null,word,,,,, 'PORPOISE',,
html-keyboard-response,284,638218,null,"KEEPER<img id = ""stim"" ><div class = green_square id = ""topsquare"" ></div><img id = ""stim"" ><div class = green_square  id = ""bottomsquare"" ></div>",null,word_square,response,1,Space,false,,,
html-keyboard-response,285,639721,null,"KEEPER",null,word,,,,, 'KEEPER',,
html-keyboard-response,286,640224,null,"NOVEL<img id = ""stim"" ><div class = red_square id = ""topsquare"" ></div><img id = ""stim"" ><div class = red_square  id = ""bottomsquare"" ></div>",null,word_square,response,0,none,true,,,
html-keyboard-response,287,641727,null,"NOVEL",null,word,,,,, 'NOVEL',,
html-keyboard-response,288,642113,385,"HERO<img id = ""stim"" ><div class = green_square id = ""topsquare"" ></div><img id = ""stim"" ><div class = green_square  id = ""bottomsquare"" ></div>",32,word_square,response,1,Space,true,,,
html-keyboard-response,289,643616,null,"HERO",null,word,,,,, 'HERO',,
html-keyboard-response,290,644119,null,"JUGGLER<img id = ""stim"" ><div class = red_square id = ""topsquare"" ></div><img id = ""stim"" ><div class = red_square  id = ""bottomsquare"" ></div>",null,word_square,response,0,none,true,,,
html-keyboard-response,291,645622,null,"JUGGLER",null,word,,,,, 'JUGGLER',,
html-keyboard-response,292,645962,338,"TOURIST<img id = ""stim"" ><div class = green_square id = ""topsquare"" ></div><img id = ""stim"" ><div class = green_square  id = ""bottomsquare"" ></div>",32,word_square,response,1,Space,true,,,
html-keyboard-response,293,647465,null,"TOURIST",null,word,,,,, 'TOURIST',,
html-keyboard-response,294,647968,null,"POND<img id = ""stim"" ><div class = green_square id = ""topsquare"" ></div><img id = ""stim"" ><div class = green_square  id = ""bottomsquare"" ></div>",null,word_square,response,1,Space,false,,,
html-keyboard-response,295,649471,null,"POND",null,word,,,,, 'POND',,
html-keyboard-response,296,649974,null,"FILM<img id = ""stim"" ><div class = red_square id = ""topsquare"" ></div><img id = ""stim"" ><div class = red_square  id = ""bottomsquare"" ></div>",null,word_square,response,0,none,true,,,
html-keyboard-response,297,651476,null,"FILM",null,word,,,,, 'FILM',,
html-keyboard-response,298,651766,288,"BEEF<img id = ""stim"" ><div class = red_square id = ""topsquare"" ></div><img id = ""stim"" ><div class = red_square  id = ""bottomsquare"" ></div>",32,word_square,response,0,none,false,,,
html-keyboard-response,299,653269,null,"BEEF",null,word,,,,, 'BEEF',,
html-keyboard-response,300,653772,null,"JOKER<img id = ""stim"" ><div class = red_square id = ""topsquare"" ></div><img id = ""stim"" ><div class = red_square  id = ""bottomsquare"" ></div>",null,word_square,response,0,none,true,,,
html-keyboard-response,301,655275,null,"JOKER",null,word,,,,, 'JOKER',,
html-keyboard-response,302,655648,372,"LIST<img id = ""stim"" ><div class = green_square id = ""topsquare"" ></div><img id = ""stim"" ><div class = green_square  id = ""bottomsquare"" ></div>",32,word_square,response,1,Space,true,,,
html-keyboard-response,303,657151,null,"LIST",null,word,,,,, 'LIST',,
html-keyboard-response,304,657607,455,"CREVICE<img id = ""stim"" ><div class = green_square id = ""topsquare"" ></div><img id = ""stim"" ><div class = green_square  id = ""bottomsquare"" ></div>",32,word_square,response,1,Space,true,,,
html-keyboard-response,305,659111,null,"CREVICE",null,word,,,,, 'CREVICE',,
html-keyboard-response,306,659614,null,"LUGGAGE<img id = ""stim"" ><div class = red_square id = ""topsquare"" ></div><img id = ""stim"" ><div class = red_square  id = ""bottomsquare"" ></div>",null,word_square,response,0,none,true,,,
html-keyboard-response,307,661117,null,"LUGGAGE",null,word,,,,, 'LUGGAGE',,
html-keyboard-response,308,661620,null,"YARD<img id = ""stim"" ><div class = red_square id = ""topsquare"" ></div><img id = ""stim"" ><div class = red_square  id = ""bottomsquare"" ></div>",null,word_square,response,0,none,true,,,
html-keyboard-response,309,663123,null,"YARD",null,word,,,,, 'YARD',,
call-function,310,663124,,"",,,,,,,,,
html-keyboard-response,311,663227,null,"",null,,,,,,,,
math-period,312,670530,25254,"",,,,,,,,,2
html-keyboard-response,313,670634,null,"",null,,,,,,,,
math-period,314,674311,6729,"",,,,,,,,,1
html-keyboard-response,315,674414,null,"",null,,,,,,,,
math-period,316,677074,3943,"",,,,,,,,,1
html-keyboard-response,317,677177,null,"",null,,,,,,,,
math-period,318,680218,5434.000000000116,"",,,,,,,,,2
html-keyboard-response,319,680321,null,"",null,,,,,,,,
math-period,320,682276,3487,"",,,,,,,,,5
html-keyboard-response,321,682378,null,"",null,,,,,,,,
math-period,322,684641,3818.0000000001164,"",,,,,,,,,4
html-keyboard-response,323,684744,null,"",null,,,,,,,,
math-period,324,687127,2080.9999999998836,"",,,,,,,,,2
html-keyboard-response,325,688131,null,"Recall Period!",null,,,,,,,,
call-function,326,688132,,"",,,,,,,,,
html-keyboard-response,327,688234,null,"",null,,,,,,,,
recall-period,328,693221,31034.000000000116,"",,,,,,,,,porpoise
html-keyboard-response,329,693324,null,"",null,,,,,,,,
recall-period,330,763136,null,"",,,,,,,,,
html-keyboard-response,331,763638,null,"Time's Up!",null,,,,,,,,
html-keyboard-response,332,795826,32186,"<p> Uh oh. You responded correctly on 71% of the GREEN squares.</p>
                  <p>We need you keep your accuracy above 80%</p>
                  <p>Press any key to continue the experiment. Thank you!</p>",32,,,,,,,,
html-keyboard-response,333,797009,1181,"<div style=""font-size:48px;"">Press any key to begin list 4 of 24 </div>",32,,,,,,,,
html-keyboard-response,334,799514,null,"<div style=""font-size:60px;"">+</div>",null,,,,,,,,
html-keyboard-response,335,800017,null,"BURGLAR<img id = ""stim"" ><div class = green_square id = ""topsquare"" ></div><img id = ""stim"" ><div class = green_square  id = ""bottomsquare"" ></div>",null,word_square,response,1,Space,false,,,
html-keyboard-response,336,801521,null,"BURGLAR",null,word,,,,, 'BURGLAR',,
html-keyboard-response,337,802024,null,"ONION<img id = ""stim"" ><div class = red_square id = ""topsquare"" ></div><img id = ""stim"" ><div class = red_square  id = ""bottomsquare"" ></div>",null,word_square,response,0,none,true,,,
html-keyboard-response,338,803527,null,"ONION",null,word,,,,, 'ONION',,
html-keyboard-response,339,803875,347,"PRIEST<img id = ""stim"" ><div class = green_square id = ""topsquare"" ></div><img id = ""stim"" ><div class = green_square  id = ""bottomsquare"" ></div>",32,word_square,response,1,Space,true,,,
html-keyboard-response,340,805379,null,"PRIEST",null,word,,,,, 'PRIEST',,
html-keyboard-response,341,805882,null,"TART<img id = ""stim"" ><div class = red_square id = ""topsquare"" ></div><img id = ""stim"" ><div class = red_square  id = ""bottomsquare"" ></div>",null,word_square,response,0,none,true,,,
html-keyboard-response,342,807385,null,"TART",null,word,,,,, 'TART',,
html-keyboard-response,343,807701,313.9999999998836,"PASTRY<img id = ""stim"" ><div class = green_square id = ""topsquare"" ></div><img id = ""stim"" ><div class = green_square  id = ""bottomsquare"" ></div>",32,word_square,response,1,Space,true,,,
html-keyboard-response,344,809204,null,"PASTRY",null,word,,,,, 'PASTRY',,
html-keyboard-response,345,809527,321,"SERPENT<img id = ""stim"" ><div class = green_square id = ""topsquare"" ></div><img id = ""stim"" ><div class = green_square  id = ""bottomsquare"" ></div>",32,word_square,response,1,Space,true,,,
html-keyboard-response,346,811030,null,"SERPENT",null,word,,,,, 'SERPENT',,
html-keyboard-response,347,811533,null,"ISLAND<img id = ""stim"" ><div class = red_square id = ""topsquare"" ></div><img id = ""stim"" ><div class = red_square  id = ""bottomsquare"" ></div>",null,word_square,response,0,none,true,,,
html-keyboard-response,348,813036,null,"ISLAND",null,word,,,,, 'ISLAND',,
html-keyboard-response,349,813401,363,"RESORT<img id = ""stim"" ><div class = green_square id = ""topsquare"" ></div><img id = ""stim"" ><div class = green_square  id = ""bottomsquare"" ></div>",32,word_square,response,1,Space,true,,,
html-keyboard-response,350,814904,null,"RESORT",null,word,,,,, 'RESORT',,
html-keyboard-response,351,815407,null,"DIME<img id = ""stim"" ><div class = red_square id = ""topsquare"" ></div><img id = ""stim"" ><div class = red_square  id = ""bottomsquare"" ></div>",null,word_square,response,0,none,true,,,
html-keyboard-response,352,816945,null,"DIME",null,word,,,,, 'DIME',,
html-keyboard-response,353,817313,368,"BANDIT<img id = ""stim"" ><div class = green_square id = ""topsquare"" ></div><img id = ""stim"" ><div class = green_square  id = ""bottomsquare"" ></div>",32,word_square,response,1,Space,true,,,
html-keyboard-response,354,818816,null,"BANDIT",null,word,,,,, 'BANDIT',,
html-keyboard-response,355,819296,478.0000000001164,"MAILMAN<img id = ""stim"" ><div class = green_square id = ""topsquare"" ></div><img id = ""stim"" ><div class = green_square  id = ""bottomsquare"" ></div>",32,word_square,response,1,Space,true,,,
html-keyboard-response,356,820799,null,"MAILMAN",null,word,,,,, 'MAILMAN',,
html-keyboard-response,357,821302,null,"BUNNY<img id = ""stim"" ><div class = red_square id = ""topsquare"" ></div><img id = ""stim"" ><div class = red_square  id = ""bottomsquare"" ></div>",null,word_square,response,0,none,true,,,
html-keyboard-response,358,822806,null,"BUNNY",null,word,,,,, 'BUNNY',,
html-keyboard-response,359,823309,null,"BUTLER<img id = ""stim"" ><div class = red_square id = ""topsquare"" ></div><img id = ""stim"" ><div class = red_square  id = ""bottomsquare"" ></div>",null,word_square,response,0,none,true,,,
html-keyboard-response,360,824812,null,"BUTLER",null,word,,,,, 'BUTLER',,
html-keyboard-response,361,825315,null,"DUNGEON<img id = ""stim"" ><div class = red_square id = ""topsquare"" ></div><img id = ""stim"" ><div class = red_square  id = ""bottomsquare"" ></div>",null,word_square,response,0,none,true,,,
html-keyboard-response,362,826817,null,"DUNGEON",null,word,,,,, 'DUNGEON',,
html-keyboard-response,363,827185,366.0000000001164,"COD<img id = ""stim"" ><div class = green_square id = ""topsquare"" ></div><img id = ""stim"" ><div class = green_square  id = ""bottomsquare"" ></div>",32,word_square,response,1,Space,true,,,
html-keyboard-response,364,828688,null,"COD",null,word,,,,, 'COD',,
html-keyboard-response,365,829180,489.9999999998836,"MAMMAL<img id = ""stim"" ><div class = green_square id = ""topsquare"" ></div><img id = ""stim"" ><div class = green_square  id = ""bottomsquare"" ></div>",32,word_square,response,1,Space,true,,,
html-keyboard-response,366,830683,null,"MAMMAL",null,word,,,,, 'MAMMAL',,
html-keyboard-response,367,831187,null,"DOLPHIN<img id = ""stim"" ><div class = red_square id = ""topsquare"" ></div><img id = ""stim"" ><div class = red_square  id = ""bottomsquare"" ></div>",null,word_square,response,0,none,true,,,
html-keyboard-response,368,832690,null,"DOLPHIN",null,word,,,,, 'DOLPHIN',,
html-keyboard-response,369,833193,null,"STICKER<img id = ""stim"" ><div class = red_square id = ""topsquare"" ></div><img id = ""stim"" ><div class = red_square  id = ""bottomsquare"" ></div>",null,word_square,response,0,none,true,,,
html-keyboard-response,370,834696,null,"STICKER",null,word,,,,, 'STICKER',,
call-function,371,834698,,"",,,,,,,,,
html-keyboard-response,372,834799,null,"",null,,,,,,,,
math-period,373,838300,5732,"",,,,,,,,,1
html-keyboard-response,374,838404,null,"",null,,,,,,,,
math-period,375,840887,4102.000000000116,"",,,,,,,,,1
html-keyboard-response,376,840990,null,"",null,,,,,,,,
math-period,377,843386,4027,"",,,,,,,,,1
html-keyboard-response,378,843489,null,"",null,,,,,,,,
math-period,379,845285,3075,"",,,,,,,,,4
html-keyboard-response,380,845388,null,"",null,,,,,,,,
math-period,381,848174,5036,"",,,,,,,,,5
html-keyboard-response,382,848277,null,"",null,,,,,,,,
math-period,383,851000,4580,"",,,,,,,,,1
html-keyboard-response,384,851103,null,"",null,,,,,,,,
math-period,385,853453,3817,"",,,,,,,,,2
html-keyboard-response,386,853556,null,"",null,,,,,,,,
math-period,387,855685,3411.0000000001164,"",,,,,,,,,3
html-keyboard-response,388,855788,null,"",null,,,,,,,,
math-period,389,858621,4992.000000000116,"",,,,,,,,,2
html-keyboard-response,390,858724,null,"",null,,,,,,,,
math-period,391,858727,null,"",,,,,,,,,
html-keyboard-response,392,859730,null,"Recall Period!",null,,,,,,,,
call-function,393,859731,,"",,,,,,,,,
html-keyboard-response,394,859834,null,"",null,,,,,,,,
recall-period,395,868514,36549,"",,,,,,,,,burglar
html-keyboard-response,396,868617,null,"",null,,,,,,,,
recall-period,397,934736,null,"",,,,,,,,,
html-keyboard-response,398,935240,null,"Time's Up!",null,,,,,,,,
html-keyboard-response,399,1038467,103223.00000000012,"<p> Uh oh. You responded correctly on 76% of the GREEN squares.</p>
                  <p>We need you keep your accuracy above 80%</p>
                  <p>Press any key to continue the experiment. Thank you!</p>",32,,,,,,,,
html-keyboard-response,400,1040065,1596.9999999998836,"<div style=""font-size:48px;"">Press any key to begin list 5 of 24 </div>",32,,,,,,,,
html-keyboard-response,401,1042570,null,"<div style=""font-size:60px;"">+</div>",null,,,,,,,,
html-keyboard-response,402,1042952,380.9999999998836,"FRUIT<img id = ""stim"" ><div class = green_square id = ""topsquare"" ></div><img id = ""stim"" ><div class = green_square  id = ""bottomsquare"" ></div>",32,word_square,response,1,Space,true,,,
html-keyboard-response,403,1044455,null,"FRUIT",null,word,,,,, 'FRUIT',,
html-keyboard-response,404,1044958,null,"SHRUB<img id = ""stim"" ><div class = red_square id = ""topsquare"" ></div><img id = ""stim"" ><div class = red_square  id = ""bottomsquare"" ></div>",null,word_square,response,0,none,true,,,
html-keyboard-response,405,1046462,null,"SHRUB",null,word,,,,, 'SHRUB',,
html-keyboard-response,406,1046965,null,"ASIA<img id = ""stim"" ><div class = red_square id = ""topsquare"" ></div><img id = ""stim"" ><div class = red_square  id = ""bottomsquare"" ></div>",null,word_square,response,0,none,true,,,
html-keyboard-response,407,1048468,null,"ASIA",null,word,,,,, 'ASIA',,
html-keyboard-response,408,1048875,406,"PLATE<img id = ""stim"" ><div class = green_square id = ""topsquare"" ></div><img id = ""stim"" ><div class = green_square  id = ""bottomsquare"" ></div>",32,word_square,response,1,Space,true,,,
html-keyboard-response,409,1050378,null,"PLATE",null,word,,,,, 'PLATE',,
html-keyboard-response,410,1050882,null,"ADULT<img id = ""stim"" ><div class = red_square id = ""topsquare"" ></div><img id = ""stim"" ><div class = red_square  id = ""bottomsquare"" ></div>",null,word_square,response,0,none,true,,,
html-keyboard-response,411,1052385,null,"ADULT",null,word,,,,, 'ADULT',,
html-keyboard-response,412,1052853,466,"HEDGE<img id = ""stim"" ><div class = green_square id = ""topsquare"" ></div><img id = ""stim"" ><div class = green_square  id = ""bottomsquare"" ></div>",32,word_square,response,1,Space,true,,,
html-keyboard-response,413,1054356,null,"HEDGE",null,word,,,,, 'HEDGE',,
html-keyboard-response,414,1054761,403,"BINDER<img id = ""stim"" ><div class = green_square id = ""topsquare"" ></div><img id = ""stim"" ><div class = green_square  id = ""bottomsquare"" ></div>",32,word_square,response,1,Space,true,,,
html-keyboard-response,415,1056264,null,"BINDER",null,word,,,,, 'BINDER',,
html-keyboard-response,416,1056767,null,"PLUM<img id = ""stim"" ><div class = red_square id = ""topsquare"" ></div><img id = ""stim"" ><div class = red_square  id = ""bottomsquare"" ></div>",null,word_square,response,0,none,true,,,
html-keyboard-response,417,1058270,null,"PLUM",null,word,,,,, 'PLUM',,
html-keyboard-response,418,1058773,null,"MUFFIN<img id = ""stim"" ><div class = red_square id = ""topsquare"" ></div><img id = ""stim"" ><div class = red_square  id = ""bottomsquare"" ></div>",null,word_square,response,0,none,true,,,
html-keyboard-response,419,1060276,null,"MUFFIN",null,word,,,,, 'MUFFIN',,
html-keyboard-response,420,1060678,400.00000000023283,"JEEP<img id = ""stim"" ><div class = green_square id = ""topsquare"" ></div><img id = ""stim"" ><div class = green_square  id = ""bottomsquare"" ></div>",32,word_square,response,1,Space,true,,,
html-keyboard-response,421,1062182,null,"JEEP",null,word,,,,, 'JEEP',,
html-keyboard-response,422,1062685,null,"REPORT<img id = ""stim"" ><div class = red_square id = ""topsquare"" ></div><img id = ""stim"" ><div class = red_square  id = ""bottomsquare"" ></div>",null,word_square,response,0,none,true,,,
html-keyboard-response,423,1064188,null,"REPORT",null,word,,,,, 'REPORT',,
html-keyboard-response,424,1064533,343,"SAND<img id = ""stim"" ><div class = green_square id = ""topsquare"" ></div><img id = ""stim"" ><div class = green_square  id = ""bottomsquare"" ></div>",32,word_square,response,1,Space,true,,,
html-keyboard-response,425,1066037,null,"SAND",null,word,,,,, 'SAND',,
html-keyboard-response,426,1066540,null,"GERM<img id = ""stim"" ><div class = red_square id = ""topsquare"" ></div><img id = ""stim"" ><div class = red_square  id = ""bottomsquare"" ></div>",null,word_square,response,0,none,true,,,
html-keyboard-response,427,1068043,null,"GERM",null,word,,,,, 'GERM',,
html-keyboard-response,428,1068398,353,"PLAZA<img id = ""stim"" ><div class = green_square id = ""topsquare"" ></div><img id = ""stim"" ><div class = green_square  id = ""bottomsquare"" ></div>",32,word_square,response,1,Space,true,,,
html-keyboard-response,429,1069901,null,"PLAZA",null,word,,,,, 'PLAZA',,
html-keyboard-response,430,1070405,null,"DART<img id = ""stim"" ><div class = red_square id = ""topsquare"" ></div><img id = ""stim"" ><div class = red_square  id = ""bottomsquare"" ></div>",null,word_square,response,0,none,true,,,
html-keyboard-response,431,1071908,null,"DART",null,word,,,,, 'DART',,
html-keyboard-response,432,1072411,null,"BOX<img id = ""stim"" ><div class = red_square id = ""topsquare"" ></div><img id = ""stim"" ><div class = red_square  id = ""bottomsquare"" ></div>",null,word_square,response,0,none,true,,,
html-keyboard-response,433,1073914,null,"BOX",null,word,,,,, 'BOX',,
html-keyboard-response,434,1074355,439,"BALLOON<img id = ""stim"" ><div class = green_square id = ""topsquare"" ></div><img id = ""stim"" ><div class = green_square  id = ""bottomsquare"" ></div>",32,word_square,response,1,Space,true,,,
html-keyboard-response,435,1075859,null,"BALLOON",null,word,,,,, 'BALLOON',,
html-keyboard-response,436,1076277,417,"KNUCKLE<img id = ""stim"" ><div class = green_square id = ""topsquare"" ></div><img id = ""stim"" ><div class = green_square  id = ""bottomsquare"" ></div>",32,word_square,response,1,Space,true,,,
html-keyboard-response,437,1077780,null,"KNUCKLE",null,word,,,,, 'KNUCKLE',,
call-function,438,1077781,,"",,,,,,,,,
html-keyboard-response,439,1077884,null,"",null,,,,,,,,
math-period,440,1081227,6033,"",,,,,,,,,3
html-keyboard-response,441,1081329,null,"",null,,,,,,,,
math-period,442,1084273,5132,"",,,,,,,,,1
html-keyboard-response,443,1084376,null,"",null,,,,,,,,
math-period,444,1086446,3615,"",,,,,,,,,5
html-keyboard-response,445,1086549,null,"",null,,,,,,,,
math-period,446,1089366,5107,"",,,,,,,,,5
html-keyboard-response,447,1089469,null,"",null,,,,,,,,
math-period,448,1091686,3849,"",,,,,,,,,2
html-keyboard-response,449,1091789,null,"",null,,,,,,,,
math-period,450,1094095,4129,"",,,,,,,,,5
html-keyboard-response,451,1094198,null,"",null,,,,,,,,
math-period,452,1096425,3859,"",,,,,,,,,4
html-keyboard-response,453,1096528,null,"",null,,,,,,,,
math-period,454,1098198,2958.000000000233,"",,,,,,,,,6
html-keyboard-response,455,1098301,null,"",null,,,,,,,,
math-period,456,1100148,3246,"",,,,,,,,,5
html-keyboard-response,457,1100249,null,"",null,,,,,,,,
math-period,458,1101784,null,"",,,,,,,,,
html-keyboard-response,459,1102788,null,"Recall Period!",null,,,,,,,,
call-function,460,1102789,,"",,,,,,,,,
html-keyboard-response,461,1102891,null,"",null,,,,,,,,
recall-period,462,1106294,14554,"",,,,,,,,,knucle
html-keyboard-response,463,1106397,null,"",null,,,,,,,,
recall-period,464,1177801,null,"",,,,,,,,,
html-keyboard-response,465,1178303,null,"Time's Up!",null,,,,,,,,
html-keyboard-response,466,1183246,4939,"<p> Good job! You responded correctly to 80% of the GREEN squares.</p>
                  <p>Be sure to keep your accuracy above 80%</p>
                  <p>Press any key to continue the experiment. Thank you!</p>",32,,,,,,,,
html-keyboard-response,467,1184624,1376,"<div style=""font-size:48px;"">Press any key to begin list 6 of 24 </div>",32,,,,,,,,
html-keyboard-response,468,1187129,null,"<div style=""font-size:60px;"">+</div>",null,,,,,,,,
html-keyboard-response,469,1187632,null,"BROTHER<img id = ""stim"" ><div class = green_square id = ""topsquare"" ></div><img id = ""stim"" ><div class = green_square  id = ""bottomsquare"" ></div>",null,word_square,response,1,Space,false,,,
html-keyboard-response,470,1189135,null,"BROTHER",null,word,,,,, 'BROTHER',,
html-keyboard-response,471,1189639,null,"POPCORN<img id = ""stim"" ><div class = red_square id = ""topsquare"" ></div><img id = ""stim"" ><div class = red_square  id = ""bottomsquare"" ></div>",null,word_square,response,0,none,true,,,
html-keyboard-response,472,1191142,null,"POPCORN",null,word,,,,, 'POPCORN',,
html-keyboard-response,473,1191645,null,"CROWN<img id = ""stim"" ><div class = red_square id = ""topsquare"" ></div><img id = ""stim"" ><div class = red_square  id = ""bottomsquare"" ></div>",null,word_square,response,0,none,true,,,
html-keyboard-response,474,1193149,null,"CROWN",null,word,,,,, 'CROWN',,
html-keyboard-response,475,1193499,347.99999999976717,"PALACE<img id = ""stim"" ><div class = green_square id = ""topsquare"" ></div><img id = ""stim"" ><div class = green_square  id = ""bottomsquare"" ></div>",32,word_square,response,1,Space,true,,,
html-keyboard-response,476,1195002,null,"PALACE",null,word,,,,, 'PALACE',,
html-keyboard-response,477,1195505,null,"WAX<img id = ""stim"" ><div class = red_square id = ""topsquare"" ></div><img id = ""stim"" ><div class = red_square  id = ""bottomsquare"" ></div>",null,word_square,response,0,none,true,,,
html-keyboard-response,478,1197008,null,"WAX",null,word,,,,, 'WAX',,
html-keyboard-response,479,1197440,430,"SCAPEGOAT<img id = ""stim"" ><div class = green_square id = ""topsquare"" ></div><img id = ""stim"" ><div class = green_square  id = ""bottomsquare"" ></div>",32,word_square,response,1,Space,true,,,
html-keyboard-response,480,1198943,null,"SCAPEGOAT",null,word,,,,, 'SCAPEGOAT',,
html-keyboard-response,481,1199328,383,"COUNTRY<img id = ""stim"" ><div class = green_square id = ""topsquare"" ></div><img id = ""stim"" ><div class = green_square  id = ""bottomsquare"" ></div>",32,word_square,response,1,Space,true,,,
html-keyboard-response,482,1200831,null,"COUNTRY",null,word,,,,, 'COUNTRY',,
html-keyboard-response,483,1201334,null,"FIDDLE<img id = ""stim"" ><div class = red_square id = ""topsquare"" ></div><img id = ""stim"" ><div class = red_square  id = ""bottomsquare"" ></div>",null,word_square,response,0,none,true,,,
html-keyboard-response,484,1202837,null,"FIDDLE",null,word,,,,, 'FIDDLE',,
html-keyboard-response,485,1203339,null,"PLAID<img id = ""stim"" ><div class = red_square id = ""topsquare"" ></div><img id = ""stim"" ><div class = red_square  id = ""bottomsquare"" ></div>",null,word_square,response,0,none,true,,,
html-keyboard-response,486,1204842,null,"PLAID",null,word,,,,, 'PLAID',,
html-keyboard-response,487,1205271,428,"PLANET<img id = ""stim"" ><div class = green_square id = ""topsquare"" ></div><img id = ""stim"" ><div class = green_square  id = ""bottomsquare"" ></div>",32,word_square,response,1,Space,true,,,
html-keyboard-response,488,1206774,null,"PLANET",null,word,,,,, 'PLANET',,
html-keyboard-response,489,1207276,null,"WOMAN<img id = ""stim"" ><div class = red_square id = ""topsquare"" ></div><img id = ""stim"" ><div class = red_square  id = ""bottomsquare"" ></div>",null,word_square,response,0,none,true,,,
html-keyboard-response,490,1208780,null,"WOMAN",null,word,,,,, 'WOMAN',,
html-keyboard-response,491,1209142,360.00000000023283,"WAIST<img id = ""stim"" ><div class = green_square id = ""topsquare"" ></div><img id = ""stim"" ><div class = green_square  id = ""bottomsquare"" ></div>",32,word_square,response,1,Space,true,,,
html-keyboard-response,492,1210644,null,"WAIST",null,word,,,,, 'WAIST',,
html-keyboard-response,493,1211147,null,"CONVENT<img id = ""stim"" ><div class = red_square id = ""topsquare"" ></div><img id = ""stim"" ><div class = red_square  id = ""bottomsquare"" ></div>",null,word_square,response,0,none,true,,,
html-keyboard-response,494,1212650,null,"CONVENT",null,word,,,,, 'CONVENT',,
html-keyboard-response,495,1212992,339,"HORNET<img id = ""stim"" ><div class = green_square id = ""topsquare"" ></div><img id = ""stim"" ><div class = green_square  id = ""bottomsquare"" ></div>",32,word_square,response,1,Space,true,,,
html-keyboard-response,496,1214495,null,"HORNET",null,word,,,,, 'HORNET',,
html-keyboard-response,497,1214999,null,"GODDESS<img id = ""stim"" ><div class = red_square id = ""topsquare"" ></div><img id = ""stim"" ><div class = red_square  id = ""bottomsquare"" ></div>",null,word_square,response,0,none,true,,,
html-keyboard-response,498,1216502,null,"GODDESS",null,word,,,,, 'GODDESS',,
html-keyboard-response,499,1217005,null,"CATCHER<img id = ""stim"" ><div class = red_square id = ""topsquare"" ></div><img id = ""stim"" ><div class = red_square  id = ""bottomsquare"" ></div>",null,word_square,response,0,none,true,,,
html-keyboard-response,500,1218509,null,"CATCHER",null,word,,,,, 'CATCHER',,
html-keyboard-response,501,1219011,null,"HOUND<img id = ""stim"" ><div class = green_square id = ""topsquare"" ></div><img id = ""stim"" ><div class = green_square  id = ""bottomsquare"" ></div>",null,word_square,response,1,Space,false,,,
html-keyboard-response,502,1220514,null,"HOUND",null,word,,,,, 'HOUND',,
html-keyboard-response,503,1220988,472.00000000023283,"ELK<img id = ""stim"" ><div class = green_square id = ""topsquare"" ></div><img id = ""stim"" ><div class = green_square  id = ""bottomsquare"" ></div>",32,word_square,response,1,Space,true,,,
html-keyboard-response,504,1222491,null,"ELK",null,word,,,,, 'ELK',,
call-function,505,1222492,,"",,,,,,,,,
html-keyboard-response,506,1222593,null,"",null,,,,,,,,
math-period,507,1224935,3947,"",,,,,,,,,4
html-keyboard-response,508,1225038,null,"",null,,,,,,,,
math-period,509,1227800,4637,"",,,,,,,,,3
html-keyboard-response,510,1227903,null,"",null,,,,,,,,
math-period,511,1230378,4373,"",,,,,,,,,2
html-keyboard-response,512,1230482,null,"",null,,,,,,,,
math-period,513,1232701,3660,"",,,,,,,,,6
html-keyboard-response,514,1232804,null,"",null,,,,,,,,
math-period,515,1234682,3382,"",,,,,,,,,5
html-keyboard-response,516,1234785,null,"",null,,,,,,,,
math-period,517,1237284,4402,"",,,,,,,,,1
html-keyboard-response,518,1237387,null,"",null,,,,,,,,
math-period,519,1239315,3434.000000000233,"",,,,,,,,,5
html-keyboard-response,520,1239418,null,"",null,,,,,,,,
math-period,521,1241865,4078,"",,,,,,,,,4
html-keyboard-response,522,1241969,null,"",null,,,,,,,,
math-period,523,1244791,4961,"",,,,,,,,,0
html-keyboard-response,524,1244894,null,"",null,,,,,,,,
math-period,525,1246495,null,"",,,,,,,,,
html-keyboard-response,526,1247499,null,"Recall Period!",null,,,,,,,,
call-function,527,1247500,,"",,,,,,,,,
html-keyboard-response,528,1247603,null,"",null,,,,,,,,
recall-period,529,1250977,13760,"",,,,,,,,,plaid
html-keyboard-response,530,1251080,null,"",null,,,,,,,,
recall-period,531,1253577,12632,"",,,,,,,,,goddess
html-keyboard-response,532,1253680,null,"",null,,,,,,,,
recall-period,533,1255012,4935,"",,,,,,,,,planet
html-keyboard-response,534,1255115,null,"",null,,,,,,,,
recall-period,535,1256218,3798.000000000233,"",,,,,,,,,hound
html-keyboard-response,536,1256321,null,"",null,,,,,,,,
recall-period,537,1257230,2329,"",,,,,,,,,elk
html-keyboard-response,538,1257333,null,"",null,,,,,,,,
recall-period,539,1322503,null,"",,,,,,,,,
html-keyboard-response,540,1323006,null,"Time's Up!",null,,,,,,,,
html-keyboard-response,541,1325067,2058,"<p> Good job! You responded correctly to 81% of the GREEN squares.</p>
                  <p>Be sure to keep your accuracy above 80%</p>
                  <p>Press any key to continue the experiment. Thank you!</p>",32,,,,,,,,
html-keyboard-response,542,1330049,4981,"<div style=""font-size:48px;"">Press any key to begin list 7 of 24 </div>",32,,,,,,,,
html-keyboard-response,543,1332554,null,"<div style=""font-size:60px;"">+</div>",null,,,,,,,,
html-keyboard-response,544,1333056,null,"SIDING<img id = ""stim"" ><div class = red_square id = ""topsquare"" ></div><img id = ""stim"" ><div class = red_square  id = ""bottomsquare"" ></div>",null,word_square,response,0,none,true,,,
html-keyboard-response,545,1334558,null,"SIDING",null,word,,,,, 'SIDING',,
html-keyboard-response,546,1334971,411,"FUNGUS<img id = ""stim"" ><div class = green_square id = ""topsquare"" ></div><img id = ""stim"" ><div class = green_square  id = ""bottomsquare"" ></div>",32,word_square,response,1,Space,true,,,
html-keyboard-response,547,1336475,null,"FUNGUS",null,word,,,,, 'FUNGUS',,
html-keyboard-response,548,1336834,358,"RADISH<img id = ""stim"" ><div class = green_square id = ""topsquare"" ></div><img id = ""stim"" ><div class = green_square  id = ""bottomsquare"" ></div>",32,word_square,response,1,Space,true,,,
html-keyboard-response,549,1338337,null,"RADISH",null,word,,,,, 'RADISH',,
html-keyboard-response,550,1338840,null,"EUROPE<img id = ""stim"" ><div class = red_square id = ""topsquare"" ></div><img id = ""stim"" ><div class = red_square  id = ""bottomsquare"" ></div>",null,word_square,response,0,none,true,,,
html-keyboard-response,551,1340344,null,"EUROPE",null,word,,,,, 'EUROPE',,
html-keyboard-response,552,1340746,400,"LABEL<img id = ""stim"" ><div class = green_square id = ""topsquare"" ></div><img id = ""stim"" ><div class = green_square  id = ""bottomsquare"" ></div>",32,word_square,response,1,Space,true,,,
html-keyboard-response,553,1342249,null,"LABEL",null,word,,,,, 'LABEL',,
html-keyboard-response,554,1342752,null,"PIGEON<img id = ""stim"" ><div class = red_square id = ""topsquare"" ></div><img id = ""stim"" ><div class = red_square  id = ""bottomsquare"" ></div>",null,word_square,response,0,none,true,,,
html-keyboard-response,555,1344255,null,"PIGEON",null,word,,,,, 'PIGEON',,
html-keyboard-response,556,1344758,null,"FRIES<img id = ""stim"" ><div class = red_square id = ""topsquare"" ></div><img id = ""stim"" ><div class = red_square  id = ""bottomsquare"" ></div>",null,word_square,response,0,none,true,,,
html-keyboard-response,557,1346261,null,"FRIES",null,word,,,,, 'FRIES',,
html-keyboard-response,558,1346675,412,"PRINCESS<img id = ""stim"" ><div class = green_square id = ""topsquare"" ></div><img id = ""stim"" ><div class = green_square  id = ""bottomsquare"" ></div>",32,word_square,response,1,Space,true,,,
html-keyboard-response,559,1348179,null,"PRINCESS",null,word,,,,, 'PRINCESS',,
html-keyboard-response,560,1348607,427,"MARKER<img id = ""stim"" ><div class = green_square id = ""topsquare"" ></div><img id = ""stim"" ><div class = green_square  id = ""bottomsquare"" ></div>",32,word_square,response,1,Space,true,,,
html-keyboard-response,561,1350110,null,"MARKER",null,word,,,,, 'MARKER',,
html-keyboard-response,562,1350614,null,"FOUNTAIN<img id = ""stim"" ><div class = red_square id = ""topsquare"" ></div><img id = ""stim"" ><div class = red_square  id = ""bottomsquare"" ></div>",null,word_square,response,0,none,true,,,
html-keyboard-response,563,1352117,null,"FOUNTAIN",null,word,,,,, 'FOUNTAIN',,
html-keyboard-response,564,1352493,374,"FLAG<img id = ""stim"" ><div class = green_square id = ""topsquare"" ></div><img id = ""stim"" ><div class = green_square  id = ""bottomsquare"" ></div>",32,word_square,response,1,Space,true,,,
html-keyboard-response,565,1353996,null,"FLAG",null,word,,,,, 'FLAG',,
html-keyboard-response,566,1354499,null,"ORCHID<img id = ""stim"" ><div class = red_square id = ""topsquare"" ></div><img id = ""stim"" ><div class = red_square  id = ""bottomsquare"" ></div>",null,word_square,response,0,none,true,,,
html-keyboard-response,567,1356002,null,"ORCHID",null,word,,,,, 'ORCHID',,
html-keyboard-response,568,1356380,375,"FOLDER<img id = ""stim"" ><div class = green_square id = ""topsquare"" ></div><img id = ""stim"" ><div class = green_square  id = ""bottomsquare"" ></div>",32,word_square,response,1,Space,true,,,
html-keyboard-response,569,1357883,null,"FOLDER",null,word,,,,, 'FOLDER',,
html-keyboard-response,570,1358386,null,"CASTLE<img id = ""stim"" ><div class = red_square id = ""topsquare"" ></div><img id = ""stim"" ><div class = red_square  id = ""bottomsquare"" ></div>",null,word_square,response,0,none,true,,,
html-keyboard-response,571,1359890,null,"CASTLE",null,word,,,,, 'CASTLE',,
html-keyboard-response,572,1360247,355,"QUEEN<img id = ""stim"" ><div class = green_square id = ""topsquare"" ></div><img id = ""stim"" ><div class = green_square  id = ""bottomsquare"" ></div>",32,word_square,response,1,Space,true,,,
html-keyboard-response,573,1361750,null,"QUEEN",null,word,,,,, 'QUEEN',,
html-keyboard-response,574,1362214,462,"NEEDLE<img id = ""stim"" ><div class = green_square id = ""topsquare"" ></div><img id = ""stim"" ><div class = green_square  id = ""bottomsquare"" ></div>",32,word_square,response,1,Space,true,,,
html-keyboard-response,575,1363717,null,"NEEDLE",null,word,,,,, 'NEEDLE',,
html-keyboard-response,576,1364221,null,"NEPHEW<img id = ""stim"" ><div class = red_square id = ""topsquare"" ></div><img id = ""stim"" ><div class = red_square  id = ""bottomsquare"" ></div>",null,word_square,response,0,none,true,,,
html-keyboard-response,577,1365723,null,"NEPHEW",null,word,,,,, 'NEPHEW',,
html-keyboard-response,578,1366226,null,"ICEBERG<img id = ""stim"" ><div class = red_square id = ""topsquare"" ></div><img id = ""stim"" ><div class = red_square  id = ""bottomsquare"" ></div>",null,word_square,response,0,none,true,,,
html-keyboard-response,579,1367729,null,"ICEBERG",null,word,,,,, 'ICEBERG',,
call-function,580,1367731,,"",,,,,,,,,
html-keyboard-response,581,1367833,null,"",null,,,,,,,,
math-period,582,1371302,6297,"",,,,,,,,,4
html-keyboard-response,583,1371404,null,"",null,,,,,,,,
math-period,584,1373720,4073.9999999995343,"",,,,,,,,,1
html-keyboard-response,585,1373823,null,"",null,,,,,,,,
math-period,586,1375455,2804,"",,,,,,,,,4
html-keyboard-response,587,1375558,null,"",null,,,,,,,,
math-period,588,1377511,3390.000000000233,"",,,,,,,,,3
html-keyboard-response,589,1377614,null,"",null,,,,,,,,
math-period,590,1379907,4141,"",,,,,,,,,4
html-keyboard-response,591,1380011,null,"",null,,,,,,,,
math-period,592,1381924,3539,"",,,,,,,,,0
html-keyboard-response,593,1382027,null,"",null,,,,,,,,
math-period,594,1384026,3519,"",,,,,,,,,4
html-keyboard-response,595,1384129,null,"",null,,,,,,,,
math-period,596,1386447,3801,"",,,,,,,,,3
html-keyboard-response,597,1386550,null,"",null,,,,,,,,
math-period,598,1388560,3429.000000000233,"",,,,,,,,,4
html-keyboard-response,599,1388663,null,"",null,,,,,,,,
math-period,600,1390497,3222.9999999995343,"",,,,,,,,,5
html-keyboard-response,601,1390600,null,"",null,,,,,,,,
math-period,602,1391733,null,"",,,,,,,,,
html-keyboard-response,603,1392736,null,"Recall Period!",null,,,,,,,,
call-function,604,1392737,,"",,,,,,,,,
html-keyboard-response,605,1392839,null,"",null,,,,,,,,
recall-period,606,1397032,21972.00000000093,"",,,,,,,,,siding
html-keyboard-response,607,1397135,null,"",null,,,,,,,,
recall-period,608,1467741,null,"",,,,,,,,,
html-keyboard-response,609,1468244,null,"Time's Up!",null,,,,,,,,
html-keyboard-response,610,1505839,37591,"<p> Good job! You responded correctly to 83% of the GREEN squares.</p>
                  <p>Be sure to keep your accuracy above 80%</p>
                  <p>Press any key to continue the experiment. Thank you!</p>",32,,,,,,,,
html-keyboard-response,611,1508657,2816,"<div style=""font-size:48px;"">Press any key to begin list 8 of 24 </div>",32,,,,,,,,
html-keyboard-response,612,1511161,null,"<div style=""font-size:60px;"">+</div>",null,,,,,,,,
html-keyboard-response,613,1511664,null,"BUG<img id = ""stim"" ><div class = red_square id = ""topsquare"" ></div><img id = ""stim"" ><div class = red_square  id = ""bottomsquare"" ></div>",null,word_square,response,0,none,true,,,
html-keyboard-response,614,1513168,null,"BUG",null,word,,,,, 'BUG',,
html-keyboard-response,615,1513559,389,"PONY<img id = ""stim"" ><div class = green_square id = ""topsquare"" ></div><img id = ""stim"" ><div class = green_square  id = ""bottomsquare"" ></div>",32,word_square,response,1,Space,true,,,
html-keyboard-response,616,1515062,null,"PONY",null,word,,,,, 'PONY',,
html-keyboard-response,617,1515565,null,"SERGEANT<img id = ""stim"" ><div class = green_square id = ""topsquare"" ></div><img id = ""stim"" ><div class = green_square  id = ""bottomsquare"" ></div>",null,word_square,response,1,Space,false,,,
html-keyboard-response,618,1517069,null,"SERGEANT",null,word,,,,, 'SERGEANT',,
html-keyboard-response,619,1517572,null,"TRIGGER<img id = ""stim"" ><div class = red_square id = ""topsquare"" ></div><img id = ""stim"" ><div class = red_square  id = ""bottomsquare"" ></div>",null,word_square,response,0,none,true,,,
html-keyboard-response,620,1519076,null,"TRIGGER",null,word,,,,, 'TRIGGER',,
html-keyboard-response,621,1519497,419,"JEANS<img id = ""stim"" ><div class = green_square id = ""topsquare"" ></div><img id = ""stim"" ><div class = green_square  id = ""bottomsquare"" ></div>",32,word_square,response,1,Space,true,,,
html-keyboard-response,622,1521000,null,"JEANS",null,word,,,,, 'JEANS',,
html-keyboard-response,623,1521504,null,"SHORTS<img id = ""stim"" ><div class = red_square id = ""topsquare"" ></div><img id = ""stim"" ><div class = red_square  id = ""bottomsquare"" ></div>",null,word_square,response,0,none,true,,,
html-keyboard-response,624,1523007,null,"SHORTS",null,word,,,,, 'SHORTS',,
html-keyboard-response,625,1523511,null,"PARCEL<img id = ""stim"" ><div class = red_square id = ""topsquare"" ></div><img id = ""stim"" ><div class = red_square  id = ""bottomsquare"" ></div>",null,word_square,response,0,none,true,,,
html-keyboard-response,626,1525014,null,"PARCEL",null,word,,,,, 'PARCEL',,
html-keyboard-response,627,1525517,null,"WORLD<img id = ""stim"" ><div class = green_square id = ""topsquare"" ></div><img id = ""stim"" ><div class = green_square  id = ""bottomsquare"" ></div>",null,word_square,response,1,Space,false,,,
html-keyboard-response,628,1527020,null,"WORLD",null,word,,,,, 'WORLD',,
html-keyboard-response,629,1527519,497,"COUSIN<img id = ""stim"" ><div class = green_square id = ""topsquare"" ></div><img id = ""stim"" ><div class = green_square  id = ""bottomsquare"" ></div>",32,word_square,response,1,Space,true,,,
html-keyboard-response,630,1529022,null,"COUSIN",null,word,,,,, 'COUSIN',,
html-keyboard-response,631,1529526,null,"VILLAGE<img id = ""stim"" ><div class = red_square id = ""topsquare"" ></div><img id = ""stim"" ><div class = red_square  id = ""bottomsquare"" ></div>",null,word_square,response,0,none,true,,,
html-keyboard-response,632,1531029,null,"VILLAGE",null,word,,,,, 'VILLAGE',,
html-keyboard-response,633,1531433,402,"PISTOL<img id = ""stim"" ><div class = green_square id = ""topsquare"" ></div><img id = ""stim"" ><div class = green_square  id = ""bottomsquare"" ></div>",32,word_square,response,1,Space,true,,,
html-keyboard-response,634,1532937,null,"PISTOL",null,word,,,,, 'PISTOL',,
html-keyboard-response,635,1533440,null,"OYSTER<img id = ""stim"" ><div class = red_square id = ""topsquare"" ></div><img id = ""stim"" ><div class = red_square  id = ""bottomsquare"" ></div>",null,word_square,response,0,none,true,,,
html-keyboard-response,636,1534943,null,"OYSTER",null,word,,,,, 'OYSTER',,
html-keyboard-response,637,1535345,400,"MOUNTAIN<img id = ""stim"" ><div class = green_square id = ""topsquare"" ></div><img id = ""stim"" ><div class = green_square  id = ""bottomsquare"" ></div>",32,word_square,response,1,Space,true,,,
html-keyboard-response,638,1536849,null,"MOUNTAIN",null,word,,,,, 'MOUNTAIN',,
html-keyboard-response,639,1537352,null,"FLESH<img id = ""stim"" ><div class = red_square id = ""topsquare"" ></div><img id = ""stim"" ><div class = red_square  id = ""bottomsquare"" ></div>",null,word_square,response,0,none,true,,,
html-keyboard-response,640,1538855,null,"FLESH",null,word,,,,, 'FLESH',,
html-keyboard-response,641,1539296,440,"RAILROAD<img id = ""stim"" ><div class = green_square id = ""topsquare"" ></div><img id = ""stim"" ><div class = green_square  id = ""bottomsquare"" ></div>",32,word_square,response,1,Space,true,,,
html-keyboard-response,642,1540799,null,"RAILROAD",null,word,,,,, 'RAILROAD',,
html-keyboard-response,643,1541194,393,"CRICKET<img id = ""stim"" ><div class = green_square id = ""topsquare"" ></div><img id = ""stim"" ><div class = green_square  id = ""bottomsquare"" ></div>",32,word_square,response,1,Space,true,,,
html-keyboard-response,644,1542697,null,"CRICKET",null,word,,,,, 'CRICKET',,
html-keyboard-response,645,1543200,null,"VELVET<img id = ""stim"" ><div class = red_square id = ""topsquare"" ></div><img id = ""stim"" ><div class = red_square  id = ""bottomsquare"" ></div>",null,word_square,response,0,none,true,,,
html-keyboard-response,646,1544704,null,"VELVET",null,word,,,,, 'VELVET',,
html-keyboard-response,647,1545207,null,"CLERK<img id = ""stim"" ><div class = red_square id = ""topsquare"" ></div><img id = ""stim"" ><div class = red_square  id = ""bottomsquare"" ></div>",null,word_square,response,0,none,true,,,
html-keyboard-response,648,1546711,null,"CLERK",null,word,,,,, 'CLERK',,
call-function,649,1546712,,"",,,,,,,,,
html-keyboard-response,650,1546813,null,"",null,,,,,,,,
math-period,651,1549618,5108,"",,,,,,,,,5
html-keyboard-response,652,1549721,null,"",null,,,,,,,,
math-period,653,1551941,3853,"",,,,,,,,,1
html-keyboard-response,654,1552045,null,"",null,,,,,,,,
math-period,655,1555520,6392,"",,,,,,,,,2
html-keyboard-response,656,1555623,null,"",null,,,,,,,,
math-period,657,1557803,3831,"",,,,,,,,,4
html-keyboard-response,658,1557906,null,"",null,,,,,,,,
math-period,659,1560052,3791,"",,,,,,,,,5
html-keyboard-response,660,1560155,null,"",null,,,,,,,,
math-period,661,1562497,4187,"",,,,,,,,,1
html-keyboard-response,662,1562601,null,"",null,,,,,,,,
math-period,663,1564282,2945.9999999995343,"",,,,,,,,,5
html-keyboard-response,664,1564385,null,"",null,,,,,,,,
math-period,665,1566408,3614,"",,,,,,,,,2
html-keyboard-response,666,1566511,null,"",null,,,,,,,,
math-period,667,1568338,3202,"",,,,,,,,,5
html-keyboard-response,668,1568441,null,"",null,,,,,,,,
math-period,669,1570715,null,"",,,,,,,,,
html-keyboard-response,670,1571718,null,"Recall Period!",null,,,,,,,,
call-function,671,1571719,,"",,,,,,,,,
html-keyboard-response,672,1571821,null,"",null,,,,,,,,
recall-period,673,1575175,22098,"",,,,,,,,,cricket
html-keyboard-response,674,1575278,null,"",null,,,,,,,,
recall-period,675,1576980,7443.000000000233,"",,,,,,,,,velvet
html-keyboard-response,676,1577083,null,"",null,,,,,,,,
recall-period,677,1578882,8936.000000000466,"",,,,,,,,,railroad
html-keyboard-response,678,1578985,null,"",null,,,,,,,,
recall-period,679,1579945,3079.999999998603,"",,,,,,,,,clerk
html-keyboard-response,680,1580048,null,"",null,,,,,,,,
recall-period,681,1646724,null,"",,,,,,,,,
html-keyboard-response,682,1647227,null,"Time's Up!",null,,,,,,,,
html-keyboard-response,683,1693409,46179,"<p> Good job! You responded correctly to 84% of the GREEN squares.</p>
                  <p>Be sure to keep your accuracy above 80%</p>
                  <p>Press any key to continue the experiment. Thank you!</p>",32,,,,,,,,
html-keyboard-response,684,1701220,7810,"<div style=""font-size:48px;"">Press any key to begin list 9 of 24 </div>",32,,,,,,,,
html-keyboard-response,685,1703724,null,"<div style=""font-size:60px;"">+</div>",null,,,,,,,,
html-keyboard-response,686,1704228,null,"COLONEL<img id = ""stim"" ><div class = red_square id = ""topsquare"" ></div><img id = ""stim"" ><div class = red_square  id = ""bottomsquare"" ></div>",null,word_square,response,0,none,true,,,
html-keyboard-response,687,1705730,null,"COLONEL",null,word,,,,, 'COLONEL',,
html-keyboard-response,688,1706232,null,"FREEZER<img id = ""stim"" ><div class = red_square id = ""topsquare"" ></div><img id = ""stim"" ><div class = red_square  id = ""bottomsquare"" ></div>",null,word_square,response,0,none,true,,,
html-keyboard-response,689,1707735,null,"FREEZER",null,word,,,,, 'FREEZER',,
html-keyboard-response,690,1708122,386,"ARM<img id = ""stim"" ><div class = green_square id = ""topsquare"" ></div><img id = ""stim"" ><div class = green_square  id = ""bottomsquare"" ></div>",32,word_square,response,1,Space,true,,,
html-keyboard-response,691,1709626,null,"ARM",null,word,,,,, 'ARM',,
html-keyboard-response,692,1710129,null,"MOTHER<img id = ""stim"" ><div class = red_square id = ""topsquare"" ></div><img id = ""stim"" ><div class = red_square  id = ""bottomsquare"" ></div>",null,word_square,response,0,none,true,,,
html-keyboard-response,693,1711632,null,"MOTHER",null,word,,,,, 'MOTHER',,
html-keyboard-response,694,1712136,null,"SUITE<img id = ""stim"" ><div class = red_square id = ""topsquare"" ></div><img id = ""stim"" ><div class = red_square  id = ""bottomsquare"" ></div>",null,word_square,response,0,none,true,,,
html-keyboard-response,695,1713639,null,"SUITE",null,word,,,,, 'SUITE',,
html-keyboard-response,696,1714044,403,"FARMER<img id = ""stim"" ><div class = green_square id = ""topsquare"" ></div><img id = ""stim"" ><div class = green_square  id = ""bottomsquare"" ></div>",32,word_square,response,1,Space,true,,,
html-keyboard-response,697,1715547,null,"FARMER",null,word,,,,, 'FARMER',,
html-keyboard-response,698,1716050,null,"BISON<img id = ""stim"" ><div class = red_square id = ""topsquare"" ></div><img id = ""stim"" ><div class = red_square  id = ""bottomsquare"" ></div>",null,word_square,response,0,none,true,,,
html-keyboard-response,699,1717553,null,"BISON",null,word,,,,, 'BISON',,
html-keyboard-response,700,1718055,null,"RIFLE<img id = ""stim"" ><div class = red_square id = ""topsquare"" ></div><img id = ""stim"" ><div class = red_square  id = ""bottomsquare"" ></div>",null,word_square,response,0,none,true,,,
html-keyboard-response,701,1719559,null,"RIFLE",null,word,,,,, 'RIFLE',,
html-keyboard-response,702,1720046,486,"BULLET<img id = ""stim"" ><div class = green_square id = ""topsquare"" ></div><img id = ""stim"" ><div class = green_square  id = ""bottomsquare"" ></div>",32,word_square,response,1,Space,true,,,
html-keyboard-response,703,1721549,null,"BULLET",null,word,,,,, 'BULLET',,
html-keyboard-response,704,1722052,null,"REBEL<img id = ""stim"" ><div class = red_square id = ""topsquare"" ></div><img id = ""stim"" ><div class = red_square  id = ""bottomsquare"" ></div>",null,word_square,response,0,none,true,,,
html-keyboard-response,705,1723556,null,"REBEL",null,word,,,,, 'REBEL',,
html-keyboard-response,706,1723959,400.99999999976717,"COLUMN<img id = ""stim"" ><div class = green_square id = ""topsquare"" ></div><img id = ""stim"" ><div class = green_square  id = ""bottomsquare"" ></div>",32,word_square,response,1,Space,true,,,
html-keyboard-response,707,1725462,null,"COLUMN",null,word,,,,, 'COLUMN',,
html-keyboard-response,708,1725966,null,"HEEL<img id = ""stim"" ><div class = green_square id = ""topsquare"" ></div><img id = ""stim"" ><div class = green_square  id = ""bottomsquare"" ></div>",null,word_square,response,1,Space,false,,,
html-keyboard-response,709,1727469,null,"HEEL",null,word,,,,, 'HEEL',,
html-keyboard-response,710,1727847,376.00000000023283,"MARSH<img id = ""stim"" ><div class = green_square id = ""topsquare"" ></div><img id = ""stim"" ><div class = green_square  id = ""bottomsquare"" ></div>",32,word_square,response,1,Space,true,,,
html-keyboard-response,711,1729351,null,"MARSH",null,word,,,,, 'MARSH',,
html-keyboard-response,712,1729854,null,"COUCH<img id = ""stim"" ><div class = red_square id = ""topsquare"" ></div><img id = ""stim"" ><div class = red_square  id = ""bottomsquare"" ></div>",null,word_square,response,0,none,true,,,
html-keyboard-response,713,1731358,null,"COUCH",null,word,,,,, 'COUCH',,
html-keyboard-response,714,1731861,null,"LEG<img id = ""stim"" ><div class = green_square id = ""topsquare"" ></div><img id = ""stim"" ><div class = green_square  id = ""bottomsquare"" ></div>",null,word_square,response,1,Space,false,,,
html-keyboard-response,715,1733364,null,"LEG",null,word,,,,, 'LEG',,
html-keyboard-response,716,1733748,380.99999999976717,"TERMITE<img id = ""stim"" ><div class = green_square id = ""topsquare"" ></div><img id = ""stim"" ><div class = green_square  id = ""bottomsquare"" ></div>",32,word_square,response,1,Space,true,,,
html-keyboard-response,717,1735251,null,"TERMITE",null,word,,,,, 'TERMITE',,
html-keyboard-response,718,1735754,null,"DRAGON<img id = ""stim"" ><div class = red_square id = ""topsquare"" ></div><img id = ""stim"" ><div class = red_square  id = ""bottomsquare"" ></div>",null,word_square,response,0,none,true,,,
html-keyboard-response,719,1737257,null,"DRAGON",null,word,,,,, 'DRAGON',,
html-keyboard-response,720,1737563,304,"SNOB<img id = ""stim"" ><div class = green_square id = ""topsquare"" ></div><img id = ""stim"" ><div class = green_square  id = ""bottomsquare"" ></div>",32,word_square,response,1,Space,true,,,
html-keyboard-response,721,1739066,null,"SNOB",null,word,,,,, 'SNOB',,
call-function,722,1739067,,"",,,,,,,,,
html-keyboard-response,723,1739170,null,"",null,,,,,,,,
math-period,724,1742393,6172,"",,,,,,,,,0
html-keyboard-response,725,1742496,null,"",null,,,,,,,,
math-period,726,1744548,3579,"",,,,,,,,,5
html-keyboard-response,727,1744650,null,"",null,,,,,,,,
math-period,728,1747752,5794.000000000233,"",,,,,,,,,2
html-keyboard-response,729,1747854,null,"",null,,,,,,,,
math-period,730,1749746,3434,"",,,,,,,,,6
html-keyboard-response,731,1749849,null,"",null,,,,,,,,
math-period,732,1751646,3316,"",,,,,,,,,3
html-keyboard-response,733,1751749,null,"",null,,,,,,,,
math-period,734,1753655,4239.999999999534,"",,,,,,,,,3
html-keyboard-response,735,1753757,null,"",null,,,,,,,,
math-period,736,1755370,2952,"",,,,,,,,,0
html-keyboard-response,737,1755473,null,"",null,,,,,,,,
math-period,738,1757349,3413,"",,,,,,,,,2
html-keyboard-response,739,1757452,null,"",null,,,,,,,,
math-period,740,1759036,2676.9999999995343,"",,,,,,,,,3
html-keyboard-response,741,1759139,null,"",null,,,,,,,,
math-period,742,1762448,11754,"",,,,,,,,,2
html-keyboard-response,743,1762551,null,"",null,,,,,,,,
math-period,744,1763070,null,"",,,,,,,,,
html-keyboard-response,745,1764074,null,"Recall Period!",null,,,,,,,,
call-function,746,1764075,,"",,,,,,,,,
html-keyboard-response,747,1764178,null,"",null,,,,,,,,
recall-period,748,1839079,null,"",,,,,,,,,
html-keyboard-response,749,1839582,null,"Time's Up!",null,,,,,,,,
html-keyboard-response,750,1845203,5619,"<p> Good job! You responded correctly to 84% of the GREEN squares.</p>
                  <p>Be sure to keep your accuracy above 80%</p>
                  <p>Press any key to continue the experiment. Thank you!</p>",32,,,,,,,,
html-keyboard-response,751,1846308,1103,"<div style=""font-size:48px;"">Press any key to begin list 10 of 24 </div>",32,,,,,,,,
html-keyboard-response,752,1848813,null,"<div style=""font-size:60px;"">+</div>",null,,,,,,,,
html-keyboard-response,753,1849316,null,"ATTIC<img id = ""stim"" ><div class = red_square id = ""topsquare"" ></div><img id = ""stim"" ><div class = red_square  id = ""bottomsquare"" ></div>",null,word_square,response,0,none,true,,,
html-keyboard-response,754,1850818,null,"ATTIC",null,word,,,,, 'ATTIC',,
html-keyboard-response,755,1851322,null,"BENCH<img id = ""stim"" ><div class = red_square id = ""topsquare"" ></div><img id = ""stim"" ><div class = red_square  id = ""bottomsquare"" ></div>",null,word_square,response,0,none,true,,,
html-keyboard-response,756,1852825,null,"BENCH",null,word,,,,, 'BENCH',,
html-keyboard-response,757,1853189,362,"SEAFOOD<img id = ""stim"" ><div class = green_square id = ""topsquare"" ></div><img id = ""stim"" ><div class = green_square  id = ""bottomsquare"" ></div>",32,word_square,response,1,Space,true,,,
html-keyboard-response,758,1854692,null,"SEAFOOD",null,word,,,,, 'SEAFOOD',,
html-keyboard-response,759,1855196,null,"PIZZA<img id = ""stim"" ><div class = red_square id = ""topsquare"" ></div><img id = ""stim"" ><div class = red_square  id = ""bottomsquare"" ></div>",null,word_square,response,0,none,true,,,
html-keyboard-response,760,1856699,null,"PIZZA",null,word,,,,, 'PIZZA',,
html-keyboard-response,761,1857203,null,"RIVER<img id = ""stim"" ><div class = red_square id = ""topsquare"" ></div><img id = ""stim"" ><div class = red_square  id = ""bottomsquare"" ></div>",null,word_square,response,0,none,true,,,
html-keyboard-response,762,1858706,null,"RIVER",null,word,,,,, 'RIVER',,
html-keyboard-response,763,1859065,357,"SLIDE<img id = ""stim"" ><div class = green_square id = ""topsquare"" ></div><img id = ""stim"" ><div class = green_square  id = ""bottomsquare"" ></div>",32,word_square,response,1,Space,true,,,
html-keyboard-response,764,1860568,null,"SLIDE",null,word,,,,, 'SLIDE',,
html-keyboard-response,765,1861072,null,"THREAD<img id = ""stim"" ><div class = red_square id = ""topsquare"" ></div><img id = ""stim"" ><div class = red_square  id = ""bottomsquare"" ></div>",null,word_square,response,0,none,true,,,
html-keyboard-response,766,1862574,null,"THREAD",null,word,,,,, 'THREAD',,
html-keyboard-response,767,1863076,null,"ORGAN<img id = ""stim"" ><div class = red_square id = ""topsquare"" ></div><img id = ""stim"" ><div class = red_square  id = ""bottomsquare"" ></div>",null,word_square,response,0,none,true,,,
html-keyboard-response,768,1864579,null,"ORGAN",null,word,,,,, 'ORGAN',,
html-keyboard-response,769,1864907,326,"RAISIN<img id = ""stim"" ><div class = green_square id = ""topsquare"" ></div><img id = ""stim"" ><div class = green_square  id = ""bottomsquare"" ></div>",32,word_square,response,1,Space,true,,,
html-keyboard-response,770,1866410,null,"RAISIN",null,word,,,,, 'RAISIN',,
html-keyboard-response,771,1866914,null,"SENATE<img id = ""stim"" ><div class = red_square id = ""topsquare"" ></div><img id = ""stim"" ><div class = red_square  id = ""bottomsquare"" ></div>",null,word_square,response,0,none,true,,,
html-keyboard-response,772,1868417,null,"SENATE",null,word,,,,, 'SENATE',,
html-keyboard-response,773,1868849,429.99999999976717,"DAGGER<img id = ""stim"" ><div class = green_square id = ""topsquare"" ></div><img id = ""stim"" ><div class = green_square  id = ""bottomsquare"" ></div>",32,word_square,response,1,Space,true,,,
html-keyboard-response,774,1870351,null,"DAGGER",null,word,,,,, 'DAGGER',,
html-keyboard-response,775,1870854,null,"VICTOR<img id = ""stim"" ><div class = green_square id = ""topsquare"" ></div><img id = ""stim"" ><div class = green_square  id = ""bottomsquare"" ></div>",null,word_square,response,1,Space,false,,,
html-keyboard-response,776,1872357,null,"VICTOR",null,word,,,,, 'VICTOR',,
html-keyboard-response,777,1872860,null,"CHIPMUNK<img id = ""stim"" ><div class = green_square id = ""topsquare"" ></div><img id = ""stim"" ><div class = green_square  id = ""bottomsquare"" ></div>",null,word_square,response,1,Space,false,,,
html-keyboard-response,778,1874363,null,"CHIPMUNK",null,word,,,,, 'CHIPMUNK',,
html-keyboard-response,779,1874866,null,"FLEET<img id = ""stim"" ><div class = red_square id = ""topsquare"" ></div><img id = ""stim"" ><div class = red_square  id = ""bottomsquare"" ></div>",null,word_square,response,0,none,true,,,
html-keyboard-response,780,1876369,null,"FLEET",null,word,,,,, 'FLEET',,
html-keyboard-response,781,1876682,311.99999999976717,"LOBBY<img id = ""stim"" ><div class = green_square id = ""topsquare"" ></div><img id = ""stim"" ><div class = green_square  id = ""bottomsquare"" ></div>",32,word_square,response,1,Space,true,,,
html-keyboard-response,782,1878186,null,"LOBBY",null,word,,,,, 'LOBBY',,
html-keyboard-response,783,1878544,357,"TOMBSTONE<img id = ""stim"" ><div class = green_square id = ""topsquare"" ></div><img id = ""stim"" ><div class = green_square  id = ""bottomsquare"" ></div>",32,word_square,response,1,Space,true,,,
html-keyboard-response,784,1880048,null,"TOMBSTONE",null,word,,,,, 'TOMBSTONE',,
html-keyboard-response,785,1880551,null,"MILDEW<img id = ""stim"" ><div class = red_square id = ""topsquare"" ></div><img id = ""stim"" ><div class = red_square  id = ""bottomsquare"" ></div>",null,word_square,response,0,none,true,,,
html-keyboard-response,786,1882054,null,"MILDEW",null,word,,,,, 'MILDEW',,
html-keyboard-response,787,1882394,338,"SLIME<img id = ""stim"" ><div class = green_square id = ""topsquare"" ></div><img id = ""stim"" ><div class = green_square  id = ""bottomsquare"" ></div>",32,word_square,response,1,Space,true,,,
html-keyboard-response,788,1883898,null,"SLIME",null,word,,,,, 'SLIME',,
call-function,789,1883899,,"",,,,,,,,,
html-keyboard-response,790,1884001,null,"",null,,,,,,,,
math-period,791,1885906,3550,"",,,,,,,,,2
html-keyboard-response,792,1886008,null,"",null,,,,,,,,
math-period,793,1887645,3024,"",,,,,,,,,6
html-keyboard-response,794,1887748,null,"",null,,,,,,,,
math-period,795,1889185,2551,"",,,,,,,,,2
html-keyboard-response,796,1889289,null,"",null,,,,,,,,
math-period,797,1891051,3073,"",,,,,,,,,6
html-keyboard-response,798,1891154,null,"",null,,,,,,,,
math-period,799,1893550,4581.000000000233,"",,,,,,,,,1
html-keyboard-response,800,1893653,null,"",null,,,,,,,,
math-period,801,1895383,3217,"",,,,,,,,,5
html-keyboard-response,802,1895487,null,"",null,,,,,,,,
math-period,803,1897023,2857,"",,,,,,,,,2
html-keyboard-response,804,1897126,null,"",null,,,,,,,,
math-period,805,1898543,2633.000000000233,"",,,,,,,,,2
html-keyboard-response,806,1898646,null,"",null,,,,,,,,
math-period,807,1899519,1545.0000000002328,"",,,,,,,,,2
html-keyboard-response,808,1899623,null,"",null,,,,,,,,
math-period,809,1901176,2879,"",,,,,,,,,4
html-keyboard-response,810,1901280,null,"",null,,,,,,,,
math-period,811,1902745,2715.000000000233,"",,,,,,,,,6
html-keyboard-response,812,1902848,null,"",null,,,,,,,,
math-period,813,1904571,3260,"",,,,,,,,,2
html-keyboard-response,814,1904674,null,"",null,,,,,,,,
math-period,815,1906346,2958,"",,,,,,,,,4
html-keyboard-response,816,1906449,null,"",null,,,,,,,,
math-period,817,1907901,1303,"",,,,,,,,,6
html-keyboard-response,818,1908905,null,"Recall Period!",null,,,,,,,,
call-function,819,1908907,,"",,,,,,,,,
html-keyboard-response,820,1909009,null,"",null,,,,,,,,
recall-period,821,1913097,38645.00000000023,"",,,,,,,,,victor
html-keyboard-response,822,1913200,null,"",null,,,,,,,,
recall-period,823,1983911,null,"",,,,,,,,,
html-keyboard-response,824,1984414,null,"Time's Up!",null,,,,,,,,
html-keyboard-response,825,1989095,4678.000000000233,"<p> Good job! You responded correctly to 85% of the GREEN squares.</p>
                  <p>Be sure to keep your accuracy above 80%</p>
                  <p>Press any key to continue the experiment. Thank you!</p>",32,,,,,,,,
html-keyboard-response,826,1989854,758.0000000002328,"<div style=""font-size:48px;"">Press any key to begin list 11 of 24 </div>",32,,,,,,,,
html-keyboard-response,827,1992359,null,"<div style=""font-size:60px;"">+</div>",null,,,,,,,,
html-keyboard-response,828,1992861,null,"SAILOR<img id = ""stim"" ><div class = green_square id = ""topsquare"" ></div><img id = ""stim"" ><div class = green_square  id = ""bottomsquare"" ></div>",null,word_square,response,1,Space,false,,,
html-keyboard-response,829,1994364,null,"SAILOR",null,word,,,,, 'SAILOR',,
html-keyboard-response,830,1994711,346,"BIBLE<img id = ""stim"" ><div class = green_square id = ""topsquare"" ></div><img id = ""stim"" ><div class = green_square  id = ""bottomsquare"" ></div>",32,word_square,response,1,Space,true,,,
html-keyboard-response,831,1996214,null,"BIBLE",null,word,,,,, 'BIBLE',,
html-keyboard-response,832,1996717,null,"LETTER<img id = ""stim"" ><div class = red_square id = ""topsquare"" ></div><img id = ""stim"" ><div class = red_square  id = ""bottomsquare"" ></div>",null,word_square,response,0,none,true,,,
html-keyboard-response,833,1998221,null,"LETTER",null,word,,,,, 'LETTER',,
html-keyboard-response,834,1998566,344.00000000023283,"STABLE<img id = ""stim"" ><div class = green_square id = ""topsquare"" ></div><img id = ""stim"" ><div class = green_square  id = ""bottomsquare"" ></div>",32,word_square,response,1,Space,true,,,
html-keyboard-response,835,2000070,null,"STABLE",null,word,,,,, 'STABLE',,
html-keyboard-response,836,2000550,478,"CUPBOARD<img id = ""stim"" ><div class = green_square id = ""topsquare"" ></div><img id = ""stim"" ><div class = green_square  id = ""bottomsquare"" ></div>",32,word_square,response,1,Space,true,,,
html-keyboard-response,837,2002053,null,"CUPBOARD",null,word,,,,, 'CUPBOARD',,
html-keyboard-response,838,2002557,null,"CARROT<img id = ""stim"" ><div class = red_square id = ""topsquare"" ></div><img id = ""stim"" ><div class = red_square  id = ""bottomsquare"" ></div>",null,word_square,response,0,none,true,,,
html-keyboard-response,839,2004059,null,"CARROT",null,word,,,,, 'CARROT',,
html-keyboard-response,840,2004405,345,"SPACE<img id = ""stim"" ><div class = green_square id = ""topsquare"" ></div><img id = ""stim"" ><div class = green_square  id = ""bottomsquare"" ></div>",32,word_square,response,1,Space,true,,,
html-keyboard-response,841,2005907,null,"SPACE",null,word,,,,, 'SPACE',,
html-keyboard-response,842,2006301,393,"COMET<img id = ""stim"" ><div class = green_square id = ""topsquare"" ></div><img id = ""stim"" ><div class = green_square  id = ""bottomsquare"" ></div>",32,word_square,response,1,Space,true,,,
html-keyboard-response,843,2007805,null,"COMET",null,word,,,,, 'COMET',,
html-keyboard-response,844,2008308,null,"CELLAR<img id = ""stim"" ><div class = red_square id = ""topsquare"" ></div><img id = ""stim"" ><div class = red_square  id = ""bottomsquare"" ></div>",null,word_square,response,0,none,true,,,
html-keyboard-response,845,2009811,null,"CELLAR",null,word,,,,, 'CELLAR',,
html-keyboard-response,846,2010132,319,"TUNNEL<img id = ""stim"" ><div class = green_square id = ""topsquare"" ></div><img id = ""stim"" ><div class = green_square  id = ""bottomsquare"" ></div>",32,word_square,response,1,Space,true,,,
html-keyboard-response,847,2011635,null,"TUNNEL",null,word,,,,, 'TUNNEL',,
html-keyboard-response,848,2012139,null,"LIGHTNING<img id = ""stim"" ><div class = red_square id = ""topsquare"" ></div><img id = ""stim"" ><div class = red_square  id = ""bottomsquare"" ></div>",null,word_square,response,0,none,true,,,
html-keyboard-response,849,2013642,null,"LIGHTNING",null,word,,,,, 'LIGHTNING',,
html-keyboard-response,850,2014145,null,"CREATURE<img id = ""stim"" ><div class = red_square id = ""topsquare"" ></div><img id = ""stim"" ><div class = red_square  id = ""bottomsquare"" ></div>",null,word_square,response,0,none,true,,,
html-keyboard-response,851,2015648,null,"CREATURE",null,word,,,,, 'CREATURE',,
html-keyboard-response,852,2016152,null,"LETTUCE<img id = ""stim"" ><div class = red_square id = ""topsquare"" ></div><img id = ""stim"" ><div class = red_square  id = ""bottomsquare"" ></div>",null,word_square,response,0,none,true,,,
html-keyboard-response,853,2017655,null,"LETTUCE",null,word,,,,, 'LETTUCE',,
html-keyboard-response,854,2017987,331,"MISTER<img id = ""stim"" ><div class = green_square id = ""topsquare"" ></div><img id = ""stim"" ><div class = green_square  id = ""bottomsquare"" ></div>",32,word_square,response,1,Space,true,,,
html-keyboard-response,855,2019491,null,"MISTER",null,word,,,,, 'MISTER',,
html-keyboard-response,856,2019995,null,"MOTEL<img id = ""stim"" ><div class = red_square id = ""topsquare"" ></div><img id = ""stim"" ><div class = red_square  id = ""bottomsquare"" ></div>",null,word_square,response,0,none,true,,,
html-keyboard-response,857,2021498,null,"MOTEL",null,word,,,,, 'MOTEL',,
html-keyboard-response,858,2022001,null,"DORM<img id = ""stim"" ><div class = red_square id = ""topsquare"" ></div><img id = ""stim"" ><div class = red_square  id = ""bottomsquare"" ></div>",null,word_square,response,0,none,true,,,
html-keyboard-response,859,2023504,null,"DORM",null,word,,,,, 'DORM',,
html-keyboard-response,860,2023867,361,"WARDROBE<img id = ""stim"" ><div class = green_square id = ""topsquare"" ></div><img id = ""stim"" ><div class = green_square  id = ""bottomsquare"" ></div>",32,word_square,response,1,Space,true,,,
html-keyboard-response,861,2025369,null,"WARDROBE",null,word,,,,, 'WARDROBE',,
html-keyboard-response,862,2025873,null,"LADY<img id = ""stim"" ><div class = red_square id = ""topsquare"" ></div><img id = ""stim"" ><div class = red_square  id = ""bottomsquare"" ></div>",null,word_square,response,0,none,true,,,
html-keyboard-response,863,2027376,null,"LADY",null,word,,,,, 'LADY',,
call-function,864,2027377,,"",,,,,,,,,
html-keyboard-response,865,2027480,null,"",null,,,,,,,,
math-period,866,2029361,3459,"",,,,,,,,,6
html-keyboard-response,867,2029464,null,"",null,,,,,,,,
math-period,868,2031050,2866,"",,,,,,,,,4
html-keyboard-response,869,2031152,null,"",null,,,,,,,,
math-period,870,2033572,4574.999999999534,"",,,,,,,,,0
html-keyboard-response,871,2033675,null,"",null,,,,,,,,
math-period,872,2035029,2460.000000000233,"",,,,,,,,,4
html-keyboard-response,873,2035132,null,"",null,,,,,,,,
math-period,874,2038422,11094.999999999302,"",,,,,,,,,1
html-keyboard-response,875,2038525,null,"",null,,,,,,,,
math-period,876,2040337,3220.000000000233,"",,,,,,,,,3
html-keyboard-response,877,2040440,null,"",null,,,,,,,,
math-period,878,2041953,2847.9999999995343,"",,,,,,,,,5
html-keyboard-response,879,2042056,null,"",null,,,,,,,,
math-period,880,2043848,3348.9999999995343,"",,,,,,,,,4
html-keyboard-response,881,2043951,null,"",null,,,,,,,,
math-period,882,2045349,2652,"",,,,,,,,,4
html-keyboard-response,883,2045452,null,"",null,,,,,,,,
math-period,884,2046803,2559.0000000004657,"",,,,,,,,,4
html-keyboard-response,885,2046906,null,"",null,,,,,,,,
math-period,886,2048320,2590.9999999995343,"",,,,,,,,,4
html-keyboard-response,887,2048422,null,"",null,,,,,,,,
math-period,888,2050205,3423.9999999995343,"",,,,,,,,,2
html-keyboard-response,889,2050308,null,"",null,,,,,,,,
math-period,890,2051379,1027.0000000002328,"",,,,,,,,,4
