trial_type,trial_index,time_elapsed,rt,stimulus,key_press,test_part,task,targ_cond,correctKeyCode,correct,word,value,response
pavlovia,0,1040,,"",,,,,,,,,
external-html,1,258825,257638.9349999954,"",,,,,,,,,
html-keyboard-response,2,262466,3636.609999986831,"Welcome to the experiment. Press any key to begin.",32,,,,,,,,
html-keyboard-response,3,262476,7.994999992661178,"<p>You will see a list of words and colored squares in the following task.<p><p>Press the spacebar whenever you see a GREEN square.<p><p>Do not press a key if the square is RED<p><p>Press the spacebar to continue.</p>",66,,,,,,,,
html-keyboard-response,4,280182,17204.634999972768,"<p>Please try to remember as many of the words as you can, and try to think about the meaning of each word as it appears.<p><p>After the detection and encoding task you will be asked to solve some math problems for 24 seconds.<p> Please solve as many problems as you can in the time given. <p>",32,,,,,,,,
html-keyboard-response,5,292662,11976.834999979474,"After solving the math problems, you will be asked to type in as many words <p>from the previous list as you can remember for 75 seconds.<p> If you finish recalling before the 75 seconds are up,<p> just sit tight and try to think of any more words you could have missed. <p><p>We will begin with a brief practice session<p>Press the spacebar to begin the practice.</p>",32,,,,,,,,
html-keyboard-response,6,295171,null,"<div style=""font-size:60px;"">+</div>",null,,,,,,,,
html-keyboard-response,7,295673,null,"HAPPY<img id = ""stim"" ><div class = red_square id = ""topsquare"" ></div><img id = ""stim"" ><div class = red_square  id = ""bottomsquare"" ></div>",null,word_square,prac_response,0,none,true,,,
html-keyboard-response,8,297176,null,"HAPPY",null,word,,,,,HAPPY,,
html-keyboard-response,9,297682,null,"COLD<img id = ""stim"" ><div class = green_square id = ""topsquare"" ></div><img id = ""stim"" ><div class = green_square  id = ""bottomsquare"" ></div>",null,word_square,prac_response,1,Space,false,,,
html-keyboard-response,10,299186,null,"COLD",null,word,,,,,COLD,,
html-keyboard-response,11,299691,null,"HEAVY<img id = ""stim"" ><div class = green_square id = ""topsquare"" ></div><img id = ""stim"" ><div class = green_square  id = ""bottomsquare"" ></div>",null,word_square,prac_response,1,Space,false,,,
html-keyboard-response,12,301194,null,"HEAVY",null,word,,,,,HEAVY,,
html-keyboard-response,13,301701,null,"FUNNY<img id = ""stim"" ><div class = red_square id = ""topsquare"" ></div><img id = ""stim"" ><div class = red_square  id = ""bottomsquare"" ></div>",null,word_square,prac_response,0,none,true,,,
html-keyboard-response,14,303203,null,"FUNNY",null,word,,,,,FUNNY,,
html-keyboard-response,15,303708,null,"SCARY<img id = ""stim"" ><div class = green_square id = ""topsquare"" ></div><img id = ""stim"" ><div class = green_square  id = ""bottomsquare"" ></div>",null,word_square,prac_response,1,Space,false,,,
html-keyboard-response,16,305211,null,"SCARY",null,word,,,,,SCARY,,
html-keyboard-response,17,305715,null,"PEACEFUL<img id = ""stim"" ><div class = green_square id = ""topsquare"" ></div><img id = ""stim"" ><div class = green_square  id = ""bottomsquare"" ></div>",null,word_square,prac_response,1,Space,false,,,
html-keyboard-response,18,307220,null,"PEACEFUL",null,word,,,,,PEACEFUL,,
html-keyboard-response,19,307724,null,"LITTLE<img id = ""stim"" ><div class = red_square id = ""topsquare"" ></div><img id = ""stim"" ><div class = red_square  id = ""bottomsquare"" ></div>",null,word_square,prac_response,0,none,true,,,
html-keyboard-response,20,309228,null,"LITTLE",null,word,,,,,LITTLE,,
html-keyboard-response,21,309733,null,"TIRED<img id = ""stim"" ><div class = red_square id = ""topsquare"" ></div><img id = ""stim"" ><div class = red_square  id = ""bottomsquare"" ></div>",null,word_square,prac_response,0,none,true,,,
html-keyboard-response,22,311237,null,"TIRED",null,word,,,,,TIRED,,
html-keyboard-response,23,311742,null,"ENTERTAINING<img id = ""stim"" ><div class = red_square id = ""topsquare"" ></div><img id = ""stim"" ><div class = red_square  id = ""bottomsquare"" ></div>",null,word_square,prac_response,0,none,true,,,
html-keyboard-response,24,313245,null,"ENTERTAINING",null,word,,,,,ENTERTAINING,,
html-keyboard-response,25,313750,null,"GRATEFUL<img id = ""stim"" ><div class = green_square id = ""topsquare"" ></div><img id = ""stim"" ><div class = green_square  id = ""bottomsquare"" ></div>",null,word_square,prac_response,1,Space,false,,,
html-keyboard-response,26,315254,null,"GRATEFUL",null,word,,,,,GRATEFUL,,
html-keyboard-response,27,315759,null,"LOUD<img id = ""stim"" ><div class = red_square id = ""topsquare"" ></div><img id = ""stim"" ><div class = red_square  id = ""bottomsquare"" ></div>",null,word_square,prac_response,0,none,true,,,
html-keyboard-response,28,317262,null,"LOUD",null,word,,,,,LOUD,,
html-keyboard-response,29,317768,null,"SMART<img id = ""stim"" ><div class = green_square id = ""topsquare"" ></div><img id = ""stim"" ><div class = green_square  id = ""bottomsquare"" ></div>",null,word_square,prac_response,1,Space,false,,,
html-keyboard-response,30,319271,null,"SMART",null,word,,,,,SMART,,
html-keyboard-response,31,319776,null,"SMOOTH<img id = ""stim"" ><div class = green_square id = ""topsquare"" ></div><img id = ""stim"" ><div class = green_square  id = ""bottomsquare"" ></div>",null,word_square,prac_response,1,Space,false,,,
html-keyboard-response,32,321279,null,"SMOOTH",null,word,,,,,SMOOTH,,
html-keyboard-response,33,321783,null,"DISHONEST<img id = ""stim"" ><div class = red_square id = ""topsquare"" ></div><img id = ""stim"" ><div class = red_square  id = ""bottomsquare"" ></div>",null,word_square,prac_response,0,none,true,,,
html-keyboard-response,34,323288,null,"DISHONEST",null,word,,,,,DISHONEST,,
html-keyboard-response,35,323794,null,"WEALTHY<img id = ""stim"" ><div class = green_square id = ""topsquare"" ></div><img id = ""stim"" ><div class = green_square  id = ""bottomsquare"" ></div>",null,word_square,prac_response,1,Space,false,,,
html-keyboard-response,36,325297,null,"WEALTHY",null,word,,,,,WEALTHY,,
html-keyboard-response,37,325801,null,"BEAUTIFUL<img id = ""stim"" ><div class = red_square id = ""topsquare"" ></div><img id = ""stim"" ><div class = red_square  id = ""bottomsquare"" ></div>",null,word_square,prac_response,0,none,true,,,
html-keyboard-response,38,327305,null,"BEAUTIFUL",null,word,,,,,BEAUTIFUL,,
html-keyboard-response,39,327810,null,"DREARY<img id = ""stim"" ><div class = red_square id = ""topsquare"" ></div><img id = ""stim"" ><div class = red_square  id = ""bottomsquare"" ></div>",null,word_square,prac_response,0,none,true,,,
html-keyboard-response,40,329313,null,"DREARY",null,word,,,,,DREARY,,
html-keyboard-response,41,329818,null,"PLAYFUL<img id = ""stim"" ><div class = green_square id = ""topsquare"" ></div><img id = ""stim"" ><div class = green_square  id = ""bottomsquare"" ></div>",null,word_square,prac_response,1,Space,false,,,
html-keyboard-response,42,331323,null,"PLAYFUL",null,word,,,,,PLAYFUL,,
html-keyboard-response,43,338661,7336.390000011306,"<p> Uh oh. You responded correctly on 50% of the GREEN squares.</p>
                  <p>We need you keep your accuracy above 80%</p>
                  <p>We're going to try once more to make sure you understand the task. press any key to continue.</p>",32,,,,,,,,
html-keyboard-response,44,345169,6506.165000027977,"<p>You will see a list of words and colored squares in the following task.<p><p>Press the spacebar whenever you see a GREEN square.<p><p>Do not press a key if the square is RED<p><p>Press the spacebar to continue.</p>",32,,,,,,,,
html-keyboard-response,45,347675,null,"<div style=""font-size:60px;"">+</div>",null,,,,,,,,
html-keyboard-response,46,348182,null,"HAPPY<img id = ""stim"" ><div class = red_square id = ""topsquare"" ></div><img id = ""stim"" ><div class = red_square  id = ""bottomsquare"" ></div>",null,word_square,response,0,none,true,,,
html-keyboard-response,47,349684,null,"HAPPY",null,word,,,,,HAPPY,,
html-keyboard-response,48,350044,358.4450000198558,"COLD<img id = ""stim"" ><div class = green_square id = ""topsquare"" ></div><img id = ""stim"" ><div class = green_square  id = ""bottomsquare"" ></div>",32,word_square,response,1,Space,true,,,
html-keyboard-response,49,351549,null,"COLD",null,word,,,,,COLD,,
html-keyboard-response,50,351956,405.29000002425164,"HEAVY<img id = ""stim"" ><div class = green_square id = ""topsquare"" ></div><img id = ""stim"" ><div class = green_square  id = ""bottomsquare"" ></div>",32,word_square,response,1,Space,true,,,
html-keyboard-response,51,353462,null,"HEAVY",null,word,,,,,HEAVY,,
html-keyboard-response,52,353967,390.46500000404194,"FUNNY<img id = ""stim"" ><div class = red_square id = ""topsquare"" ></div><img id = ""stim"" ><div class = red_square  id = ""bottomsquare"" ></div>",32,word_square,response,0,none,true,,,
html-keyboard-response,53,355473,null,"FUNNY",null,word,,,,,FUNNY,,
html-keyboard-response,54,355831,355.78500002156943,"SCARY<img id = ""stim"" ><div class = green_square id = ""topsquare"" ></div><img id = ""stim"" ><div class = green_square  id = ""bottomsquare"" ></div>",32,word_square,response,1,Space,true,,,
html-keyboard-response,55,357337,null,"SCARY",null,word,,,,,SCARY,,
html-keyboard-response,56,357842,null,"PEACEFUL<img id = ""stim"" ><div class = green_square id = ""topsquare"" ></div><img id = ""stim"" ><div class = green_square  id = ""bottomsquare"" ></div>",null,word_square,response,1,Space,false,,,
html-keyboard-response,57,359348,null,"PEACEFUL",null,word,,,,,PEACEFUL,,
html-keyboard-response,58,359853,null,"LITTLE<img id = ""stim"" ><div class = red_square id = ""topsquare"" ></div><img id = ""stim"" ><div class = red_square  id = ""bottomsquare"" ></div>",null,word_square,response,0,none,true,,,
html-keyboard-response,59,361360,null,"LITTLE",null,word,,,,,LITTLE,,
html-keyboard-response,60,361865,null,"TIRED<img id = ""stim"" ><div class = red_square id = ""topsquare"" ></div><img id = ""stim"" ><div class = red_square  id = ""bottomsquare"" ></div>",null,word_square,response,0,none,true,,,
html-keyboard-response,61,363371,null,"TIRED",null,word,,,,,TIRED,,
html-keyboard-response,62,363876,null,"ENTERTAINING<img id = ""stim"" ><div class = red_square id = ""topsquare"" ></div><img id = ""stim"" ><div class = red_square  id = ""bottomsquare"" ></div>",null,word_square,response,0,none,true,,,
html-keyboard-response,63,365383,null,"ENTERTAINING",null,word,,,,,ENTERTAINING,,
html-keyboard-response,64,365888,null,"GRATEFUL<img id = ""stim"" ><div class = green_square id = ""topsquare"" ></div><img id = ""stim"" ><div class = green_square  id = ""bottomsquare"" ></div>",null,word_square,response,1,Space,false,,,
html-keyboard-response,65,367394,null,"GRATEFUL",null,word,,,,,GRATEFUL,,
html-keyboard-response,66,367899,null,"LOUD<img id = ""stim"" ><div class = red_square id = ""topsquare"" ></div><img id = ""stim"" ><div class = red_square  id = ""bottomsquare"" ></div>",null,word_square,response,0,none,true,,,
html-keyboard-response,67,369405,null,"LOUD",null,word,,,,,LOUD,,
html-keyboard-response,68,369910,null,"SMART<img id = ""stim"" ><div class = green_square id = ""topsquare"" ></div><img id = ""stim"" ><div class = green_square  id = ""bottomsquare"" ></div>",null,word_square,response,1,Space,false,,,
html-keyboard-response,69,371416,null,"SMART",null,word,,,,,SMART,,
html-keyboard-response,70,371921,null,"SMOOTH<img id = ""stim"" ><div class = green_square id = ""topsquare"" ></div><img id = ""stim"" ><div class = green_square  id = ""bottomsquare"" ></div>",null,word_square,response,1,Space,false,,,
html-keyboard-response,71,373425,null,"SMOOTH",null,word,,,,,SMOOTH,,
html-keyboard-response,72,373931,null,"DISHONEST<img id = ""stim"" ><div class = red_square id = ""topsquare"" ></div><img id = ""stim"" ><div class = red_square  id = ""bottomsquare"" ></div>",null,word_square,response,0,none,true,,,
html-keyboard-response,73,375437,null,"DISHONEST",null,word,,,,,DISHONEST,,
html-keyboard-response,74,375914,475.1549999928102,"WEALTHY<img id = ""stim"" ><div class = green_square id = ""topsquare"" ></div><img id = ""stim"" ><div class = green_square  id = ""bottomsquare"" ></div>",32,word_square,response,1,Space,true,,,
html-keyboard-response,75,377419,null,"WEALTHY",null,word,,,,,WEALTHY,,
html-keyboard-response,76,377924,null,"BEAUTIFUL<img id = ""stim"" ><div class = red_square id = ""topsquare"" ></div><img id = ""stim"" ><div class = red_square  id = ""bottomsquare"" ></div>",null,word_square,response,0,none,true,,,
html-keyboard-response,77,379431,null,"BEAUTIFUL",null,word,,,,,BEAUTIFUL,,
html-keyboard-response,78,379936,null,"DREARY<img id = ""stim"" ><div class = red_square id = ""topsquare"" ></div><img id = ""stim"" ><div class = red_square  id = ""bottomsquare"" ></div>",null,word_square,response,0,none,true,,,
html-keyboard-response,79,381442,null,"DREARY",null,word,,,,,DREARY,,
html-keyboard-response,80,381839,394.05500004068017,"PLAYFUL<img id = ""stim"" ><div class = green_square id = ""topsquare"" ></div><img id = ""stim"" ><div class = green_square  id = ""bottomsquare"" ></div>",32,word_square,response,1,Space,true,,,
html-keyboard-response,81,383346,null,"PLAYFUL",null,word,,,,,PLAYFUL,,
html-keyboard-response,82,389049,5701.5299999620765,"<p> Uh oh. You responded correctly on 78% of the GREEN squares.</p>
                  <p>We need you keep your accuracy above 80%</p>
                  <p>Press any key to begin the math and recall sections. Thank you!</p>",32,,,,,,,,
call-function,83,389050,,"",,,,,,,,,
html-keyboard-response,84,389153,null,"",null,,,,,,,,
math-period,85,397971,16551.400000054855,"",,,,,,,,,2
html-keyboard-response,86,398073,null,"",null,,,,,,,,
math-period,87,401637,6952.2950000246055,"",,,,,,,,,3
html-keyboard-response,88,401742,null,"",null,,,,,,,,
math-period,89,405161,11925.349999975879,"",,,,,,,,,4
html-keyboard-response,90,405266,null,"",null,,,,,,,,
math-period,91,407305,3908.7649999419227,"",,,,,,,,,1
html-keyboard-response,92,407412,null,"",null,,,,,,,,
math-period,93,410341,4734.955000050832,"",,,,,,,,,0
html-keyboard-response,94,410446,null,"",null,,,,,,,,
math-period,95,412209,3218.0600000428967,"",,,,,,,,,3
html-keyboard-response,96,412313,null,"",null,,,,,,,,
math-period,97,413054,null,"",,,,,,,,,
html-keyboard-response,98,414058,null,"Recall Period!",null,,,,,,,,
call-function,99,414059,,"",,,,,,,,,
html-keyboard-response,100,414165,null,"",null,,,,,,,,
recall-period,101,421318,13236.71500000637,"",,,,,,,,, 
html-keyboard-response,102,421422,null,"",null,,,,,,,,
recall-period,103,425247,18024.235000135377,"",,,,,,,,,happy
html-keyboard-response,104,425351,null,"",null,,,,,,,,
recall-period,105,427849,18571.93000020925,"",,,,,,,,,entertaining
html-keyboard-response,106,427955,null,"",null,,,,,,,,
recall-period,107,428986,3227.1099999779835,"",,,,,,,,,loud
html-keyboard-response,108,429089,null,"",null,,,,,,,,
recall-period,109,430616,6397.135000035632,"",,,,,,,,,dreary
html-keyboard-response,110,430722,null,"",null,,,,,,,,
recall-period,111,433753,16424.705000128597,"",,,,,,,,,playful
html-keyboard-response,112,433858,null,"",null,,,,,,,,
recall-period,113,444330,144727.5499998941,"",,,,,,,,,sophisticated
html-keyboard-response,114,444434,null,"",null,,,,,,,,
recall-period,115,449313,29868.73999988893,"",,,,,,,,,smooth
html-keyboard-response,116,449419,null,"",null,,,,,,,,
recall-period,117,455480,31001.75500009209,"",,,,,,,,,scary
html-keyboard-response,118,455583,null,"",null,,,,,,,,
recall-period,119,472184,92600.20499996608,"",,,,,,,,,fun
html-keyboard-response,120,472290,null,"",null,,,,,,,,
recall-period,121,478962,24551.425000012387,"",,,,,,,,,sad
html-keyboard-response,122,479065,null,"",null,,,,,,,,
recall-period,123,489064,null,"",,,,,,,,,
html-keyboard-response,124,489568,null,"Time's Up!",null,,,,,,,,
html-keyboard-response,125,495086,5517.509999976028,"<p>We will now begin the experiment!<p><p>Please try to remember all words from each list.<p><p>Press the spacebar whenever you see a GREEN square.<p><p><p><p>Press the spacebar to begin.</p>",32,,,,,,,,
html-keyboard-response,126,500240,4646.020000043791,"<div style=""font-size:48px;"">Press any key to begin list 1 of 24 </div>",32,,,,,,,,
html-keyboard-response,127,502749,null,"<div style=""font-size:60px;"">+</div>",null,,,,,,,,
html-keyboard-response,128,502914,163.58000005129725,"THRONE<img id = ""stim"" ><div class = red_square id = ""topsquare"" ></div><img id = ""stim"" ><div class = red_square  id = ""bottomsquare"" ></div>",66,word_square,response,0,none,false,,,
html-keyboard-response,129,504421,null,"THRONE",null,word,,,,, 'THRONE',,
html-keyboard-response,130,504926,null,"CATTLE<img id = ""stim"" ><div class = red_square id = ""topsquare"" ></div><img id = ""stim"" ><div class = red_square  id = ""bottomsquare"" ></div>",null,word_square,response,0,none,true,,,
html-keyboard-response,131,506432,null,"CATTLE",null,word,,,,, 'CATTLE',,
html-keyboard-response,132,506937,null,"MOP<img id = ""stim"" ><div class = green_square id = ""topsquare"" ></div><img id = ""stim"" ><div class = green_square  id = ""bottomsquare"" ></div>",null,word_square,response,1,Space,false,,,
html-keyboard-response,133,508444,null,"MOP",null,word,,,,, 'MOP',,
html-keyboard-response,134,508949,null,"OUTFIT<img id = ""stim"" ><div class = red_square id = ""topsquare"" ></div><img id = ""stim"" ><div class = red_square  id = ""bottomsquare"" ></div>",null,word_square,response,0,none,true,,,
html-keyboard-response,135,510455,null,"OUTFIT",null,word,,,,, 'OUTFIT',,
html-keyboard-response,136,510960,null,"KITCHEN<img id = ""stim"" ><div class = green_square id = ""topsquare"" ></div><img id = ""stim"" ><div class = green_square  id = ""bottomsquare"" ></div>",null,word_square,response,1,Space,false,,,
html-keyboard-response,137,512466,null,"KITCHEN",null,word,,,,, 'KITCHEN',,
html-keyboard-response,138,512973,null,"VILLAGE<img id = ""stim"" ><div class = green_square id = ""topsquare"" ></div><img id = ""stim"" ><div class = green_square  id = ""bottomsquare"" ></div>",null,word_square,response,1,Space,false,,,
html-keyboard-response,139,514478,null,"VILLAGE",null,word,,,,, 'VILLAGE',,
html-keyboard-response,140,514979,null,"JOKER<img id = ""stim"" ><div class = red_square id = ""topsquare"" ></div><img id = ""stim"" ><div class = red_square  id = ""bottomsquare"" ></div>",null,word_square,response,0,none,true,,,
html-keyboard-response,141,516484,null,"JOKER",null,word,,,,, 'JOKER',,
html-keyboard-response,142,516985,null,"PRAIRIE<img id = ""stim"" ><div class = red_square id = ""topsquare"" ></div><img id = ""stim"" ><div class = red_square  id = ""bottomsquare"" ></div>",null,word_square,response,0,none,true,,,
html-keyboard-response,143,518489,null,"PRAIRIE",null,word,,,,, 'PRAIRIE',,
html-keyboard-response,144,518885,394.5750000420958,"MARS<img id = ""stim"" ><div class = green_square id = ""topsquare"" ></div><img id = ""stim"" ><div class = green_square  id = ""bottomsquare"" ></div>",32,word_square,response,1,Space,true,,,
html-keyboard-response,145,520390,null,"MARS",null,word,,,,, 'MARS',,
html-keyboard-response,146,520647,255.4799999925308,"GROUND<img id = ""stim"" ><div class = red_square id = ""topsquare"" ></div><img id = ""stim"" ><div class = red_square  id = ""bottomsquare"" ></div>",32,word_square,response,0,none,false,,,
html-keyboard-response,147,522152,null,"GROUND",null,word,,,,, 'GROUND',,
html-keyboard-response,148,522639,486.0050000133924,"BUG<img id = ""stim"" ><div class = green_square id = ""topsquare"" ></div><img id = ""stim"" ><div class = green_square  id = ""bottomsquare"" ></div>",32,word_square,response,1,Space,true,,,
html-keyboard-response,149,524142,null,"BUG",null,word,,,,, 'BUG',,
html-keyboard-response,150,524573,428.95500001031905,"COCOON<img id = ""stim"" ><div class = green_square id = ""topsquare"" ></div><img id = ""stim"" ><div class = green_square  id = ""bottomsquare"" ></div>",32,word_square,response,1,Space,true,,,
html-keyboard-response,151,526076,null,"COCOON",null,word,,,,, 'COCOON',,
html-keyboard-response,152,526583,null,"BUSH<img id = ""stim"" ><div class = green_square id = ""topsquare"" ></div><img id = ""stim"" ><div class = green_square  id = ""bottomsquare"" ></div>",null,word_square,response,1,Space,false,,,
html-keyboard-response,153,528087,null,"BUSH",null,word,,,,, 'BUSH',,
html-keyboard-response,154,528593,null,"WALNUT<img id = ""stim"" ><div class = red_square id = ""topsquare"" ></div><img id = ""stim"" ><div class = red_square  id = ""bottomsquare"" ></div>",null,word_square,response,0,none,true,,,
html-keyboard-response,155,530099,null,"WALNUT",null,word,,,,, 'WALNUT',,
html-keyboard-response,156,530417,315.56499999715015,"TRUCK<img id = ""stim"" ><div class = green_square id = ""topsquare"" ></div><img id = ""stim"" ><div class = green_square  id = ""bottomsquare"" ></div>",32,word_square,response,1,Space,true,,,
html-keyboard-response,157,531922,null,"TRUCK",null,word,,,,, 'TRUCK',,
html-keyboard-response,158,532427,null,"DRIVER<img id = ""stim"" ><div class = red_square id = ""topsquare"" ></div><img id = ""stim"" ><div class = red_square  id = ""bottomsquare"" ></div>",null,word_square,response,0,none,true,,,
html-keyboard-response,159,533933,null,"DRIVER",null,word,,,,, 'DRIVER',,
html-keyboard-response,160,534438,null,"SEASHORE<img id = ""stim"" ><div class = red_square id = ""topsquare"" ></div><img id = ""stim"" ><div class = red_square  id = ""bottomsquare"" ></div>",null,word_square,response,0,none,true,,,
html-keyboard-response,161,535945,null,"SEASHORE",null,word,,,,, 'SEASHORE',,
html-keyboard-response,162,536450,null,"SUBURB<img id = ""stim"" ><div class = green_square id = ""topsquare"" ></div><img id = ""stim"" ><div class = green_square  id = ""bottomsquare"" ></div>",null,word_square,response,1,Space,false,,,
html-keyboard-response,163,537957,null,"SUBURB",null,word,,,,, 'SUBURB',,
call-function,164,537958,,"",,,,,,,,,
html-keyboard-response,165,538064,null,"",null,,,,,,,,
math-period,166,541108,5302.955000079237,"",,,,,,,,,4
html-keyboard-response,167,541212,null,"",null,,,,,,,,
math-period,168,542910,3059.235000051558,"",,,,,,,,,3
html-keyboard-response,169,543015,null,"",null,,,,,,,,
math-period,170,545359,4558.660000038799,"",,,,,,,,,2
html-keyboard-response,171,545463,null,"",null,,,,,,,,
math-period,172,547410,3692.3850000603124,"",,,,,,,,,2
html-keyboard-response,173,547514,null,"",null,,,,,,,,
math-period,174,550233,4198.449999967124,"",,,,,,,,,4
html-keyboard-response,175,550338,null,"",null,,,,,,,,
math-period,176,551975,2980.8900000643916,"",,,,,,,,,3
html-keyboard-response,177,552079,null,"",null,,,,,,,,
math-period,178,553969,3516.070000070613,"",,,,,,,,,5
html-keyboard-response,179,554075,null,"",null,,,,,,,,
math-period,180,555913,3537.9050000337884,"",,,,,,,,,2
html-keyboard-response,181,556018,null,"",null,,,,,,,,
math-period,182,561962,4153.724999981932,"",,,,,,,,,2
html-keyboard-response,183,562967,null,"Recall Period!",null,,,,,,,,
call-function,184,562968,,"",,,,,,,,,
html-keyboard-response,185,563074,null,"",null,,,,,,,,
recall-period,186,566381,18102.5349998381,"",,,,,,,,,coccon
html-keyboard-response,187,566485,null,"",null,,,,,,,,
recall-period,188,567858,3605.78000015812,"",,,,,,,,,bush
html-keyboard-response,189,567963,null,"",null,,,,,,,,
recall-period,190,574461,41482.02999989735,"",,,,,,,,,cattle
html-keyboard-response,191,574568,null,"",null,,,,,,,,
recall-period,192,637974,null,"",,,,,,,,,
html-keyboard-response,193,638478,null,"Time's Up!",null,,,,,,,,
html-keyboard-response,194,644894,6414.82000000542,"<p> Uh oh. You responded correctly on 69% of the GREEN squares.</p>
                  <p>We need you keep your accuracy above 80%</p>
                  <p>Press any key to continue the experiment. Thank you!</p>",78,,,,,,,,
html-keyboard-response,195,646446,1549.5750000118278,"<div style=""font-size:48px;"">Press any key to begin list 2 of 24 </div>",32,,,,,,,,
html-keyboard-response,196,648953,null,"<div style=""font-size:60px;"">+</div>",null,,,,,,,,
html-keyboard-response,197,649459,null,"BUNNY<img id = ""stim"" ><div class = red_square id = ""topsquare"" ></div><img id = ""stim"" ><div class = red_square  id = ""bottomsquare"" ></div>",null,word_square,response,0,none,true,,,
html-keyboard-response,198,650961,null,"BUNNY",null,word,,,,, 'BUNNY',,
html-keyboard-response,199,651467,null,"RAZOR<img id = ""stim"" ><div class = red_square id = ""topsquare"" ></div><img id = ""stim"" ><div class = red_square  id = ""bottomsquare"" ></div>",null,word_square,response,0,none,true,,,
html-keyboard-response,200,652970,null,"RAZOR",null,word,,,,, 'RAZOR',,
html-keyboard-response,201,653476,null,"MAILMAN<img id = ""stim"" ><div class = green_square id = ""topsquare"" ></div><img id = ""stim"" ><div class = green_square  id = ""bottomsquare"" ></div>",null,word_square,response,1,Space,false,,,
html-keyboard-response,202,654977,null,"MAILMAN",null,word,,,,, 'MAILMAN',,
html-keyboard-response,203,655484,null,"HAWK<img id = ""stim"" ><div class = red_square id = ""topsquare"" ></div><img id = ""stim"" ><div class = red_square  id = ""bottomsquare"" ></div>",null,word_square,response,0,none,true,,,
html-keyboard-response,204,656986,null,"HAWK",null,word,,,,, 'HAWK',,
html-keyboard-response,205,657452,464.61000002454966,"WRENCH<img id = ""stim"" ><div class = green_square id = ""topsquare"" ></div><img id = ""stim"" ><div class = green_square  id = ""bottomsquare"" ></div>",32,word_square,response,1,Space,true,,,
html-keyboard-response,206,658956,null,"WRENCH",null,word,,,,, 'WRENCH',,
html-keyboard-response,207,659461,null,"POSTAGE<img id = ""stim"" ><div class = green_square id = ""topsquare"" ></div><img id = ""stim"" ><div class = green_square  id = ""bottomsquare"" ></div>",null,word_square,response,1,Space,false,,,
html-keyboard-response,208,660967,null,"POSTAGE",null,word,,,,, 'POSTAGE',,
html-keyboard-response,209,661473,null,"LOBBY<img id = ""stim"" ><div class = red_square id = ""topsquare"" ></div><img id = ""stim"" ><div class = red_square  id = ""bottomsquare"" ></div>",null,word_square,response,0,none,true,,,
html-keyboard-response,210,662975,null,"LOBBY",null,word,,,,, 'LOBBY',,
html-keyboard-response,211,663482,null,"TEAPOT<img id = ""stim"" ><div class = red_square id = ""topsquare"" ></div><img id = ""stim"" ><div class = red_square  id = ""bottomsquare"" ></div>",null,word_square,response,0,none,true,,,
html-keyboard-response,212,664983,null,"TEAPOT",null,word,,,,, 'TEAPOT',,
html-keyboard-response,213,665435,450.089999998454,"RECORD<img id = ""stim"" ><div class = green_square id = ""topsquare"" ></div><img id = ""stim"" ><div class = green_square  id = ""bottomsquare"" ></div>",32,word_square,response,1,Space,true,,,
html-keyboard-response,214,666940,null,"RECORD",null,word,,,,, 'RECORD',,
html-keyboard-response,215,667445,null,"HERO<img id = ""stim"" ><div class = red_square id = ""topsquare"" ></div><img id = ""stim"" ><div class = red_square  id = ""bottomsquare"" ></div>",null,word_square,response,0,none,true,,,
html-keyboard-response,216,668951,null,"HERO",null,word,,,,, 'HERO',,
html-keyboard-response,217,669418,465.5100000090897,"SANDWICH<img id = ""stim"" ><div class = green_square id = ""topsquare"" ></div><img id = ""stim"" ><div class = green_square  id = ""bottomsquare"" ></div>",32,word_square,response,1,Space,true,,,
html-keyboard-response,218,670922,null,"SANDWICH",null,word,,,,, 'SANDWICH',,
html-keyboard-response,219,671390,464.89000000292435,"FIREMAN<img id = ""stim"" ><div class = green_square id = ""topsquare"" ></div><img id = ""stim"" ><div class = green_square  id = ""bottomsquare"" ></div>",32,word_square,response,1,Space,true,,,
html-keyboard-response,220,672896,null,"FIREMAN",null,word,,,,, 'FIREMAN',,
html-keyboard-response,221,673402,null,"DRILL<img id = ""stim"" ><div class = green_square id = ""topsquare"" ></div><img id = ""stim"" ><div class = green_square  id = ""bottomsquare"" ></div>",null,word_square,response,1,Space,false,,,
html-keyboard-response,222,674907,null,"DRILL",null,word,,,,, 'DRILL',,
html-keyboard-response,223,675413,null,"DOG<img id = ""stim"" ><div class = red_square id = ""topsquare"" ></div><img id = ""stim"" ><div class = red_square  id = ""bottomsquare"" ></div>",null,word_square,response,0,none,true,,,
html-keyboard-response,224,676919,null,"DOG",null,word,,,,, 'DOG',,
html-keyboard-response,225,677424,null,"BELT<img id = ""stim"" ><div class = green_square id = ""topsquare"" ></div><img id = ""stim"" ><div class = green_square  id = ""bottomsquare"" ></div>",null,word_square,response,1,Space,false,,,
html-keyboard-response,226,678930,null,"BELT",null,word,,,,, 'BELT',,
html-keyboard-response,227,679435,null,"GUITAR<img id = ""stim"" ><div class = red_square id = ""topsquare"" ></div><img id = ""stim"" ><div class = red_square  id = ""bottomsquare"" ></div>",null,word_square,response,0,none,true,,,
html-keyboard-response,228,680938,null,"GUITAR",null,word,,,,, 'GUITAR',,
html-keyboard-response,229,681444,null,"PIZZA<img id = ""stim"" ><div class = red_square id = ""topsquare"" ></div><img id = ""stim"" ><div class = red_square  id = ""bottomsquare"" ></div>",null,word_square,response,0,none,true,,,
html-keyboard-response,230,682950,null,"PIZZA",null,word,,,,, 'PIZZA',,
html-keyboard-response,231,683457,null,"BEEF<img id = ""stim"" ><div class = green_square id = ""topsquare"" ></div><img id = ""stim"" ><div class = green_square  id = ""bottomsquare"" ></div>",null,word_square,response,1,Space,false,,,
html-keyboard-response,232,684962,null,"BEEF",null,word,,,,, 'BEEF',,
call-function,233,684963,,"",,,,,,,,,
html-keyboard-response,234,685069,null,"",null,,,,,,,,
math-period,235,689803,9212.684999976773,"",,,,,,,,,2
html-keyboard-response,236,689907,null,"",null,,,,,,,,
math-period,237,691369,2797.2000000299886,"",,,,,,,,,5
html-keyboard-response,238,691475,null,"",null,,,,,,,,
math-period,239,693480,3823.51999997627,"",,,,,,,,,5
html-keyboard-response,240,693585,null,"",null,,,,,,,,
math-period,241,695332,3355.970000033267,"",,,,,,,,,1
html-keyboard-response,242,695437,null,"",null,,,,,,,,
math-period,243,696875,2690.0799999712035,"",,,,,,,,,5
html-keyboard-response,244,696977,null,"",null,,,,,,,,
math-period,245,698413,2643.484999949578,"",,,,,,,,,5
html-keyboard-response,246,698519,null,"",null,,,,,,,,
math-period,247,699706,2212.999999988824,"",,,,,,,,,3
html-keyboard-response,248,699810,null,"",null,,,,,,,,
math-period,249,701246,2709.7999999532476,"",,,,,,,,,1
html-keyboard-response,250,701352,null,"",null,,,,,,,,
math-period,251,703005,3186.905000009574,"",,,,,,,,,2
html-keyboard-response,252,703111,null,"",null,,,,,,,,
math-period,253,705254,4154.630000004545,"",,,,,,,,,5
html-keyboard-response,254,705358,null,"",null,,,,,,,,
math-period,255,707147,3403.98499998264,"",,,,,,,,,3
html-keyboard-response,256,707253,null,"",null,,,,,,,,
math-period,257,708969,1638.4499999694526,"",,,,,,,,,4
html-keyboard-response,258,709975,null,"Recall Period!",null,,,,,,,,
call-function,259,709976,,"",,,,,,,,,
html-keyboard-response,260,710083,null,"",null,,,,,,,,
recall-period,261,717649,53675.61000020942,"",,,,,,,,,mailman
html-keyboard-response,262,717754,null,"",null,,,,,,,,
recall-period,263,719292,5335.330000089016,"",,,,,,,,,hawk
html-keyboard-response,264,719397,null,"",null,,,,,,,,
recall-period,265,722849,20906.499999866355,"",,,,,,,,,postage
html-keyboard-response,266,722952,null,"",null,,,,,,,,
recall-period,267,726093,18558.105000003707,"",,,,,,,,,teapot
html-keyboard-response,268,726197,null,"",null,,,,,,,,
recall-period,269,728713,10887.5649998663,"",,,,,,,,,hero
html-keyboard-response,270,728818,null,"",null,,,,,,,,
recall-period,271,731080,8926.805000170134,"",,,,,,,,,record 
html-keyboard-response,272,731184,null,"",null,,,,,,,,
recall-period,273,737397,33155.749999859836,"",,,,,,,,,drill
html-keyboard-response,274,737502,null,"",null,,,,,,,,
recall-period,275,739646,10235.749999934342,"",,,,,,,,,bunny
html-keyboard-response,276,739752,null,"",null,,,,,,,,
recall-period,277,740890,3573.79499997478,"",,,,,,,,,dog 
html-keyboard-response,278,740991,null,"",null,,,,,,,,
recall-period,279,744722,21424.510000040755,"",,,,,,,,,pizza
html-keyboard-response,280,744829,null,"",null,,,,,,,,
recall-period,281,784977,null,"",,,,,,,,,
html-keyboard-response,282,785479,null,"Time's Up!",null,,,,,,,,
html-keyboard-response,283,790430,4949.620000028517,"<p> Uh oh. You responded correctly on 70% of the GREEN squares.</p>
                  <p>We need you keep your accuracy above 80%</p>
                  <p>Press any key to continue the experiment. Thank you!</p>",32,,,,,,,,
html-keyboard-response,284,791132,700.9700000053272,"<div style=""font-size:48px;"">Press any key to begin list 3 of 24 </div>",32,,,,,,,,
html-keyboard-response,285,793642,null,"<div style=""font-size:60px;"">+</div>",null,,,,,,,,
html-keyboard-response,286,794147,null,"PORPOISE<img id = ""stim"" ><div class = green_square id = ""topsquare"" ></div><img id = ""stim"" ><div class = green_square  id = ""bottomsquare"" ></div>",null,word_square,response,1,Space,false,,,
html-keyboard-response,287,795654,null,"PORPOISE",null,word,,,,, 'PORPOISE',,
html-keyboard-response,288,796161,null,"NIGHTGOWN<img id = ""stim"" ><div class = green_square id = ""topsquare"" ></div><img id = ""stim"" ><div class = green_square  id = ""bottomsquare"" ></div>",null,word_square,response,1,Space,false,,,
html-keyboard-response,289,797663,null,"NIGHTGOWN",null,word,,,,, 'NIGHTGOWN',,
html-keyboard-response,290,798166,null,"MATTRESS<img id = ""stim"" ><div class = red_square id = ""topsquare"" ></div><img id = ""stim"" ><div class = red_square  id = ""bottomsquare"" ></div>",null,word_square,response,0,none,true,,,
html-keyboard-response,291,799671,null,"MATTRESS",null,word,,,,, 'MATTRESS',,
html-keyboard-response,292,800176,null,"ANKLE<img id = ""stim"" ><div class = green_square id = ""topsquare"" ></div><img id = ""stim"" ><div class = green_square  id = ""bottomsquare"" ></div>",null,word_square,response,1,Space,false,,,
html-keyboard-response,293,801680,null,"ANKLE",null,word,,,,, 'ANKLE',,
html-keyboard-response,294,802185,null,"COUGAR<img id = ""stim"" ><div class = red_square id = ""topsquare"" ></div><img id = ""stim"" ><div class = red_square  id = ""bottomsquare"" ></div>",null,word_square,response,0,none,true,,,
html-keyboard-response,295,803691,null,"COUGAR",null,word,,,,, 'COUGAR',,
html-keyboard-response,296,804196,null,"ATHLETE<img id = ""stim"" ><div class = red_square id = ""topsquare"" ></div><img id = ""stim"" ><div class = red_square  id = ""bottomsquare"" ></div>",null,word_square,response,0,none,true,,,
html-keyboard-response,297,805700,null,"ATHLETE",null,word,,,,, 'ATHLETE',,
html-keyboard-response,298,806205,null,"FINGER<img id = ""stim"" ><div class = green_square id = ""topsquare"" ></div><img id = ""stim"" ><div class = green_square  id = ""bottomsquare"" ></div>",null,word_square,response,1,Space,false,,,
html-keyboard-response,299,807709,null,"FINGER",null,word,,,,, 'FINGER',,
html-keyboard-response,300,808190,479.59000000264496,"COFFIN<img id = ""stim"" ><div class = green_square id = ""topsquare"" ></div><img id = ""stim"" ><div class = green_square  id = ""bottomsquare"" ></div>",32,word_square,response,1,Space,true,,,
html-keyboard-response,301,809695,null,"COFFIN",null,word,,,,, 'COFFIN',,
html-keyboard-response,302,810201,null,"LIZARD<img id = ""stim"" ><div class = red_square id = ""topsquare"" ></div><img id = ""stim"" ><div class = red_square  id = ""bottomsquare"" ></div>",null,word_square,response,0,none,true,,,
html-keyboard-response,303,811706,null,"LIZARD",null,word,,,,, 'LIZARD',,
html-keyboard-response,304,812212,null,"DOUGHNUT<img id = ""stim"" ><div class = green_square id = ""topsquare"" ></div><img id = ""stim"" ><div class = green_square  id = ""bottomsquare"" ></div>",null,word_square,response,1,Space,false,,,
html-keyboard-response,305,813716,null,"DOUGHNUT",null,word,,,,, 'DOUGHNUT',,
html-keyboard-response,306,814218,null,"CAPE<img id = ""stim"" ><div class = red_square id = ""topsquare"" ></div><img id = ""stim"" ><div class = red_square  id = ""bottomsquare"" ></div>",null,word_square,response,0,none,true,,,
html-keyboard-response,307,815725,null,"CAPE",null,word,,,,, 'CAPE',,
html-keyboard-response,308,816227,null,"LACE<img id = ""stim"" ><div class = red_square id = ""topsquare"" ></div><img id = ""stim"" ><div class = red_square  id = ""bottomsquare"" ></div>",null,word_square,response,0,none,true,,,
html-keyboard-response,309,817733,null,"LACE",null,word,,,,, 'LACE',,
html-keyboard-response,310,818236,null,"SILK<img id = ""stim"" ><div class = red_square id = ""topsquare"" ></div><img id = ""stim"" ><div class = red_square  id = ""bottomsquare"" ></div>",null,word_square,response,0,none,true,,,
html-keyboard-response,311,819741,null,"SILK",null,word,,,,, 'SILK',,
html-keyboard-response,312,820244,null,"FIGHTER<img id = ""stim"" ><div class = green_square id = ""topsquare"" ></div><img id = ""stim"" ><div class = green_square  id = ""bottomsquare"" ></div>",null,word_square,response,1,Space,false,,,
html-keyboard-response,313,821751,null,"FIGHTER",null,word,,,,, 'FIGHTER',,
html-keyboard-response,314,822256,null,"DRUG<img id = ""stim"" ><div class = red_square id = ""topsquare"" ></div><img id = ""stim"" ><div class = red_square  id = ""bottomsquare"" ></div>",null,word_square,response,0,none,true,,,
html-keyboard-response,315,823762,null,"DRUG",null,word,,,,, 'DRUG',,
html-keyboard-response,316,824267,null,"SLIME<img id = ""stim"" ><div class = green_square id = ""topsquare"" ></div><img id = ""stim"" ><div class = green_square  id = ""bottomsquare"" ></div>",null,word_square,response,1,Space,false,,,
html-keyboard-response,317,825770,null,"SLIME",null,word,,,,, 'SLIME',,
html-keyboard-response,318,826261,489.23499998636544,"XEROX<img id = ""stim"" ><div class = green_square id = ""topsquare"" ></div><img id = ""stim"" ><div class = green_square  id = ""bottomsquare"" ></div>",32,word_square,response,1,Space,true,,,
html-keyboard-response,319,827764,null,"XEROX",null,word,,,,, 'XEROX',,
html-keyboard-response,320,828269,null,"SCHOOL<img id = ""stim"" ><div class = red_square id = ""topsquare"" ></div><img id = ""stim"" ><div class = red_square  id = ""bottomsquare"" ></div>",null,word_square,response,0,none,true,,,
html-keyboard-response,321,829773,null,"SCHOOL",null,word,,,,, 'SCHOOL',,
call-function,322,829774,,"",,,,,,,,,
html-keyboard-response,323,829880,null,"",null,,,,,,,,
math-period,324,832888,5875.5899999523535,"",,,,,,,,,2
html-keyboard-response,325,832992,null,"",null,,,,,,,,
math-period,326,836291,6389.985000016168,"",,,,,,,,,4
html-keyboard-response,327,836397,null,"",null,,,,,,,,
math-period,328,837760,2594.394999963697,"",,,,,,,,,4
html-keyboard-response,329,837865,null,"",null,,,,,,,,
math-period,330,839256,2596.7699999455363,"",,,,,,,,,5
html-keyboard-response,331,839360,null,"",null,,,,,,,,
math-period,332,840512,2149.005000013858,"",,,,,,,,,3
html-keyboard-response,333,840616,null,"",null,,,,,,,,
math-period,334,841981,2519.100000092294,"",,,,,,,,,4
html-keyboard-response,335,842085,null,"",null,,,,,,,,
math-period,336,843259,2260.9750000410713,"",,,,,,,,,5
html-keyboard-response,337,843361,null,"",null,,,,,,,,
math-period,338,844818,2769.250000070315,"",,,,,,,,,4
html-keyboard-response,339,844924,null,"",null,,,,,,,,
math-period,340,845907,1846.1850000312552,"",,,,,,,,,4
html-keyboard-response,341,846012,null,"",null,,,,,,,,
math-period,342,847128,2149.1850001038983,"",,,,,,,,,5
html-keyboard-response,343,847234,null,"",null,,,,,,,,
math-period,344,848723,2807.680000027176,"",,,,,,,,,1
html-keyboard-response,345,848828,null,"",null,,,,,,,,
math-period,346,850146,2503.1450000824407,"",,,,,,,,,5
html-keyboard-response,347,850250,null,"",null,,,,,,,,
math-period,348,851567,2483.3299999590963,"",,,,,,,,,4
html-keyboard-response,349,851673,null,"",null,,,,,,,,
math-period,350,853377,3266.285000019707,"",,,,,,,,,2
html-keyboard-response,351,853483,null,"",null,,,,,,,,
math-period,352,853777,null,"",,,,,,,,,
html-keyboard-response,353,854780,null,"Recall Period!",null,,,,,,,,
call-function,354,854781,,"",,,,,,,,,
html-keyboard-response,355,854885,null,"",null,,,,,,,,
recall-period,356,862826,44648.65499996813,"",,,,,,,,,slime
html-keyboard-response,357,862929,null,"",null,,,,,,,,
recall-period,358,865725,8638.619999866933,"",,,,,,,,,xerox
html-keyboard-response,359,865831,null,"",null,,,,,,,,
recall-period,360,869804,23625.49499992747,"",,,,,,,,,school
html-keyboard-response,361,869909,null,"",null,,,,,,,,
recall-period,362,874862,29858.45999995945,"",,,,,,,,,lizard
html-keyboard-response,363,874968,null,"",null,,,,,,,,
recall-period,364,878491,15249.840000120457,"",,,,,,,,,cape
html-keyboard-response,365,878595,null,"",null,,,,,,,,
recall-period,366,882938,30421.250000188593,"",,,,,,,,,fighter
html-keyboard-response,367,883042,null,"",null,,,,,,,,
recall-period,368,887034,18186.125000123866,"",,,,,,,,,drug
html-keyboard-response,369,887137,null,"",null,,,,,,,,
recall-period,370,893600,35044.9699999881,"",,,,,,,,,ankle
html-keyboard-response,371,893706,null,"",null,,,,,,,,
recall-period,372,897161,23234.120000037365,"",,,,,,,,,mattress
html-keyboard-response,373,897262,null,"",null,,,,,,,,
recall-period,374,929784,null,"",,,,,,,,,
html-keyboard-response,375,930289,null,"Time's Up!",null,,,,,,,,
html-keyboard-response,376,934536,4244.899999990594,"<p> Uh oh. You responded correctly on 68% of the GREEN squares.</p>
                  <p>We need you keep your accuracy above 80%</p>
                  <p>Press any key to continue the experiment. Thank you!</p>",32,,,,,,,,
html-keyboard-response,377,935543,1005.9999999939464,"<div style=""font-size:48px;"">Press any key to begin list 4 of 24 </div>",32,,,,,,,,
html-keyboard-response,378,938050,null,"<div style=""font-size:60px;"">+</div>",null,,,,,,,,
html-keyboard-response,379,938556,null,"PLAID<img id = ""stim"" ><div class = green_square id = ""topsquare"" ></div><img id = ""stim"" ><div class = green_square  id = ""bottomsquare"" ></div>",null,word_square,response,1,Space,false,,,
html-keyboard-response,380,940059,null,"PLAID",null,word,,,,, 'PLAID',,
html-keyboard-response,381,940564,null,"PORTRAIT<img id = ""stim"" ><div class = green_square id = ""topsquare"" ></div><img id = ""stim"" ><div class = green_square  id = ""bottomsquare"" ></div>",null,word_square,response,1,Space,false,,,
html-keyboard-response,382,942068,null,"PORTRAIT",null,word,,,,, 'PORTRAIT',,
html-keyboard-response,383,942572,null,"DRAWING<img id = ""stim"" ><div class = red_square id = ""topsquare"" ></div><img id = ""stim"" ><div class = red_square  id = ""bottomsquare"" ></div>",null,word_square,response,0,none,true,,,
html-keyboard-response,384,944079,null,"DRAWING",null,word,,,,, 'DRAWING',,
html-keyboard-response,385,944584,null,"GERM<img id = ""stim"" ><div class = green_square id = ""topsquare"" ></div><img id = ""stim"" ><div class = green_square  id = ""bottomsquare"" ></div>",null,word_square,response,1,Space,false,,,
html-keyboard-response,386,946088,null,"GERM",null,word,,,,, 'GERM',,
html-keyboard-response,387,946592,null,"BUCKLE<img id = ""stim"" ><div class = red_square id = ""topsquare"" ></div><img id = ""stim"" ><div class = red_square  id = ""bottomsquare"" ></div>",null,word_square,response,0,none,true,,,
html-keyboard-response,388,948096,null,"BUCKLE",null,word,,,,, 'BUCKLE',,
html-keyboard-response,389,948601,null,"YACHT<img id = ""stim"" ><div class = red_square id = ""topsquare"" ></div><img id = ""stim"" ><div class = red_square  id = ""bottomsquare"" ></div>",null,word_square,response,0,none,true,,,
html-keyboard-response,390,950107,null,"YACHT",null,word,,,,, 'YACHT',,
html-keyboard-response,391,950608,499.2050000000745,"MARINE<img id = ""stim"" ><div class = green_square id = ""topsquare"" ></div><img id = ""stim"" ><div class = green_square  id = ""bottomsquare"" ></div>",32,word_square,response,1,Space,true,,,
html-keyboard-response,392,952113,null,"MARINE",null,word,,,,, 'MARINE',,
html-keyboard-response,393,952617,null,"CABLE<img id = ""stim"" ><div class = green_square id = ""topsquare"" ></div><img id = ""stim"" ><div class = green_square  id = ""bottomsquare"" ></div>",null,word_square,response,1,Space,false,,,
html-keyboard-response,394,954122,null,"CABLE",null,word,,,,, 'CABLE',,
html-keyboard-response,395,954627,null,"VICTOR<img id = ""stim"" ><div class = red_square id = ""topsquare"" ></div><img id = ""stim"" ><div class = red_square  id = ""bottomsquare"" ></div>",null,word_square,response,0,none,true,,,
html-keyboard-response,396,956130,null,"VICTOR",null,word,,,,, 'VICTOR',,
html-keyboard-response,397,956637,null,"LUNCH<img id = ""stim"" ><div class = green_square id = ""topsquare"" ></div><img id = ""stim"" ><div class = green_square  id = ""bottomsquare"" ></div>",null,word_square,response,1,Space,false,,,
html-keyboard-response,398,958139,null,"LUNCH",null,word,,,,, 'LUNCH',,
html-keyboard-response,399,958644,null,"PACKAGE<img id = ""stim"" ><div class = red_square id = ""topsquare"" ></div><img id = ""stim"" ><div class = red_square  id = ""bottomsquare"" ></div>",null,word_square,response,0,none,true,,,
html-keyboard-response,400,960150,null,"PACKAGE",null,word,,,,, 'PACKAGE',,
html-keyboard-response,401,960656,null,"SWORD<img id = ""stim"" ><div class = red_square id = ""topsquare"" ></div><img id = ""stim"" ><div class = red_square  id = ""bottomsquare"" ></div>",null,word_square,response,0,none,true,,,
html-keyboard-response,402,962159,null,"SWORD",null,word,,,,, 'SWORD',,
html-keyboard-response,403,962664,null,"COIN<img id = ""stim"" ><div class = red_square id = ""topsquare"" ></div><img id = ""stim"" ><div class = red_square  id = ""bottomsquare"" ></div>",null,word_square,response,0,none,true,,,
html-keyboard-response,404,964169,null,"COIN",null,word,,,,, 'COIN',,
html-keyboard-response,405,964675,null,"NEPHEW<img id = ""stim"" ><div class = green_square id = ""topsquare"" ></div><img id = ""stim"" ><div class = green_square  id = ""bottomsquare"" ></div>",null,word_square,response,1,Space,false,,,
html-keyboard-response,406,966178,null,"NEPHEW",null,word,,,,, 'NEPHEW',,
html-keyboard-response,407,966683,null,"ZIPPER<img id = ""stim"" ><div class = red_square id = ""topsquare"" ></div><img id = ""stim"" ><div class = red_square  id = ""bottomsquare"" ></div>",null,word_square,response,0,none,true,,,
html-keyboard-response,408,968188,null,"ZIPPER",null,word,,,,, 'ZIPPER',,
html-keyboard-response,409,968692,null,"DECK<img id = ""stim"" ><div class = green_square id = ""topsquare"" ></div><img id = ""stim"" ><div class = green_square  id = ""bottomsquare"" ></div>",null,word_square,response,1,Space,false,,,
html-keyboard-response,410,970195,null,"DECK",null,word,,,,, 'DECK',,
html-keyboard-response,411,970700,null,"PADDLE<img id = ""stim"" ><div class = green_square id = ""topsquare"" ></div><img id = ""stim"" ><div class = green_square  id = ""bottomsquare"" ></div>",null,word_square,response,1,Space,false,,,
html-keyboard-response,412,972204,null,"PADDLE",null,word,,,,, 'PADDLE',,
html-keyboard-response,413,972709,null,"BLADE<img id = ""stim"" ><div class = red_square id = ""topsquare"" ></div><img id = ""stim"" ><div class = red_square  id = ""bottomsquare"" ></div>",null,word_square,response,0,none,true,,,
html-keyboard-response,414,974214,null,"BLADE",null,word,,,,, 'BLADE',,
call-function,415,974215,,"",,,,,,,,,
html-keyboard-response,416,974320,null,"",null,,,,,,,,
math-period,417,978064,6933.030000014696,"",,,,,,,,,2
html-keyboard-response,418,978168,null,"",null,,,,,,,,
math-period,419,981035,5586.735000077169,"",,,,,,,,,1
html-keyboard-response,420,981141,null,"",null,,,,,,,,
math-period,421,982285,2108.639999991283,"",,,,,,,,,2
html-keyboard-response,422,982392,null,"",null,,,,,,,,
math-period,423,983796,2588.255000009667,"",,,,,,,,,5
html-keyboard-response,424,983901,null,"",null,,,,,,,,
math-period,425,985431,2913.8749999692664,"",,,,,,,,,4
html-keyboard-response,426,985535,null,"",null,,,,,,,,
math-period,427,986582,1962.1299999998882,"",,,,,,,,,3
html-keyboard-response,428,986688,null,"",null,,,,,,,,
math-period,429,988119,2511.4850000245497,"",,,,,,,,,4
html-keyboard-response,430,988222,null,"",null,,,,,,,,
math-period,431,989732,2882.824999978766,"",,,,,,,,,2
html-keyboard-response,432,989837,null,"",null,,,,,,,,
math-period,433,991028,2229.094999958761,"",,,,,,,,,4
html-keyboard-response,434,991133,null,"",null,,,,,,,,
math-period,435,992426,2433.6000000475906,"",,,,,,,,,3
html-keyboard-response,436,992532,null,"",null,,,,,,,,
math-period,437,994885,3612.4350000172853,"",,,,,,,,,5
html-keyboard-response,438,994988,null,"",null,,,,,,,,
math-period,439,996749,3319.2049999488518,"",,,,,,,,,1
html-keyboard-response,440,996855,null,"",null,,,,,,,,
math-period,441,998219,null,"",,,,,,,,,
html-keyboard-response,442,999224,null,"Recall Period!",null,,,,,,,,
call-function,443,999225,,"",,,,,,,,,
html-keyboard-response,444,999330,null,"",null,,,,,,,,
recall-period,445,1006594,33809.90999995265,"",,,,,,,,,germ
html-keyboard-response,446,1006697,null,"",null,,,,,,,,
recall-period,447,1008326,7656.665000016801,"",,,,,,,,,buckle
html-keyboard-response,448,1008428,null,"",null,,,,,,,,
recall-period,449,1011784,16765.955000184476,"",,,,,,,,,yacht
html-keyboard-response,450,1011890,null,"",null,,,,,,,,
recall-period,451,1020010,63290.7249997952,"",,,,,,,,,package 
html-keyboard-response,452,1020115,null,"",null,,,,,,,,
recall-period,453,1022989,16670.53499975009,"",,,,,,,,,neohew
html-keyboard-response,454,1023094,null,"",null,,,,,,,,
recall-period,455,1027326,35162.18999988632,"",,,,,,,,,zipper
html-keyboard-response,456,1027433,null,"",null,,,,,,,,
recall-period,457,1030695,17351.144999964163,"",,,,,,,,,blade
html-keyboard-response,458,1030801,null,"",null,,,,,,,,
recall-period,459,1074230,null,"",,,,,,,,,
html-keyboard-response,460,1074735,null,"Time's Up!",null,,,,,,,,
html-keyboard-response,461,1076756,2019.9300000094809,"<p> Uh oh. You responded correctly on 66% of the GREEN squares.</p>
                  <p>We need you keep your accuracy above 80%</p>
                  <p>Press any key to continue the experiment. Thank you!</p>",78,,,,,,,,
html-keyboard-response,462,1077806,1047.7099999552593,"<div style=""font-size:48px;"">Press any key to begin list 5 of 24 </div>",32,,,,,,,,
html-keyboard-response,463,1080313,null,"<div style=""font-size:60px;"">+</div>",null,,,,,,,,
html-keyboard-response,464,1080818,null,"LAMP<img id = ""stim"" ><div class = red_square id = ""topsquare"" ></div><img id = ""stim"" ><div class = red_square  id = ""bottomsquare"" ></div>",null,word_square,response,0,none,true,,,
html-keyboard-response,465,1082322,null,"LAMP",null,word,,,,, 'LAMP',,
html-keyboard-response,466,1082827,null,"FLASHLIGHT<img id = ""stim"" ><div class = red_square id = ""topsquare"" ></div><img id = ""stim"" ><div class = red_square  id = ""bottomsquare"" ></div>",null,word_square,response,0,none,true,,,
html-keyboard-response,467,1084330,null,"FLASHLIGHT",null,word,,,,, 'FLASHLIGHT',,
html-keyboard-response,468,1084835,null,"VELVET<img id = ""stim"" ><div class = green_square id = ""topsquare"" ></div><img id = ""stim"" ><div class = green_square  id = ""bottomsquare"" ></div>",null,word_square,response,1,Space,false,,,
html-keyboard-response,469,1086339,null,"VELVET",null,word,,,,, 'VELVET',,
html-keyboard-response,470,1086844,null,"UMPIRE<img id = ""stim"" ><div class = red_square id = ""topsquare"" ></div><img id = ""stim"" ><div class = red_square  id = ""bottomsquare"" ></div>",null,word_square,response,0,none,true,,,
html-keyboard-response,471,1088348,null,"UMPIRE",null,word,,,,, 'UMPIRE',,
html-keyboard-response,472,1088838,489.28999999770895,"GARDEN<img id = ""stim"" ><div class = green_square id = ""topsquare"" ></div><img id = ""stim"" ><div class = green_square  id = ""bottomsquare"" ></div>",32,word_square,response,1,Space,true,,,
html-keyboard-response,473,1090344,null,"GARDEN",null,word,,,,, 'GARDEN',,
html-keyboard-response,474,1090850,null,"SHOVEL<img id = ""stim"" ><div class = red_square id = ""topsquare"" ></div><img id = ""stim"" ><div class = red_square  id = ""bottomsquare"" ></div>",null,word_square,response,0,none,true,,,
html-keyboard-response,475,1092356,null,"SHOVEL",null,word,,,,, 'SHOVEL',,
html-keyboard-response,476,1092825,468.2250000187196,"BRANCH<img id = ""stim"" ><div class = green_square id = ""topsquare"" ></div><img id = ""stim"" ><div class = green_square  id = ""bottomsquare"" ></div>",32,word_square,response,1,Space,true,,,
html-keyboard-response,477,1094332,null,"BRANCH",null,word,,,,, 'BRANCH',,
html-keyboard-response,478,1094838,null,"KIDNEY<img id = ""stim"" ><div class = green_square id = ""topsquare"" ></div><img id = ""stim"" ><div class = green_square  id = ""bottomsquare"" ></div>",null,word_square,response,1,Space,false,,,
html-keyboard-response,479,1096344,null,"KIDNEY",null,word,,,,, 'KIDNEY',,
html-keyboard-response,480,1096849,null,"SHEARS<img id = ""stim"" ><div class = green_square id = ""topsquare"" ></div><img id = ""stim"" ><div class = green_square  id = ""bottomsquare"" ></div>",null,word_square,response,1,Space,false,,,
html-keyboard-response,481,1098355,null,"SHEARS",null,word,,,,, 'SHEARS',,
html-keyboard-response,482,1098860,null,"FOOTBALL<img id = ""stim"" ><div class = red_square id = ""topsquare"" ></div><img id = ""stim"" ><div class = red_square  id = ""bottomsquare"" ></div>",null,word_square,response,0,none,true,,,
html-keyboard-response,483,1100367,null,"FOOTBALL",null,word,,,,, 'FOOTBALL',,
html-keyboard-response,484,1100832,463.8750000158325,"CORAL<img id = ""stim"" ><div class = green_square id = ""topsquare"" ></div><img id = ""stim"" ><div class = green_square  id = ""bottomsquare"" ></div>",32,word_square,response,1,Space,true,,,
html-keyboard-response,485,1102338,null,"CORAL",null,word,,,,, 'CORAL',,
html-keyboard-response,486,1102843,null,"JOINT<img id = ""stim"" ><div class = red_square id = ""topsquare"" ></div><img id = ""stim"" ><div class = red_square  id = ""bottomsquare"" ></div>",null,word_square,response,0,none,true,,,
html-keyboard-response,487,1104349,null,"JOINT",null,word,,,,, 'JOINT',,
html-keyboard-response,488,1104854,null,"CHURCH<img id = ""stim"" ><div class = red_square id = ""topsquare"" ></div><img id = ""stim"" ><div class = red_square  id = ""bottomsquare"" ></div>",null,word_square,response,0,none,true,,,
html-keyboard-response,489,1106360,null,"CHURCH",null,word,,,,, 'CHURCH',,
html-keyboard-response,490,1106865,null,"CUSTARD<img id = ""stim"" ><div class = green_square id = ""topsquare"" ></div><img id = ""stim"" ><div class = green_square  id = ""bottomsquare"" ></div>",null,word_square,response,1,Space,false,,,
html-keyboard-response,491,1108372,null,"CUSTARD",null,word,,,,, 'CUSTARD',,
html-keyboard-response,492,1108877,null,"FEATHER<img id = ""stim"" ><div class = green_square id = ""topsquare"" ></div><img id = ""stim"" ><div class = green_square  id = ""bottomsquare"" ></div>",null,word_square,response,1,Space,false,,,
html-keyboard-response,493,1110383,null,"FEATHER",null,word,,,,, 'FEATHER',,
html-keyboard-response,494,1110888,null,"HEDGE<img id = ""stim"" ><div class = red_square id = ""topsquare"" ></div><img id = ""stim"" ><div class = red_square  id = ""bottomsquare"" ></div>",null,word_square,response,0,none,true,,,
html-keyboard-response,495,1112395,null,"HEDGE",null,word,,,,, 'HEDGE',,
html-keyboard-response,496,1112899,null,"LIST<img id = ""stim"" ><div class = red_square id = ""topsquare"" ></div><img id = ""stim"" ><div class = red_square  id = ""bottomsquare"" ></div>",null,word_square,response,0,none,true,,,
html-keyboard-response,497,1114405,null,"LIST",null,word,,,,, 'LIST',,
html-keyboard-response,498,1114911,null,"YARN<img id = ""stim"" ><div class = green_square id = ""topsquare"" ></div><img id = ""stim"" ><div class = green_square  id = ""bottomsquare"" ></div>",null,word_square,response,1,Space,false,,,
html-keyboard-response,499,1116417,null,"YARN",null,word,,,,, 'YARN',,
call-function,500,1116419,,"",,,,,,,,,
html-keyboard-response,501,1116525,null,"",null,,,,,,,,
math-period,502,1120374,7458.440000016708,"",,,,,,,,,2
html-keyboard-response,503,1120478,null,"",null,,,,,,,,
math-period,504,1123036,4909.1950000147335,"",,,,,,,,,5
html-keyboard-response,505,1123141,null,"",null,,,,,,,,
math-period,506,1125274,4060.4300000704825,"",,,,,,,,,0
html-keyboard-response,507,1125380,null,"",null,,,,,,,,
math-period,508,1127525,4131.49500003783,"",,,,,,,,,2
html-keyboard-response,509,1127630,null,"",null,,,,,,,,
math-period,510,1129021,2558.4300000336953,"",,,,,,,,,3
html-keyboard-response,511,1129127,null,"",null,,,,,,,,
math-period,512,1132095,5688.259999966249,"",,,,,,,,,3
html-keyboard-response,513,1132201,null,"",null,,,,,,,,
math-period,514,1133912,3277.654999983497,"",,,,,,,,,5
html-keyboard-response,515,1134017,null,"",null,,,,,,,,
math-period,516,1135680,3206.000000005588,"",,,,,,,,,3
html-keyboard-response,517,1135786,null,"",null,,,,,,,,
math-period,518,1136961,2165.5850000679493,"",,,,,,,,,3
html-keyboard-response,519,1137066,null,"",null,,,,,,,,
math-period,520,1138557,2707.2900000493973,"",,,,,,,,,2
html-keyboard-response,521,1138662,null,"",null,,,,,,,,
math-period,522,1140424,null,"",,,,,,,,,
html-keyboard-response,523,1141428,null,"Recall Period!",null,,,,,,,,
call-function,524,1141429,,"",,,,,,,,,
html-keyboard-response,525,1141535,null,"",null,,,,,,,,
recall-period,526,1149838,53878.1400002772,"",,,,,,,,,velvet
html-keyboard-response,527,1149944,null,"",null,,,,,,,,
recall-period,528,1152205,13291.345000325236,"",,,,,,,,,flashlight
html-keyboard-response,529,1152310,null,"",null,,,,,,,,
recall-period,530,1155315,17182.759999937844,"",,,,,,,,,shovel
html-keyboard-response,531,1155421,null,"",null,,,,,,,,
recall-period,532,1158800,19550.669999909587,"",,,,,,,,,kidney
html-keyboard-response,533,1158904,null,"",null,,,,,,,,
recall-period,534,1161500,12073.280000011437,"",,,,,,,,,branch
html-keyboard-response,535,1161606,null,"",null,,,,,,,,
recall-period,536,1164932,17388.130000035744,"",,,,,,,,,coral
html-keyboard-response,537,1165038,null,"",null,,,,,,,,
recall-period,538,1167489,12286.02500015404,"",,,,,,,,,joint
html-keyboard-response,539,1167594,null,"",null,,,,,,,,
recall-period,540,1170891,17782.7249999973,"",,,,,,,,,church
html-keyboard-response,541,1170996,null,"",null,,,,,,,,
recall-period,542,1174252,21035.579999908805,"",,,,,,,,,feather
html-keyboard-response,543,1174357,null,"",null,,,,,,,,
recall-period,544,1176923,10638.805000053253,"",,,,,,,,,list
html-keyboard-response,545,1177027,null,"",null,,,,,,,,
recall-period,546,1180881,15284.78000004543,"",,,,,,,,,yarn
html-keyboard-response,547,1180982,null,"",null,,,,,,,,
recall-period,548,1216435,null,"",,,,,,,,,
html-keyboard-response,549,1216939,null,"Time's Up!",null,,,,,,,,
html-keyboard-response,550,1219258,2316.515000013169,"<p> Uh oh. You responded correctly on 66% of the GREEN squares.</p>
                  <p>We need you keep your accuracy above 80%</p>
                  <p>Press any key to continue the experiment. Thank you!</p>",32,,,,,,,,
html-keyboard-response,551,1223240,3981.369999994058,"<div style=""font-size:48px;"">Press any key to begin list 6 of 24 </div>",32,,,,,,,,
html-keyboard-response,552,1225746,null,"<div style=""font-size:60px;"">+</div>",null,,,,,,,,
html-keyboard-response,553,1226251,null,"WINGS<img id = ""stim"" ><div class = red_square id = ""topsquare"" ></div><img id = ""stim"" ><div class = red_square  id = ""bottomsquare"" ></div>",null,word_square,response,0,none,true,,,
html-keyboard-response,554,1227755,null,"WINGS",null,word,,,,, 'WINGS',,
html-keyboard-response,555,1228260,null,"CAMEL<img id = ""stim"" ><div class = red_square id = ""topsquare"" ></div><img id = ""stim"" ><div class = red_square  id = ""bottomsquare"" ></div>",null,word_square,response,0,none,true,,,
html-keyboard-response,556,1229763,null,"CAMEL",null,word,,,,, 'CAMEL',,
html-keyboard-response,557,1230219,454.3999999877997,"DUSTPAN<img id = ""stim"" ><div class = green_square id = ""topsquare"" ></div><img id = ""stim"" ><div class = green_square  id = ""bottomsquare"" ></div>",32,word_square,response,1,Space,true,,,
html-keyboard-response,558,1231725,null,"DUSTPAN",null,word,,,,, 'DUSTPAN',,
html-keyboard-response,559,1232230,null,"PONY<img id = ""stim"" ><div class = red_square id = ""topsquare"" ></div><img id = ""stim"" ><div class = red_square  id = ""bottomsquare"" ></div>",null,word_square,response,0,none,true,,,
html-keyboard-response,560,1233736,null,"PONY",null,word,,,,, 'PONY',,
html-keyboard-response,561,1234158,420.51500000525266,"SHEPHERD<img id = ""stim"" ><div class = green_square id = ""topsquare"" ></div><img id = ""stim"" ><div class = green_square  id = ""bottomsquare"" ></div>",32,word_square,response,1,Space,true,,,
html-keyboard-response,562,1235663,null,"SHEPHERD",null,word,,,,, 'SHEPHERD',,
html-keyboard-response,563,1236170,null,"CHISEL<img id = ""stim"" ><div class = red_square id = ""topsquare"" ></div><img id = ""stim"" ><div class = red_square  id = ""bottomsquare"" ></div>",null,word_square,response,0,none,true,,,
html-keyboard-response,564,1237675,null,"CHISEL",null,word,,,,, 'CHISEL',,
html-keyboard-response,565,1238107,430.61500001931563,"CRADLE<img id = ""stim"" ><div class = green_square id = ""topsquare"" ></div><img id = ""stim"" ><div class = green_square  id = ""bottomsquare"" ></div>",32,word_square,response,1,Space,true,,,
html-keyboard-response,566,1239614,null,"CRADLE",null,word,,,,, 'CRADLE',,
html-keyboard-response,567,1240101,485.66000000573695,"CELLAR<img id = ""stim"" ><div class = green_square id = ""topsquare"" ></div><img id = ""stim"" ><div class = green_square  id = ""bottomsquare"" ></div>",32,word_square,response,1,Space,true,,,
html-keyboard-response,568,1241605,null,"CELLAR",null,word,,,,, 'CELLAR',,
html-keyboard-response,569,1242110,null,"GIRAFFE<img id = ""stim"" ><div class = green_square id = ""topsquare"" ></div><img id = ""stim"" ><div class = green_square  id = ""bottomsquare"" ></div>",null,word_square,response,1,Space,false,,,
html-keyboard-response,570,1243616,null,"GIRAFFE",null,word,,,,, 'GIRAFFE',,
html-keyboard-response,571,1244122,null,"QUARTER<img id = ""stim"" ><div class = red_square id = ""topsquare"" ></div><img id = ""stim"" ><div class = red_square  id = ""bottomsquare"" ></div>",null,word_square,response,0,none,true,,,
html-keyboard-response,572,1245628,null,"QUARTER",null,word,,,,, 'QUARTER',,
html-keyboard-response,573,1246100,470.49000003607944,"STALLION<img id = ""stim"" ><div class = green_square id = ""topsquare"" ></div><img id = ""stim"" ><div class = green_square  id = ""bottomsquare"" ></div>",32,word_square,response,1,Space,true,,,
html-keyboard-response,574,1247604,null,"STALLION",null,word,,,,, 'STALLION',,
html-keyboard-response,575,1248109,null,"BARLEY<img id = ""stim"" ><div class = red_square id = ""topsquare"" ></div><img id = ""stim"" ><div class = red_square  id = ""bottomsquare"" ></div>",null,word_square,response,0,none,true,,,
html-keyboard-response,576,1249616,null,"BARLEY",null,word,,,,, 'BARLEY',,
html-keyboard-response,577,1250121,null,"TIGER<img id = ""stim"" ><div class = red_square id = ""topsquare"" ></div><img id = ""stim"" ><div class = red_square  id = ""bottomsquare"" ></div>",null,word_square,response,0,none,true,,,
html-keyboard-response,578,1251627,null,"TIGER",null,word,,,,, 'TIGER',,
html-keyboard-response,579,1252050,421.58999998355284,"GLOVE<img id = ""stim"" ><div class = green_square id = ""topsquare"" ></div><img id = ""stim"" ><div class = green_square  id = ""bottomsquare"" ></div>",32,word_square,response,1,Space,true,,,
html-keyboard-response,580,1253555,null,"GLOVE",null,word,,,,, 'GLOVE',,
html-keyboard-response,581,1254060,null,"BROOK<img id = ""stim"" ><div class = green_square id = ""topsquare"" ></div><img id = ""stim"" ><div class = green_square  id = ""bottomsquare"" ></div>",null,word_square,response,1,Space,false,,,
html-keyboard-response,582,1255566,null,"BROOK",null,word,,,,, 'BROOK',,
html-keyboard-response,583,1256071,null,"LAGOON<img id = ""stim"" ><div class = red_square id = ""topsquare"" ></div><img id = ""stim"" ><div class = red_square  id = ""bottomsquare"" ></div>",null,word_square,response,0,none,true,,,
html-keyboard-response,584,1257577,null,"LAGOON",null,word,,,,, 'LAGOON',,
html-keyboard-response,585,1258082,null,"SHORTS<img id = ""stim"" ><div class = red_square id = ""topsquare"" ></div><img id = ""stim"" ><div class = red_square  id = ""bottomsquare"" ></div>",null,word_square,response,0,none,true,,,
html-keyboard-response,586,1259586,null,"SHORTS",null,word,,,,, 'SHORTS',,
html-keyboard-response,587,1260091,null,"DIME<img id = ""stim"" ><div class = green_square id = ""topsquare"" ></div><img id = ""stim"" ><div class = green_square  id = ""bottomsquare"" ></div>",null,word_square,response,1,Space,false,,,
html-keyboard-response,588,1261597,null,"DIME",null,word,,,,, 'DIME',,
call-function,589,1261599,,"",,,,,,,,,
html-keyboard-response,590,1261704,null,"",null,,,,,,,,
math-period,591,1266042,8449.480000010226,"",,,,,,,,,2
html-keyboard-response,592,1266148,null,"",null,,,,,,,,
math-period,593,1269126,5643.969999975525,"",,,,,,,,,1
html-keyboard-response,594,1269231,null,"",null,,,,,,,,
math-period,595,1270427,2148.0350000201724,"",,,,,,,,,4
html-keyboard-response,596,1270530,null,"",null,,,,,,,,
math-period,597,1271878,2577.3099999642,"",,,,,,,,,4
html-keyboard-response,598,1271979,null,"",null,,,,,,,,
math-period,599,1273435,2739.9850000510924,"",,,,,,,,,5
html-keyboard-response,600,1273540,null,"",null,,,,,,,,
math-period,601,1276105,4993.524999998044,"",,,,,,,,,2
html-keyboard-response,602,1276208,null,"",null,,,,,,,,
math-period,603,1277584,2650.74499999173,"",,,,,,,,,5
html-keyboard-response,604,1277689,null,"",null,,,,,,,,
math-period,605,1279163,2761.4949999260716,"",,,,,,,,,5
html-keyboard-response,606,1279268,null,"",null,,,,,,,,
math-period,607,1281579,4478.809999942314,"",,,,,,,,,3
html-keyboard-response,608,1281683,null,"",null,,,,,,,,
math-period,609,1283153,2544.5349999936298,"",,,,,,,,,5
html-keyboard-response,610,1283259,null,"",null,,,,,,,,
math-period,611,1285224,3615.8700000378303,"",,,,,,,,,1
html-keyboard-response,612,1285329,null,"",null,,,,,,,,
math-period,613,1285604,null,"",,,,,,,,,
html-keyboard-response,614,1286608,null,"Recall Period!",null,,,,,,,,
call-function,615,1286609,,"",,,,,,,,,
html-keyboard-response,616,1286716,null,"",null,,,,,,,,
recall-period,617,1298338,63421.809999796096,"",,,,,,,,,wings
html-keyboard-response,618,1298440,null,"",null,,,,,,,,
recall-period,619,1304223,30457.21999986563,"",,,,,,,,,dustpan
html-keyboard-response,620,1304328,null,"",null,,,,,,,,
recall-period,621,1310692,34749.89999993704,"",,,,,,,,,cradle
html-keyboard-response,622,1310798,null,"",null,,,,,,,,
recall-period,623,1319159,53759.22000018181,"",,,,,,,,,stallion
html-keyboard-response,624,1319264,null,"",null,,,,,,,,
recall-period,625,1323133,17326.970000111032,"",,,,,,,,,glove
html-keyboard-response,626,1323239,null,"",null,,,,,,,,
recall-period,627,1330176,47592.76500000851,"",,,,,,,,,lagoon
html-keyboard-response,628,1330281,null,"",null,,,,,,,,
recall-period,629,1336724,35114.2749999417,"",,,,,,,,,tiger
html-keyboard-response,630,1336830,null,"",null,,,,,,,,
recall-period,631,1361620,1102.5599999702536,"",,,,,,,,,
html-keyboard-response,632,1362125,null,"Time's Up!",null,,,,,,,,
html-keyboard-response,633,1413814,51686.73499999568,"<p> Uh oh. You responded correctly on 68% of the GREEN squares.</p>
                  <p>We need you keep your accuracy above 80%</p>
                  <p>Press any key to continue the experiment. Thank you!</p>",32,,,,,,,,
html-keyboard-response,634,1417637,3820.7099999999627,"<div style=""font-size:48px;"">Press any key to begin list 7 of 24 </div>",32,,,,,,,,
html-keyboard-response,635,1420143,null,"<div style=""font-size:60px;"">+</div>",null,,,,,,,,
html-keyboard-response,636,1420648,null,"PERFUME<img id = ""stim"" ><div class = green_square id = ""topsquare"" ></div><img id = ""stim"" ><div class = green_square  id = ""bottomsquare"" ></div>",null,word_square,response,1,Space,false,,,
html-keyboard-response,637,1422150,null,"PERFUME",null,word,,,,, 'PERFUME',,
html-keyboard-response,638,1422657,null,"SIDING<img id = ""stim"" ><div class = green_square id = ""topsquare"" ></div><img id = ""stim"" ><div class = green_square  id = ""bottomsquare"" ></div>",null,word_square,response,1,Space,false,,,
html-keyboard-response,639,1424159,null,"SIDING",null,word,,,,, 'SIDING',,
html-keyboard-response,640,1424665,null,"GLASSES<img id = ""stim"" ><div class = red_square id = ""topsquare"" ></div><img id = ""stim"" ><div class = red_square  id = ""bottomsquare"" ></div>",null,word_square,response,0,none,true,,,
html-keyboard-response,641,1426168,null,"GLASSES",null,word,,,,, 'GLASSES',,
html-keyboard-response,642,1426593,423.8449999829754,"VALLEY<img id = ""stim"" ><div class = green_square id = ""topsquare"" ></div><img id = ""stim"" ><div class = green_square  id = ""bottomsquare"" ></div>",32,word_square,response,1,Space,true,,,
html-keyboard-response,643,1428100,null,"VALLEY",null,word,,,,, 'VALLEY',,
html-keyboard-response,644,1428604,null,"REINDEER<img id = ""stim"" ><div class = red_square id = ""topsquare"" ></div><img id = ""stim"" ><div class = red_square  id = ""bottomsquare"" ></div>",null,word_square,response,0,none,true,,,
html-keyboard-response,645,1430110,null,"REINDEER",null,word,,,,, 'REINDEER',,
html-keyboard-response,646,1430603,491.1699999938719,"SCAPEGOAT<img id = ""stim"" ><div class = green_square id = ""topsquare"" ></div><img id = ""stim"" ><div class = green_square  id = ""bottomsquare"" ></div>",32,word_square,response,1,Space,true,,,
html-keyboard-response,647,1432109,null,"SCAPEGOAT",null,word,,,,, 'SCAPEGOAT',,
html-keyboard-response,648,1432617,null,"BLUEJAY<img id = ""stim"" ><div class = red_square id = ""topsquare"" ></div><img id = ""stim"" ><div class = red_square  id = ""bottomsquare"" ></div>",null,word_square,response,0,none,true,,,
html-keyboard-response,649,1434121,null,"BLUEJAY",null,word,,,,, 'BLUEJAY',,
html-keyboard-response,650,1434627,null,"COCKTAIL<img id = ""stim"" ><div class = red_square id = ""topsquare"" ></div><img id = ""stim"" ><div class = red_square  id = ""bottomsquare"" ></div>",null,word_square,response,0,none,true,,,
html-keyboard-response,651,1436133,null,"COCKTAIL",null,word,,,,, 'COCKTAIL',,
html-keyboard-response,652,1436638,null,"PLAYGROUND<img id = ""stim"" ><div class = red_square id = ""topsquare"" ></div><img id = ""stim"" ><div class = red_square  id = ""bottomsquare"" ></div>",null,word_square,response,0,none,true,,,
html-keyboard-response,653,1438145,null,"PLAYGROUND",null,word,,,,, 'PLAYGROUND',,
html-keyboard-response,654,1438615,469.00499996263534,"DRESS<img id = ""stim"" ><div class = green_square id = ""topsquare"" ></div><img id = ""stim"" ><div class = green_square  id = ""bottomsquare"" ></div>",32,word_square,response,1,Space,true,,,
html-keyboard-response,655,1440121,null,"DRESS",null,word,,,,, 'DRESS',,
html-keyboard-response,656,1440626,null,"POCKET<img id = ""stim"" ><div class = red_square id = ""topsquare"" ></div><img id = ""stim"" ><div class = red_square  id = ""bottomsquare"" ></div>",null,word_square,response,0,none,true,,,
html-keyboard-response,657,1442132,null,"POCKET",null,word,,,,, 'POCKET',,
html-keyboard-response,658,1442637,null,"PATROL<img id = ""stim"" ><div class = green_square id = ""topsquare"" ></div><img id = ""stim"" ><div class = green_square  id = ""bottomsquare"" ></div>",null,word_square,response,1,Space,false,,,
html-keyboard-response,659,1444141,null,"PATROL",null,word,,,,, 'PATROL',,
html-keyboard-response,660,1444647,null,"SUNRISE<img id = ""stim"" ><div class = green_square id = ""topsquare"" ></div><img id = ""stim"" ><div class = green_square  id = ""bottomsquare"" ></div>",null,word_square,response,1,Space,false,,,
html-keyboard-response,661,1446152,null,"SUNRISE",null,word,,,,, 'SUNRISE',,
html-keyboard-response,662,1446657,null,"CANYON<img id = ""stim"" ><div class = red_square id = ""topsquare"" ></div><img id = ""stim"" ><div class = red_square  id = ""bottomsquare"" ></div>",null,word_square,response,0,none,true,,,
html-keyboard-response,663,1448158,null,"CANYON",null,word,,,,, 'CANYON',,
html-keyboard-response,664,1448665,null,"DRESSER<img id = ""stim"" ><div class = red_square id = ""topsquare"" ></div><img id = ""stim"" ><div class = red_square  id = ""bottomsquare"" ></div>",null,word_square,response,0,none,true,,,
html-keyboard-response,665,1450171,null,"DRESSER",null,word,,,,, 'DRESSER',,
html-keyboard-response,666,1450572,399.3849999969825,"WASHER<img id = ""stim"" ><div class = green_square id = ""topsquare"" ></div><img id = ""stim"" ><div class = green_square  id = ""bottomsquare"" ></div>",32,word_square,response,1,Space,true,,,
html-keyboard-response,667,1452076,null,"WASHER",null,word,,,,, 'WASHER',,
html-keyboard-response,668,1452532,454.4900000328198,"STRANGER<img id = ""stim"" ><div class = green_square id = ""topsquare"" ></div><img id = ""stim"" ><div class = green_square  id = ""bottomsquare"" ></div>",32,word_square,response,1,Space,true,,,
html-keyboard-response,669,1454039,null,"STRANGER",null,word,,,,, 'STRANGER',,
html-keyboard-response,670,1454544,null,"SHAMPOO<img id = ""stim"" ><div class = red_square id = ""topsquare"" ></div><img id = ""stim"" ><div class = red_square  id = ""bottomsquare"" ></div>",null,word_square,response,0,none,true,,,
html-keyboard-response,671,1456050,null,"SHAMPOO",null,word,,,,, 'SHAMPOO',,
call-function,672,1456052,,"",,,,,,,,,
html-keyboard-response,673,1456157,null,"",null,,,,,,,,
math-period,674,1460175,7831.004999985453,"",,,,,,,,,5
html-keyboard-response,675,1460282,null,"",null,,,,,,,,
math-period,676,1461408,2157.955000002403,"",,,,,,,,,4
html-keyboard-response,677,1461513,null,"",null,,,,,,,,
math-period,678,1462789,2432.284999988042,"",,,,,,,,,6
html-keyboard-response,679,1462894,null,"",null,,,,,,,,
math-period,680,1464239,2508.9200000511482,"",,,,,,,,,3
html-keyboard-response,681,1464345,null,"",null,,,,,,,,
math-period,682,1465414,1949.9600000563078,"",,,,,,,,,3
html-keyboard-response,683,1465518,null,"",null,,,,,,,,
math-period,684,1467271,3313.160000019707,"",,,,,,,,,2
html-keyboard-response,685,1467376,null,"",null,,,,,,,,
math-period,686,1469205,3404.320000030566,"",,,,,,,,,4
html-keyboard-response,687,1469311,null,"",null,,,,,,,,
math-period,688,1471085,3409.4749999349006,"",,,,,,,,,2
html-keyboard-response,689,1471189,null,"",null,,,,,,,,
math-period,690,1472940,3388.919999997597,"",,,,,,,,,1
html-keyboard-response,691,1473044,null,"",null,,,,,,,,
math-period,692,1474373,2512.8699999768287,"",,,,,,,,,3
html-keyboard-response,693,1474478,null,"",null,,,,,,,,
math-period,694,1476470,3877.275000093505,"",,,,,,,,,1
html-keyboard-response,695,1476577,null,"",null,,,,,,,,
math-period,696,1478363,3362.065000052098,"",,,,,,,,,2
html-keyboard-response,697,1478469,null,"",null,,,,,,,,
math-period,698,1479860,2677.484999934677,"",,,,,,,,,3
html-keyboard-response,699,1479967,null,"",null,,,,,,,,
math-period,700,1480057,null,"",,,,,,,,,
html-keyboard-response,701,1481064,null,"Recall Period!",null,,,,,,,,
call-function,702,1481065,,"",,,,,,,,,
html-keyboard-response,703,1481171,null,"",null,,,,,,,,
recall-period,704,1488119,49803.950000263285,"",,,,,,,,,perfume
html-keyboard-response,705,1488225,null,"",null,,,,,,,,
recall-period,706,1491723,21937.72499996703,"",,,,,,,,,glasses
html-keyboard-response,707,1491829,null,"",null,,,,,,,,
recall-period,708,1495677,29117.699999769684,"",,,,,,,,,reindeer
html-keyboard-response,709,1495782,null,"",null,,,,,,,,
recall-period,710,1500279,33197.680000041146,"",,,,,,,,,cocktail
html-keyboard-response,711,1500385,null,"",null,,,,,,,,
recall-period,712,1505407,33204.365000128746,"",,,,,,,,,dress
html-keyboard-response,713,1505511,null,"",null,,,,,,,,
recall-period,714,1509238,27945.86000032723,"",,,,,,,,,playground
html-keyboard-response,715,1509342,null,"",null,,,,,,,,
recall-period,716,1515087,40785.83000000799,"",,,,,,,,,dresser
html-keyboard-response,717,1515191,null,"",null,,,,,,,,
recall-period,718,1516832,7410.575000219978,"",,,,,,,,,canyon
html-keyboard-response,719,1516936,null,"",null,,,,,,,,
recall-period,720,1556070,null,"",,,,,,,,,
html-keyboard-response,721,1556575,null,"Time's Up!",null,,,,,,,,
html-keyboard-response,722,1566741,10164.099999994505,"<p> Uh oh. You responded correctly on 69% of the GREEN squares.</p>
                  <p>We need you keep your accuracy above 80%</p>
                  <p>Press any key to continue the experiment. Thank you!</p>",32,,,,,,,,
html-keyboard-response,723,1567496,753.3600000315346,"<div style=""font-size:48px;"">Press any key to begin list 8 of 24 </div>",32,,,,,,,,
html-keyboard-response,724,1570002,null,"<div style=""font-size:60px;"">+</div>",null,,,,,,,,
html-keyboard-response,725,1570507,null,"SCOTCH<img id = ""stim"" ><div class = green_square id = ""topsquare"" ></div><img id = ""stim"" ><div class = green_square  id = ""bottomsquare"" ></div>",null,word_square,response,1,Space,false,,,
html-keyboard-response,726,1572009,null,"SCOTCH",null,word,,,,, 'SCOTCH',,
html-keyboard-response,727,1572168,157.610000052955,"HATCHET<img id = ""stim"" ><div class = green_square id = ""topsquare"" ></div><img id = ""stim"" ><div class = green_square  id = ""bottomsquare"" ></div>",32,word_square,response,1,Space,true,,,
html-keyboard-response,728,1573674,null,"HATCHET",null,word,,,,, 'HATCHET',,
html-keyboard-response,729,1574179,null,"QUILT<img id = ""stim"" ><div class = red_square id = ""topsquare"" ></div><img id = ""stim"" ><div class = red_square  id = ""bottomsquare"" ></div>",null,word_square,response,0,none,true,,,
html-keyboard-response,730,1575685,null,"QUILT",null,word,,,,, 'QUILT',,
html-keyboard-response,731,1576178,491.59500002861023,"SHINGLE<img id = ""stim"" ><div class = green_square id = ""topsquare"" ></div><img id = ""stim"" ><div class = green_square  id = ""bottomsquare"" ></div>",32,word_square,response,1,Space,true,,,
html-keyboard-response,732,1577682,null,"SHINGLE",null,word,,,,, 'SHINGLE',,
html-keyboard-response,733,1578187,null,"ARM<img id = ""stim"" ><div class = red_square id = ""topsquare"" ></div><img id = ""stim"" ><div class = red_square  id = ""bottomsquare"" ></div>",null,word_square,response,0,none,true,,,
html-keyboard-response,734,1579693,null,"ARM",null,word,,,,, 'ARM',,
html-keyboard-response,735,1580129,433.8749999878928,"LION<img id = ""stim"" ><div class = green_square id = ""topsquare"" ></div><img id = ""stim"" ><div class = green_square  id = ""bottomsquare"" ></div>",32,word_square,response,1,Space,true,,,
html-keyboard-response,736,1581635,null,"LION",null,word,,,,, 'LION',,
html-keyboard-response,737,1582140,null,"RODENT<img id = ""stim"" ><div class = red_square id = ""topsquare"" ></div><img id = ""stim"" ><div class = red_square  id = ""bottomsquare"" ></div>",null,word_square,response,0,none,true,,,
html-keyboard-response,738,1583646,null,"RODENT",null,word,,,,, 'RODENT',,
html-keyboard-response,739,1584152,null,"CHARCOAL<img id = ""stim"" ><div class = red_square id = ""topsquare"" ></div><img id = ""stim"" ><div class = red_square  id = ""bottomsquare"" ></div>",null,word_square,response,0,none,true,,,
html-keyboard-response,740,1585658,null,"CHARCOAL",null,word,,,,, 'CHARCOAL',,
html-keyboard-response,741,1586163,null,"ROBBER<img id = ""stim"" ><div class = red_square id = ""topsquare"" ></div><img id = ""stim"" ><div class = red_square  id = ""bottomsquare"" ></div>",null,word_square,response,0,none,true,,,
html-keyboard-response,742,1587669,null,"ROBBER",null,word,,,,, 'ROBBER',,
html-keyboard-response,743,1588148,477.004999993369,"SKUNK<img id = ""stim"" ><div class = green_square id = ""topsquare"" ></div><img id = ""stim"" ><div class = green_square  id = ""bottomsquare"" ></div>",32,word_square,response,1,Space,true,,,
html-keyboard-response,744,1589655,null,"SKUNK",null,word,,,,, 'SKUNK',,
html-keyboard-response,745,1590159,null,"COWBOY<img id = ""stim"" ><div class = red_square id = ""topsquare"" ></div><img id = ""stim"" ><div class = red_square  id = ""bottomsquare"" ></div>",null,word_square,response,0,none,true,,,
html-keyboard-response,746,1591665,null,"COWBOY",null,word,,,,, 'COWBOY',,
html-keyboard-response,747,1592134,466.8050000327639,"SADDLE<img id = ""stim"" ><div class = green_square id = ""topsquare"" ></div><img id = ""stim"" ><div class = green_square  id = ""bottomsquare"" ></div>",32,word_square,response,1,Space,true,,,
html-keyboard-response,748,1593640,null,"SADDLE",null,word,,,,, 'SADDLE',,
html-keyboard-response,749,1594145,null,"ICEBERG<img id = ""stim"" ><div class = green_square id = ""topsquare"" ></div><img id = ""stim"" ><div class = green_square  id = ""bottomsquare"" ></div>",null,word_square,response,1,Space,false,,,
html-keyboard-response,750,1595653,null,"ICEBERG",null,word,,,,, 'ICEBERG',,
html-keyboard-response,751,1596159,null,"SURGEON<img id = ""stim"" ><div class = red_square id = ""topsquare"" ></div><img id = ""stim"" ><div class = red_square  id = ""bottomsquare"" ></div>",null,word_square,response,0,none,true,,,
html-keyboard-response,752,1597666,null,"SURGEON",null,word,,,,, 'SURGEON',,
html-keyboard-response,753,1598171,null,"SPOON<img id = ""stim"" ><div class = red_square id = ""topsquare"" ></div><img id = ""stim"" ><div class = red_square  id = ""bottomsquare"" ></div>",null,word_square,response,0,none,true,,,
html-keyboard-response,754,1599677,null,"SPOON",null,word,,,,, 'SPOON',,
html-keyboard-response,755,1600180,501.445000001695,"KNIFE<img id = ""stim"" ><div class = green_square id = ""topsquare"" ></div><img id = ""stim"" ><div class = green_square  id = ""bottomsquare"" ></div>",32,word_square,response,1,Space,true,,,
html-keyboard-response,756,1601685,null,"KNIFE",null,word,,,,, 'KNIFE',,
html-keyboard-response,757,1602191,null,"KLEENEX<img id = ""stim"" ><div class = green_square id = ""topsquare"" ></div><img id = ""stim"" ><div class = green_square  id = ""bottomsquare"" ></div>",null,word_square,response,1,Space,false,,,
html-keyboard-response,758,1603697,null,"KLEENEX",null,word,,,,, 'KLEENEX',,
html-keyboard-response,759,1604202,null,"LEOPARD<img id = ""stim"" ><div class = red_square id = ""topsquare"" ></div><img id = ""stim"" ><div class = red_square  id = ""bottomsquare"" ></div>",null,word_square,response,0,none,true,,,
html-keyboard-response,760,1605709,null,"LEOPARD",null,word,,,,, 'LEOPARD',,
call-function,761,1605710,,"",,,,,,,,,
html-keyboard-response,762,1605816,null,"",null,,,,,,,,
math-period,763,1610034,8099.784999969415,"",,,,,,,,,4
html-keyboard-response,764,1610139,null,"",null,,,,,,,,
math-period,765,1612668,4811.455000075512,"",,,,,,,,,5
html-keyboard-response,766,1612773,null,"",null,,,,,,,,
math-period,767,1614986,4219.02499999851,"",,,,,,,,,0
html-keyboard-response,768,1615092,null,"",null,,,,,,,,
math-period,769,1616289,2313.7949999654666,"",,,,,,,,,5
html-keyboard-response,770,1616395,null,"",null,,,,,,,,
math-period,771,1617486,2089.3599999835715,"",,,,,,,,,5
html-keyboard-response,772,1617591,null,"",null,,,,,,,,
math-period,773,1619466,1872.8099999716505,"",,,,,,,,,
html-keyboard-response,774,1619571,null,"",null,,,,,,,,
math-period,775,1621399,3511.21000002604,"",,,,,,,,,6
html-keyboard-response,776,1621504,null,"",null,,,,,,,,
math-period,777,1622900,2643.1599999777973,"",,,,,,,,,3
html-keyboard-response,778,1623007,null,"",null,,,,,,,,
math-period,779,1624792,3406.485000043176,"",,,,,,,,,0
html-keyboard-response,780,1624897,null,"",null,,,,,,,,
math-period,781,1626311,2762.2349999728613,"",,,,,,,,,4
html-keyboard-response,782,1626414,null,"",null,,,,,,,,
math-period,783,1627402,1868.0449999519624,"",,,,,,,,,5
html-keyboard-response,784,1627506,null,"",null,,,,,,,,
math-period,785,1629004,2863.6000000406057,"",,,,,,,,,1
html-keyboard-response,786,1629107,null,"",null,,,,,,,,
math-period,787,1629714,null,"",,,,,,,,,
html-keyboard-response,788,1630719,null,"Recall Period!",null,,,,,,,,
call-function,789,1630721,,"",,,,,,,,,
html-keyboard-response,790,1630826,null,"",null,,,,,,,,
recall-period,791,1642099,83899.93499976117,"",,,,,,,,,quilt
html-keyboard-response,792,1642204,null,"",null,,,,,,,,
recall-period,793,1643785,7822.2550001810305,"",,,,,,,,,hatchet
html-keyboard-response,794,1643891,null,"",null,,,,,,,,
recall-period,795,1647243,13840.31499986304,"",,,,,,,,,lion
html-keyboard-response,796,1647348,null,"",null,,,,,,,,
recall-period,797,1651451,24786.060000013094,"",,,,,,,,,rodent
html-keyboard-response,798,1651556,null,"",null,,,,,,,,
recall-period,799,1653453,9520.895000139717,"",,,,,,,,,charcoal
html-keyboard-response,800,1653559,null,"",null,,,,,,,,
recall-period,801,1660746,44249.295000045095,"",,,,,,,,,saddle
html-keyboard-response,802,1660853,null,"",null,,,,,,,,
recall-period,803,1688148,185759.17999981903,"",,,,,,,,,scotch
html-keyboard-response,804,1688252,null,"",null,,,,,,,,
recall-period,805,1705726,null,"",,,,,,,,,
html-keyboard-response,806,1706231,null,"Time's Up!",null,,,,,,,,
html-keyboard-response,807,1738353,32120.684999972582,"<p> Uh oh. You responded correctly on 71% of the GREEN squares.</p>
                  <p>We need you keep your accuracy above 80%</p>
                  <p>Press any key to continue the experiment. Thank you!</p>",32,,,,,,,,
html-keyboard-response,808,1740587,2232.1650000521913,"<div style=""font-size:48px;"">Press any key to begin list 9 of 24 </div>",32,,,,,,,,
html-keyboard-response,809,1743095,null,"<div style=""font-size:60px;"">+</div>",null,,,,,,,,
html-keyboard-response,810,1743600,null,"SCALLOP<img id = ""stim"" ><div class = red_square id = ""topsquare"" ></div><img id = ""stim"" ><div class = red_square  id = ""bottomsquare"" ></div>",null,word_square,response,0,none,true,,,
html-keyboard-response,811,1745102,null,"SCALLOP",null,word,,,,, 'SCALLOP',,
html-keyboard-response,812,1745609,null,"WITNESS<img id = ""stim"" ><div class = green_square id = ""topsquare"" ></div><img id = ""stim"" ><div class = green_square  id = ""bottomsquare"" ></div>",null,word_square,response,1,Space,false,,,
html-keyboard-response,813,1747111,null,"WITNESS",null,word,,,,, 'WITNESS',,
html-keyboard-response,814,1747617,null,"VICTIM<img id = ""stim"" ><div class = green_square id = ""topsquare"" ></div><img id = ""stim"" ><div class = green_square  id = ""bottomsquare"" ></div>",null,word_square,response,1,Space,false,,,
html-keyboard-response,815,1749119,null,"VICTIM",null,word,,,,, 'VICTIM',,
html-keyboard-response,816,1749625,null,"AIRCRAFT<img id = ""stim"" ><div class = green_square id = ""topsquare"" ></div><img id = ""stim"" ><div class = green_square  id = ""bottomsquare"" ></div>",null,word_square,response,1,Space,false,,,
html-keyboard-response,817,1751129,null,"AIRCRAFT",null,word,,,,, 'AIRCRAFT',,
html-keyboard-response,818,1751634,null,"WAREHOUSE<img id = ""stim"" ><div class = red_square id = ""topsquare"" ></div><img id = ""stim"" ><div class = red_square  id = ""bottomsquare"" ></div>",null,word_square,response,0,none,true,,,
html-keyboard-response,819,1753138,null,"WAREHOUSE",null,word,,,,, 'WAREHOUSE',,
html-keyboard-response,820,1753644,null,"RIVER<img id = ""stim"" ><div class = green_square id = ""topsquare"" ></div><img id = ""stim"" ><div class = green_square  id = ""bottomsquare"" ></div>",null,word_square,response,1,Space,false,,,
html-keyboard-response,821,1755147,null,"RIVER",null,word,,,,, 'RIVER',,
html-keyboard-response,822,1755651,null,"NOTEBOOK<img id = ""stim"" ><div class = red_square id = ""topsquare"" ></div><img id = ""stim"" ><div class = red_square  id = ""bottomsquare"" ></div>",null,word_square,response,0,none,true,,,
html-keyboard-response,823,1757157,null,"NOTEBOOK",null,word,,,,, 'NOTEBOOK',,
html-keyboard-response,824,1757663,null,"PAPER<img id = ""stim"" ><div class = green_square id = ""topsquare"" ></div><img id = ""stim"" ><div class = green_square  id = ""bottomsquare"" ></div>",null,word_square,response,1,Space,false,,,
html-keyboard-response,825,1759166,null,"PAPER",null,word,,,,, 'PAPER',,
html-keyboard-response,826,1759672,null,"SCALPEL<img id = ""stim"" ><div class = red_square id = ""topsquare"" ></div><img id = ""stim"" ><div class = red_square  id = ""bottomsquare"" ></div>",null,word_square,response,0,none,true,,,
html-keyboard-response,827,1761178,null,"SCALPEL",null,word,,,,, 'SCALPEL',,
html-keyboard-response,828,1761683,null,"DAGGER<img id = ""stim"" ><div class = red_square id = ""topsquare"" ></div><img id = ""stim"" ><div class = red_square  id = ""bottomsquare"" ></div>",null,word_square,response,0,none,true,,,
html-keyboard-response,829,1763187,null,"DAGGER",null,word,,,,, 'DAGGER',,
html-keyboard-response,830,1763691,null,"POSSUM<img id = ""stim"" ><div class = green_square id = ""topsquare"" ></div><img id = ""stim"" ><div class = green_square  id = ""bottomsquare"" ></div>",null,word_square,response,1,Space,false,,,
html-keyboard-response,831,1765195,null,"POSSUM",null,word,,,,, 'POSSUM',,
html-keyboard-response,832,1765700,null,"WINDSHIELD<img id = ""stim"" ><div class = red_square id = ""topsquare"" ></div><img id = ""stim"" ><div class = red_square  id = ""bottomsquare"" ></div>",null,word_square,response,0,none,true,,,
html-keyboard-response,833,1767206,null,"WINDSHIELD",null,word,,,,, 'WINDSHIELD',,
html-keyboard-response,834,1767711,null,"BOULDER<img id = ""stim"" ><div class = red_square id = ""topsquare"" ></div><img id = ""stim"" ><div class = red_square  id = ""bottomsquare"" ></div>",null,word_square,response,0,none,true,,,
html-keyboard-response,835,1769215,null,"BOULDER",null,word,,,,, 'BOULDER',,
html-keyboard-response,836,1769720,null,"BANDAGE<img id = ""stim"" ><div class = green_square id = ""topsquare"" ></div><img id = ""stim"" ><div class = green_square  id = ""bottomsquare"" ></div>",null,word_square,response,1,Space,false,,,
html-keyboard-response,837,1771223,null,"BANDAGE",null,word,,,,, 'BANDAGE',,
html-keyboard-response,838,1771728,null,"PANTHER<img id = ""stim"" ><div class = green_square id = ""topsquare"" ></div><img id = ""stim"" ><div class = green_square  id = ""bottomsquare"" ></div>",null,word_square,response,1,Space,false,,,
html-keyboard-response,839,1773232,null,"PANTHER",null,word,,,,, 'PANTHER',,
html-keyboard-response,840,1773737,null,"BEAST<img id = ""stim"" ><div class = red_square id = ""topsquare"" ></div><img id = ""stim"" ><div class = red_square  id = ""bottomsquare"" ></div>",null,word_square,response,0,none,true,,,
html-keyboard-response,841,1775241,null,"BEAST",null,word,,,,, 'BEAST',,
html-keyboard-response,842,1775748,null,"EGYPT<img id = ""stim"" ><div class = red_square id = ""topsquare"" ></div><img id = ""stim"" ><div class = red_square  id = ""bottomsquare"" ></div>",null,word_square,response,0,none,true,,,
html-keyboard-response,843,1777254,null,"EGYPT",null,word,,,,, 'EGYPT',,
html-keyboard-response,844,1777740,483.8749999762513,"STAMP<img id = ""stim"" ><div class = green_square id = ""topsquare"" ></div><img id = ""stim"" ><div class = green_square  id = ""bottomsquare"" ></div>",32,word_square,response,1,Space,true,,,
html-keyboard-response,845,1779246,null,"STAMP",null,word,,,,, 'STAMP',,
call-function,846,1779247,,"",,,,,,,,,
html-keyboard-response,847,1779353,null,"",null,,,,,,,,
math-period,848,1783170,7589.254999998957,"",,,,,,,,,2
html-keyboard-response,849,1783274,null,"",null,,,,,,,,
math-period,850,1785101,3514.1399999847636,"",,,,,,,,,1
html-keyboard-response,851,1785204,null,"",null,,,,,,,,
math-period,852,1786708,2897.564999992028,"",,,,,,,,,5
html-keyboard-response,853,1786812,null,"",null,,,,,,,,
math-period,854,1788870,3522.804999956861,"",,,,,,,,,4
html-keyboard-response,855,1788975,null,"",null,,,,,,,,
math-period,856,1792528,6680.875000020023,"",,,,,,,,,5
html-keyboard-response,857,1792631,null,"",null,,,,,,,,
math-period,858,1797147,8883.715000003576,"",,,,,,,,,5
html-keyboard-response,859,1797250,null,"",null,,,,,,,,
math-period,860,1798200,1709.499999997206,"",,,,,,,,,5
html-keyboard-response,861,1798306,null,"",null,,,,,,,,
math-period,862,1799829,2839.094999944791,"",,,,,,,,,3
html-keyboard-response,863,1799935,null,"",null,,,,,,,,
math-period,864,1801155,2203.29999999376,"",,,,,,,,,5
html-keyboard-response,865,1801257,null,"",null,,,,,,,,
math-period,866,1802760,2764.4600000348873,"",,,,,,,,,4
html-keyboard-response,867,1802866,null,"",null,,,,,,,,
math-period,868,1803252,null,"",,,,,,,,,
html-keyboard-response,869,1804259,null,"Recall Period!",null,,,,,,,,
call-function,870,1804261,,"",,,,,,,,,
html-keyboard-response,871,1804367,null,"",null,,,,,,,,
recall-period,872,1814386,77575.08499984397,"",,,,,,,,,aircraft
html-keyboard-response,873,1814491,null,"",null,,,,,,,,
recall-period,874,1819826,29110.78500014264,"",,,,,,,,,river
html-keyboard-response,875,1819930,null,"",null,,,,,,,,
recall-period,876,1821876,9623.679999727756,"",,,,,,,,,notebook
html-keyboard-response,877,1821979,null,"",null,,,,,,,,
recall-period,878,1826745,28991.789999883622,"",,,,,,,,,possum
html-keyboard-response,879,1826850,null,"",null,,,,,,,,
recall-period,880,1831525,41347.0499998657,"",,,,,,,,,windsheild
html-keyboard-response,881,1831629,null,"",null,,,,,,,,
recall-period,882,1835020,22576.43999980064,"",,,,,,,,,panther
html-keyboard-response,883,1835125,null,"",null,,,,,,,,
recall-period,884,1862278,158794.1549999523,"",,,,,,,,,beast
html-keyboard-response,885,1862381,null,"",null,,,,,,,,
recall-period,886,1879266,null,"",,,,,,,,,
html-keyboard-response,887,1879771,null,"Time's Up!",null,,,,,,,,
html-keyboard-response,888,1883776,4002.5000000023283,"<p> Uh oh. You responded correctly on 69% of the GREEN squares.</p>
                  <p>We need you keep your accuracy above 80%</p>
                  <p>Press any key to continue the experiment. Thank you!</p>",32,,,,,,,,
html-keyboard-response,889,1888537,4759.759999986272,"<div style=""font-size:48px;"">Press any key to begin list 10 of 24 </div>",32,,,,,,,,
html-keyboard-response,890,1891044,null,"<div style=""font-size:60px;"">+</div>",null,,,,,,,,
html-keyboard-response,891,1891549,null,"MAGNET<img id = ""stim"" ><div class = red_square id = ""topsquare"" ></div><img id = ""stim"" ><div class = red_square  id = ""bottomsquare"" ></div>",null,word_square,response,0,none,true,,,
html-keyboard-response,892,1893051,null,"MAGNET",null,word,,,,, 'MAGNET',,
html-keyboard-response,893,1893511,458.02499999990687,"DIVER<img id = ""stim"" ><div class = green_square id = ""topsquare"" ></div><img id = ""stim"" ><div class = green_square  id = ""bottomsquare"" ></div>",32,word_square,response,1,Space,true,,,
html-keyboard-response,894,1895015,null,"DIVER",null,word,,,,, 'DIVER',,
html-keyboard-response,895,1895520,null,"RAFT<img id = ""stim"" ><div class = green_square id = ""topsquare"" ></div><img id = ""stim"" ><div class = green_square  id = ""bottomsquare"" ></div>",null,word_square,response,1,Space,false,,,
html-keyboard-response,896,1897026,null,"RAFT",null,word,,,,, 'RAFT',,
html-keyboard-response,897,1897531,null,"CARPET<img id = ""stim"" ><div class = green_square id = ""topsquare"" ></div><img id = ""stim"" ><div class = green_square  id = ""bottomsquare"" ></div>",null,word_square,response,1,Space,false,,,
html-keyboard-response,898,1899037,null,"CARPET",null,word,,,,, 'CARPET',,
html-keyboard-response,899,1899542,null,"KEEPER<img id = ""stim"" ><div class = red_square id = ""topsquare"" ></div><img id = ""stim"" ><div class = red_square  id = ""bottomsquare"" ></div>",null,word_square,response,0,none,true,,,
html-keyboard-response,900,1901049,null,"KEEPER",null,word,,,,, 'KEEPER',,
html-keyboard-response,901,1901516,465.54000000469387,"IDOL<img id = ""stim"" ><div class = green_square id = ""topsquare"" ></div><img id = ""stim"" ><div class = green_square  id = ""bottomsquare"" ></div>",32,word_square,response,1,Space,true,,,
html-keyboard-response,902,1903022,null,"IDOL",null,word,,,,, 'IDOL',,
html-keyboard-response,903,1903528,null,"ACTRESS<img id = ""stim"" ><div class = red_square id = ""topsquare"" ></div><img id = ""stim"" ><div class = red_square  id = ""bottomsquare"" ></div>",null,word_square,response,0,none,true,,,
html-keyboard-response,904,1905034,null,"ACTRESS",null,word,,,,, 'ACTRESS',,
html-keyboard-response,905,1905539,null,"PATIENT<img id = ""stim"" ><div class = green_square id = ""topsquare"" ></div><img id = ""stim"" ><div class = green_square  id = ""bottomsquare"" ></div>",null,word_square,response,1,Space,false,,,
html-keyboard-response,906,1907045,null,"PATIENT",null,word,,,,, 'PATIENT',,
html-keyboard-response,907,1907550,null,"COURSE<img id = ""stim"" ><div class = red_square id = ""topsquare"" ></div><img id = ""stim"" ><div class = red_square  id = ""bottomsquare"" ></div>",null,word_square,response,0,none,true,,,
html-keyboard-response,908,1909057,null,"COURSE",null,word,,,,, 'COURSE',,
html-keyboard-response,909,1909562,null,"SIRLOIN<img id = ""stim"" ><div class = red_square id = ""topsquare"" ></div><img id = ""stim"" ><div class = red_square  id = ""bottomsquare"" ></div>",null,word_square,response,0,none,true,,,
html-keyboard-response,910,1911068,null,"SIRLOIN",null,word,,,,, 'SIRLOIN',,
html-keyboard-response,911,1911547,476.8950000288896,"PEOPLE<img id = ""stim"" ><div class = green_square id = ""topsquare"" ></div><img id = ""stim"" ><div class = green_square  id = ""bottomsquare"" ></div>",32,word_square,response,1,Space,true,,,
html-keyboard-response,912,1913051,null,"PEOPLE",null,word,,,,, 'PEOPLE',,
html-keyboard-response,913,1913556,null,"WIDOW<img id = ""stim"" ><div class = red_square id = ""topsquare"" ></div><img id = ""stim"" ><div class = red_square  id = ""bottomsquare"" ></div>",null,word_square,response,0,none,true,,,
html-keyboard-response,914,1915062,null,"WIDOW",null,word,,,,, 'WIDOW',,
html-keyboard-response,915,1915567,null,"GRAVE<img id = ""stim"" ><div class = red_square id = ""topsquare"" ></div><img id = ""stim"" ><div class = red_square  id = ""bottomsquare"" ></div>",null,word_square,response,0,none,true,,,
html-keyboard-response,916,1917074,null,"GRAVE",null,word,,,,, 'GRAVE',,
html-keyboard-response,917,1917579,null,"SURVEY<img id = ""stim"" ><div class = green_square id = ""topsquare"" ></div><img id = ""stim"" ><div class = green_square  id = ""bottomsquare"" ></div>",null,word_square,response,1,Space,false,,,
html-keyboard-response,918,1919082,null,"SURVEY",null,word,,,,, 'SURVEY',,
html-keyboard-response,919,1919588,null,"SHELTER<img id = ""stim"" ><div class = green_square id = ""topsquare"" ></div><img id = ""stim"" ><div class = green_square  id = ""bottomsquare"" ></div>",null,word_square,response,1,Space,false,,,
html-keyboard-response,920,1921091,null,"SHELTER",null,word,,,,, 'SHELTER',,
html-keyboard-response,921,1921596,null,"NEEDLE<img id = ""stim"" ><div class = red_square id = ""topsquare"" ></div><img id = ""stim"" ><div class = red_square  id = ""bottomsquare"" ></div>",null,word_square,response,0,none,true,,,
html-keyboard-response,922,1923099,null,"NEEDLE",null,word,,,,, 'NEEDLE',,
