trial_type,trial_index,time_elapsed,rt,stimulus,key_press,test_part,task,targ_cond,correctKeyCode,correct,word,value,response
pavlovia,0,711,,"",,,,,,,,,
external-html,1,25031333,15459194,"",,,,,,,,,
html-keyboard-response,2,25032871,1533,"Welcome to the experiment. Press any key to begin.",32,,,,,,,,
html-keyboard-response,3,25034203,1328,"<p>You will see a list of words and colored squares in the following task.<p><p>Press the spacebar whenever you see a red square.<p><p>Do not press a key if the square is green<p><p>Press the spacebar to continue.</p>",32,,,,,,,,
html-keyboard-response,4,25036256,1550,"<p>Please try to remember as many of the words as you can, and try to think about the meaning of each word as it appears.<p><p>After the detection and encoding task you will be asked to solve some math problems for 24 seconds.<p> Please solve as many problems as you can in the time given. <p>",32,,,,,,,,
html-keyboard-response,5,25039625,2865,"After solving the math problems, you will be asked to type in as many words <p>from the previous list as you can remember for 75 seconds.<p> If you finish recalling before the 75 seconds are up,<p> just sit tight and try to think of any more words you could have missed. <p><p>We will begin with a brief practice session<p>Press the spacebar to begin the practice.</p>",32,,,,,,,,
html-keyboard-response,6,25042128,null,"<div style=""font-size:60px;"">+</div>",null,,,,,,,,
html-keyboard-response,7,25042634,null,"HAPPY<img id = ""stim"" ><div class = green_square id = ""topsquare"" ></div><img id = ""stim"" ><div class = green_square  id = ""bottomsquare"" ></div>",null,word_square,prac_response,0,none,true,,,
html-keyboard-response,8,25044137,null,"HAPPY",null,word,,,,,HAPPY,,
html-keyboard-response,9,25044641,null,"COLD<img id = ""stim"" ><div class = red_square id = ""topsquare"" ></div><img id = ""stim"" ><div class = red_square  id = ""bottomsquare"" ></div>",null,word_square,prac_response,1,Space,false,,,
html-keyboard-response,10,25046145,null,"COLD",null,word,,,,,COLD,,
html-keyboard-response,11,25046649,null,"HEAVY<img id = ""stim"" ><div class = red_square id = ""topsquare"" ></div><img id = ""stim"" ><div class = red_square  id = ""bottomsquare"" ></div>",null,word_square,prac_response,1,Space,false,,,
html-keyboard-response,12,25048152,null,"HEAVY",null,word,,,,,HEAVY,,
html-keyboard-response,13,25048655,null,"FUNNY<img id = ""stim"" ><div class = green_square id = ""topsquare"" ></div><img id = ""stim"" ><div class = green_square  id = ""bottomsquare"" ></div>",null,word_square,prac_response,0,none,true,,,
html-keyboard-response,14,25050159,null,"FUNNY",null,word,,,,,FUNNY,,
html-keyboard-response,15,25050662,433,"SCARY<img id = ""stim"" ><div class = red_square id = ""topsquare"" ></div><img id = ""stim"" ><div class = red_square  id = ""bottomsquare"" ></div>",32,word_square,prac_response,1,Space,true,,,
html-keyboard-response,16,25052164,null,"SCARY",null,word,,,,,SCARY,,
html-keyboard-response,17,25052668,404,"PEACEFUL<img id = ""stim"" ><div class = red_square id = ""topsquare"" ></div><img id = ""stim"" ><div class = red_square  id = ""bottomsquare"" ></div>",32,word_square,prac_response,1,Space,true,,,
html-keyboard-response,18,25054170,null,"PEACEFUL",null,word,,,,,PEACEFUL,,
html-keyboard-response,19,25054673,381,"LITTLE<img id = ""stim"" ><div class = green_square id = ""topsquare"" ></div><img id = ""stim"" ><div class = green_square  id = ""bottomsquare"" ></div>",32,word_square,prac_response,0,none,true,,,
html-keyboard-response,20,25056176,null,"LITTLE",null,word,,,,,LITTLE,,
html-keyboard-response,21,25056680,null,"TIRED<img id = ""stim"" ><div class = green_square id = ""topsquare"" ></div><img id = ""stim"" ><div class = green_square  id = ""bottomsquare"" ></div>",null,word_square,prac_response,0,none,true,,,
html-keyboard-response,22,25058183,null,"TIRED",null,word,,,,,TIRED,,
html-keyboard-response,23,25058685,null,"ENTERTAINING<img id = ""stim"" ><div class = green_square id = ""topsquare"" ></div><img id = ""stim"" ><div class = green_square  id = ""bottomsquare"" ></div>",null,word_square,prac_response,0,none,true,,,
html-keyboard-response,24,25060187,null,"ENTERTAINING",null,word,,,,,ENTERTAINING,,
html-keyboard-response,25,25060689,333,"GRATEFUL<img id = ""stim"" ><div class = red_square id = ""topsquare"" ></div><img id = ""stim"" ><div class = red_square  id = ""bottomsquare"" ></div>",32,word_square,prac_response,1,Space,true,,,
html-keyboard-response,26,25062193,null,"GRATEFUL",null,word,,,,,GRATEFUL,,
html-keyboard-response,27,25062698,null,"LOUD<img id = ""stim"" ><div class = green_square id = ""topsquare"" ></div><img id = ""stim"" ><div class = green_square  id = ""bottomsquare"" ></div>",null,word_square,prac_response,0,none,true,,,
html-keyboard-response,28,25064201,null,"LOUD",null,word,,,,,LOUD,,
html-keyboard-response,29,25064704,361,"SMART<img id = ""stim"" ><div class = red_square id = ""topsquare"" ></div><img id = ""stim"" ><div class = red_square  id = ""bottomsquare"" ></div>",32,word_square,prac_response,1,Space,true,,,
html-keyboard-response,30,25066207,null,"SMART",null,word,,,,,SMART,,
html-keyboard-response,31,25066710,464,"SMOOTH<img id = ""stim"" ><div class = red_square id = ""topsquare"" ></div><img id = ""stim"" ><div class = red_square  id = ""bottomsquare"" ></div>",32,word_square,prac_response,1,Space,true,,,
html-keyboard-response,32,25068213,null,"SMOOTH",null,word,,,,,SMOOTH,,
html-keyboard-response,33,25068716,null,"DISHONEST<img id = ""stim"" ><div class = green_square id = ""topsquare"" ></div><img id = ""stim"" ><div class = green_square  id = ""bottomsquare"" ></div>",null,word_square,prac_response,0,none,true,,,
html-keyboard-response,34,25070219,null,"DISHONEST",null,word,,,,,DISHONEST,,
html-keyboard-response,35,25070723,null,"WEALTHY<img id = ""stim"" ><div class = red_square id = ""topsquare"" ></div><img id = ""stim"" ><div class = red_square  id = ""bottomsquare"" ></div>",null,word_square,prac_response,1,Space,false,,,
html-keyboard-response,36,25072226,null,"WEALTHY",null,word,,,,,WEALTHY,,
html-keyboard-response,37,25072730,324,"BEAUTIFUL<img id = ""stim"" ><div class = green_square id = ""topsquare"" ></div><img id = ""stim"" ><div class = green_square  id = ""bottomsquare"" ></div>",32,word_square,prac_response,0,none,true,,,
html-keyboard-response,38,25074233,null,"BEAUTIFUL",null,word,,,,,BEAUTIFUL,,
html-keyboard-response,39,25074737,null,"DREARY<img id = ""stim"" ><div class = green_square id = ""topsquare"" ></div><img id = ""stim"" ><div class = green_square  id = ""bottomsquare"" ></div>",null,word_square,prac_response,0,none,true,,,
html-keyboard-response,40,25076239,null,"DREARY",null,word,,,,,DREARY,,
html-keyboard-response,41,25076742,326,"PLAYFUL<img id = ""stim"" ><div class = red_square id = ""topsquare"" ></div><img id = ""stim"" ><div class = red_square  id = ""bottomsquare"" ></div>",32,word_square,prac_response,1,Space,true,,,
html-keyboard-response,42,25078245,null,"PLAYFUL",null,word,,,,,PLAYFUL,,
html-keyboard-response,43,25079593,1343,"<p> Good job! You responded correctly to 83% of the red squares.</p>
                  <p>Be sure to keep your accuracy above 80%</p>
                  <p>We're going to try once more to make sure you understand  the task. press any key to continue. </p>",32,,,,,,,,
html-keyboard-response,44,25080749,1153,"<p>You will see a list of words and colored squares in the following task.<p><p>Press the spacebar whenever you see a red square.<p><p>Do not press a key if the square is green<p><p>Press the spacebar to continue.</p>",32,,,,,,,,
html-keyboard-response,45,25083253,null,"<div style=""font-size:60px;"">+</div>",null,,,,,,,,
html-keyboard-response,46,25083756,null,"HAPPY<img id = ""stim"" ><div class = green_square id = ""topsquare"" ></div><img id = ""stim"" ><div class = green_square  id = ""bottomsquare"" ></div>",null,word_square,response,0,none,true,,,
html-keyboard-response,47,25085258,null,"HAPPY",null,word,,,,,HAPPY,,
html-keyboard-response,48,25085725,463,"COLD<img id = ""stim"" ><div class = red_square id = ""topsquare"" ></div><img id = ""stim"" ><div class = red_square  id = ""bottomsquare"" ></div>",32,word_square,response,1,Space,true,,,
html-keyboard-response,49,25087227,null,"COLD",null,word,,,,,COLD,,
html-keyboard-response,50,25087731,null,"HEAVY<img id = ""stim"" ><div class = red_square id = ""topsquare"" ></div><img id = ""stim"" ><div class = red_square  id = ""bottomsquare"" ></div>",null,word_square,response,1,Space,false,,,
html-keyboard-response,51,25089233,null,"HEAVY",null,word,,,,,HEAVY,,
html-keyboard-response,52,25089736,399,"FUNNY<img id = ""stim"" ><div class = green_square id = ""topsquare"" ></div><img id = ""stim"" ><div class = green_square  id = ""bottomsquare"" ></div>",32,word_square,response,0,none,true,,,
html-keyboard-response,53,25091238,null,"FUNNY",null,word,,,,,FUNNY,,
html-keyboard-response,54,25091741,null,"SCARY<img id = ""stim"" ><div class = red_square id = ""topsquare"" ></div><img id = ""stim"" ><div class = red_square  id = ""bottomsquare"" ></div>",null,word_square,response,1,Space,false,,,
html-keyboard-response,55,25093245,null,"SCARY",null,word,,,,,SCARY,,
html-keyboard-response,56,25093714,467,"PEACEFUL<img id = ""stim"" ><div class = red_square id = ""topsquare"" ></div><img id = ""stim"" ><div class = red_square  id = ""bottomsquare"" ></div>",32,word_square,response,1,Space,true,,,
html-keyboard-response,57,25095216,null,"PEACEFUL",null,word,,,,,PEACEFUL,,
html-keyboard-response,58,25095720,397,"LITTLE<img id = ""stim"" ><div class = green_square id = ""topsquare"" ></div><img id = ""stim"" ><div class = green_square  id = ""bottomsquare"" ></div>",32,word_square,response,0,none,true,,,
html-keyboard-response,59,25097222,null,"LITTLE",null,word,,,,,LITTLE,,
html-keyboard-response,60,25097726,null,"TIRED<img id = ""stim"" ><div class = green_square id = ""topsquare"" ></div><img id = ""stim"" ><div class = green_square  id = ""bottomsquare"" ></div>",null,word_square,response,0,none,true,,,
html-keyboard-response,61,25099229,null,"TIRED",null,word,,,,,TIRED,,
html-keyboard-response,62,25099732,null,"ENTERTAINING<img id = ""stim"" ><div class = green_square id = ""topsquare"" ></div><img id = ""stim"" ><div class = green_square  id = ""bottomsquare"" ></div>",null,word_square,response,0,none,true,,,
html-keyboard-response,63,25101235,null,"ENTERTAINING",null,word,,,,,ENTERTAINING,,
html-keyboard-response,64,25101546,308,"GRATEFUL<img id = ""stim"" ><div class = red_square id = ""topsquare"" ></div><img id = ""stim"" ><div class = red_square  id = ""bottomsquare"" ></div>",32,word_square,response,1,Space,true,,,
html-keyboard-response,65,25103050,null,"GRATEFUL",null,word,,,,,GRATEFUL,,
html-keyboard-response,66,25103552,null,"LOUD<img id = ""stim"" ><div class = green_square id = ""topsquare"" ></div><img id = ""stim"" ><div class = green_square  id = ""bottomsquare"" ></div>",null,word_square,response,0,none,true,,,
html-keyboard-response,67,25105054,null,"LOUD",null,word,,,,,LOUD,,
html-keyboard-response,68,25105380,325,"SMART<img id = ""stim"" ><div class = red_square id = ""topsquare"" ></div><img id = ""stim"" ><div class = red_square  id = ""bottomsquare"" ></div>",32,word_square,response,1,Space,true,,,
html-keyboard-response,69,25106883,null,"SMART",null,word,,,,,SMART,,
html-keyboard-response,70,25107248,362,"SMOOTH<img id = ""stim"" ><div class = red_square id = ""topsquare"" ></div><img id = ""stim"" ><div class = red_square  id = ""bottomsquare"" ></div>",32,word_square,response,1,Space,true,,,
html-keyboard-response,71,25108751,null,"SMOOTH",null,word,,,,,SMOOTH,,
html-keyboard-response,72,25109253,null,"DISHONEST<img id = ""stim"" ><div class = green_square id = ""topsquare"" ></div><img id = ""stim"" ><div class = green_square  id = ""bottomsquare"" ></div>",null,word_square,response,0,none,true,,,
html-keyboard-response,73,25110756,null,"DISHONEST",null,word,,,,,DISHONEST,,
html-keyboard-response,74,25111092,333,"WEALTHY<img id = ""stim"" ><div class = red_square id = ""topsquare"" ></div><img id = ""stim"" ><div class = red_square  id = ""bottomsquare"" ></div>",32,word_square,response,1,Space,true,,,
html-keyboard-response,75,25112595,null,"WEALTHY",null,word,,,,,WEALTHY,,
html-keyboard-response,76,25113099,null,"BEAUTIFUL<img id = ""stim"" ><div class = green_square id = ""topsquare"" ></div><img id = ""stim"" ><div class = green_square  id = ""bottomsquare"" ></div>",null,word_square,response,0,none,true,,,
html-keyboard-response,77,25114601,null,"BEAUTIFUL",null,word,,,,,BEAUTIFUL,,
html-keyboard-response,78,25115104,null,"DREARY<img id = ""stim"" ><div class = green_square id = ""topsquare"" ></div><img id = ""stim"" ><div class = green_square  id = ""bottomsquare"" ></div>",null,word_square,response,0,none,true,,,
html-keyboard-response,79,25116607,null,"DREARY",null,word,,,,,DREARY,,
html-keyboard-response,80,25116938,329,"PLAYFUL<img id = ""stim"" ><div class = red_square id = ""topsquare"" ></div><img id = ""stim"" ><div class = red_square  id = ""bottomsquare"" ></div>",32,word_square,response,1,Space,true,,,
html-keyboard-response,81,25118440,null,"PLAYFUL",null,word,,,,,PLAYFUL,,
html-keyboard-response,82,25121055,2612,"<p> Good job! You responded correctly to 89% of the red squares.</p>
                  <p>Be sure to keep your accuracy above 80%</p>
                  <p>Press any key to begin the math and recall sections. Thank you!</p>",32,,,,,,,,
call-function,83,25121057,,"",,,,,,,,,
html-keyboard-response,84,25121160,null,"",null,,,,,,,,
math-period,85,25126015,8643,"",,,,,,,,,3
html-keyboard-response,86,25126119,null,"",null,,,,,,,,
math-period,87,25132634,12674,"",,,,,,,,,2
html-keyboard-response,88,25132737,null,"",null,,,,,,,,
math-period,89,25136474,7155,"",,,,,,,,,5
html-keyboard-response,90,25136578,null,"",null,,,,,,,,
math-period,91,25141066,8679,"",,,,,,,,,3
html-keyboard-response,92,25141169,null,"",null,,,,,,,,
math-period,93,25144157,5526,"",,,,,,,,,3
html-keyboard-response,94,25144260,null,"",null,,,,,,,,
math-period,95,25145058,null,"",,,,,,,,,
html-keyboard-response,96,25146062,null,"Recall Period!",null,,,,,,,,
call-function,97,25146064,,"",,,,,,,,,
html-keyboard-response,98,25146167,null,"",null,,,,,,,,
recall-period,99,25146850,680,"",,,,,,,,,
html-keyboard-response,100,25146954,null,"",null,,,,,,,,
recall-period,101,25149644,10661,"",,,,,,,,,happy
html-keyboard-response,102,25149746,null,"",null,,,,,,,,
recall-period,103,25151726,5345,"",,,,,,,,,cold
html-keyboard-response,104,25151829,null,"",null,,,,,,,,
recall-period,105,25154000,8512,"",,,,,,,,,heavy
html-keyboard-response,106,25154103,null,"",null,,,,,,,,
recall-period,107,25155763,6511,"",,,,,,,,,smiling
html-keyboard-response,108,25155867,null,"",null,,,,,,,,
recall-period,109,25163843,59548,"",,,,,,,,,grateful
html-keyboard-response,110,25163945,null,"",null,,,,,,,,
recall-period,111,25182996,111912,"",,,,,,,,,tired
html-keyboard-response,112,25183099,null,"",null,,,,,,,,
recall-period,113,25221065,null,"",,,,,,,,,
html-keyboard-response,114,25221568,null,"Time's Up!",null,,,,,,,,
html-keyboard-response,115,25223835,2265,"<p>We will now begin the experiment!<p><p>Please try to remember all words from each list.<p><p>Press the spacebar whenever you see a red square.<p><p><p><p>Press the spacebar to begin.</p>",32,,,,,,,,
html-keyboard-response,116,25225957,1620,"<div style=""font-size:48px;"">Press any key to begin list 1 of 24 </div>",32,,,,,,,,
html-keyboard-response,117,25228460,null,"<div style=""font-size:60px;"">+</div>",null,,,,,,,,
html-keyboard-response,118,25228964,null,"EARRING<img id = ""stim"" ><div class = red_square id = ""topsquare"" ></div><img id = ""stim"" ><div class = red_square  id = ""bottomsquare"" ></div>",null,word_square,response,1,Space,false,,,
html-keyboard-response,119,25230467,null,"EARRING",null,word,,,,, 'EARRING',,
html-keyboard-response,120,25230969,null,"WARDROBE<img id = ""stim"" ><div class = green_square id = ""topsquare"" ></div><img id = ""stim"" ><div class = green_square  id = ""bottomsquare"" ></div>",null,word_square,response,0,none,true,,,
html-keyboard-response,121,25232473,null,"WARDROBE",null,word,,,,, 'WARDROBE',,
html-keyboard-response,122,25232976,null,"UNCLE<img id = ""stim"" ><div class = green_square id = ""topsquare"" ></div><img id = ""stim"" ><div class = green_square  id = ""bottomsquare"" ></div>",null,word_square,response,0,none,true,,,
html-keyboard-response,123,25234479,null,"UNCLE",null,word,,,,, 'UNCLE',,
html-keyboard-response,124,25234981,null,"COUSIN<img id = ""stim"" ><div class = red_square id = ""topsquare"" ></div><img id = ""stim"" ><div class = red_square  id = ""bottomsquare"" ></div>",null,word_square,response,1,Space,false,,,
html-keyboard-response,125,25236484,null,"COUSIN",null,word,,,,, 'COUSIN',,
html-keyboard-response,126,25236988,null,"YARD<img id = ""stim"" ><div class = green_square id = ""topsquare"" ></div><img id = ""stim"" ><div class = green_square  id = ""bottomsquare"" ></div>",null,word_square,response,0,none,true,,,
html-keyboard-response,127,25238490,null,"YARD",null,word,,,,, 'YARD',,
html-keyboard-response,128,25238900,407,"LUMBER<img id = ""stim"" ><div class = red_square id = ""topsquare"" ></div><img id = ""stim"" ><div class = red_square  id = ""bottomsquare"" ></div>",32,word_square,response,1,Space,true,,,
html-keyboard-response,129,25240403,null,"LUMBER",null,word,,,,, 'LUMBER',,
html-keyboard-response,130,25240873,468,"STOCKING<img id = ""stim"" ><div class = red_square id = ""topsquare"" ></div><img id = ""stim"" ><div class = red_square  id = ""bottomsquare"" ></div>",32,word_square,response,1,Space,true,,,
html-keyboard-response,131,25242376,null,"STOCKING",null,word,,,,, 'STOCKING',,
html-keyboard-response,132,25242879,null,"STAPLE<img id = ""stim"" ><div class = green_square id = ""topsquare"" ></div><img id = ""stim"" ><div class = green_square  id = ""bottomsquare"" ></div>",null,word_square,response,0,none,true,,,
html-keyboard-response,133,25244382,null,"STAPLE",null,word,,,,, 'STAPLE',,
html-keyboard-response,134,25244885,null,"CORAL<img id = ""stim"" ><div class = red_square id = ""topsquare"" ></div><img id = ""stim"" ><div class = red_square  id = ""bottomsquare"" ></div>",null,word_square,response,1,Space,false,,,
html-keyboard-response,135,25246388,null,"CORAL",null,word,,,,, 'CORAL',,
html-keyboard-response,136,25246891,null,"ISLAND<img id = ""stim"" ><div class = green_square id = ""topsquare"" ></div><img id = ""stim"" ><div class = green_square  id = ""bottomsquare"" ></div>",null,word_square,response,0,none,true,,,
html-keyboard-response,137,25248395,null,"ISLAND",null,word,,,,, 'ISLAND',,
html-keyboard-response,138,25248868,471,"DRESSER<img id = ""stim"" ><div class = red_square id = ""topsquare"" ></div><img id = ""stim"" ><div class = red_square  id = ""bottomsquare"" ></div>",32,word_square,response,1,Space,true,,,
html-keyboard-response,139,25250371,null,"DRESSER",null,word,,,,, 'DRESSER',,
html-keyboard-response,140,25250874,null,"MUSTARD<img id = ""stim"" ><div class = green_square id = ""topsquare"" ></div><img id = ""stim"" ><div class = green_square  id = ""bottomsquare"" ></div>",null,word_square,response,0,none,true,,,
html-keyboard-response,141,25252377,null,"MUSTARD",null,word,,,,, 'MUSTARD',,
html-keyboard-response,142,25252880,null,"TOOTHPASTE<img id = ""stim"" ><div class = green_square id = ""topsquare"" ></div><img id = ""stim"" ><div class = green_square  id = ""bottomsquare"" ></div>",null,word_square,response,0,none,true,,,
html-keyboard-response,143,25254383,null,"TOOTHPASTE",null,word,,,,, 'TOOTHPASTE',,
html-keyboard-response,144,25254872,487,"MESSAGE<img id = ""stim"" ><div class = red_square id = ""topsquare"" ></div><img id = ""stim"" ><div class = red_square  id = ""bottomsquare"" ></div>",32,word_square,response,1,Space,true,,,
html-keyboard-response,145,25256375,null,"MESSAGE",null,word,,,,, 'MESSAGE',,
html-keyboard-response,146,25256878,null,"FIST<img id = ""stim"" ><div class = green_square id = ""topsquare"" ></div><img id = ""stim"" ><div class = green_square  id = ""bottomsquare"" ></div>",null,word_square,response,0,none,true,,,
html-keyboard-response,147,25258381,null,"FIST",null,word,,,,, 'FIST',,
html-keyboard-response,148,25258884,null,"DOCK<img id = ""stim"" ><div class = green_square id = ""topsquare"" ></div><img id = ""stim"" ><div class = green_square  id = ""bottomsquare"" ></div>",null,word_square,response,0,none,true,,,
html-keyboard-response,149,25260387,null,"DOCK",null,word,,,,, 'DOCK',,
html-keyboard-response,150,25260890,null,"FLESH<img id = ""stim"" ><div class = red_square id = ""topsquare"" ></div><img id = ""stim"" ><div class = red_square  id = ""bottomsquare"" ></div>",null,word_square,response,1,Space,false,,,
html-keyboard-response,151,25262392,null,"FLESH",null,word,,,,, 'FLESH',,
html-keyboard-response,152,25262896,null,"FOREHEAD<img id = ""stim"" ><div class = red_square id = ""topsquare"" ></div><img id = ""stim"" ><div class = red_square  id = ""bottomsquare"" ></div>",null,word_square,response,1,Space,false,,,
html-keyboard-response,153,25264399,null,"FOREHEAD",null,word,,,,, 'FOREHEAD',,
call-function,154,25264400,,"",,,,,,,,,
html-keyboard-response,155,25264502,null,"",null,,,,,,,,
math-period,156,25271012,20336,"",,,,,,,,,1
html-keyboard-response,157,25271115,null,"",null,,,,,,,,
math-period,158,25274933,7348,"",,,,,,,,,3
html-keyboard-response,159,25275036,null,"",null,,,,,,,,
math-period,160,25277357,4460,"",,,,,,,,,5
html-keyboard-response,161,25277461,null,"",null,,,,,,,,
math-period,162,25279740,4413,"",,,,,,,,,4
html-keyboard-response,163,25279843,null,"",null,,,,,,,,
math-period,164,25283089,6226,"",,,,,,,,,2
html-keyboard-response,165,25283191,null,"",null,,,,,,,,
math-period,166,25285970,8776,"",,,,,,,,,4
html-keyboard-response,167,25286073,null,"",null,,,,,,,,
math-period,168,25288004,3704,"",,,,,,,,,4
html-keyboard-response,169,25288108,null,"",null,,,,,,,,
math-period,170,25288401,null,"",,,,,,,,,
html-keyboard-response,171,25289405,null,"Recall Period!",null,,,,,,,,
call-function,172,25289407,,"",,,,,,,,,
html-keyboard-response,173,25289510,null,"",null,,,,,,,,
recall-period,174,25290279,767,"",,,,,,,,,
html-keyboard-response,175,25290383,null,"",null,,,,,,,,
recall-period,176,25295439,33122,"",,,,,,,,,dressor
html-keyboard-response,177,25295542,null,"",null,,,,,,,,
recall-period,178,25309187,143487,"",,,,,,,,,toothpaste
html-keyboard-response,179,25309290,null,"",null,,,,,,,,
recall-period,180,25311447,10198,"",,,,,,,,,earring
html-keyboard-response,181,25311551,null,"",null,,,,,,,,
recall-period,182,25314808,20161,"",,,,,,,,,smiling
html-keyboard-response,183,25314911,null,"",null,,,,,,,,
recall-period,184,25364407,null,"",,,,,,,,,
html-keyboard-response,185,25364910,null,"Time's Up!",null,,,,,,,,
html-keyboard-response,186,25432801,67887,"<p> Good job! You responded correctly to 81% of the red squares.</p>
                  <p>Be sure to keep your accuracy above 80%</p>
                  <p>Press any key to continue the experiment. Thank you!</p>",13,,,,,,,,
html-keyboard-response,187,25437852,5047,"<div style=""font-size:48px;"">Press any key to begin list 2 of 24 </div>",32,,,,,,,,
html-keyboard-response,188,25440355,null,"<div style=""font-size:60px;"">+</div>",null,,,,,,,,
html-keyboard-response,189,25440742,384,"ELBOW<img id = ""stim"" ><div class = red_square id = ""topsquare"" ></div><img id = ""stim"" ><div class = red_square  id = ""bottomsquare"" ></div>",32,word_square,response,1,Space,true,,,
html-keyboard-response,190,25442245,null,"ELBOW",null,word,,,,, 'ELBOW',,
html-keyboard-response,191,25442747,null,"GLOVE<img id = ""stim"" ><div class = green_square id = ""topsquare"" ></div><img id = ""stim"" ><div class = green_square  id = ""bottomsquare"" ></div>",null,word_square,response,0,none,true,,,
html-keyboard-response,192,25444250,null,"GLOVE",null,word,,,,, 'GLOVE',,
html-keyboard-response,193,25444753,null,"HIKER<img id = ""stim"" ><div class = green_square id = ""topsquare"" ></div><img id = ""stim"" ><div class = green_square  id = ""bottomsquare"" ></div>",null,word_square,response,0,none,true,,,
html-keyboard-response,194,25446256,null,"HIKER",null,word,,,,, 'HIKER',,
html-keyboard-response,195,25446568,309,"ONION<img id = ""stim"" ><div class = red_square id = ""topsquare"" ></div><img id = ""stim"" ><div class = red_square  id = ""bottomsquare"" ></div>",32,word_square,response,1,Space,true,,,
html-keyboard-response,196,25448070,null,"ONION",null,word,,,,, 'ONION',,
html-keyboard-response,197,25448574,null,"BADGE<img id = ""stim"" ><div class = green_square id = ""topsquare"" ></div><img id = ""stim"" ><div class = green_square  id = ""bottomsquare"" ></div>",null,word_square,response,0,none,true,,,
html-keyboard-response,198,25450077,null,"BADGE",null,word,,,,, 'BADGE',,
html-keyboard-response,199,25450456,378,"KETCHUP<img id = ""stim"" ><div class = red_square id = ""topsquare"" ></div><img id = ""stim"" ><div class = red_square  id = ""bottomsquare"" ></div>",32,word_square,response,1,Space,true,,,
html-keyboard-response,200,25451959,null,"KETCHUP",null,word,,,,, 'KETCHUP',,
html-keyboard-response,201,25452267,305,"CAPTIVE<img id = ""stim"" ><div class = red_square id = ""topsquare"" ></div><img id = ""stim"" ><div class = red_square  id = ""bottomsquare"" ></div>",32,word_square,response,1,Space,true,,,
html-keyboard-response,202,25453770,null,"CAPTIVE",null,word,,,,, 'CAPTIVE',,
html-keyboard-response,203,25454275,null,"ALMOND<img id = ""stim"" ><div class = green_square id = ""topsquare"" ></div><img id = ""stim"" ><div class = green_square  id = ""bottomsquare"" ></div>",null,word_square,response,0,none,true,,,
html-keyboard-response,204,25455777,null,"ALMOND",null,word,,,,, 'ALMOND',,
html-keyboard-response,205,25456068,287,"GRAVE<img id = ""stim"" ><div class = red_square id = ""topsquare"" ></div><img id = ""stim"" ><div class = red_square  id = ""bottomsquare"" ></div>",32,word_square,response,1,Space,true,,,
html-keyboard-response,206,25457571,null,"GRAVE",null,word,,,,, 'GRAVE',,
html-keyboard-response,207,25458074,null,"POISON<img id = ""stim"" ><div class = green_square id = ""topsquare"" ></div><img id = ""stim"" ><div class = green_square  id = ""bottomsquare"" ></div>",null,word_square,response,0,none,true,,,
html-keyboard-response,208,25459577,null,"POISON",null,word,,,,, 'POISON',,
html-keyboard-response,209,25460079,null,"CIGAR<img id = ""stim"" ><div class = red_square id = ""topsquare"" ></div><img id = ""stim"" ><div class = red_square  id = ""bottomsquare"" ></div>",null,word_square,response,1,Space,false,,,
html-keyboard-response,210,25461583,null,"CIGAR",null,word,,,,, 'CIGAR',,
html-keyboard-response,211,25461986,401,"VAMPIRE<img id = ""stim"" ><div class = green_square id = ""topsquare"" ></div><img id = ""stim"" ><div class = green_square  id = ""bottomsquare"" ></div>",32,word_square,response,0,none,false,,,
html-keyboard-response,212,25463489,null,"VAMPIRE",null,word,,,,, 'VAMPIRE',,
html-keyboard-response,213,25463991,null,"GUARD<img id = ""stim"" ><div class = green_square id = ""topsquare"" ></div><img id = ""stim"" ><div class = green_square  id = ""bottomsquare"" ></div>",null,word_square,response,0,none,true,,,
html-keyboard-response,214,25465495,null,"GUARD",null,word,,,,, 'GUARD',,
html-keyboard-response,215,25465796,299,"ATTIC<img id = ""stim"" ><div class = red_square id = ""topsquare"" ></div><img id = ""stim"" ><div class = red_square  id = ""bottomsquare"" ></div>",32,word_square,response,1,Space,true,,,
html-keyboard-response,216,25467299,null,"ATTIC",null,word,,,,, 'ATTIC',,
html-keyboard-response,217,25467802,null,"SLOPE<img id = ""stim"" ><div class = green_square id = ""topsquare"" ></div><img id = ""stim"" ><div class = green_square  id = ""bottomsquare"" ></div>",null,word_square,response,0,none,true,,,
html-keyboard-response,218,25469305,null,"SLOPE",null,word,,,,, 'SLOPE',,
html-keyboard-response,219,25469808,null,"GARBAGE<img id = ""stim"" ><div class = green_square id = ""topsquare"" ></div><img id = ""stim"" ><div class = green_square  id = ""bottomsquare"" ></div>",null,word_square,response,0,none,true,,,
html-keyboard-response,220,25471310,null,"GARBAGE",null,word,,,,, 'GARBAGE',,
html-keyboard-response,221,25471637,326,"TEAPOT<img id = ""stim"" ><div class = red_square id = ""topsquare"" ></div><img id = ""stim"" ><div class = red_square  id = ""bottomsquare"" ></div>",32,word_square,response,1,Space,true,,,
html-keyboard-response,222,25473140,null,"TEAPOT",null,word,,,,, 'TEAPOT',,
html-keyboard-response,223,25473515,372,"KNUCKLE<img id = ""stim"" ><div class = red_square id = ""topsquare"" ></div><img id = ""stim"" ><div class = red_square  id = ""bottomsquare"" ></div>",32,word_square,response,1,Space,true,,,
html-keyboard-response,224,25475019,null,"KNUCKLE",null,word,,,,, 'KNUCKLE',,
call-function,225,25475020,,"",,,,,,,,,
html-keyboard-response,226,25475123,null,"",null,,,,,,,,
math-period,227,25477732,4833,"",,,,,,,,,5
html-keyboard-response,228,25477835,null,"",null,,,,,,,,
math-period,229,25480768,5481,"",,,,,,,,,1
html-keyboard-response,230,25480871,null,"",null,,,,,,,,
math-period,231,25484241,4515,"",,,,,,,,,1
html-keyboard-response,232,25484343,null,"",null,,,,,,,,
math-period,233,25487801,6500,"",,,,,,,,,3
html-keyboard-response,234,25487905,null,"",null,,,,,,,,
math-period,235,25494011,31844,"",,,,,,,,,4
html-keyboard-response,236,25494114,null,"",null,,,,,,,,
math-period,237,25496153,3843,"",,,,,,,,,4
html-keyboard-response,238,25496256,null,"",null,,,,,,,,
math-period,239,25499022,null,"",,,,,,,,,
html-keyboard-response,240,25500026,null,"Recall Period!",null,,,,,,,,
call-function,241,25500028,,"",,,,,,,,,
html-keyboard-response,242,25500131,null,"",null,,,,,,,,
recall-period,243,25501299,1166,"",,,,,,,,,
html-keyboard-response,244,25501403,null,"",null,,,,,,,,
recall-period,245,25503757,9743,"",,,,,,,,,onion
html-keyboard-response,246,25503860,null,"",null,,,,,,,,
recall-period,247,25515090,74469,"",,,,,,,,,hammer
html-keyboard-response,248,25515192,null,"",null,,,,,,,,
recall-period,249,25575030,null,"",,,,,,,,,
html-keyboard-response,250,25575534,null,"Time's Up!",null,,,,,,,,
html-keyboard-response,251,25662667,87129,"<p> Good job! You responded correctly to 83% of the red squares.</p>
                  <p>Be sure to keep your accuracy above 80%</p>
                  <p>Press any key to continue the experiment. Thank you!</p>",32,,,,,,,,
html-keyboard-response,252,25664528,1859,"<div style=""font-size:48px;"">Press any key to begin list 3 of 24 </div>",32,,,,,,,,
html-keyboard-response,253,25667031,null,"<div style=""font-size:60px;"">+</div>",null,,,,,,,,
html-keyboard-response,254,25667534,null,"WHISTLE<img id = ""stim"" ><div class = green_square id = ""topsquare"" ></div><img id = ""stim"" ><div class = green_square  id = ""bottomsquare"" ></div>",null,word_square,response,0,none,true,,,
html-keyboard-response,255,25669036,null,"WHISTLE",null,word,,,,, 'WHISTLE',,
html-keyboard-response,256,25669388,348,"GARDEN<img id = ""stim"" ><div class = red_square id = ""topsquare"" ></div><img id = ""stim"" ><div class = red_square  id = ""bottomsquare"" ></div>",32,word_square,response,1,Space,true,,,
html-keyboard-response,257,25670890,null,"GARDEN",null,word,,,,, 'GARDEN',,
html-keyboard-response,258,25671302,409,"GLASS<img id = ""stim"" ><div class = red_square id = ""topsquare"" ></div><img id = ""stim"" ><div class = red_square  id = ""bottomsquare"" ></div>",32,word_square,response,1,Space,true,,,
html-keyboard-response,259,25672806,null,"GLASS",null,word,,,,, 'GLASS',,
html-keyboard-response,260,25673308,null,"GLASSES<img id = ""stim"" ><div class = green_square id = ""topsquare"" ></div><img id = ""stim"" ><div class = green_square  id = ""bottomsquare"" ></div>",null,word_square,response,0,none,true,,,
html-keyboard-response,261,25674812,null,"GLASSES",null,word,,,,, 'GLASSES',,
html-keyboard-response,262,25675223,409,"PEACH<img id = ""stim"" ><div class = red_square id = ""topsquare"" ></div><img id = ""stim"" ><div class = red_square  id = ""bottomsquare"" ></div>",32,word_square,response,1,Space,true,,,
html-keyboard-response,263,25676725,null,"PEACH",null,word,,,,, 'PEACH',,
html-keyboard-response,264,25677229,null,"CITRUS<img id = ""stim"" ><div class = green_square id = ""topsquare"" ></div><img id = ""stim"" ><div class = green_square  id = ""bottomsquare"" ></div>",null,word_square,response,0,none,true,,,
html-keyboard-response,265,25678732,null,"CITRUS",null,word,,,,, 'CITRUS',,
html-keyboard-response,266,25679235,null,"CRACKER<img id = ""stim"" ><div class = green_square id = ""topsquare"" ></div><img id = ""stim"" ><div class = green_square  id = ""bottomsquare"" ></div>",null,word_square,response,0,none,true,,,
html-keyboard-response,267,25680738,null,"CRACKER",null,word,,,,, 'CRACKER',,
html-keyboard-response,268,25681132,391,"NOTEBOOK<img id = ""stim"" ><div class = red_square id = ""topsquare"" ></div><img id = ""stim"" ><div class = red_square  id = ""bottomsquare"" ></div>",32,word_square,response,1,Space,true,,,
html-keyboard-response,269,25682635,null,"NOTEBOOK",null,word,,,,, 'NOTEBOOK',,
html-keyboard-response,270,25683138,null,"MAILBOX<img id = ""stim"" ><div class = green_square id = ""topsquare"" ></div><img id = ""stim"" ><div class = green_square  id = ""bottomsquare"" ></div>",null,word_square,response,0,none,true,,,
html-keyboard-response,271,25684641,null,"MAILBOX",null,word,,,,, 'MAILBOX',,
html-keyboard-response,272,25684929,285,"JACKET<img id = ""stim"" ><div class = red_square id = ""topsquare"" ></div><img id = ""stim"" ><div class = red_square  id = ""bottomsquare"" ></div>",32,word_square,response,1,Space,true,,,
html-keyboard-response,273,25686432,null,"JACKET",null,word,,,,, 'JACKET',,
html-keyboard-response,274,25686935,null,"GLOBE<img id = ""stim"" ><div class = green_square id = ""topsquare"" ></div><img id = ""stim"" ><div class = green_square  id = ""bottomsquare"" ></div>",null,word_square,response,0,none,true,,,
html-keyboard-response,275,25688438,null,"GLOBE",null,word,,,,, 'GLOBE',,
html-keyboard-response,276,25688771,330,"LODGE<img id = ""stim"" ><div class = red_square id = ""topsquare"" ></div><img id = ""stim"" ><div class = red_square  id = ""bottomsquare"" ></div>",32,word_square,response,1,Space,true,,,
html-keyboard-response,277,25690273,null,"LODGE",null,word,,,,, 'LODGE',,
html-keyboard-response,278,25690777,null,"CABIN<img id = ""stim"" ><div class = red_square id = ""topsquare"" ></div><img id = ""stim"" ><div class = red_square  id = ""bottomsquare"" ></div>",null,word_square,response,1,Space,false,,,
html-keyboard-response,279,25692280,null,"CABIN",null,word,,,,, 'CABIN',,
html-keyboard-response,280,25692783,null,"WINDOW<img id = ""stim"" ><div class = green_square id = ""topsquare"" ></div><img id = ""stim"" ><div class = green_square  id = ""bottomsquare"" ></div>",null,word_square,response,0,none,true,,,
html-keyboard-response,281,25694285,null,"WINDOW",null,word,,,,, 'WINDOW',,
html-keyboard-response,282,25694616,328,"BOULDER<img id = ""stim"" ><div class = red_square id = ""topsquare"" ></div><img id = ""stim"" ><div class = red_square  id = ""bottomsquare"" ></div>",32,word_square,response,1,Space,true,,,
html-keyboard-response,283,25696118,null,"BOULDER",null,word,,,,, 'BOULDER',,
html-keyboard-response,284,25696587,466,"JAR<img id = ""stim"" ><div class = red_square id = ""topsquare"" ></div><img id = ""stim"" ><div class = red_square  id = ""bottomsquare"" ></div>",32,word_square,response,1,Space,true,,,
html-keyboard-response,285,25698091,null,"JAR",null,word,,,,, 'JAR',,
html-keyboard-response,286,25698594,null,"SCALLOP<img id = ""stim"" ><div class = green_square id = ""topsquare"" ></div><img id = ""stim"" ><div class = green_square  id = ""bottomsquare"" ></div>",null,word_square,response,0,none,true,,,
html-keyboard-response,287,25700097,null,"SCALLOP",null,word,,,,, 'SCALLOP',,
html-keyboard-response,288,25700600,null,"GUITAR<img id = ""stim"" ><div class = green_square id = ""topsquare"" ></div><img id = ""stim"" ><div class = green_square  id = ""bottomsquare"" ></div>",null,word_square,response,0,none,true,,,
html-keyboard-response,289,25702102,null,"GUITAR",null,word,,,,, 'GUITAR',,
call-function,290,25702104,,"",,,,,,,,,
html-keyboard-response,291,25702206,null,"",null,,,,,,,,
math-period,292,25707922,18012,"",,,,,,,,,3
html-keyboard-response,293,25708024,null,"",null,,,,,,,,
math-period,294,25713800,16427,"",,,,,,,,,3]
html-keyboard-response,295,25713904,null,"",null,,,,,,,,
math-period,296,25716454,4809,"",,,,,,,,,3
html-keyboard-response,297,25716557,null,"",null,,,,,,,,
math-period,298,25723593,11141,"",,,,,,,,,2
html-keyboard-response,299,25723695,null,"",null,,,,,,,,
math-period,300,25726106,null,"",,,,,,,,,
html-keyboard-response,301,25727110,null,"Recall Period!",null,,,,,,,,
call-function,302,25727111,,"",,,,,,,,,
html-keyboard-response,303,25727214,null,"",null,,,,,,,,
recall-period,304,25728163,947,"",,,,,,,,,
html-keyboard-response,305,25728266,null,"",null,,,,,,,,
recall-period,306,25730457,9037,"",,,,,,,,,glass
html-keyboard-response,307,25730560,null,"",null,,,,,,,,
recall-period,308,25733611,17466,"",,,,,,,,,boulder
html-keyboard-response,309,25733712,null,"",null,,,,,,,,
recall-period,310,25737724,22857,"",,,,,,,,,garden
html-keyboard-response,311,25737826,null,"",null,,,,,,,,
recall-period,312,25802113,null,"",,,,,,,,,
html-keyboard-response,313,25802617,null,"Time's Up!",null,,,,,,,,
html-keyboard-response,314,26038060,235439,"<p> Good job! You responded correctly to 86% of the red squares.</p>
                  <p>Be sure to keep your accuracy above 80%</p>
                  <p>Press any key to continue the experiment. Thank you!</p>",32,,,,,,,,
html-keyboard-response,315,26040481,2418,"<div style=""font-size:48px;"">Press any key to begin list 4 of 24 </div>",32,,,,,,,,
html-keyboard-response,316,26042985,null,"<div style=""font-size:60px;"">+</div>",null,,,,,,,,
html-keyboard-response,317,26043487,null,"ANKLE<img id = ""stim"" ><div class = green_square id = ""topsquare"" ></div><img id = ""stim"" ><div class = green_square  id = ""bottomsquare"" ></div>",null,word_square,response,0,none,true,,,
html-keyboard-response,318,26044990,null,"ANKLE",null,word,,,,, 'ANKLE',,
html-keyboard-response,319,26045390,398,"COMET<img id = ""stim"" ><div class = red_square id = ""topsquare"" ></div><img id = ""stim"" ><div class = red_square  id = ""bottomsquare"" ></div>",32,word_square,response,1,Space,true,,,
html-keyboard-response,320,26046894,null,"COMET",null,word,,,,, 'COMET',,
html-keyboard-response,321,26047397,null,"HOOD<img id = ""stim"" ><div class = red_square id = ""topsquare"" ></div><img id = ""stim"" ><div class = red_square  id = ""bottomsquare"" ></div>",null,word_square,response,1,Space,false,,,
html-keyboard-response,322,26048902,null,"HOOD",null,word,,,,, 'HOOD',,
html-keyboard-response,323,26049404,null,"WORLD<img id = ""stim"" ><div class = green_square id = ""topsquare"" ></div><img id = ""stim"" ><div class = green_square  id = ""bottomsquare"" ></div>",null,word_square,response,0,none,true,,,
html-keyboard-response,324,26050907,null,"WORLD",null,word,,,,, 'WORLD',,
html-keyboard-response,325,26051411,null,"MARS<img id = ""stim"" ><div class = red_square id = ""topsquare"" ></div><img id = ""stim"" ><div class = red_square  id = ""bottomsquare"" ></div>",null,word_square,response,1,Space,false,,,
html-keyboard-response,326,26052914,null,"MARS",null,word,,,,, 'MARS',,
html-keyboard-response,327,26053417,null,"CRAYON<img id = ""stim"" ><div class = green_square id = ""topsquare"" ></div><img id = ""stim"" ><div class = green_square  id = ""bottomsquare"" ></div>",null,word_square,response,0,none,true,,,
html-keyboard-response,328,26054920,null,"CRAYON",null,word,,,,, 'CRAYON',,
html-keyboard-response,329,26055423,null,"SHOVEL<img id = ""stim"" ><div class = green_square id = ""topsquare"" ></div><img id = ""stim"" ><div class = green_square  id = ""bottomsquare"" ></div>",null,word_square,response,0,none,true,,,
html-keyboard-response,330,26056925,null,"SHOVEL",null,word,,,,, 'SHOVEL',,
html-keyboard-response,331,26057341,413,"SCAPEGOAT<img id = ""stim"" ><div class = red_square id = ""topsquare"" ></div><img id = ""stim"" ><div class = red_square  id = ""bottomsquare"" ></div>",32,word_square,response,1,Space,true,,,
html-keyboard-response,332,26058844,null,"SCAPEGOAT",null,word,,,,, 'SCAPEGOAT',,
html-keyboard-response,333,26059347,null,"LETTER<img id = ""stim"" ><div class = green_square id = ""topsquare"" ></div><img id = ""stim"" ><div class = green_square  id = ""bottomsquare"" ></div>",null,word_square,response,0,none,true,,,
html-keyboard-response,334,26060850,null,"LETTER",null,word,,,,, 'LETTER',,
html-keyboard-response,335,26061353,null,"REINDEER<img id = ""stim"" ><div class = red_square id = ""topsquare"" ></div><img id = ""stim"" ><div class = red_square  id = ""bottomsquare"" ></div>",null,word_square,response,1,Space,false,,,
html-keyboard-response,336,26062857,null,"REINDEER",null,word,,,,, 'REINDEER',,
html-keyboard-response,337,26063360,null,"GERM<img id = ""stim"" ><div class = green_square id = ""topsquare"" ></div><img id = ""stim"" ><div class = green_square  id = ""bottomsquare"" ></div>",null,word_square,response,0,none,true,,,
html-keyboard-response,338,26064862,null,"GERM",null,word,,,,, 'GERM',,
html-keyboard-response,339,26065238,374,"SALT<img id = ""stim"" ><div class = red_square id = ""topsquare"" ></div><img id = ""stim"" ><div class = red_square  id = ""bottomsquare"" ></div>",32,word_square,response,1,Space,true,,,
html-keyboard-response,340,26066741,null,"SALT",null,word,,,,, 'SALT',,
html-keyboard-response,341,26067213,469,"SIDING<img id = ""stim"" ><div class = red_square id = ""topsquare"" ></div><img id = ""stim"" ><div class = red_square  id = ""bottomsquare"" ></div>",32,word_square,response,1,Space,true,,,
html-keyboard-response,342,26068717,null,"SIDING",null,word,,,,, 'SIDING',,
html-keyboard-response,343,26069220,null,"FLASK<img id = ""stim"" ><div class = green_square id = ""topsquare"" ></div><img id = ""stim"" ><div class = green_square  id = ""bottomsquare"" ></div>",null,word_square,response,0,none,true,,,
html-keyboard-response,344,26070722,null,"FLASK",null,word,,,,, 'FLASK',,
html-keyboard-response,345,26071141,416,"SLIME<img id = ""stim"" ><div class = red_square id = ""topsquare"" ></div><img id = ""stim"" ><div class = red_square  id = ""bottomsquare"" ></div>",32,word_square,response,1,Space,true,,,
html-keyboard-response,346,26072643,null,"SLIME",null,word,,,,, 'SLIME',,
html-keyboard-response,347,26073059,413,"PARSLEY<img id = ""stim"" ><div class = red_square id = ""topsquare"" ></div><img id = ""stim"" ><div class = red_square  id = ""bottomsquare"" ></div>",32,word_square,response,1,Space,true,,,
html-keyboard-response,348,26074562,null,"PARSLEY",null,word,,,,, 'PARSLEY',,
html-keyboard-response,349,26075065,null,"HANGER<img id = ""stim"" ><div class = green_square id = ""topsquare"" ></div><img id = ""stim"" ><div class = green_square  id = ""bottomsquare"" ></div>",null,word_square,response,0,none,true,,,
html-keyboard-response,350,26076569,null,"HANGER",null,word,,,,, 'HANGER',,
html-keyboard-response,351,26077072,null,"STAR<img id = ""stim"" ><div class = green_square id = ""topsquare"" ></div><img id = ""stim"" ><div class = green_square  id = ""bottomsquare"" ></div>",null,word_square,response,0,none,true,,,
html-keyboard-response,352,26078575,null,"STAR",null,word,,,,, 'STAR',,
call-function,353,26078577,,"",,,,,,,,,
html-keyboard-response,354,26078680,null,"",null,,,,,,,,
math-period,355,26082244,6504,"",,,,,,,,,4
html-keyboard-response,356,26082347,null,"",null,,,,,,,,
math-period,357,26084809,4061,"",,,,,,,,,5
html-keyboard-response,358,26084912,null,"",null,,,,,,,,
math-period,359,26090166,9823,"",,,,,,,,,2
html-keyboard-response,360,26090269,null,"",null,,,,,,,,
math-period,361,26095941,10632,"",,,,,,,,,1
html-keyboard-response,362,26096044,null,"",null,,,,,,,,
math-period,363,26098023,1976,"",,,,,,,,,
html-keyboard-response,364,26098126,null,"",null,,,,,,,,
math-period,365,26102579,null,"",,,,,,,,,
html-keyboard-response,366,26103582,null,"Recall Period!",null,,,,,,,,
call-function,367,26103584,,"",,,,,,,,,
html-keyboard-response,368,26103688,null,"",null,,,,,,,,
recall-period,369,26105101,1409,"",,,,,,,,,
html-keyboard-response,370,26105204,null,"",null,,,,,,,,
recall-period,371,26108015,10324,"",,,,,,,,,comet
html-keyboard-response,372,26108118,null,"",null,,,,,,,,
recall-period,373,26111769,18061,"",,,,,,,,,reindeer
html-keyboard-response,374,26111872,null,"",null,,,,,,,,
recall-period,375,26116622,25042,"",,,,,,,,,shovel
html-keyboard-response,376,26116724,null,"",null,,,,,,,,
recall-period,377,26178586,null,"",,,,,,,,,
html-keyboard-response,378,26179089,null,"Time's Up!",null,,,,,,,,
html-keyboard-response,379,26383694,204603,"<p> Good job! You responded correctly to 86% of the red squares.</p>
                  <p>Be sure to keep your accuracy above 80%</p>
                  <p>Press any key to continue the experiment. Thank you!</p>",32,,,,,,,,
html-keyboard-response,380,26383881,184,"<div style=""font-size:48px;"">Press any key to begin list 5 of 24 </div>",32,,,,,,,,
html-keyboard-response,381,26386385,null,"<div style=""font-size:60px;"">+</div>",null,,,,,,,,
html-keyboard-response,382,26386888,null,"CRUTCH<img id = ""stim"" ><div class = green_square id = ""topsquare"" ></div><img id = ""stim"" ><div class = green_square  id = ""bottomsquare"" ></div>",null,word_square,response,0,none,true,,,
html-keyboard-response,383,26388392,null,"CRUTCH",null,word,,,,, 'CRUTCH',,
html-keyboard-response,384,26388862,468,"PORPOISE<img id = ""stim"" ><div class = red_square id = ""topsquare"" ></div><img id = ""stim"" ><div class = red_square  id = ""bottomsquare"" ></div>",32,word_square,response,1,Space,true,,,
html-keyboard-response,385,26390366,null,"PORPOISE",null,word,,,,, 'PORPOISE',,
html-keyboard-response,386,26390868,null,"NEPHEW<img id = ""stim"" ><div class = green_square id = ""topsquare"" ></div><img id = ""stim"" ><div class = green_square  id = ""bottomsquare"" ></div>",null,word_square,response,0,none,true,,,
html-keyboard-response,387,26392371,null,"NEPHEW",null,word,,,,, 'NEPHEW',,
html-keyboard-response,388,26392875,null,"CLIFF<img id = ""stim"" ><div class = red_square id = ""topsquare"" ></div><img id = ""stim"" ><div class = red_square  id = ""bottomsquare"" ></div>",null,word_square,response,1,Space,false,,,
html-keyboard-response,389,26394377,null,"CLIFF",null,word,,,,, 'CLIFF',,
html-keyboard-response,390,26394881,null,"ARM<img id = ""stim"" ><div class = red_square id = ""topsquare"" ></div><img id = ""stim"" ><div class = red_square  id = ""bottomsquare"" ></div>",null,word_square,response,1,Space,false,,,
html-keyboard-response,391,26396384,null,"ARM",null,word,,,,, 'ARM',,
html-keyboard-response,392,26396886,null,"MARKET<img id = ""stim"" ><div class = green_square id = ""topsquare"" ></div><img id = ""stim"" ><div class = green_square  id = ""bottomsquare"" ></div>",null,word_square,response,0,none,true,,,
html-keyboard-response,393,26398390,null,"MARKET",null,word,,,,, 'MARKET',,
html-keyboard-response,394,26398893,null,"GLACIER<img id = ""stim"" ><div class = green_square id = ""topsquare"" ></div><img id = ""stim"" ><div class = green_square  id = ""bottomsquare"" ></div>",null,word_square,response,0,none,true,,,
html-keyboard-response,395,26400395,null,"GLACIER",null,word,,,,, 'GLACIER',,
html-keyboard-response,396,26400778,378,"FIREPLACE<img id = ""stim"" ><div class = red_square id = ""topsquare"" ></div><img id = ""stim"" ><div class = red_square  id = ""bottomsquare"" ></div>",32,word_square,response,1,Space,true,,,
html-keyboard-response,397,26402280,null,"FIREPLACE",null,word,,,,, 'FIREPLACE',,
html-keyboard-response,398,26402782,null,"WALRUS<img id = ""stim"" ><div class = green_square id = ""topsquare"" ></div><img id = ""stim"" ><div class = green_square  id = ""bottomsquare"" ></div>",null,word_square,response,0,none,true,,,
html-keyboard-response,399,26404286,null,"WALRUS",null,word,,,,, 'WALRUS',,
html-keyboard-response,400,26404768,480,"MOTOR<img id = ""stim"" ><div class = red_square id = ""topsquare"" ></div><img id = ""stim"" ><div class = red_square  id = ""bottomsquare"" ></div>",32,word_square,response,1,Space,true,,,
html-keyboard-response,401,26406272,null,"MOTOR",null,word,,,,, 'MOTOR',,
html-keyboard-response,402,26406775,null,"WAGON<img id = ""stim"" ><div class = green_square id = ""topsquare"" ></div><img id = ""stim"" ><div class = green_square  id = ""bottomsquare"" ></div>",null,word_square,response,0,none,true,,,
html-keyboard-response,403,26408278,null,"WAGON",null,word,,,,, 'WAGON',,
html-keyboard-response,404,26408781,null,"MASK<img id = ""stim"" ><div class = green_square id = ""topsquare"" ></div><img id = ""stim"" ><div class = green_square  id = ""bottomsquare"" ></div>",null,word_square,response,0,none,true,,,
html-keyboard-response,405,26410284,null,"MASK",null,word,,,,, 'MASK',,
html-keyboard-response,406,26410596,309,"MONSTER<img id = ""stim"" ><div class = red_square id = ""topsquare"" ></div><img id = ""stim"" ><div class = red_square  id = ""bottomsquare"" ></div>",32,word_square,response,1,Space,true,,,
html-keyboard-response,407,26412100,null,"MONSTER",null,word,,,,, 'MONSTER',,
html-keyboard-response,408,26412583,480,"TYPIST<img id = ""stim"" ><div class = red_square id = ""topsquare"" ></div><img id = ""stim"" ><div class = red_square  id = ""bottomsquare"" ></div>",32,word_square,response,1,Space,true,,,
html-keyboard-response,409,26414086,null,"TYPIST",null,word,,,,, 'TYPIST',,
html-keyboard-response,410,26414590,null,"OFFICE<img id = ""stim"" ><div class = green_square id = ""topsquare"" ></div><img id = ""stim"" ><div class = green_square  id = ""bottomsquare"" ></div>",null,word_square,response,0,none,true,,,
html-keyboard-response,411,26416093,null,"OFFICE",null,word,,,,, 'OFFICE',,
html-keyboard-response,412,26416596,null,"CANYON<img id = ""stim"" ><div class = green_square id = ""topsquare"" ></div><img id = ""stim"" ><div class = green_square  id = ""bottomsquare"" ></div>",null,word_square,response,0,none,true,,,
html-keyboard-response,413,26418100,null,"CANYON",null,word,,,,, 'CANYON',,
html-keyboard-response,414,26418603,null,"NOMAD<img id = ""stim"" ><div class = red_square id = ""topsquare"" ></div><img id = ""stim"" ><div class = red_square  id = ""bottomsquare"" ></div>",null,word_square,response,1,Space,false,,,
html-keyboard-response,415,26420106,null,"NOMAD",null,word,,,,, 'NOMAD',,
html-keyboard-response,416,26420608,499,"SUNSET<img id = ""stim"" ><div class = red_square id = ""topsquare"" ></div><img id = ""stim"" ><div class = red_square  id = ""bottomsquare"" ></div>",32,word_square,response,1,Space,true,,,
html-keyboard-response,417,26422111,null,"SUNSET",null,word,,,,, 'SUNSET',,
call-function,418,26422113,,"",,,,,,,,,
html-keyboard-response,419,26422216,null,"",null,,,,,,,,
math-period,420,26425311,5240,"",,,,,,,,,5
html-keyboard-response,421,26425414,null,"",null,,,,,,,,
math-period,422,26435632,19714,"",,,,,,,,,2
html-keyboard-response,423,26435736,null,"",null,,,,,,,,
math-period,424,26439579,18017,"",,,,,,,,,6
html-keyboard-response,425,26439681,null,"",null,,,,,,,,
math-period,426,26442144,4637,"",,,,,,,,,3
html-keyboard-response,427,26442247,null,"",null,,,,,,,,
math-period,428,26446049,6658,"",,,,,,,,,3
html-keyboard-response,429,26446151,null,"",null,,,,,,,,
math-period,430,26446157,null,"",,,,,,,,,
html-keyboard-response,431,26447161,null,"Recall Period!",null,,,,,,,,
call-function,432,26447162,,"",,,,,,,,,
html-keyboard-response,433,26447265,null,"",null,,,,,,,,
recall-period,434,26449029,1760,"",,,,,,,,,
html-keyboard-response,435,26449132,null,"",null,,,,,,,,
recall-period,436,26452760,14846,"",,,,,,,,,canyon
html-keyboard-response,437,26452863,null,"",null,,,,,,,,
recall-period,438,26460115,70098,"",,,,,,,,,crutch
html-keyboard-response,439,26460218,null,"",null,,,,,,,,
recall-period,440,26468825,60286,"",,,,,,,,,tortoise
html-keyboard-response,441,26468929,null,"",null,,,,,,,,
recall-period,442,26522164,null,"",,,,,,,,,
html-keyboard-response,443,26522668,null,"Time's Up!",null,,,,,,,,
html-keyboard-response,444,26645836,123166,"<p> Good job! You responded correctly to 85% of the red squares.</p>
                  <p>Be sure to keep your accuracy above 80%</p>
                  <p>Press any key to continue the experiment. Thank you!</p>",32,,,,,,,,
html-keyboard-response,445,26667309,21471,"<div style=""font-size:48px;"">Press any key to begin list 6 of 24 </div>",32,,,,,,,,
html-keyboard-response,446,26669813,null,"<div style=""font-size:60px;"">+</div>",null,,,,,,,,
html-keyboard-response,447,26670316,null,"SOCKET<img id = ""stim"" ><div class = green_square id = ""topsquare"" ></div><img id = ""stim"" ><div class = green_square  id = ""bottomsquare"" ></div>",null,word_square,response,0,none,true,,,
html-keyboard-response,448,26671818,null,"SOCKET",null,word,,,,, 'SOCKET',,
html-keyboard-response,449,26672322,null,"SQUID<img id = ""stim"" ><div class = red_square id = ""topsquare"" ></div><img id = ""stim"" ><div class = red_square  id = ""bottomsquare"" ></div>",null,word_square,response,1,Space,false,,,
html-keyboard-response,450,26673825,null,"SQUID",null,word,,,,, 'SQUID',,
html-keyboard-response,451,26674328,null,"PRINCE<img id = ""stim"" ><div class = green_square id = ""topsquare"" ></div><img id = ""stim"" ><div class = green_square  id = ""bottomsquare"" ></div>",null,word_square,response,0,none,true,,,
html-keyboard-response,452,26675831,null,"PRINCE",null,word,,,,, 'PRINCE',,
html-keyboard-response,453,26676334,null,"LOBBY<img id = ""stim"" ><div class = red_square id = ""topsquare"" ></div><img id = ""stim"" ><div class = red_square  id = ""bottomsquare"" ></div>",null,word_square,response,1,Space,false,,,
html-keyboard-response,454,26677838,null,"LOBBY",null,word,,,,, 'LOBBY',,
html-keyboard-response,455,26678341,null,"VELVET<img id = ""stim"" ><div class = red_square id = ""topsquare"" ></div><img id = ""stim"" ><div class = red_square  id = ""bottomsquare"" ></div>",null,word_square,response,1,Space,false,,,
html-keyboard-response,456,26679844,null,"VELVET",null,word,,,,, 'VELVET',,
html-keyboard-response,457,26680347,null,"DECK<img id = ""stim"" ><div class = green_square id = ""topsquare"" ></div><img id = ""stim"" ><div class = green_square  id = ""bottomsquare"" ></div>",null,word_square,response,0,none,true,,,
html-keyboard-response,458,26681850,null,"DECK",null,word,,,,, 'DECK',,
html-keyboard-response,459,26682354,null,"RAISIN<img id = ""stim"" ><div class = green_square id = ""topsquare"" ></div><img id = ""stim"" ><div class = green_square  id = ""bottomsquare"" ></div>",null,word_square,response,0,none,true,,,
html-keyboard-response,460,26683858,null,"RAISIN",null,word,,,,, 'RAISIN',,
html-keyboard-response,461,26684282,423,"CROWN<img id = ""stim"" ><div class = red_square id = ""topsquare"" ></div><img id = ""stim"" ><div class = red_square  id = ""bottomsquare"" ></div>",32,word_square,response,1,Space,true,,,
html-keyboard-response,462,26685785,null,"CROWN",null,word,,,,, 'CROWN',,
html-keyboard-response,463,26686288,null,"REPORT<img id = ""stim"" ><div class = green_square id = ""topsquare"" ></div><img id = ""stim"" ><div class = green_square  id = ""bottomsquare"" ></div>",null,word_square,response,0,none,true,,,
html-keyboard-response,464,26687791,null,"REPORT",null,word,,,,, 'REPORT',,
html-keyboard-response,465,26688179,385,"CRAB<img id = ""stim"" ><div class = red_square id = ""topsquare"" ></div><img id = ""stim"" ><div class = red_square  id = ""bottomsquare"" ></div>",32,word_square,response,1,Space,true,,,
html-keyboard-response,466,26689682,null,"CRAB",null,word,,,,, 'CRAB',,
html-keyboard-response,467,26690185,null,"SEAFOOD<img id = ""stim"" ><div class = green_square id = ""topsquare"" ></div><img id = ""stim"" ><div class = green_square  id = ""bottomsquare"" ></div>",null,word_square,response,0,none,true,,,
html-keyboard-response,468,26691687,null,"SEAFOOD",null,word,,,,, 'SEAFOOD',,
html-keyboard-response,469,26692191,null,"LACE<img id = ""stim"" ><div class = green_square id = ""topsquare"" ></div><img id = ""stim"" ><div class = green_square  id = ""bottomsquare"" ></div>",null,word_square,response,0,none,true,,,
html-keyboard-response,470,26693694,null,"LACE",null,word,,,,, 'LACE',,
html-keyboard-response,471,26694113,417,"DENIM<img id = ""stim"" ><div class = red_square id = ""topsquare"" ></div><img id = ""stim"" ><div class = red_square  id = ""bottomsquare"" ></div>",32,word_square,response,1,Space,true,,,
html-keyboard-response,472,26695616,null,"DENIM",null,word,,,,, 'DENIM',,
html-keyboard-response,473,26696025,405,"PADDING<img id = ""stim"" ><div class = red_square id = ""topsquare"" ></div><img id = ""stim"" ><div class = red_square  id = ""bottomsquare"" ></div>",32,word_square,response,1,Space,true,,,
html-keyboard-response,474,26697528,null,"PADDING",null,word,,,,, 'PADDING',,
html-keyboard-response,475,26698032,null,"TABLE<img id = ""stim"" ><div class = green_square id = ""topsquare"" ></div><img id = ""stim"" ><div class = green_square  id = ""bottomsquare"" ></div>",null,word_square,response,0,none,true,,,
html-keyboard-response,476,26699535,null,"TABLE",null,word,,,,, 'TABLE',,
html-keyboard-response,477,26700038,null,"TOILET<img id = ""stim"" ><div class = green_square id = ""topsquare"" ></div><img id = ""stim"" ><div class = green_square  id = ""bottomsquare"" ></div>",null,word_square,response,0,none,true,,,
html-keyboard-response,478,26701540,null,"TOILET",null,word,,,,, 'TOILET',,
html-keyboard-response,479,26702043,null,"JOURNAL<img id = ""stim"" ><div class = red_square id = ""topsquare"" ></div><img id = ""stim"" ><div class = red_square  id = ""bottomsquare"" ></div>",null,word_square,response,1,Space,false,,,
html-keyboard-response,480,26703546,null,"JOURNAL",null,word,,,,, 'JOURNAL',,
html-keyboard-response,481,26703883,334,"PICTURE<img id = ""stim"" ><div class = red_square id = ""topsquare"" ></div><img id = ""stim"" ><div class = red_square  id = ""bottomsquare"" ></div>",32,word_square,response,1,Space,true,,,
html-keyboard-response,482,26705386,null,"PICTURE",null,word,,,,, 'PICTURE',,
call-function,483,26705388,,"",,,,,,,,,
html-keyboard-response,484,26705491,null,"",null,,,,,,,,
math-period,485,26708049,4616,"",,,,,,,,,3
html-keyboard-response,486,26708152,null,"",null,,,,,,,,
math-period,487,26712845,8234,"",,,,,,,,,2
html-keyboard-response,488,26712948,null,"",null,,,,,,,,
math-period,489,26715207,4169,"",,,,,,,,,4
html-keyboard-response,490,26715310,null,"",null,,,,,,,,
math-period,491,26717575,4234,"",,,,,,,,,3
html-keyboard-response,492,26717678,null,"",null,,,,,,,,
math-period,493,26719934,4194,"",,,,,,,,,6
html-keyboard-response,494,26720036,null,"",null,,,,,,,,
math-period,495,26723700,6951,"",,,,,,,,,0
html-keyboard-response,496,26723803,null,"",null,,,,,,,,
math-period,497,26727306,6633,"",,,,,,,,,3
html-keyboard-response,498,26727407,null,"",null,,,,,,,,
math-period,499,26729390,null,"",,,,,,,,,
html-keyboard-response,500,26730393,null,"Recall Period!",null,,,,,,,,
call-function,501,26730394,,"",,,,,,,,,
html-keyboard-response,502,26730498,null,"",null,,,,,,,,
recall-period,503,26735465,25332,"",,,,,,,,,squid
html-keyboard-response,504,26735568,null,"",null,,,,,,,,
recall-period,505,26738564,17849,"",,,,,,,,,seafood
html-keyboard-response,506,26738666,null,"",null,,,,,,,,
recall-period,507,26743859,23335,"",,,,,,,,,suit
html-keyboard-response,508,26743962,null,"",null,,,,,,,,
recall-period,509,26751057,33952,"",,,,,,,,,case
html-keyboard-response,510,26751159,null,"",null,,,,,,,,
recall-period,511,26805396,null,"",,,,,,,,,
html-keyboard-response,512,26805899,null,"Time's Up!",null,,,,,,,,
html-keyboard-response,513,27060400,254497,"<p> Good job! You responded correctly to 84% of the red squares.</p>
                  <p>Be sure to keep your accuracy above 80%</p>
                  <p>Press any key to continue the experiment. Thank you!</p>",32,,,,,,,,
html-keyboard-response,514,27070859,10455,"<div style=""font-size:48px;"">Press any key to begin list 7 of 24 </div>",32,,,,,,,,
html-keyboard-response,515,27073363,null,"<div style=""font-size:60px;"">+</div>",null,,,,,,,,
html-keyboard-response,516,27073866,null,"COTTAGE<img id = ""stim"" ><div class = red_square id = ""topsquare"" ></div><img id = ""stim"" ><div class = red_square  id = ""bottomsquare"" ></div>",null,word_square,response,1,Space,false,,,
html-keyboard-response,517,27075370,null,"COTTAGE",null,word,,,,, 'COTTAGE',,
html-keyboard-response,518,27075528,156,"PIGEON<img id = ""stim"" ><div class = green_square id = ""topsquare"" ></div><img id = ""stim"" ><div class = green_square  id = ""bottomsquare"" ></div>",32,word_square,response,0,none,false,,,
html-keyboard-response,519,27077031,null,"PIGEON",null,word,,,,, 'PIGEON',,
html-keyboard-response,520,27077486,452,"SHOULDER<img id = ""stim"" ><div class = red_square id = ""topsquare"" ></div><img id = ""stim"" ><div class = red_square  id = ""bottomsquare"" ></div>",32,word_square,response,1,Space,true,,,
html-keyboard-response,521,27078988,null,"SHOULDER",null,word,,,,, 'SHOULDER',,
html-keyboard-response,522,27079491,null,"BLOUSE<img id = ""stim"" ><div class = green_square id = ""topsquare"" ></div><img id = ""stim"" ><div class = green_square  id = ""bottomsquare"" ></div>",null,word_square,response,0,none,true,,,
html-keyboard-response,523,27080994,null,"BLOUSE",null,word,,,,, 'BLOUSE',,
html-keyboard-response,524,27081498,null,"BASEMENT<img id = ""stim"" ><div class = green_square id = ""topsquare"" ></div><img id = ""stim"" ><div class = green_square  id = ""bottomsquare"" ></div>",null,word_square,response,0,none,true,,,
html-keyboard-response,525,27083002,null,"BASEMENT",null,word,,,,, 'BASEMENT',,
html-keyboard-response,526,27083505,null,"SHOELACE<img id = ""stim"" ><div class = red_square id = ""topsquare"" ></div><img id = ""stim"" ><div class = red_square  id = ""bottomsquare"" ></div>",null,word_square,response,1,Space,false,,,
html-keyboard-response,527,27085008,null,"SHOELACE",null,word,,,,, 'SHOELACE',,
html-keyboard-response,528,27085440,430,"DAGGER<img id = ""stim"" ><div class = red_square id = ""topsquare"" ></div><img id = ""stim"" ><div class = red_square  id = ""bottomsquare"" ></div>",32,word_square,response,1,Space,true,,,
html-keyboard-response,529,27086944,null,"DAGGER",null,word,,,,, 'DAGGER',,
html-keyboard-response,530,27087447,null,"POET<img id = ""stim"" ><div class = green_square id = ""topsquare"" ></div><img id = ""stim"" ><div class = green_square  id = ""bottomsquare"" ></div>",null,word_square,response,0,none,true,,,
html-keyboard-response,531,27088950,null,"POET",null,word,,,,, 'POET',,
html-keyboard-response,532,27089453,null,"CELLAR<img id = ""stim"" ><div class = red_square id = ""topsquare"" ></div><img id = ""stim"" ><div class = red_square  id = ""bottomsquare"" ></div>",null,word_square,response,1,Space,false,,,
html-keyboard-response,533,27090956,null,"CELLAR",null,word,,,,, 'CELLAR',,
html-keyboard-response,534,27091460,null,"PRIEST<img id = ""stim"" ><div class = green_square id = ""topsquare"" ></div><img id = ""stim"" ><div class = green_square  id = ""bottomsquare"" ></div>",null,word_square,response,0,none,true,,,
html-keyboard-response,535,27092964,null,"PRIEST",null,word,,,,, 'PRIEST',,
html-keyboard-response,536,27093466,null,"SLUG<img id = ""stim"" ><div class = red_square id = ""topsquare"" ></div><img id = ""stim"" ><div class = red_square  id = ""bottomsquare"" ></div>",null,word_square,response,1,Space,false,,,
html-keyboard-response,537,27094969,null,"SLUG",null,word,,,,, 'SLUG',,
html-keyboard-response,538,27095473,null,"ASIA<img id = ""stim"" ><div class = red_square id = ""topsquare"" ></div><img id = ""stim"" ><div class = red_square  id = ""bottomsquare"" ></div>",null,word_square,response,1,Space,false,,,
html-keyboard-response,539,27096976,null,"ASIA",null,word,,,,, 'ASIA',,
html-keyboard-response,540,27097479,null,"MUSHROOM<img id = ""stim"" ><div class = green_square id = ""topsquare"" ></div><img id = ""stim"" ><div class = green_square  id = ""bottomsquare"" ></div>",null,word_square,response,0,none,true,,,
html-keyboard-response,541,27098983,null,"MUSHROOM",null,word,,,,, 'MUSHROOM',,
html-keyboard-response,542,27099487,null,"OMELET<img id = ""stim"" ><div class = green_square id = ""topsquare"" ></div><img id = ""stim"" ><div class = green_square  id = ""bottomsquare"" ></div>",null,word_square,response,0,none,true,,,
html-keyboard-response,543,27100990,null,"OMELET",null,word,,,,, 'OMELET',,
html-keyboard-response,544,27101494,null,"BACON<img id = ""stim"" ><div class = red_square id = ""topsquare"" ></div><img id = ""stim"" ><div class = red_square  id = ""bottomsquare"" ></div>",null,word_square,response,1,Space,false,,,
html-keyboard-response,545,27102998,null,"BACON",null,word,,,,, 'BACON',,
html-keyboard-response,546,27103501,null,"BISCUIT<img id = ""stim"" ><div class = red_square id = ""topsquare"" ></div><img id = ""stim"" ><div class = red_square  id = ""bottomsquare"" ></div>",null,word_square,response,1,Space,false,,,
html-keyboard-response,547,27105004,null,"BISCUIT",null,word,,,,, 'BISCUIT',,
html-keyboard-response,548,27105509,null,"BENCH<img id = ""stim"" ><div class = green_square id = ""topsquare"" ></div><img id = ""stim"" ><div class = green_square  id = ""bottomsquare"" ></div>",null,word_square,response,0,none,true,,,
html-keyboard-response,549,27107012,null,"BENCH",null,word,,,,, 'BENCH',,
html-keyboard-response,550,27107515,null,"SHELF<img id = ""stim"" ><div class = green_square id = ""topsquare"" ></div><img id = ""stim"" ><div class = green_square  id = ""bottomsquare"" ></div>",null,word_square,response,0,none,true,,,
html-keyboard-response,551,27109019,null,"SHELF",null,word,,,,, 'SHELF',,
call-function,552,27109021,,"",,,,,,,,,
html-keyboard-response,553,27109124,null,"",null,,,,,,,,
math-period,554,27133022,null,"",,,,,,,,,
html-keyboard-response,555,27134025,null,"Recall Period!",null,,,,,,,,
call-function,556,27134027,,"",,,,,,,,,
html-keyboard-response,557,27134131,null,"",null,,,,,,,,
recall-period,558,27209029,null,"",,,,,,,,,
html-keyboard-response,559,27209532,null,"Time's Up!",null,,,,,,,,
html-keyboard-response,560,28703124,1493588,"<p> Good job! You responded correctly to 81% of the red squares.</p>
                  <p>Be sure to keep your accuracy above 80%</p>
                  <p>Press any key to continue the experiment. Thank you!</p>",32,,,,,,,,
html-keyboard-response,561,28705249,2122,"<div style=""font-size:48px;"">Press any key to begin list 8 of 24 </div>",32,,,,,,,,
html-keyboard-response,562,28707754,null,"<div style=""font-size:60px;"">+</div>",null,,,,,,,,
html-keyboard-response,563,28708259,null,"POSTAGE<img id = ""stim"" ><div class = red_square id = ""topsquare"" ></div><img id = ""stim"" ><div class = red_square  id = ""bottomsquare"" ></div>",null,word_square,response,1,Space,false,,,
html-keyboard-response,564,28709762,null,"POSTAGE",null,word,,,,, 'POSTAGE',,
html-keyboard-response,565,28710268,null,"TEMPLE<img id = ""stim"" ><div class = green_square id = ""topsquare"" ></div><img id = ""stim"" ><div class = green_square  id = ""bottomsquare"" ></div>",null,word_square,response,0,none,true,,,
html-keyboard-response,566,28711771,null,"TEMPLE",null,word,,,,, 'TEMPLE',,
html-keyboard-response,567,28712209,435,"SNOB<img id = ""stim"" ><div class = red_square id = ""topsquare"" ></div><img id = ""stim"" ><div class = red_square  id = ""bottomsquare"" ></div>",32,word_square,response,1,Space,true,,,
html-keyboard-response,568,28713712,null,"SNOB",null,word,,,,, 'SNOB',,
html-keyboard-response,569,28714216,null,"THIMBLE<img id = ""stim"" ><div class = green_square id = ""topsquare"" ></div><img id = ""stim"" ><div class = green_square  id = ""bottomsquare"" ></div>",null,word_square,response,0,none,true,,,
html-keyboard-response,570,28715718,null,"THIMBLE",null,word,,,,, 'THIMBLE',,
html-keyboard-response,571,28716222,null,"BROTHER<img id = ""stim"" ><div class = green_square id = ""topsquare"" ></div><img id = ""stim"" ><div class = green_square  id = ""bottomsquare"" ></div>",null,word_square,response,0,none,true,,,
html-keyboard-response,572,28717725,null,"BROTHER",null,word,,,,, 'BROTHER',,
html-keyboard-response,573,28718066,338,"GAZELLE<img id = ""stim"" ><div class = red_square id = ""topsquare"" ></div><img id = ""stim"" ><div class = red_square  id = ""bottomsquare"" ></div>",32,word_square,response,1,Space,true,,,
html-keyboard-response,574,28719569,null,"GAZELLE",null,word,,,,, 'GAZELLE',,
html-keyboard-response,575,28719946,374,"OX<img id = ""stim"" ><div class = red_square id = ""topsquare"" ></div><img id = ""stim"" ><div class = red_square  id = ""bottomsquare"" ></div>",32,word_square,response,1,Space,true,,,
html-keyboard-response,576,28721450,null,"OX",null,word,,,,, 'OX',,
html-keyboard-response,577,28721953,null,"SKATE<img id = ""stim"" ><div class = green_square id = ""topsquare"" ></div><img id = ""stim"" ><div class = green_square  id = ""bottomsquare"" ></div>",null,word_square,response,0,none,true,,,
html-keyboard-response,578,28723457,null,"SKATE",null,word,,,,, 'SKATE',,
html-keyboard-response,579,28723958,498,"JEEP<img id = ""stim"" ><div class = red_square id = ""topsquare"" ></div><img id = ""stim"" ><div class = red_square  id = ""bottomsquare"" ></div>",32,word_square,response,1,Space,true,,,
html-keyboard-response,580,28725460,null,"JEEP",null,word,,,,, 'JEEP',,
html-keyboard-response,581,28725963,null,"PIANO<img id = ""stim"" ><div class = green_square id = ""topsquare"" ></div><img id = ""stim"" ><div class = green_square  id = ""bottomsquare"" ></div>",null,word_square,response,0,none,true,,,
html-keyboard-response,582,28727467,null,"PIANO",null,word,,,,, 'PIANO',,
html-keyboard-response,583,28727820,351,"SHARK<img id = ""stim"" ><div class = red_square id = ""topsquare"" ></div><img id = ""stim"" ><div class = red_square  id = ""bottomsquare"" ></div>",32,word_square,response,1,Space,true,,,
html-keyboard-response,584,28729323,null,"SHARK",null,word,,,,, 'SHARK',,
html-keyboard-response,585,28729827,null,"JUDGE<img id = ""stim"" ><div class = red_square id = ""topsquare"" ></div><img id = ""stim"" ><div class = red_square  id = ""bottomsquare"" ></div>",null,word_square,response,1,Space,false,,,
html-keyboard-response,586,28731330,null,"JUDGE",null,word,,,,, 'JUDGE',,
html-keyboard-response,587,28731834,null,"PACKAGE<img id = ""stim"" ><div class = green_square id = ""topsquare"" ></div><img id = ""stim"" ><div class = green_square  id = ""bottomsquare"" ></div>",null,word_square,response,0,none,true,,,
html-keyboard-response,588,28733337,null,"PACKAGE",null,word,,,,, 'PACKAGE',,
html-keyboard-response,589,28733691,351,"IDOL<img id = ""stim"" ><div class = green_square id = ""topsquare"" ></div><img id = ""stim"" ><div class = green_square  id = ""bottomsquare"" ></div>",32,word_square,response,0,none,false,,,
html-keyboard-response,590,28735194,null,"IDOL",null,word,,,,, 'IDOL',,
html-keyboard-response,591,28735636,440,"WITNESS<img id = ""stim"" ><div class = red_square id = ""topsquare"" ></div><img id = ""stim"" ><div class = red_square  id = ""bottomsquare"" ></div>",32,word_square,response,1,Space,true,,,
html-keyboard-response,592,28737138,null,"WITNESS",null,word,,,,, 'WITNESS',,
html-keyboard-response,593,28737642,null,"CROOK<img id = ""stim"" ><div class = red_square id = ""topsquare"" ></div><img id = ""stim"" ><div class = red_square  id = ""bottomsquare"" ></div>",null,word_square,response,1,Space,false,,,
html-keyboard-response,594,28739145,null,"CROOK",null,word,,,,, 'CROOK',,
html-keyboard-response,595,28739517,369,"BRIEFCASE<img id = ""stim"" ><div class = green_square id = ""topsquare"" ></div><img id = ""stim"" ><div class = green_square  id = ""bottomsquare"" ></div>",32,word_square,response,0,none,false,,,
html-keyboard-response,596,28741021,null,"BRIEFCASE",null,word,,,,, 'BRIEFCASE',,
html-keyboard-response,597,28741524,null,"COURSE<img id = ""stim"" ><div class = green_square id = ""topsquare"" ></div><img id = ""stim"" ><div class = green_square  id = ""bottomsquare"" ></div>",null,word_square,response,0,none,true,,,
html-keyboard-response,598,28743027,null,"COURSE",null,word,,,,, 'COURSE',,
call-function,599,28743029,,"",,,,,,,,,
html-keyboard-response,600,28743133,null,"",null,,,,,,,,
math-period,601,28749027,17990,"",,,,,,,,,3
html-keyboard-response,602,28749132,null,"",null,,,,,,,,
math-period,603,28753266,7465,"",,,,,,,,,1
html-keyboard-response,604,28753370,null,"",null,,,,,,,,
math-period,605,28756946,6353,"",,,,,,,,,3
html-keyboard-response,606,28757049,null,"",null,,,,,,,,
math-period,607,28765612,15281,"",,,,,,,,,5
html-keyboard-response,608,28765716,null,"",null,,,,,,,,
math-period,609,28767032,null,"",,,,,,,,,
html-keyboard-response,610,28768036,null,"Recall Period!",null,,,,,,,,
call-function,611,28768037,,"",,,,,,,,,
html-keyboard-response,612,28768140,null,"",null,,,,,,,,
recall-period,613,28776716,36439,"",,,,,,,,,snob
html-keyboard-response,614,28776820,null,"",null,,,,,,,,
recall-period,615,28786710,66471,"",,,,,,,,,postage
html-keyboard-response,616,28786813,null,"",null,,,,,,,,
recall-period,617,28843040,null,"",,,,,,,,,
html-keyboard-response,618,28843544,null,"Time's Up!",null,,,,,,,,
html-keyboard-response,619,28879785,36236,"<p> Good job! You responded correctly to 80% of the red squares.</p>
                  <p>Be sure to keep your accuracy above 80%</p>
                  <p>Press any key to continue the experiment. Thank you!</p>",32,,,,,,,,
html-keyboard-response,620,28886893,7104,"<div style=""font-size:48px;"">Press any key to begin list 9 of 24 </div>",32,,,,,,,,
html-keyboard-response,621,28889397,null,"<div style=""font-size:60px;"">+</div>",null,,,,,,,,
html-keyboard-response,622,28889900,null,"RIVER<img id = ""stim"" ><div class = green_square id = ""topsquare"" ></div><img id = ""stim"" ><div class = green_square  id = ""bottomsquare"" ></div>",null,word_square,response,0,none,true,,,
html-keyboard-response,623,28891403,null,"RIVER",null,word,,,,, 'RIVER',,
html-keyboard-response,624,28891906,null,"KNAPSACK<img id = ""stim"" ><div class = green_square id = ""topsquare"" ></div><img id = ""stim"" ><div class = green_square  id = ""bottomsquare"" ></div>",null,word_square,response,0,none,true,,,
html-keyboard-response,625,28893410,null,"KNAPSACK",null,word,,,,, 'KNAPSACK',,
html-keyboard-response,626,28893687,274,"PATROL<img id = ""stim"" ><div class = red_square id = ""topsquare"" ></div><img id = ""stim"" ><div class = red_square  id = ""bottomsquare"" ></div>",32,word_square,response,1,Space,true,,,
html-keyboard-response,627,28895191,null,"PATROL",null,word,,,,, 'PATROL',,
html-keyboard-response,628,28895697,null,"HIGHWAY<img id = ""stim"" ><div class = green_square id = ""topsquare"" ></div><img id = ""stim"" ><div class = green_square  id = ""bottomsquare"" ></div>",null,word_square,response,0,none,true,,,
html-keyboard-response,629,28897201,null,"HIGHWAY",null,word,,,,, 'HIGHWAY',,
html-keyboard-response,630,28897704,null,"SNAKE<img id = ""stim"" ><div class = green_square id = ""topsquare"" ></div><img id = ""stim"" ><div class = green_square  id = ""bottomsquare"" ></div>",null,word_square,response,0,none,true,,,
html-keyboard-response,631,28899207,null,"SNAKE",null,word,,,,, 'SNAKE',,
html-keyboard-response,632,28899678,467,"COFFIN<img id = ""stim"" ><div class = red_square id = ""topsquare"" ></div><img id = ""stim"" ><div class = red_square  id = ""bottomsquare"" ></div>",32,word_square,response,1,Space,true,,,
html-keyboard-response,633,28901181,null,"COFFIN",null,word,,,,, 'COFFIN',,
html-keyboard-response,634,28901684,null,"SHELTER<img id = ""stim"" ><div class = green_square id = ""topsquare"" ></div><img id = ""stim"" ><div class = green_square  id = ""bottomsquare"" ></div>",null,word_square,response,0,none,true,,,
html-keyboard-response,635,28903188,null,"SHELTER",null,word,,,,, 'SHELTER',,
html-keyboard-response,636,28903578,388,"SATURN<img id = ""stim"" ><div class = red_square id = ""topsquare"" ></div><img id = ""stim"" ><div class = red_square  id = ""bottomsquare"" ></div>",32,word_square,response,1,Space,true,,,
html-keyboard-response,637,28905081,null,"SATURN",null,word,,,,, 'SATURN',,
html-keyboard-response,638,28905585,null,"VICTOR<img id = ""stim"" ><div class = red_square id = ""topsquare"" ></div><img id = ""stim"" ><div class = red_square  id = ""bottomsquare"" ></div>",null,word_square,response,1,Space,false,,,
html-keyboard-response,639,28907088,null,"VICTOR",null,word,,,,, 'VICTOR',,
html-keyboard-response,640,28907591,null,"TRUMPET<img id = ""stim"" ><div class = red_square id = ""topsquare"" ></div><img id = ""stim"" ><div class = red_square  id = ""bottomsquare"" ></div>",null,word_square,response,1,Space,false,,,
html-keyboard-response,641,28909094,null,"TRUMPET",null,word,,,,, 'TRUMPET',,
html-keyboard-response,642,28909597,null,"DRESS<img id = ""stim"" ><div class = green_square id = ""topsquare"" ></div><img id = ""stim"" ><div class = green_square  id = ""bottomsquare"" ></div>",null,word_square,response,0,none,true,,,
html-keyboard-response,643,28911101,null,"DRESS",null,word,,,,, 'DRESS',,
html-keyboard-response,644,28911505,402,"EUROPE<img id = ""stim"" ><div class = red_square id = ""topsquare"" ></div><img id = ""stim"" ><div class = red_square  id = ""bottomsquare"" ></div>",32,word_square,response,1,Space,true,,,
html-keyboard-response,645,28913009,null,"EUROPE",null,word,,,,, 'EUROPE',,
html-keyboard-response,646,28913513,null,"FRANCE<img id = ""stim"" ><div class = red_square id = ""topsquare"" ></div><img id = ""stim"" ><div class = red_square  id = ""bottomsquare"" ></div>",null,word_square,response,1,Space,false,,,
html-keyboard-response,647,28915016,null,"FRANCE",null,word,,,,, 'FRANCE',,
html-keyboard-response,648,28915519,null,"PEOPLE<img id = ""stim"" ><div class = green_square id = ""topsquare"" ></div><img id = ""stim"" ><div class = green_square  id = ""bottomsquare"" ></div>",null,word_square,response,0,none,true,,,
html-keyboard-response,649,28917022,null,"PEOPLE",null,word,,,,, 'PEOPLE',,
html-keyboard-response,650,28917526,null,"LIZARD<img id = ""stim"" ><div class = green_square id = ""topsquare"" ></div><img id = ""stim"" ><div class = green_square  id = ""bottomsquare"" ></div>",null,word_square,response,0,none,true,,,
html-keyboard-response,651,28919029,null,"LIZARD",null,word,,,,, 'LIZARD',,
html-keyboard-response,652,28919276,245,"LUNCH<img id = ""stim"" ><div class = red_square id = ""topsquare"" ></div><img id = ""stim"" ><div class = red_square  id = ""bottomsquare"" ></div>",32,word_square,response,1,Space,true,,,
html-keyboard-response,653,28920780,null,"LUNCH",null,word,,,,, 'LUNCH',,
html-keyboard-response,654,28921283,null,"PENGUIN<img id = ""stim"" ><div class = green_square id = ""topsquare"" ></div><img id = ""stim"" ><div class = green_square  id = ""bottomsquare"" ></div>",null,word_square,response,0,none,true,,,
html-keyboard-response,655,28922786,null,"PENGUIN",null,word,,,,, 'PENGUIN',,
html-keyboard-response,656,28923245,454,"BOX<img id = ""stim"" ><div class = red_square id = ""topsquare"" ></div><img id = ""stim"" ><div class = red_square  id = ""bottomsquare"" ></div>",32,word_square,response,1,Space,true,,,
html-keyboard-response,657,28924748,null,"BOX",null,word,,,,, 'BOX',,
call-function,658,28924751,,"",,,,,,,,,
html-keyboard-response,659,28924854,null,"",null,,,,,,,,
math-period,660,28927423,4430,"",,,,,,,,,5
html-keyboard-response,661,28927526,null,"",null,,,,,,,,
math-period,662,28930808,5841,"",,,,,,,,,4
html-keyboard-response,663,28930911,null,"",null,,,,,,,,
math-period,664,28935004,7615,"",,,,,,,,,5
html-keyboard-response,665,28935107,null,"",null,,,,,,,,
math-period,666,28943265,15509,"",,,,,,,,,1
html-keyboard-response,667,28943368,null,"",null,,,,,,,,
math-period,668,28948752,4979,"",,,,,,,,,4
html-keyboard-response,669,28949755,null,"Recall Period!",null,,,,,,,,
call-function,670,28949757,,"",,,,,,,,,
html-keyboard-response,671,28949859,null,"",null,,,,,,,,
recall-period,672,28953929,19721,"",,,,,,,,,lizard
html-keyboard-response,673,28954032,null,"",null,,,,,,,,
recall-period,674,28964463,112207,"",,,,,,,,,people
html-keyboard-response,675,28964567,null,"",null,,,,,,,,
recall-period,676,28973432,47554,"",,,,,,,,,snake
html-keyboard-response,677,28973536,null,"",null,,,,,,,,
recall-period,678,29024758,1782,"",,,,,,,,,rightarrow
html-keyboard-response,679,29025262,null,"Time's Up!",null,,,,,,,,
html-keyboard-response,680,29257365,232099,"<p> Good job! You responded correctly to 80% of the red squares.</p>
                  <p>Be sure to keep your accuracy above 80%</p>
                  <p>Press any key to continue the experiment. Thank you!</p>",32,,,,,,,,
html-keyboard-response,681,29258348,980,"<div style=""font-size:48px;"">Press any key to begin list 10 of 24 </div>",32,,,,,,,,
html-keyboard-response,682,29260851,null,"<div style=""font-size:60px;"">+</div>",null,,,,,,,,
html-keyboard-response,683,29261354,null,"EYELASH<img id = ""stim"" ><div class = green_square id = ""topsquare"" ></div><img id = ""stim"" ><div class = green_square  id = ""bottomsquare"" ></div>",null,word_square,response,0,none,true,,,
html-keyboard-response,684,29262858,null,"EYELASH",null,word,,,,, 'EYELASH',,
html-keyboard-response,685,29263360,null,"SIRLOIN<img id = ""stim"" ><div class = green_square id = ""topsquare"" ></div><img id = ""stim"" ><div class = green_square  id = ""bottomsquare"" ></div>",null,word_square,response,0,none,true,,,
html-keyboard-response,686,29264863,null,"SIRLOIN",null,word,,,,, 'SIRLOIN',,
html-keyboard-response,687,29265328,462,"BRIDE<img id = ""stim"" ><div class = red_square id = ""topsquare"" ></div><img id = ""stim"" ><div class = red_square  id = ""bottomsquare"" ></div>",32,word_square,response,1,Space,true,,,
html-keyboard-response,688,29266831,null,"BRIDE",null,word,,,,, 'BRIDE',,
html-keyboard-response,689,29267335,null,"PIGMENT<img id = ""stim"" ><div class = green_square id = ""topsquare"" ></div><img id = ""stim"" ><div class = green_square  id = ""bottomsquare"" ></div>",null,word_square,response,0,none,true,,,
html-keyboard-response,690,29268838,null,"PIGMENT",null,word,,,,, 'PIGMENT',,
html-keyboard-response,691,29269342,null,"MARKER<img id = ""stim"" ><div class = green_square id = ""topsquare"" ></div><img id = ""stim"" ><div class = green_square  id = ""bottomsquare"" ></div>",null,word_square,response,0,none,true,,,
html-keyboard-response,692,29270845,null,"MARKER",null,word,,,,, 'MARKER',,
html-keyboard-response,693,29271147,300,"OATMEAL<img id = ""stim"" ><div class = red_square id = ""topsquare"" ></div><img id = ""stim"" ><div class = red_square  id = ""bottomsquare"" ></div>",32,word_square,response,1,Space,true,,,
html-keyboard-response,694,29272651,null,"OATMEAL",null,word,,,,, 'OATMEAL',,
html-keyboard-response,695,29273154,null,"PUMPKIN<img id = ""stim"" ><div class = green_square id = ""topsquare"" ></div><img id = ""stim"" ><div class = green_square  id = ""bottomsquare"" ></div>",null,word_square,response,0,none,true,,,
html-keyboard-response,696,29274657,null,"PUMPKIN",null,word,,,,, 'PUMPKIN',,
html-keyboard-response,697,29274991,331,"ANGEL<img id = ""stim"" ><div class = red_square id = ""topsquare"" ></div><img id = ""stim"" ><div class = red_square  id = ""bottomsquare"" ></div>",32,word_square,response,1,Space,true,,,
html-keyboard-response,698,29276494,null,"ANGEL",null,word,,,,, 'ANGEL',,
html-keyboard-response,699,29276961,465,"TOURIST<img id = ""stim"" ><div class = red_square id = ""topsquare"" ></div><img id = ""stim"" ><div class = red_square  id = ""bottomsquare"" ></div>",32,word_square,response,1,Space,true,,,
html-keyboard-response,700,29278465,null,"TOURIST",null,word,,,,, 'TOURIST',,
html-keyboard-response,701,29278914,446,"ROOSTER<img id = ""stim"" ><div class = red_square id = ""topsquare"" ></div><img id = ""stim"" ><div class = red_square  id = ""bottomsquare"" ></div>",32,word_square,response,1,Space,true,,,
html-keyboard-response,702,29280417,null,"ROOSTER",null,word,,,,, 'ROOSTER',,
html-keyboard-response,703,29280920,null,"PERFUME<img id = ""stim"" ><div class = green_square id = ""topsquare"" ></div><img id = ""stim"" ><div class = green_square  id = ""bottomsquare"" ></div>",null,word_square,response,0,none,true,,,
html-keyboard-response,704,29282423,null,"PERFUME",null,word,,,,, 'PERFUME',,
html-keyboard-response,705,29282825,398,"JUGGLER<img id = ""stim"" ><div class = red_square id = ""topsquare"" ></div><img id = ""stim"" ><div class = red_square  id = ""bottomsquare"" ></div>",32,word_square,response,1,Space,true,,,
html-keyboard-response,706,29284329,null,"JUGGLER",null,word,,,,, 'JUGGLER',,
html-keyboard-response,707,29284753,420,"COUNTRY<img id = ""stim"" ><div class = red_square id = ""topsquare"" ></div><img id = ""stim"" ><div class = red_square  id = ""bottomsquare"" ></div>",32,word_square,response,1,Space,true,,,
html-keyboard-response,708,29286257,null,"COUNTRY",null,word,,,,, 'COUNTRY',,
html-keyboard-response,709,29286761,null,"BANJO<img id = ""stim"" ><div class = green_square id = ""topsquare"" ></div><img id = ""stim"" ><div class = green_square  id = ""bottomsquare"" ></div>",null,word_square,response,0,none,true,,,
html-keyboard-response,710,29288264,null,"BANJO",null,word,,,,, 'BANJO',,
html-keyboard-response,711,29288767,null,"FRAGRANCE<img id = ""stim"" ><div class = green_square id = ""topsquare"" ></div><img id = ""stim"" ><div class = green_square  id = ""bottomsquare"" ></div>",null,word_square,response,0,none,true,,,
html-keyboard-response,712,29290270,null,"FRAGRANCE",null,word,,,,, 'FRAGRANCE',,
html-keyboard-response,713,29290688,414,"DANCER<img id = ""stim"" ><div class = red_square id = ""topsquare"" ></div><img id = ""stim"" ><div class = red_square  id = ""bottomsquare"" ></div>",32,word_square,response,1,Space,true,,,
html-keyboard-response,714,29292191,null,"DANCER",null,word,,,,, 'DANCER',,
html-keyboard-response,715,29292695,null,"BEAST<img id = ""stim"" ><div class = green_square id = ""topsquare"" ></div><img id = ""stim"" ><div class = green_square  id = ""bottomsquare"" ></div>",null,word_square,response,0,none,true,,,
html-keyboard-response,716,29294198,null,"BEAST",null,word,,,,, 'BEAST',,
html-keyboard-response,717,29294555,354,"CHIPMUNK<img id = ""stim"" ><div class = red_square id = ""topsquare"" ></div><img id = ""stim"" ><div class = red_square  id = ""bottomsquare"" ></div>",32,word_square,response,1,Space,true,,,
html-keyboard-response,718,29296058,null,"CHIPMUNK",null,word,,,,, 'CHIPMUNK',,
call-function,719,29296061,,"",,,,,,,,,
html-keyboard-response,720,29296164,null,"",null,,,,,,,,
math-period,721,29301741,9309,"",,,,,,,,,4
html-keyboard-response,722,29301844,null,"",null,,,,,,,,
math-period,723,29305578,6756,"",,,,,,,,,5
html-keyboard-response,724,29305682,null,"",null,,,,,,,,
math-period,725,29309777,7320,"",,,,,,,,,3
html-keyboard-response,726,29309879,null,"",null,,,,,,,,
math-period,727,29314603,8528,"",,,,,,,,,3
html-keyboard-response,728,29314706,null,"",null,,,,,,,,
math-period,729,29318891,7616,"",,,,,,,,,0
html-keyboard-response,730,29318994,null,"",null,,,,,,,,
math-period,731,29320063,null,"",,,,,,,,,
html-keyboard-response,732,29321068,null,"Recall Period!",null,,,,,,,,
call-function,733,29321070,,"",,,,,,,,,
html-keyboard-response,734,29321173,null,"",null,,,,,,,,
recall-period,735,29325129,20803,"",,,,,,,,,badger
html-keyboard-response,736,29325232,null,"",null,,,,,,,,
recall-period,737,29327832,10050,"",,,,,,,,,sirlion
html-keyboard-response,738,29327936,null,"",null,,,,,,,,
recall-period,739,29336792,68602,"",,,,,,,,,eyelash
html-keyboard-response,740,29336895,null,"",null,,,,,,,,
recall-period,741,29396073,null,"",,,,,,,,,
html-keyboard-response,742,29396576,null,"Time's Up!",null,,,,,,,,
html-keyboard-response,743,31720494,2323916,"<p> Good job! You responded correctly to 82% of the red squares.</p>
                  <p>Be sure to keep your accuracy above 80%</p>
                  <p>Press any key to continue the experiment. Thank you!</p>",32,,,,,,,,
html-keyboard-response,744,31721833,1334,"<div style=""font-size:48px;"">Press any key to begin list 11 of 24 </div>",32,,,,,,,,
html-keyboard-response,745,31724338,null,"<div style=""font-size:60px;"">+</div>",null,,,,,,,,
html-keyboard-response,746,31724831,487,"DWARF<img id = ""stim"" ><div class = red_square id = ""topsquare"" ></div><img id = ""stim"" ><div class = red_square  id = ""bottomsquare"" ></div>",32,word_square,response,1,Space,true,,,
html-keyboard-response,747,31726335,null,"DWARF",null,word,,,,, 'DWARF',,
html-keyboard-response,748,31726751,412,"BROOK<img id = ""stim"" ><div class = red_square id = ""topsquare"" ></div><img id = ""stim"" ><div class = red_square  id = ""bottomsquare"" ></div>",32,word_square,response,1,Space,true,,,
html-keyboard-response,749,31728255,null,"BROOK",null,word,,,,, 'BROOK',,
html-keyboard-response,750,31728552,294,"TRIGGER<img id = ""stim"" ><div class = green_square id = ""topsquare"" ></div><img id = ""stim"" ><div class = green_square  id = ""bottomsquare"" ></div>",32,word_square,response,0,none,false,,,
html-keyboard-response,751,31730055,null,"TRIGGER",null,word,,,,, 'TRIGGER',,
html-keyboard-response,752,31730493,432,"LADY<img id = ""stim"" ><div class = red_square id = ""topsquare"" ></div><img id = ""stim"" ><div class = red_square  id = ""bottomsquare"" ></div>",32,word_square,response,1,Space,true,,,
html-keyboard-response,753,31731996,null,"LADY",null,word,,,,, 'LADY',,
html-keyboard-response,754,31732421,421,"DRUG<img id = ""stim"" ><div class = red_square id = ""topsquare"" ></div><img id = ""stim"" ><div class = red_square  id = ""bottomsquare"" ></div>",32,word_square,response,1,Space,true,,,
html-keyboard-response,755,31733925,null,"DRUG",null,word,,,,, 'DRUG',,
html-keyboard-response,756,31734428,null,"SPICE<img id = ""stim"" ><div class = green_square id = ""topsquare"" ></div><img id = ""stim"" ><div class = green_square  id = ""bottomsquare"" ></div>",null,word_square,response,0,none,true,,,
html-keyboard-response,757,31735932,null,"SPICE",null,word,,,,, 'SPICE',,
html-keyboard-response,758,31736343,409,"SOFA<img id = ""stim"" ><div class = red_square id = ""topsquare"" ></div><img id = ""stim"" ><div class = red_square  id = ""bottomsquare"" ></div>",32,word_square,response,1,Space,true,,,
html-keyboard-response,759,31737846,null,"SOFA",null,word,,,,, 'SOFA',,
html-keyboard-response,760,31738350,null,"OUTDOORS<img id = ""stim"" ><div class = green_square id = ""topsquare"" ></div><img id = ""stim"" ><div class = green_square  id = ""bottomsquare"" ></div>",null,word_square,response,0,none,true,,,
html-keyboard-response,761,31739853,null,"OUTDOORS",null,word,,,,, 'OUTDOORS',,
html-keyboard-response,762,31740358,null,"SHRUB<img id = ""stim"" ><div class = green_square id = ""topsquare"" ></div><img id = ""stim"" ><div class = green_square  id = ""bottomsquare"" ></div>",null,word_square,response,0,none,true,,,
html-keyboard-response,763,31741861,null,"SHRUB",null,word,,,,, 'SHRUB',,
html-keyboard-response,764,31742274,410,"FLUTE<img id = ""stim"" ><div class = green_square id = ""topsquare"" ></div><img id = ""stim"" ><div class = green_square  id = ""bottomsquare"" ></div>",32,word_square,response,0,none,false,,,
html-keyboard-response,765,31743778,null,"FLUTE",null,word,,,,, 'FLUTE',,
html-keyboard-response,766,31744195,414,"ROCKET<img id = ""stim"" ><div class = red_square id = ""topsquare"" ></div><img id = ""stim"" ><div class = red_square  id = ""bottomsquare"" ></div>",32,word_square,response,1,Space,true,,,
html-keyboard-response,767,31745698,null,"ROCKET",null,word,,,,, 'ROCKET',,
html-keyboard-response,768,31746201,null,"WHISKERS<img id = ""stim"" ><div class = green_square id = ""topsquare"" ></div><img id = ""stim"" ><div class = green_square  id = ""bottomsquare"" ></div>",null,word_square,response,0,none,true,,,
html-keyboard-response,769,31747705,null,"WHISKERS",null,word,,,,, 'WHISKERS',,
html-keyboard-response,770,31748208,null,"HANDCUFFS<img id = ""stim"" ><div class = green_square id = ""topsquare"" ></div><img id = ""stim"" ><div class = green_square  id = ""bottomsquare"" ></div>",null,word_square,response,0,none,true,,,
html-keyboard-response,771,31749711,null,"HANDCUFFS",null,word,,,,, 'HANDCUFFS',,
html-keyboard-response,772,31750094,379,"QUAIL<img id = ""stim"" ><div class = red_square id = ""topsquare"" ></div><img id = ""stim"" ><div class = red_square  id = ""bottomsquare"" ></div>",32,word_square,response,1,Space,true,,,
html-keyboard-response,773,31751596,null,"QUAIL",null,word,,,,, 'QUAIL',,
html-keyboard-response,774,31752101,null,"TURKEY<img id = ""stim"" ><div class = red_square id = ""topsquare"" ></div><img id = ""stim"" ><div class = red_square  id = ""bottomsquare"" ></div>",null,word_square,response,1,Space,false,,,
html-keyboard-response,775,31753604,null,"TURKEY",null,word,,,,, 'TURKEY',,
html-keyboard-response,776,31754108,null,"RESORT<img id = ""stim"" ><div class = green_square id = ""topsquare"" ></div><img id = ""stim"" ><div class = green_square  id = ""bottomsquare"" ></div>",null,word_square,response,0,none,true,,,
html-keyboard-response,777,31755611,null,"RESORT",null,word,,,,, 'RESORT',,
html-keyboard-response,778,31756036,422,"THICKET<img id = ""stim"" ><div class = red_square id = ""topsquare"" ></div><img id = ""stim"" ><div class = red_square  id = ""bottomsquare"" ></div>",32,word_square,response,1,Space,true,,,
html-keyboard-response,779,31757539,null,"THICKET",null,word,,,,, 'THICKET',,
html-keyboard-response,780,31758043,null,"CONCERT<img id = ""stim"" ><div class = green_square id = ""topsquare"" ></div><img id = ""stim"" ><div class = green_square  id = ""bottomsquare"" ></div>",null,word_square,response,0,none,true,,,
html-keyboard-response,781,31759547,null,"CONCERT",null,word,,,,, 'CONCERT',,
call-function,782,31759550,,"",,,,,,,,,
html-keyboard-response,783,31759652,null,"",null,,,,,,,,
math-period,784,31763091,5795,"",,,,,,,,,3
html-keyboard-response,785,31763196,null,"",null,,,,,,,,
math-period,786,31766282,5163,"",,,,,,,,,1
html-keyboard-response,787,31766386,null,"",null,,,,,,,,
math-period,788,31771023,8503,"",,,,,,,,,5
html-keyboard-response,789,31771129,null,"",null,,,,,,,,
math-period,790,31775160,7809,"",,,,,,,,,5
html-keyboard-response,791,31775262,null,"",null,,,,,,,,
math-period,792,31778805,6755,"",,,,,,,,,4
html-keyboard-response,793,31778908,null,"",null,,,,,,,,
math-period,794,31782820,7465,"",,,,,,,,,5
html-keyboard-response,795,31782924,null,"",null,,,,,,,,
math-period,796,31783551,null,"",,,,,,,,,
html-keyboard-response,797,31784555,null,"Recall Period!",null,,,,,,,,
call-function,798,31784557,,"",,,,,,,,,
html-keyboard-response,799,31784660,null,"",null,,,,,,,,
recall-period,800,31789902,21584,"",,,,,,,,,dwarf
html-keyboard-response,801,31790006,null,"",null,,,,,,,,
recall-period,802,31796629,27354,"",,,,,,,,,snob
html-keyboard-response,803,31796732,null,"",null,,,,,,,,
recall-period,804,31859559,null,"",,,,,,,,,
html-keyboard-response,805,31860063,null,"Time's Up!",null,,,,,,,,
html-keyboard-response,806,34943926,3083857,"<p> Good job! You responded correctly to 82% of the red squares.</p>
                  <p>Be sure to keep your accuracy above 80%</p>
                  <p>Press any key to continue the experiment. Thank you!</p>",32,,,,,,,,
html-keyboard-response,807,34945698,1767,"<div style=""font-size:48px;"">Press any key to begin list 12 of 24 </div>",13,,,,,,,,
html-keyboard-response,808,34948204,null,"<div style=""font-size:60px;"">+</div>",null,,,,,,,,
html-keyboard-response,809,34948708,null,"FOSSIL<img id = ""stim"" ><div class = red_square id = ""topsquare"" ></div><img id = ""stim"" ><div class = red_square  id = ""bottomsquare"" ></div>",null,word_square,response,1,Space,false,,,
html-keyboard-response,810,34950213,null,"FOSSIL",null,word,,,,, 'FOSSIL',,
html-keyboard-response,811,34950717,null,"BUTLER<img id = ""stim"" ><div class = red_square id = ""topsquare"" ></div><img id = ""stim"" ><div class = red_square  id = ""bottomsquare"" ></div>",null,word_square,response,1,Space,false,,,
html-keyboard-response,812,34952220,null,"BUTLER",null,word,,,,, 'BUTLER',,
html-keyboard-response,813,34952725,null,"PAIL<img id = ""stim"" ><div class = green_square id = ""topsquare"" ></div><img id = ""stim"" ><div class = green_square  id = ""bottomsquare"" ></div>",null,word_square,response,0,none,true,,,
html-keyboard-response,814,34954228,null,"PAIL",null,word,,,,, 'PAIL',,
html-keyboard-response,815,34954732,null,"BOARD<img id = ""stim"" ><div class = red_square id = ""topsquare"" ></div><img id = ""stim"" ><div class = red_square  id = ""bottomsquare"" ></div>",null,word_square,response,1,Space,false,,,
html-keyboard-response,816,34956236,null,"BOARD",null,word,,,,, 'BOARD',,
html-keyboard-response,817,34956740,null,"RULER<img id = ""stim"" ><div class = red_square id = ""topsquare"" ></div><img id = ""stim"" ><div class = red_square  id = ""bottomsquare"" ></div>",null,word_square,response,1,Space,false,,,
html-keyboard-response,818,34958244,null,"RULER",null,word,,,,, 'RULER',,
html-keyboard-response,819,34958748,null,"COFFEE<img id = ""stim"" ><div class = green_square id = ""topsquare"" ></div><img id = ""stim"" ><div class = green_square  id = ""bottomsquare"" ></div>",null,word_square,response,0,none,true,,,
html-keyboard-response,820,34960251,null,"COFFEE",null,word,,,,, 'COFFEE',,
html-keyboard-response,821,34960755,null,"MOTHER<img id = ""stim"" ><div class = red_square id = ""topsquare"" ></div><img id = ""stim"" ><div class = red_square  id = ""bottomsquare"" ></div>",null,word_square,response,1,Space,false,,,
html-keyboard-response,822,34962258,null,"MOTHER",null,word,,,,, 'MOTHER',,
html-keyboard-response,823,34962763,null,"FINGER<img id = ""stim"" ><div class = green_square id = ""topsquare"" ></div><img id = ""stim"" ><div class = green_square  id = ""bottomsquare"" ></div>",null,word_square,response,0,none,true,,,
html-keyboard-response,824,34964266,null,"FINGER",null,word,,,,, 'FINGER',,
html-keyboard-response,825,34964770,null,"HAND<img id = ""stim"" ><div class = green_square id = ""topsquare"" ></div><img id = ""stim"" ><div class = green_square  id = ""bottomsquare"" ></div>",null,word_square,response,0,none,true,,,
html-keyboard-response,826,34966273,null,"HAND",null,word,,,,, 'HAND',,
html-keyboard-response,827,34966776,null,"GIRAFFE<img id = ""stim"" ><div class = green_square id = ""topsquare"" ></div><img id = ""stim"" ><div class = green_square  id = ""bottomsquare"" ></div>",null,word_square,response,0,none,true,,,
html-keyboard-response,828,34968278,null,"GIRAFFE",null,word,,,,, 'GIRAFFE',,
html-keyboard-response,829,34968665,382,"BANDIT<img id = ""stim"" ><div class = red_square id = ""topsquare"" ></div><img id = ""stim"" ><div class = red_square  id = ""bottomsquare"" ></div>",32,word_square,response,1,Space,true,,,
html-keyboard-response,830,34970167,null,"BANDIT",null,word,,,,, 'BANDIT',,
