trial_type,trial_index,time_elapsed,rt,stimulus,key_press,test_part,task,targ_cond,correctKeyCode,correct,word,value,response
pavlovia,0,671,,"",,,,,,,,,
external-html,1,3058,2269.475,"",,,,,,,,,
html-keyboard-response,2,3961,900.6700000000046,"Welcome to the experiment. Press any key to begin.",32,,,,,,,,
html-keyboard-response,3,16438,12474.734999999997,"<p>You will see a list of words and colored squares in the following task.<p><p>Press the spacebar whenever you see a GREEN square.<p><p>Do not press a key if the square is RED<p><p>Press the spacebar to continue.</p>",32,,,,,,,,
html-keyboard-response,4,28571,11630.86,"<p>Please try to remember as many of the words as you can, and try to think about the meaning of each word as it appears.<p><p>After the detection and encoding task you will be asked to solve some math problems for 24 seconds.<p> Please solve as many problems as you can in the time given. <p>",32,,,,,,,,
html-keyboard-response,5,36504,7430.649999999998,"After solving the math problems, you will be asked to type in as many words <p>from the previous list as you can remember for 75 seconds.<p> If you finish recalling before the 75 seconds are up,<p> just sit tight and try to think of any more words you could have missed. <p><p>We will begin with a brief practice session<p>Press the spacebar to begin the practice.</p>",32,,,,,,,,
html-keyboard-response,6,39012,null,"<div style=""font-size:60px;"">+</div>",null,,,,,,,,
html-keyboard-response,7,39525,null,"HAPPY<img id = ""stim"" ><div class = red_square id = ""topsquare"" ></div><img id = ""stim"" ><div class = red_square  id = ""bottomsquare"" ></div>",null,word_square,prac_response,0,none,true,,,
html-keyboard-response,8,41033,null,"HAPPY",null,word,,,,,HAPPY,,
html-keyboard-response,9,41539,null,"COLD<img id = ""stim"" ><div class = green_square id = ""topsquare"" ></div><img id = ""stim"" ><div class = green_square  id = ""bottomsquare"" ></div>",null,word_square,prac_response,1,Space,false,,,
html-keyboard-response,10,43040,null,"COLD",null,word,,,,,COLD,,
html-keyboard-response,11,43547,null,"HEAVY<img id = ""stim"" ><div class = green_square id = ""topsquare"" ></div><img id = ""stim"" ><div class = green_square  id = ""bottomsquare"" ></div>",null,word_square,prac_response,1,Space,false,,,
html-keyboard-response,12,45050,null,"HEAVY",null,word,,,,,HEAVY,,
html-keyboard-response,13,45557,null,"FUNNY<img id = ""stim"" ><div class = red_square id = ""topsquare"" ></div><img id = ""stim"" ><div class = red_square  id = ""bottomsquare"" ></div>",null,word_square,prac_response,0,none,true,,,
html-keyboard-response,14,47060,null,"FUNNY",null,word,,,,,FUNNY,,
html-keyboard-response,15,47563,null,"SCARY<img id = ""stim"" ><div class = green_square id = ""topsquare"" ></div><img id = ""stim"" ><div class = green_square  id = ""bottomsquare"" ></div>",null,word_square,prac_response,1,Space,false,,,
html-keyboard-response,16,49070,null,"SCARY",null,word,,,,,SCARY,,
html-keyboard-response,17,49577,null,"PEACEFUL<img id = ""stim"" ><div class = green_square id = ""topsquare"" ></div><img id = ""stim"" ><div class = green_square  id = ""bottomsquare"" ></div>",null,word_square,prac_response,1,Space,false,,,
html-keyboard-response,18,51079,null,"PEACEFUL",null,word,,,,,PEACEFUL,,
html-keyboard-response,19,51581,null,"LITTLE<img id = ""stim"" ><div class = red_square id = ""topsquare"" ></div><img id = ""stim"" ><div class = red_square  id = ""bottomsquare"" ></div>",null,word_square,prac_response,0,none,true,,,
html-keyboard-response,20,53082,null,"LITTLE",null,word,,,,,LITTLE,,
html-keyboard-response,21,53589,null,"TIRED<img id = ""stim"" ><div class = red_square id = ""topsquare"" ></div><img id = ""stim"" ><div class = red_square  id = ""bottomsquare"" ></div>",null,word_square,prac_response,0,none,true,,,
html-keyboard-response,22,55092,null,"TIRED",null,word,,,,,TIRED,,
html-keyboard-response,23,55597,null,"ENTERTAINING<img id = ""stim"" ><div class = red_square id = ""topsquare"" ></div><img id = ""stim"" ><div class = red_square  id = ""bottomsquare"" ></div>",null,word_square,prac_response,0,none,true,,,
html-keyboard-response,24,57101,null,"ENTERTAINING",null,word,,,,,ENTERTAINING,,
html-keyboard-response,25,57604,null,"GRATEFUL<img id = ""stim"" ><div class = green_square id = ""topsquare"" ></div><img id = ""stim"" ><div class = green_square  id = ""bottomsquare"" ></div>",null,word_square,prac_response,1,Space,false,,,
html-keyboard-response,26,59109,null,"GRATEFUL",null,word,,,,,GRATEFUL,,
html-keyboard-response,27,59614,null,"LOUD<img id = ""stim"" ><div class = red_square id = ""topsquare"" ></div><img id = ""stim"" ><div class = red_square  id = ""bottomsquare"" ></div>",null,word_square,prac_response,0,none,true,,,
html-keyboard-response,28,61116,null,"LOUD",null,word,,,,,LOUD,,
html-keyboard-response,29,61619,null,"SMART<img id = ""stim"" ><div class = green_square id = ""topsquare"" ></div><img id = ""stim"" ><div class = green_square  id = ""bottomsquare"" ></div>",null,word_square,prac_response,1,Space,false,,,
html-keyboard-response,30,63126,null,"SMART",null,word,,,,,SMART,,
html-keyboard-response,31,63628,316.5599999999904,"SMOOTH<img id = ""stim"" ><div class = green_square id = ""topsquare"" ></div><img id = ""stim"" ><div class = green_square  id = ""bottomsquare"" ></div>",87,word_square,prac_response,1,Space,false,,,
html-keyboard-response,32,65135,null,"SMOOTH",null,word,,,,,SMOOTH,,
html-keyboard-response,33,65640,null,"DISHONEST<img id = ""stim"" ><div class = red_square id = ""topsquare"" ></div><img id = ""stim"" ><div class = red_square  id = ""bottomsquare"" ></div>",null,word_square,prac_response,0,none,true,,,
html-keyboard-response,34,67142,null,"DISHONEST",null,word,,,,,DISHONEST,,
html-keyboard-response,35,67649,null,"WEALTHY<img id = ""stim"" ><div class = green_square id = ""topsquare"" ></div><img id = ""stim"" ><div class = green_square  id = ""bottomsquare"" ></div>",null,word_square,prac_response,1,Space,false,,,
html-keyboard-response,36,69155,null,"WEALTHY",null,word,,,,,WEALTHY,,
html-keyboard-response,37,69662,396.50000000001455,"BEAUTIFUL<img id = ""stim"" ><div class = red_square id = ""topsquare"" ></div><img id = ""stim"" ><div class = red_square  id = ""bottomsquare"" ></div>",32,word_square,prac_response,0,none,true,,,
html-keyboard-response,38,71167,null,"BEAUTIFUL",null,word,,,,,BEAUTIFUL,,
html-keyboard-response,39,71672,null,"DREARY<img id = ""stim"" ><div class = red_square id = ""topsquare"" ></div><img id = ""stim"" ><div class = red_square  id = ""bottomsquare"" ></div>",null,word_square,prac_response,0,none,true,,,
html-keyboard-response,40,73177,null,"DREARY",null,word,,,,,DREARY,,
html-keyboard-response,41,73681,489.7400000000198,"PLAYFUL<img id = ""stim"" ><div class = green_square id = ""topsquare"" ></div><img id = ""stim"" ><div class = green_square  id = ""bottomsquare"" ></div>",87,word_square,prac_response,1,Space,false,,,
html-keyboard-response,42,75185,null,"PLAYFUL",null,word,,,,,PLAYFUL,,
html-keyboard-response,43,83519,8331.590000000011,"<p> Uh oh. You responded correctly on 50% of the GREEN squares.</p>
                  <p>We need you keep your accuracy above 80%</p>
                  <p>We're going to try once more to make sure you understand the task. press any key to continue.</p>",32,,,,,,,,
html-keyboard-response,44,87203,3681.904999999999,"<p>You will see a list of words and colored squares in the following task.<p><p>Press the spacebar whenever you see a GREEN square.<p><p>Do not press a key if the square is RED<p><p>Press the spacebar to continue.</p>",32,,,,,,,,
html-keyboard-response,45,89709,null,"<div style=""font-size:60px;"">+</div>",null,,,,,,,,
html-keyboard-response,46,90216,null,"HAPPY<img id = ""stim"" ><div class = red_square id = ""topsquare"" ></div><img id = ""stim"" ><div class = red_square  id = ""bottomsquare"" ></div>",null,word_square,response,0,none,true,,,
html-keyboard-response,47,91718,null,"HAPPY",null,word,,,,,HAPPY,,
html-keyboard-response,48,92213,493.1849999999977,"COLD<img id = ""stim"" ><div class = green_square id = ""topsquare"" ></div><img id = ""stim"" ><div class = green_square  id = ""bottomsquare"" ></div>",32,word_square,response,1,Space,true,,,
html-keyboard-response,49,93720,null,"COLD",null,word,,,,,COLD,,
html-keyboard-response,50,94227,null,"HEAVY<img id = ""stim"" ><div class = green_square id = ""topsquare"" ></div><img id = ""stim"" ><div class = green_square  id = ""bottomsquare"" ></div>",null,word_square,response,1,Space,false,,,
html-keyboard-response,51,95728,null,"HEAVY",null,word,,,,,HEAVY,,
html-keyboard-response,52,96231,null,"FUNNY<img id = ""stim"" ><div class = red_square id = ""topsquare"" ></div><img id = ""stim"" ><div class = red_square  id = ""bottomsquare"" ></div>",null,word_square,response,0,none,true,,,
html-keyboard-response,53,97734,null,"FUNNY",null,word,,,,,FUNNY,,
html-keyboard-response,54,98241,null,"SCARY<img id = ""stim"" ><div class = green_square id = ""topsquare"" ></div><img id = ""stim"" ><div class = green_square  id = ""bottomsquare"" ></div>",null,word_square,response,1,Space,false,,,
html-keyboard-response,55,99744,null,"SCARY",null,word,,,,,SCARY,,
html-keyboard-response,56,100248,null,"PEACEFUL<img id = ""stim"" ><div class = green_square id = ""topsquare"" ></div><img id = ""stim"" ><div class = green_square  id = ""bottomsquare"" ></div>",null,word_square,response,1,Space,false,,,
html-keyboard-response,57,101750,null,"PEACEFUL",null,word,,,,,PEACEFUL,,
html-keyboard-response,58,102257,null,"LITTLE<img id = ""stim"" ><div class = red_square id = ""topsquare"" ></div><img id = ""stim"" ><div class = red_square  id = ""bottomsquare"" ></div>",null,word_square,response,0,none,true,,,
html-keyboard-response,59,103759,null,"LITTLE",null,word,,,,,LITTLE,,
html-keyboard-response,60,104265,null,"TIRED<img id = ""stim"" ><div class = red_square id = ""topsquare"" ></div><img id = ""stim"" ><div class = red_square  id = ""bottomsquare"" ></div>",null,word_square,response,0,none,true,,,
html-keyboard-response,61,105767,null,"TIRED",null,word,,,,,TIRED,,
html-keyboard-response,62,106269,null,"ENTERTAINING<img id = ""stim"" ><div class = red_square id = ""topsquare"" ></div><img id = ""stim"" ><div class = red_square  id = ""bottomsquare"" ></div>",null,word_square,response,0,none,true,,,
html-keyboard-response,63,107770,null,"ENTERTAINING",null,word,,,,,ENTERTAINING,,
html-keyboard-response,64,108278,null,"GRATEFUL<img id = ""stim"" ><div class = green_square id = ""topsquare"" ></div><img id = ""stim"" ><div class = green_square  id = ""bottomsquare"" ></div>",null,word_square,response,1,Space,false,,,
html-keyboard-response,65,109781,null,"GRATEFUL",null,word,,,,,GRATEFUL,,
html-keyboard-response,66,110288,null,"LOUD<img id = ""stim"" ><div class = red_square id = ""topsquare"" ></div><img id = ""stim"" ><div class = red_square  id = ""bottomsquare"" ></div>",null,word_square,response,0,none,true,,,
html-keyboard-response,67,111791,null,"LOUD",null,word,,,,,LOUD,,
html-keyboard-response,68,112140,347.63499999999476,"SMART<img id = ""stim"" ><div class = green_square id = ""topsquare"" ></div><img id = ""stim"" ><div class = green_square  id = ""bottomsquare"" ></div>",32,word_square,response,1,Space,true,,,
html-keyboard-response,69,113643,null,"SMART",null,word,,,,,SMART,,
html-keyboard-response,70,114147,null,"SMOOTH<img id = ""stim"" ><div class = green_square id = ""topsquare"" ></div><img id = ""stim"" ><div class = green_square  id = ""bottomsquare"" ></div>",null,word_square,response,1,Space,false,,,
html-keyboard-response,71,115652,null,"SMOOTH",null,word,,,,,SMOOTH,,
html-keyboard-response,72,116155,493.1999999999971,"DISHONEST<img id = ""stim"" ><div class = red_square id = ""topsquare"" ></div><img id = ""stim"" ><div class = red_square  id = ""bottomsquare"" ></div>",87,word_square,response,0,none,true,,,
html-keyboard-response,73,117661,null,"DISHONEST",null,word,,,,,DISHONEST,,
html-keyboard-response,74,118165,null,"WEALTHY<img id = ""stim"" ><div class = green_square id = ""topsquare"" ></div><img id = ""stim"" ><div class = green_square  id = ""bottomsquare"" ></div>",null,word_square,response,1,Space,false,,,
html-keyboard-response,75,119669,null,"WEALTHY",null,word,,,,,WEALTHY,,
html-keyboard-response,76,120173,364.1900000000169,"BEAUTIFUL<img id = ""stim"" ><div class = red_square id = ""topsquare"" ></div><img id = ""stim"" ><div class = red_square  id = ""bottomsquare"" ></div>",87,word_square,response,0,none,true,,,
html-keyboard-response,77,121676,null,"BEAUTIFUL",null,word,,,,,BEAUTIFUL,,
html-keyboard-response,78,122183,null,"DREARY<img id = ""stim"" ><div class = red_square id = ""topsquare"" ></div><img id = ""stim"" ><div class = red_square  id = ""bottomsquare"" ></div>",null,word_square,response,0,none,true,,,
html-keyboard-response,79,123690,null,"DREARY",null,word,,,,,DREARY,,
html-keyboard-response,80,124092,399.4850000000006,"PLAYFUL<img id = ""stim"" ><div class = green_square id = ""topsquare"" ></div><img id = ""stim"" ><div class = green_square  id = ""bottomsquare"" ></div>",32,word_square,response,1,Space,true,,,
html-keyboard-response,81,125599,null,"PLAYFUL",null,word,,,,,PLAYFUL,,
html-keyboard-response,82,127340,1739.644999999975,"<p> Uh oh. You responded correctly on 67% of the GREEN squares.</p>
                  <p>We need you keep your accuracy above 80%</p>
                  <p>Press any key to begin the math and recall sections. Thank you!</p>",32,,,,,,,,
call-function,83,127341,,"",,,,,,,,,
html-keyboard-response,84,127444,null,"",null,,,,,,,,
math-period,85,133894,11822.599999999948,"",,,,,,,,,4
html-keyboard-response,86,133997,null,"",null,,,,,,,,
math-period,87,137564,6943.454999999958,"",,,,,,,,,2
html-keyboard-response,88,137667,null,"",null,,,,,,,,
math-period,89,139376,3225.365000000078,"",,,,,,,,,4
html-keyboard-response,90,139479,null,"",null,,,,,,,,
math-period,91,142493,5839.130000000005,"",,,,,,,,,5
html-keyboard-response,92,142597,null,"",null,,,,,,,,
math-period,93,147990,10514.88499999998,"",,,,,,,,,3
html-keyboard-response,94,148093,null,"",null,,,,,,,,
math-period,95,151343,null,"",,,,,,,,,
html-keyboard-response,96,152350,null,"Recall Period!",null,,,,,,,,
call-function,97,152351,,"",,,,,,,,,
html-keyboard-response,98,152454,null,"",null,,,,,,,,
recall-period,99,159165,54883.46500000029,"",,,,,,,,,beautiful
html-keyboard-response,100,159268,null,"",null,,,,,,,,
recall-period,101,163973,27177.299999999756,"",,,,,,,,,deary
html-keyboard-response,102,164076,null,"",null,,,,,,,,
recall-period,103,166458,10940.545000000158,"",,,,,,,,,smooth 
html-keyboard-response,104,166561,null,"",null,,,,,,,,
recall-period,105,171006,22008.675000000047,"",,,,,,,,,happy
html-keyboard-response,106,171109,null,"",null,,,,,,,,
recall-period,107,174412,16541.14500000002,"",,,,,,,,,tired
html-keyboard-response,108,174517,null,"",null,,,,,,,,
recall-period,109,182980,77849.81499999994,"",,,,,,,,,exciting
html-keyboard-response,110,183083,null,"",null,,,,,,,,
recall-period,111,201786,18700.099999999977,"",,,,,,,,,
html-keyboard-response,112,201890,null,"",null,,,,,,,,
recall-period,113,205689,19519.78500000006,"",,,,,,,,,kind
html-keyboard-response,114,205796,null,"",null,,,,,,,,
recall-period,115,227354,null,"",,,,,,,,,
html-keyboard-response,116,227858,null,"Time's Up!",null,,,,,,,,
html-keyboard-response,117,236660,8800.74000000002,"<p>We will now begin the experiment!<p><p>Please try to remember all words from each list.<p><p>Press the spacebar whenever you see a GREEN square.<p><p><p><p>Press the spacebar to begin.</p>",32,,,,,,,,
html-keyboard-response,118,240781,3618.679999999993,"<div style=""font-size:48px;"">Press any key to begin list 1 of 24 </div>",32,,,,,,,,
html-keyboard-response,119,243284,null,"<div style=""font-size:60px;"">+</div>",null,,,,,,,,
html-keyboard-response,120,243696,410.92500000001746,"THRONE<img id = ""stim"" ><div class = green_square id = ""topsquare"" ></div><img id = ""stim"" ><div class = green_square  id = ""bottomsquare"" ></div>",32,word_square,response,1,Space,true,,,
html-keyboard-response,121,245202,null,"THRONE",null,word,,,,, 'THRONE',,
html-keyboard-response,122,245704,null,"CATTLE<img id = ""stim"" ><div class = red_square id = ""topsquare"" ></div><img id = ""stim"" ><div class = red_square  id = ""bottomsquare"" ></div>",null,word_square,response,0,none,true,,,
html-keyboard-response,123,247208,null,"CATTLE",null,word,,,,, 'CATTLE',,
html-keyboard-response,124,247715,null,"MOP<img id = ""stim"" ><div class = green_square id = ""topsquare"" ></div><img id = ""stim"" ><div class = green_square  id = ""bottomsquare"" ></div>",null,word_square,response,1,Space,false,,,
html-keyboard-response,125,249218,null,"MOP",null,word,,,,, 'MOP',,
html-keyboard-response,126,249720,null,"OUTFIT<img id = ""stim"" ><div class = red_square id = ""topsquare"" ></div><img id = ""stim"" ><div class = red_square  id = ""bottomsquare"" ></div>",null,word_square,response,0,none,true,,,
html-keyboard-response,127,251221,null,"OUTFIT",null,word,,,,, 'OUTFIT',,
html-keyboard-response,128,251566,344.01500000001397,"KITCHEN<img id = ""stim"" ><div class = green_square id = ""topsquare"" ></div><img id = ""stim"" ><div class = green_square  id = ""bottomsquare"" ></div>",32,word_square,response,1,Space,true,,,
html-keyboard-response,129,253073,null,"KITCHEN",null,word,,,,, 'KITCHEN',,
html-keyboard-response,130,253580,null,"VILLAGE<img id = ""stim"" ><div class = red_square id = ""topsquare"" ></div><img id = ""stim"" ><div class = red_square  id = ""bottomsquare"" ></div>",null,word_square,response,0,none,true,,,
html-keyboard-response,131,255086,null,"VILLAGE",null,word,,,,, 'VILLAGE',,
html-keyboard-response,132,255486,398.4100000000035,"JOKER<img id = ""stim"" ><div class = green_square id = ""topsquare"" ></div><img id = ""stim"" ><div class = green_square  id = ""bottomsquare"" ></div>",32,word_square,response,1,Space,true,,,
html-keyboard-response,133,256988,null,"JOKER",null,word,,,,, 'JOKER',,
html-keyboard-response,134,257495,null,"PRAIRIE<img id = ""stim"" ><div class = red_square id = ""topsquare"" ></div><img id = ""stim"" ><div class = red_square  id = ""bottomsquare"" ></div>",null,word_square,response,0,none,true,,,
html-keyboard-response,135,259002,null,"PRAIRIE",null,word,,,,, 'PRAIRIE',,
html-keyboard-response,136,259509,null,"MARS<img id = ""stim"" ><div class = red_square id = ""topsquare"" ></div><img id = ""stim"" ><div class = red_square  id = ""bottomsquare"" ></div>",null,word_square,response,0,none,true,,,
html-keyboard-response,137,261013,null,"MARS",null,word,,,,, 'MARS',,
html-keyboard-response,138,261518,null,"GROUND<img id = ""stim"" ><div class = green_square id = ""topsquare"" ></div><img id = ""stim"" ><div class = green_square  id = ""bottomsquare"" ></div>",null,word_square,response,1,Space,false,,,
html-keyboard-response,139,263022,null,"GROUND",null,word,,,,, 'GROUND',,
html-keyboard-response,140,263527,null,"BUG<img id = ""stim"" ><div class = red_square id = ""topsquare"" ></div><img id = ""stim"" ><div class = red_square  id = ""bottomsquare"" ></div>",null,word_square,response,0,none,true,,,
html-keyboard-response,141,265031,null,"BUG",null,word,,,,, 'BUG',,
html-keyboard-response,142,265536,null,"COCOON<img id = ""stim"" ><div class = red_square id = ""topsquare"" ></div><img id = ""stim"" ><div class = red_square  id = ""bottomsquare"" ></div>",null,word_square,response,0,none,true,,,
html-keyboard-response,143,267040,null,"COCOON",null,word,,,,, 'COCOON',,
html-keyboard-response,144,267449,407.1699999999837,"BUSH<img id = ""stim"" ><div class = green_square id = ""topsquare"" ></div><img id = ""stim"" ><div class = green_square  id = ""bottomsquare"" ></div>",32,word_square,response,1,Space,true,,,
html-keyboard-response,145,268955,null,"BUSH",null,word,,,,, 'BUSH',,
html-keyboard-response,146,269460,null,"WALNUT<img id = ""stim"" ><div class = green_square id = ""topsquare"" ></div><img id = ""stim"" ><div class = green_square  id = ""bottomsquare"" ></div>",null,word_square,response,1,Space,false,,,
html-keyboard-response,147,270963,null,"WALNUT",null,word,,,,, 'WALNUT',,
html-keyboard-response,148,271470,null,"TRUCK<img id = ""stim"" ><div class = green_square id = ""topsquare"" ></div><img id = ""stim"" ><div class = green_square  id = ""bottomsquare"" ></div>",null,word_square,response,1,Space,false,,,
html-keyboard-response,149,272973,null,"TRUCK",null,word,,,,, 'TRUCK',,
html-keyboard-response,150,273477,null,"DRIVER<img id = ""stim"" ><div class = red_square id = ""topsquare"" ></div><img id = ""stim"" ><div class = red_square  id = ""bottomsquare"" ></div>",null,word_square,response,0,none,true,,,
html-keyboard-response,151,274982,null,"DRIVER",null,word,,,,, 'DRIVER',,
html-keyboard-response,152,275489,null,"SEASHORE<img id = ""stim"" ><div class = red_square id = ""topsquare"" ></div><img id = ""stim"" ><div class = red_square  id = ""bottomsquare"" ></div>",null,word_square,response,0,none,true,,,
html-keyboard-response,153,276993,null,"SEASHORE",null,word,,,,, 'SEASHORE',,
html-keyboard-response,154,277400,405.59500000003027,"SUBURB<img id = ""stim"" ><div class = green_square id = ""topsquare"" ></div><img id = ""stim"" ><div class = green_square  id = ""bottomsquare"" ></div>",32,word_square,response,1,Space,true,,,
html-keyboard-response,155,278904,null,"SUBURB",null,word,,,,, 'SUBURB',,
call-function,156,278905,,"",,,,,,,,,
html-keyboard-response,157,279007,null,"",null,,,,,,,,
math-period,158,283666,7621.629999999888,"",,,,,,,,,5
html-keyboard-response,159,283768,null,"",null,,,,,,,,
math-period,160,288626,9241.72000000003,"",,,,,,,,,0
html-keyboard-response,161,288731,null,"",null,,,,,,,,
math-period,162,293444,16504.389999999898,"",,,,,,,,,2
html-keyboard-response,163,293547,null,"",null,,,,,,,,
math-period,164,302075,16816.14499999996,"",,,,,,,,,2
html-keyboard-response,165,302182,null,"",null,,,,,,,,
math-period,166,302909,null,"",,,,,,,,,
html-keyboard-response,167,303915,null,"Recall Period!",null,,,,,,,,
call-function,168,303916,,"",,,,,,,,,
html-keyboard-response,169,304022,null,"",null,,,,,,,,
recall-period,170,315428,82870.435,"",,,,,,,,,surburb
html-keyboard-response,171,315531,null,"",null,,,,,,,,
recall-period,172,318472,14199.0450000001,"",,,,,,,,,joker
html-keyboard-response,173,318578,null,"",null,,,,,,,,
recall-period,174,327606,72205.64499999979,"",,,,,,,,,village 
html-keyboard-response,175,327709,null,"",null,,,,,,,,
recall-period,176,331397,13579.735000000044,"",,,,,,,,,cocoon
html-keyboard-response,177,331500,null,"",null,,,,,,,,
recall-period,178,378922,null,"",,,,,,,,,
html-keyboard-response,179,379429,null,"Time's Up!",null,,,,,,,,
html-keyboard-response,180,775113,395681.99,"<p> Uh oh. You responded correctly on 72% of the GREEN squares.</p>
                  <p>We need you keep your accuracy above 80%</p>
                  <p>Press any key to continue the experiment. Thank you!</p>",32,,,,,,,,
html-keyboard-response,181,776779,1664.9300000000512,"<div style=""font-size:48px;"">Press any key to begin list 2 of 24 </div>",32,,,,,,,,
html-keyboard-response,182,779286,null,"<div style=""font-size:60px;"">+</div>",null,,,,,,,,
html-keyboard-response,183,779791,null,"BUNNY<img id = ""stim"" ><div class = green_square id = ""topsquare"" ></div><img id = ""stim"" ><div class = green_square  id = ""bottomsquare"" ></div>",null,word_square,response,1,Space,false,,,
html-keyboard-response,184,781293,null,"BUNNY",null,word,,,,, 'BUNNY',,
html-keyboard-response,185,781800,null,"RAZOR<img id = ""stim"" ><div class = red_square id = ""topsquare"" ></div><img id = ""stim"" ><div class = red_square  id = ""bottomsquare"" ></div>",null,word_square,response,0,none,true,,,
html-keyboard-response,186,783302,null,"RAZOR",null,word,,,,, 'RAZOR',,
html-keyboard-response,187,783809,null,"MAILMAN<img id = ""stim"" ><div class = green_square id = ""topsquare"" ></div><img id = ""stim"" ><div class = green_square  id = ""bottomsquare"" ></div>",null,word_square,response,1,Space,false,,,
html-keyboard-response,188,785310,null,"MAILMAN",null,word,,,,, 'MAILMAN',,
html-keyboard-response,189,785817,null,"HAWK<img id = ""stim"" ><div class = red_square id = ""topsquare"" ></div><img id = ""stim"" ><div class = red_square  id = ""bottomsquare"" ></div>",null,word_square,response,0,none,true,,,
html-keyboard-response,190,787320,null,"HAWK",null,word,,,,, 'HAWK',,
html-keyboard-response,191,787827,null,"WRENCH<img id = ""stim"" ><div class = green_square id = ""topsquare"" ></div><img id = ""stim"" ><div class = green_square  id = ""bottomsquare"" ></div>",null,word_square,response,1,Space,false,,,
html-keyboard-response,192,789330,null,"WRENCH",null,word,,,,, 'WRENCH',,
html-keyboard-response,193,789837,null,"POSTAGE<img id = ""stim"" ><div class = red_square id = ""topsquare"" ></div><img id = ""stim"" ><div class = red_square  id = ""bottomsquare"" ></div>",null,word_square,response,0,none,true,,,
html-keyboard-response,194,791340,null,"POSTAGE",null,word,,,,, 'POSTAGE',,
html-keyboard-response,195,791847,null,"LOBBY<img id = ""stim"" ><div class = green_square id = ""topsquare"" ></div><img id = ""stim"" ><div class = green_square  id = ""bottomsquare"" ></div>",null,word_square,response,1,Space,false,,,
html-keyboard-response,196,793353,null,"LOBBY",null,word,,,,, 'LOBBY',,
html-keyboard-response,197,793856,null,"TEAPOT<img id = ""stim"" ><div class = red_square id = ""topsquare"" ></div><img id = ""stim"" ><div class = red_square  id = ""bottomsquare"" ></div>",null,word_square,response,0,none,true,,,
html-keyboard-response,198,795362,null,"TEAPOT",null,word,,,,, 'TEAPOT',,
html-keyboard-response,199,795869,null,"RECORD<img id = ""stim"" ><div class = red_square id = ""topsquare"" ></div><img id = ""stim"" ><div class = red_square  id = ""bottomsquare"" ></div>",null,word_square,response,0,none,true,,,
html-keyboard-response,200,797370,null,"RECORD",null,word,,,,, 'RECORD',,
html-keyboard-response,201,797866,495.0200000000186,"HERO<img id = ""stim"" ><div class = green_square id = ""topsquare"" ></div><img id = ""stim"" ><div class = green_square  id = ""bottomsquare"" ></div>",32,word_square,response,1,Space,true,,,
html-keyboard-response,202,799373,null,"HERO",null,word,,,,, 'HERO',,
html-keyboard-response,203,799877,null,"SANDWICH<img id = ""stim"" ><div class = red_square id = ""topsquare"" ></div><img id = ""stim"" ><div class = red_square  id = ""bottomsquare"" ></div>",null,word_square,response,0,none,true,,,
html-keyboard-response,204,801383,null,"SANDWICH",null,word,,,,, 'SANDWICH',,
html-keyboard-response,205,801882,498.2750000000233,"FIREMAN<img id = ""stim"" ><div class = red_square id = ""topsquare"" ></div><img id = ""stim"" ><div class = red_square  id = ""bottomsquare"" ></div>",69,word_square,response,0,none,false,,,
html-keyboard-response,206,803389,null,"FIREMAN",null,word,,,,, 'FIREMAN',,
html-keyboard-response,207,803897,null,"DRILL<img id = ""stim"" ><div class = green_square id = ""topsquare"" ></div><img id = ""stim"" ><div class = green_square  id = ""bottomsquare"" ></div>",null,word_square,response,1,Space,false,,,
html-keyboard-response,208,805399,null,"DRILL",null,word,,,,, 'DRILL',,
html-keyboard-response,209,805902,null,"DOG<img id = ""stim"" ><div class = green_square id = ""topsquare"" ></div><img id = ""stim"" ><div class = green_square  id = ""bottomsquare"" ></div>",null,word_square,response,1,Space,false,,,
html-keyboard-response,210,807410,null,"DOG",null,word,,,,, 'DOG',,
html-keyboard-response,211,807903,492.2600000000093,"BELT<img id = ""stim"" ><div class = green_square id = ""topsquare"" ></div><img id = ""stim"" ><div class = green_square  id = ""bottomsquare"" ></div>",32,word_square,response,1,Space,true,,,
html-keyboard-response,212,809410,null,"BELT",null,word,,,,, 'BELT',,
html-keyboard-response,213,809918,null,"GUITAR<img id = ""stim"" ><div class = red_square id = ""topsquare"" ></div><img id = ""stim"" ><div class = red_square  id = ""bottomsquare"" ></div>",null,word_square,response,0,none,true,,,
html-keyboard-response,214,811421,null,"GUITAR",null,word,,,,, 'GUITAR',,
html-keyboard-response,215,811926,null,"PIZZA<img id = ""stim"" ><div class = red_square id = ""topsquare"" ></div><img id = ""stim"" ><div class = red_square  id = ""bottomsquare"" ></div>",null,word_square,response,0,none,true,,,
html-keyboard-response,216,813429,null,"PIZZA",null,word,,,,, 'PIZZA',,
html-keyboard-response,217,813927,497.2149999999674,"BEEF<img id = ""stim"" ><div class = green_square id = ""topsquare"" ></div><img id = ""stim"" ><div class = green_square  id = ""bottomsquare"" ></div>",32,word_square,response,1,Space,true,,,
html-keyboard-response,218,815434,null,"BEEF",null,word,,,,, 'BEEF',,
call-function,219,815435,,"",,,,,,,,,
html-keyboard-response,220,815542,null,"",null,,,,,,,,
math-period,221,820524,9652.145000000019,"",,,,,,,,,2
html-keyboard-response,222,820626,null,"",null,,,,,,,,
math-period,223,825087,6534.105000000098,"",,,,,,,,,2
html-keyboard-response,224,825190,null,"",null,,,,,,,,
math-period,225,826688,2774.95000000007,"",,,,,,,,,3
html-keyboard-response,226,826794,null,"",null,,,,,,,,
math-period,227,829960,5697.574999999953,"",,,,,,,,,5
html-keyboard-response,228,830064,null,"",null,,,,,,,,
math-period,229,831804,3240.1149999999907,"",,,,,,,,,3
html-keyboard-response,230,831907,null,"",null,,,,,,,,
math-period,231,833893,3728.5649999997113,"",,,,,,,,,2
html-keyboard-response,232,833996,null,"",null,,,,,,,,
math-period,233,839437,5235.439999999944,"",,,,,,,,,1
html-keyboard-response,234,840438,null,"Recall Period!",null,,,,,,,,
call-function,235,840439,,"",,,,,,,,,
html-keyboard-response,236,840544,null,"",null,,,,,,,,
recall-period,237,846846,36273.10999999987,"",,,,,,,,,fireman
html-keyboard-response,238,846950,null,"",null,,,,,,,,
recall-period,239,849677,13895.155000000144,"",,,,,,,,,mailman
html-keyboard-response,240,849781,null,"",null,,,,,,,,
recall-period,241,851645,8604.829999999609,"",,,,,,,,,postage
html-keyboard-response,242,851749,null,"",null,,,,,,,,
recall-period,243,854272,11542.69000000041,"",,,,,,,,,wrench 
html-keyboard-response,244,854374,null,"",null,,,,,,,,
recall-period,245,856420,7457.36999999953,"",,,,,,,,,dog 
html-keyboard-response,246,856527,null,"",null,,,,,,,,
recall-period,247,860309,18608.23000000033,"",,,,,,,,,lobby
html-keyboard-response,248,860412,null,"",null,,,,,,,,
recall-period,249,863918,16777.63000000047,"",,,,,,,,,guitar
html-keyboard-response,250,864021,null,"",null,,,,,,,,
recall-period,251,874677,59974.48000000033,"",,,,,,,,,drill
html-keyboard-response,252,874783,null,"",null,,,,,,,,
recall-period,253,915446,null,"",,,,,,,,,
html-keyboard-response,254,915953,null,"Time's Up!",null,,,,,,,,
html-keyboard-response,255,927373,11418.709999999963,"<p> Uh oh. You responded correctly on 69% of the GREEN squares.</p>
                  <p>We need you keep your accuracy above 80%</p>
                  <p>Press any key to continue the experiment. Thank you!</p>",32,,,,,,,,
html-keyboard-response,256,930678,3304.320000000065,"<div style=""font-size:48px;"">Press any key to begin list 3 of 24 </div>",32,,,,,,,,
html-keyboard-response,257,933190,null,"<div style=""font-size:60px;"">+</div>",null,,,,,,,,
html-keyboard-response,258,933698,null,"PORPOISE<img id = ""stim"" ><div class = red_square id = ""topsquare"" ></div><img id = ""stim"" ><div class = red_square  id = ""bottomsquare"" ></div>",null,word_square,response,0,none,true,,,
html-keyboard-response,259,935199,null,"PORPOISE",null,word,,,,, 'PORPOISE',,
html-keyboard-response,260,935702,null,"NIGHTGOWN<img id = ""stim"" ><div class = green_square id = ""topsquare"" ></div><img id = ""stim"" ><div class = green_square  id = ""bottomsquare"" ></div>",null,word_square,response,1,Space,false,,,
html-keyboard-response,261,937205,null,"NIGHTGOWN",null,word,,,,, 'NIGHTGOWN',,
html-keyboard-response,262,937712,null,"MATTRESS<img id = ""stim"" ><div class = red_square id = ""topsquare"" ></div><img id = ""stim"" ><div class = red_square  id = ""bottomsquare"" ></div>",null,word_square,response,0,none,true,,,
html-keyboard-response,263,939215,null,"MATTRESS",null,word,,,,, 'MATTRESS',,
html-keyboard-response,264,939723,null,"ANKLE<img id = ""stim"" ><div class = green_square id = ""topsquare"" ></div><img id = ""stim"" ><div class = green_square  id = ""bottomsquare"" ></div>",null,word_square,response,1,Space,false,,,
html-keyboard-response,265,941224,null,"ANKLE",null,word,,,,, 'ANKLE',,
html-keyboard-response,266,941719,493.8499999999767,"COUGAR<img id = ""stim"" ><div class = red_square id = ""topsquare"" ></div><img id = ""stim"" ><div class = red_square  id = ""bottomsquare"" ></div>",69,word_square,response,0,none,false,,,
html-keyboard-response,267,943221,null,"COUGAR",null,word,,,,, 'COUGAR',,
html-keyboard-response,268,943728,null,"ATHLETE<img id = ""stim"" ><div class = green_square id = ""topsquare"" ></div><img id = ""stim"" ><div class = green_square  id = ""bottomsquare"" ></div>",null,word_square,response,1,Space,false,,,
html-keyboard-response,269,945233,null,"ATHLETE",null,word,,,,, 'ATHLETE',,
html-keyboard-response,270,945726,491.04000000003725,"FINGER<img id = ""stim"" ><div class = red_square id = ""topsquare"" ></div><img id = ""stim"" ><div class = red_square  id = ""bottomsquare"" ></div>",69,word_square,response,0,none,false,,,
html-keyboard-response,271,947231,null,"FINGER",null,word,,,,, 'FINGER',,
html-keyboard-response,272,947699,467.5799999999581,"COFFIN<img id = ""stim"" ><div class = green_square id = ""topsquare"" ></div><img id = ""stim"" ><div class = green_square  id = ""bottomsquare"" ></div>",32,word_square,response,1,Space,true,,,
html-keyboard-response,273,949201,null,"COFFIN",null,word,,,,, 'COFFIN',,
html-keyboard-response,274,949709,null,"LIZARD<img id = ""stim"" ><div class = green_square id = ""topsquare"" ></div><img id = ""stim"" ><div class = green_square  id = ""bottomsquare"" ></div>",null,word_square,response,1,Space,false,,,
html-keyboard-response,275,951216,null,"LIZARD",null,word,,,,, 'LIZARD',,
html-keyboard-response,276,951723,null,"DOUGHNUT<img id = ""stim"" ><div class = red_square id = ""topsquare"" ></div><img id = ""stim"" ><div class = red_square  id = ""bottomsquare"" ></div>",null,word_square,response,0,none,true,,,
html-keyboard-response,277,953225,null,"DOUGHNUT",null,word,,,,, 'DOUGHNUT',,
html-keyboard-response,278,953732,null,"CAPE<img id = ""stim"" ><div class = green_square id = ""topsquare"" ></div><img id = ""stim"" ><div class = green_square  id = ""bottomsquare"" ></div>",null,word_square,response,1,Space,false,,,
html-keyboard-response,279,955236,null,"CAPE",null,word,,,,, 'CAPE',,
html-keyboard-response,280,955743,null,"LACE<img id = ""stim"" ><div class = green_square id = ""topsquare"" ></div><img id = ""stim"" ><div class = green_square  id = ""bottomsquare"" ></div>",null,word_square,response,1,Space,false,,,
html-keyboard-response,281,957249,null,"LACE",null,word,,,,, 'LACE',,
html-keyboard-response,282,957756,null,"SILK<img id = ""stim"" ><div class = red_square id = ""topsquare"" ></div><img id = ""stim"" ><div class = red_square  id = ""bottomsquare"" ></div>",null,word_square,response,0,none,true,,,
html-keyboard-response,283,959263,null,"SILK",null,word,,,,, 'SILK',,
html-keyboard-response,284,959766,null,"FIGHTER<img id = ""stim"" ><div class = red_square id = ""topsquare"" ></div><img id = ""stim"" ><div class = red_square  id = ""bottomsquare"" ></div>",null,word_square,response,0,none,true,,,
html-keyboard-response,285,961273,null,"FIGHTER",null,word,,,,, 'FIGHTER',,
html-keyboard-response,286,961777,null,"DRUG<img id = ""stim"" ><div class = red_square id = ""topsquare"" ></div><img id = ""stim"" ><div class = red_square  id = ""bottomsquare"" ></div>",null,word_square,response,0,none,true,,,
html-keyboard-response,287,963282,null,"DRUG",null,word,,,,, 'DRUG',,
html-keyboard-response,288,963778,495.32499999995343,"SLIME<img id = ""stim"" ><div class = green_square id = ""topsquare"" ></div><img id = ""stim"" ><div class = green_square  id = ""bottomsquare"" ></div>",32,word_square,response,1,Space,true,,,
html-keyboard-response,289,965286,null,"SLIME",null,word,,,,, 'SLIME',,
html-keyboard-response,290,965793,null,"XEROX<img id = ""stim"" ><div class = green_square id = ""topsquare"" ></div><img id = ""stim"" ><div class = green_square  id = ""bottomsquare"" ></div>",null,word_square,response,1,Space,false,,,
html-keyboard-response,291,967295,null,"XEROX",null,word,,,,, 'XEROX',,
html-keyboard-response,292,967802,null,"SCHOOL<img id = ""stim"" ><div class = red_square id = ""topsquare"" ></div><img id = ""stim"" ><div class = red_square  id = ""bottomsquare"" ></div>",null,word_square,response,0,none,true,,,
html-keyboard-response,293,969307,null,"SCHOOL",null,word,,,,, 'SCHOOL',,
call-function,294,969308,,"",,,,,,,,,
html-keyboard-response,295,969415,null,"",null,,,,,,,,
math-period,296,972206,8352.854999999632,"",,,,,,,,,4
html-keyboard-response,297,972310,null,"",null,,,,,,,,
math-period,298,974062,2820.904999999795,"",,,,,,,,,2
html-keyboard-response,299,974165,null,"",null,,,,,,,,
math-period,300,975927,3125.0849999998463,"",,,,,,,,,2
html-keyboard-response,301,976030,null,"",null,,,,,,,,
math-period,302,977109,1943.7199999996228,"",,,,,,,,,2
html-keyboard-response,303,977214,null,"",null,,,,,,,,
math-period,304,978524,2441.1349999997765,"",,,,,,,,,3
html-keyboard-response,305,978628,null,"",null,,,,,,,,
math-period,306,980666,3924.4699999998556,"",,,,,,,,,4
html-keyboard-response,307,980771,null,"",null,,,,,,,,
math-period,308,981940,2133.335000000079,"",,,,,,,,,4
html-keyboard-response,309,982042,null,"",null,,,,,,,,
math-period,310,984423,4427.535000000149,"",,,,,,,,,4
html-keyboard-response,311,984526,null,"",null,,,,,,,,
math-period,312,986535,3713.4949999999953,"",,,,,,,,,1
html-keyboard-response,313,986638,null,"",null,,,,,,,,
math-period,314,989231,5011.134999999893,"",,,,,,,,,1
html-keyboard-response,315,989334,null,"",null,,,,,,,,
math-period,316,991818,4712.045000000158,"",,,,,,,,,5
html-keyboard-response,317,991921,null,"",null,,,,,,,,
math-period,318,993311,null,"",,,,,,,,,
html-keyboard-response,319,994319,null,"Recall Period!",null,,,,,,,,
call-function,320,994319,,"",,,,,,,,,
html-keyboard-response,321,994423,null,"",null,,,,,,,,
recall-period,322,1001184,54398.69000000111,"",,,,,,,,,school
html-keyboard-response,323,1001286,null,"",null,,,,,,,,
recall-period,324,1004133,13730.064999999944,"",,,,,,,,,porpoise
html-keyboard-response,325,1004236,null,"",null,,,,,,,,
recall-period,326,1007301,13831.345000001369,"",,,,,,,,,doughnut
html-keyboard-response,327,1007408,null,"",null,,,,,,,,
recall-period,328,1015457,42701.13499999943,"",,,,,,,,,cape 
html-keyboard-response,329,1015561,null,"",null,,,,,,,,
recall-period,330,1021606,37857.729999999516,"",,,,,,,,,xerox
html-keyboard-response,331,1021708,null,"",null,,,,,,,,
recall-period,332,1032566,69000.81000000064,"",,,,,,,,,hero
html-keyboard-response,333,1032672,null,"",null,,,,,,,,
recall-period,334,1069326,null,"",,,,,,,,,
html-keyboard-response,335,1069829,null,"Time's Up!",null,,,,,,,,
html-keyboard-response,336,1124552,54720.820000000065,"<p> Uh oh. You responded correctly on 64% of the GREEN squares.</p>
                  <p>We need you keep your accuracy above 80%</p>
                  <p>Press any key to continue the experiment. Thank you!</p>",32,,,,,,,,
html-keyboard-response,337,1126544,1991.2399999999907,"<div style=""font-size:48px;"">Press any key to begin list 4 of 24 </div>",32,,,,,,,,
html-keyboard-response,338,1129052,null,"<div style=""font-size:60px;"">+</div>",null,,,,,,,,
html-keyboard-response,339,1129555,null,"PLAID<img id = ""stim"" ><div class = red_square id = ""topsquare"" ></div><img id = ""stim"" ><div class = red_square  id = ""bottomsquare"" ></div>",null,word_square,response,0,none,true,,,
html-keyboard-response,340,1131059,null,"PLAID",null,word,,,,, 'PLAID',,
html-keyboard-response,341,1131565,null,"PORTRAIT<img id = ""stim"" ><div class = green_square id = ""topsquare"" ></div><img id = ""stim"" ><div class = green_square  id = ""bottomsquare"" ></div>",null,word_square,response,1,Space,false,,,
html-keyboard-response,342,1133067,null,"PORTRAIT",null,word,,,,, 'PORTRAIT',,
html-keyboard-response,343,1133556,488.06999999983236,"DRAWING<img id = ""stim"" ><div class = red_square id = ""topsquare"" ></div><img id = ""stim"" ><div class = red_square  id = ""bottomsquare"" ></div>",69,word_square,response,0,none,false,,,
html-keyboard-response,344,1135060,null,"DRAWING",null,word,,,,, 'DRAWING',,
html-keyboard-response,345,1135567,null,"GERM<img id = ""stim"" ><div class = green_square id = ""topsquare"" ></div><img id = ""stim"" ><div class = green_square  id = ""bottomsquare"" ></div>",null,word_square,response,1,Space,false,,,
html-keyboard-response,346,1137069,null,"GERM",null,word,,,,, 'GERM',,
html-keyboard-response,347,1137576,null,"BUCKLE<img id = ""stim"" ><div class = red_square id = ""topsquare"" ></div><img id = ""stim"" ><div class = red_square  id = ""bottomsquare"" ></div>",null,word_square,response,0,none,true,,,
html-keyboard-response,348,1139079,null,"BUCKLE",null,word,,,,, 'BUCKLE',,
html-keyboard-response,349,1139581,null,"YACHT<img id = ""stim"" ><div class = green_square id = ""topsquare"" ></div><img id = ""stim"" ><div class = green_square  id = ""bottomsquare"" ></div>",null,word_square,response,1,Space,false,,,
html-keyboard-response,350,1141084,null,"YACHT",null,word,,,,, 'YACHT',,
html-keyboard-response,351,1141591,null,"MARINE<img id = ""stim"" ><div class = red_square id = ""topsquare"" ></div><img id = ""stim"" ><div class = red_square  id = ""bottomsquare"" ></div>",null,word_square,response,0,none,true,,,
html-keyboard-response,352,1143094,null,"MARINE",null,word,,,,, 'MARINE',,
html-keyboard-response,353,1143598,null,"CABLE<img id = ""stim"" ><div class = green_square id = ""topsquare"" ></div><img id = ""stim"" ><div class = green_square  id = ""bottomsquare"" ></div>",null,word_square,response,1,Space,false,,,
html-keyboard-response,354,1145100,null,"CABLE",null,word,,,,, 'CABLE',,
html-keyboard-response,355,1145607,null,"VICTOR<img id = ""stim"" ><div class = green_square id = ""topsquare"" ></div><img id = ""stim"" ><div class = green_square  id = ""bottomsquare"" ></div>",null,word_square,response,1,Space,false,,,
html-keyboard-response,356,1147111,null,"VICTOR",null,word,,,,, 'VICTOR',,
html-keyboard-response,357,1147613,null,"LUNCH<img id = ""stim"" ><div class = red_square id = ""topsquare"" ></div><img id = ""stim"" ><div class = red_square  id = ""bottomsquare"" ></div>",null,word_square,response,0,none,true,,,
html-keyboard-response,358,1149120,null,"LUNCH",null,word,,,,, 'LUNCH',,
html-keyboard-response,359,1149627,null,"PACKAGE<img id = ""stim"" ><div class = green_square id = ""topsquare"" ></div><img id = ""stim"" ><div class = green_square  id = ""bottomsquare"" ></div>",null,word_square,response,1,Space,false,,,
html-keyboard-response,360,1151129,null,"PACKAGE",null,word,,,,, 'PACKAGE',,
html-keyboard-response,361,1151636,null,"SWORD<img id = ""stim"" ><div class = green_square id = ""topsquare"" ></div><img id = ""stim"" ><div class = green_square  id = ""bottomsquare"" ></div>",null,word_square,response,1,Space,false,,,
html-keyboard-response,362,1153138,null,"SWORD",null,word,,,,, 'SWORD',,
html-keyboard-response,363,1153645,null,"COIN<img id = ""stim"" ><div class = red_square id = ""topsquare"" ></div><img id = ""stim"" ><div class = red_square  id = ""bottomsquare"" ></div>",null,word_square,response,0,none,true,,,
html-keyboard-response,364,1155147,null,"COIN",null,word,,,,, 'COIN',,
html-keyboard-response,365,1155654,null,"NEPHEW<img id = ""stim"" ><div class = red_square id = ""topsquare"" ></div><img id = ""stim"" ><div class = red_square  id = ""bottomsquare"" ></div>",null,word_square,response,0,none,true,,,
html-keyboard-response,366,1157159,null,"NEPHEW",null,word,,,,, 'NEPHEW',,
html-keyboard-response,367,1157667,null,"ZIPPER<img id = ""stim"" ><div class = red_square id = ""topsquare"" ></div><img id = ""stim"" ><div class = red_square  id = ""bottomsquare"" ></div>",null,word_square,response,0,none,true,,,
html-keyboard-response,368,1159171,null,"ZIPPER",null,word,,,,, 'ZIPPER',,
html-keyboard-response,369,1159673,null,"DECK<img id = ""stim"" ><div class = green_square id = ""topsquare"" ></div><img id = ""stim"" ><div class = green_square  id = ""bottomsquare"" ></div>",null,word_square,response,1,Space,false,,,
html-keyboard-response,370,1161180,null,"DECK",null,word,,,,, 'DECK',,
html-keyboard-response,371,1161682,null,"PADDLE<img id = ""stim"" ><div class = green_square id = ""topsquare"" ></div><img id = ""stim"" ><div class = green_square  id = ""bottomsquare"" ></div>",null,word_square,response,1,Space,false,,,
html-keyboard-response,372,1163187,null,"PADDLE",null,word,,,,, 'PADDLE',,
html-keyboard-response,373,1163625,436.3800000001211,"BLADE<img id = ""stim"" ><div class = red_square id = ""topsquare"" ></div><img id = ""stim"" ><div class = red_square  id = ""bottomsquare"" ></div>",69,word_square,response,0,none,false,,,
html-keyboard-response,374,1165130,null,"BLADE",null,word,,,,, 'BLADE',,
call-function,375,1165131,,"",,,,,,,,,
html-keyboard-response,376,1165232,null,"",null,,,,,,,,
math-period,377,1168054,4616.014999999665,"",,,,,,,,,4
html-keyboard-response,378,1168156,null,"",null,,,,,,,,
math-period,379,1170090,3737.975000000093,"",,,,,,,,,2
html-keyboard-response,380,1170193,null,"",null,,,,,,,,
math-period,381,1173165,5725.995000000345,"",,,,,,,,,4
html-keyboard-response,382,1173268,null,"",null,,,,,,,,
math-period,383,1174630,2577.024999999907,"",,,,,,,,,2
html-keyboard-response,384,1174733,null,"",null,,,,,,,,
math-period,385,1176525,3346.410000000382,"",,,,,,,,,4
html-keyboard-response,386,1176628,null,"",null,,,,,,,,
math-period,387,1177954,2423.1299999998882,"",,,,,,,,,3
html-keyboard-response,388,1178058,null,"",null,,,,,,,,
math-period,389,1180334,4335.540000000037,"",,,,,,,,,4
html-keyboard-response,390,1180437,null,"",null,,,,,,,,
math-period,391,1181930,2847.0999999996275,"",,,,,,,,,2
html-keyboard-response,392,1182033,null,"",null,,,,,,,,
math-period,393,1184654,4593.75,"",,,,,,,,,3
html-keyboard-response,394,1184757,null,"",null,,,,,,,,
math-period,395,1186872,3999.1750000000466,"",,,,,,,,,1
html-keyboard-response,396,1186975,null,"",null,,,,,,,,
math-period,397,1189138,null,"",,,,,,,,,
html-keyboard-response,398,1190144,null,"Recall Period!",null,,,,,,,,
call-function,399,1190145,,"",,,,,,,,,
html-keyboard-response,400,1190249,null,"",null,,,,,,,,
recall-period,401,1196569,51710.28500000108,"",,,,,,,,,doughnut 
html-keyboard-response,402,1196672,null,"",null,,,,,,,,
recall-period,403,1198904,8440.249999999069,"",,,,,,,,,plaid 
html-keyboard-response,404,1199007,null,"",null,,,,,,,,
recall-period,405,1201192,9095.840000000317,"",,,,,,,,,nephew 
html-keyboard-response,406,1201295,null,"",null,,,,,,,,
recall-period,407,1203421,9743.48000000068,"",,,,,,,,,victor 
html-keyboard-response,408,1203524,null,"",null,,,,,,,,
recall-period,409,1208242,24728.595000000205,"",,,,,,,,,blade
html-keyboard-response,410,1208345,null,"",null,,,,,,,,
recall-period,411,1265152,null,"",,,,,,,,,
html-keyboard-response,412,1265655,null,"Time's Up!",null,,,,,,,,
html-keyboard-response,413,1285598,19941.985000000335,"<p> Uh oh. You responded correctly on 59% of the GREEN squares.</p>
                  <p>We need you keep your accuracy above 80%</p>
                  <p>Press any key to continue the experiment. Thank you!</p>",32,,,,,,,,
html-keyboard-response,414,1287907,2307.7399999999907,"<div style=""font-size:48px;"">Press any key to begin list 5 of 24 </div>",32,,,,,,,,
html-keyboard-response,415,1290419,null,"<div style=""font-size:60px;"">+</div>",null,,,,,,,,
html-keyboard-response,416,1290924,null,"LAMP<img id = ""stim"" ><div class = green_square id = ""topsquare"" ></div><img id = ""stim"" ><div class = green_square  id = ""bottomsquare"" ></div>",null,word_square,response,1,Space,false,,,
html-keyboard-response,417,1292426,null,"LAMP",null,word,,,,, 'LAMP',,
html-keyboard-response,418,1292933,null,"FLASHLIGHT<img id = ""stim"" ><div class = red_square id = ""topsquare"" ></div><img id = ""stim"" ><div class = red_square  id = ""bottomsquare"" ></div>",null,word_square,response,0,none,true,,,
html-keyboard-response,419,1294435,null,"FLASHLIGHT",null,word,,,,, 'FLASHLIGHT',,
html-keyboard-response,420,1294943,null,"VELVET<img id = ""stim"" ><div class = green_square id = ""topsquare"" ></div><img id = ""stim"" ><div class = green_square  id = ""bottomsquare"" ></div>",null,word_square,response,1,Space,false,,,
html-keyboard-response,421,1296447,null,"VELVET",null,word,,,,, 'VELVET',,
html-keyboard-response,422,1296954,null,"UMPIRE<img id = ""stim"" ><div class = red_square id = ""topsquare"" ></div><img id = ""stim"" ><div class = red_square  id = ""bottomsquare"" ></div>",null,word_square,response,0,none,true,,,
html-keyboard-response,423,1298457,null,"UMPIRE",null,word,,,,, 'UMPIRE',,
html-keyboard-response,424,1298964,null,"GARDEN<img id = ""stim"" ><div class = red_square id = ""topsquare"" ></div><img id = ""stim"" ><div class = red_square  id = ""bottomsquare"" ></div>",null,word_square,response,0,none,true,,,
html-keyboard-response,425,1300466,null,"GARDEN",null,word,,,,, 'GARDEN',,
html-keyboard-response,426,1300974,null,"SHOVEL<img id = ""stim"" ><div class = green_square id = ""topsquare"" ></div><img id = ""stim"" ><div class = green_square  id = ""bottomsquare"" ></div>",null,word_square,response,1,Space,false,,,
html-keyboard-response,427,1302477,null,"SHOVEL",null,word,,,,, 'SHOVEL',,
html-keyboard-response,428,1302984,null,"BRANCH<img id = ""stim"" ><div class = green_square id = ""topsquare"" ></div><img id = ""stim"" ><div class = green_square  id = ""bottomsquare"" ></div>",null,word_square,response,1,Space,false,,,
html-keyboard-response,429,1304486,null,"BRANCH",null,word,,,,, 'BRANCH',,
html-keyboard-response,430,1304990,null,"KIDNEY<img id = ""stim"" ><div class = green_square id = ""topsquare"" ></div><img id = ""stim"" ><div class = green_square  id = ""bottomsquare"" ></div>",null,word_square,response,1,Space,false,,,
html-keyboard-response,431,1306493,null,"KIDNEY",null,word,,,,, 'KIDNEY',,
html-keyboard-response,432,1306999,null,"SHEARS<img id = ""stim"" ><div class = red_square id = ""topsquare"" ></div><img id = ""stim"" ><div class = red_square  id = ""bottomsquare"" ></div>",null,word_square,response,0,none,true,,,
html-keyboard-response,433,1308502,null,"SHEARS",null,word,,,,, 'SHEARS',,
html-keyboard-response,434,1309005,null,"FOOTBALL<img id = ""stim"" ><div class = red_square id = ""topsquare"" ></div><img id = ""stim"" ><div class = red_square  id = ""bottomsquare"" ></div>",null,word_square,response,0,none,true,,,
html-keyboard-response,435,1310510,null,"FOOTBALL",null,word,,,,, 'FOOTBALL',,
html-keyboard-response,436,1311016,null,"CORAL<img id = ""stim"" ><div class = green_square id = ""topsquare"" ></div><img id = ""stim"" ><div class = green_square  id = ""bottomsquare"" ></div>",null,word_square,response,1,Space,false,,,
html-keyboard-response,437,1312518,null,"CORAL",null,word,,,,, 'CORAL',,
html-keyboard-response,438,1313025,null,"JOINT<img id = ""stim"" ><div class = red_square id = ""topsquare"" ></div><img id = ""stim"" ><div class = red_square  id = ""bottomsquare"" ></div>",null,word_square,response,0,none,true,,,
html-keyboard-response,439,1314531,null,"JOINT",null,word,,,,, 'JOINT',,
html-keyboard-response,440,1315039,null,"CHURCH<img id = ""stim"" ><div class = red_square id = ""topsquare"" ></div><img id = ""stim"" ><div class = red_square  id = ""bottomsquare"" ></div>",null,word_square,response,0,none,true,,,
html-keyboard-response,441,1316541,null,"CHURCH",null,word,,,,, 'CHURCH',,
html-keyboard-response,442,1317049,null,"CUSTARD<img id = ""stim"" ><div class = green_square id = ""topsquare"" ></div><img id = ""stim"" ><div class = green_square  id = ""bottomsquare"" ></div>",null,word_square,response,1,Space,false,,,
html-keyboard-response,443,1318551,null,"CUSTARD",null,word,,,,, 'CUSTARD',,
html-keyboard-response,444,1319056,null,"FEATHER<img id = ""stim"" ><div class = red_square id = ""topsquare"" ></div><img id = ""stim"" ><div class = red_square  id = ""bottomsquare"" ></div>",null,word_square,response,0,none,true,,,
html-keyboard-response,445,1320559,null,"FEATHER",null,word,,,,, 'FEATHER',,
html-keyboard-response,446,1321065,null,"HEDGE<img id = ""stim"" ><div class = green_square id = ""topsquare"" ></div><img id = ""stim"" ><div class = green_square  id = ""bottomsquare"" ></div>",null,word_square,response,1,Space,false,,,
html-keyboard-response,447,1322567,null,"HEDGE",null,word,,,,, 'HEDGE',,
html-keyboard-response,448,1323075,null,"LIST<img id = ""stim"" ><div class = red_square id = ""topsquare"" ></div><img id = ""stim"" ><div class = red_square  id = ""bottomsquare"" ></div>",null,word_square,response,0,none,true,,,
html-keyboard-response,449,1324577,null,"LIST",null,word,,,,, 'LIST',,
html-keyboard-response,450,1325084,null,"YARN<img id = ""stim"" ><div class = green_square id = ""topsquare"" ></div><img id = ""stim"" ><div class = green_square  id = ""bottomsquare"" ></div>",null,word_square,response,1,Space,false,,,
html-keyboard-response,451,1326586,null,"YARN",null,word,,,,, 'YARN',,
call-function,452,1326587,,"",,,,,,,,,
html-keyboard-response,453,1326691,null,"",null,,,,,,,,
math-period,454,1330171,6684.135000000242,"",,,,,,,,,5
html-keyboard-response,455,1330275,null,"",null,,,,,,,,
math-period,456,1332879,5094.185000000056,"",,,,,,,,,2
html-keyboard-response,457,1332982,null,"",null,,,,,,,,
math-period,458,1334370,2598.089999999851,"",,,,,,,,,4
html-keyboard-response,459,1334473,null,"",null,,,,,,,,
math-period,460,1336627,4137.870000000112,"",,,,,,,,,2
html-keyboard-response,461,1336729,null,"",null,,,,,,,,
math-period,462,1337641,1585.3300000005402,"",,,,,,,,,2
html-keyboard-response,463,1337744,null,"",null,,,,,,,,
math-period,464,1339160,2681.064999999944,"",,,,,,,,,2
html-keyboard-response,465,1339263,null,"",null,,,,,,,,
math-period,466,1340524,2347.375,"",,,,,,,,,3
html-keyboard-response,467,1340627,null,"",null,,,,,,,,
math-period,468,1342114,2830.7650000001304,"",,,,,,,,,5
html-keyboard-response,469,1342217,null,"",null,,,,,,,,
math-period,470,1343759,2940.3950000000186,"",,,,,,,,,2
html-keyboard-response,471,1343862,null,"",null,,,,,,,,
math-period,472,1345508,3105.9799999997485,"",,,,,,,,,5
html-keyboard-response,473,1345610,null,"",null,,,,,,,,
math-period,474,1347338,3264.734999999637,"",,,,,,,,,2
html-keyboard-response,475,1347442,null,"",null,,,,,,,,
math-period,476,1349710,4317.460000000196,"",,,,,,,,,4
html-keyboard-response,477,1349813,null,"",null,,,,,,,,
math-period,478,1350593,null,"",,,,,,,,,
html-keyboard-response,479,1351599,null,"Recall Period!",null,,,,,,,,
call-function,480,1351601,,"",,,,,,,,,
html-keyboard-response,481,1351705,null,"",null,,,,,,,,
recall-period,482,1355037,15066.979999999981,"",,,,,,,,, lamp
html-keyboard-response,483,1355140,null,"",null,,,,,,,,
recall-period,484,1358056,11853.51500000013,"",,,,,,,,,velvet 
html-keyboard-response,485,1358159,null,"",null,,,,,,,,
recall-period,486,1360601,11335.78000000096,"",,,,,,,,,custard
html-keyboard-response,487,1360703,null,"",null,,,,,,,,
recall-period,488,1365502,44688.13500000117,"",,,,,,,,,hedge 
html-keyboard-response,489,1365605,null,"",null,,,,,,,,
recall-period,490,1377540,56704.25,"",,,,,,,,,lamp
html-keyboard-response,491,1377643,null,"",null,,,,,,,,
recall-period,492,1426601,null,"",,,,,,,,,
html-keyboard-response,493,1427108,null,"Time's Up!",null,,,,,,,,
html-keyboard-response,494,1436045,8934.909999999916,"<p> Uh oh. You responded correctly on 57% of the GREEN squares.</p>
                  <p>We need you keep your accuracy above 80%</p>
                  <p>Press any key to continue the experiment. Thank you!</p>",32,,,,,,,,
html-keyboard-response,495,1436798,752.2950000001583,"<div style=""font-size:48px;"">Press any key to begin list 6 of 24 </div>",32,,,,,,,,
html-keyboard-response,496,1439308,null,"<div style=""font-size:60px;"">+</div>",null,,,,,,,,
html-keyboard-response,497,1439810,null,"WINGS<img id = ""stim"" ><div class = green_square id = ""topsquare"" ></div><img id = ""stim"" ><div class = green_square  id = ""bottomsquare"" ></div>",null,word_square,response,1,Space,false,,,
html-keyboard-response,498,1441316,null,"WINGS",null,word,,,,, 'WINGS',,
html-keyboard-response,499,1441737,420.375,"CAMEL<img id = ""stim"" ><div class = red_square id = ""topsquare"" ></div><img id = ""stim"" ><div class = red_square  id = ""bottomsquare"" ></div>",69,word_square,response,0,none,false,,,
html-keyboard-response,500,1443244,null,"CAMEL",null,word,,,,, 'CAMEL',,
html-keyboard-response,501,1443752,null,"DUSTPAN<img id = ""stim"" ><div class = green_square id = ""topsquare"" ></div><img id = ""stim"" ><div class = green_square  id = ""bottomsquare"" ></div>",null,word_square,response,1,Space,false,,,
html-keyboard-response,502,1445259,null,"DUSTPAN",null,word,,,,, 'DUSTPAN',,
html-keyboard-response,503,1445766,null,"PONY<img id = ""stim"" ><div class = red_square id = ""topsquare"" ></div><img id = ""stim"" ><div class = red_square  id = ""bottomsquare"" ></div>",null,word_square,response,0,none,true,,,
html-keyboard-response,504,1447274,null,"PONY",null,word,,,,, 'PONY',,
html-keyboard-response,505,1447781,null,"SHEPHERD<img id = ""stim"" ><div class = red_square id = ""topsquare"" ></div><img id = ""stim"" ><div class = red_square  id = ""bottomsquare"" ></div>",null,word_square,response,0,none,true,,,
html-keyboard-response,506,1449289,null,"SHEPHERD",null,word,,,,, 'SHEPHERD',,
html-keyboard-response,507,1449795,null,"CHISEL<img id = ""stim"" ><div class = green_square id = ""topsquare"" ></div><img id = ""stim"" ><div class = green_square  id = ""bottomsquare"" ></div>",null,word_square,response,1,Space,false,,,
html-keyboard-response,508,1451303,null,"CHISEL",null,word,,,,, 'CHISEL',,
html-keyboard-response,509,1451810,null,"CRADLE<img id = ""stim"" ><div class = green_square id = ""topsquare"" ></div><img id = ""stim"" ><div class = green_square  id = ""bottomsquare"" ></div>",null,word_square,response,1,Space,false,,,
html-keyboard-response,510,1453317,null,"CRADLE",null,word,,,,, 'CRADLE',,
html-keyboard-response,511,1453824,null,"CELLAR<img id = ""stim"" ><div class = green_square id = ""topsquare"" ></div><img id = ""stim"" ><div class = green_square  id = ""bottomsquare"" ></div>",null,word_square,response,1,Space,false,,,
html-keyboard-response,512,1455331,null,"CELLAR",null,word,,,,, 'CELLAR',,
html-keyboard-response,513,1455839,null,"GIRAFFE<img id = ""stim"" ><div class = red_square id = ""topsquare"" ></div><img id = ""stim"" ><div class = red_square  id = ""bottomsquare"" ></div>",null,word_square,response,0,none,true,,,
html-keyboard-response,514,1457342,null,"GIRAFFE",null,word,,,,, 'GIRAFFE',,
html-keyboard-response,515,1457849,null,"QUARTER<img id = ""stim"" ><div class = red_square id = ""topsquare"" ></div><img id = ""stim"" ><div class = red_square  id = ""bottomsquare"" ></div>",null,word_square,response,0,none,true,,,
html-keyboard-response,516,1459353,null,"QUARTER",null,word,,,,, 'QUARTER',,
html-keyboard-response,517,1459860,null,"STALLION<img id = ""stim"" ><div class = green_square id = ""topsquare"" ></div><img id = ""stim"" ><div class = green_square  id = ""bottomsquare"" ></div>",null,word_square,response,1,Space,false,,,
html-keyboard-response,518,1461365,null,"STALLION",null,word,,,,, 'STALLION',,
html-keyboard-response,519,1461869,null,"BARLEY<img id = ""stim"" ><div class = red_square id = ""topsquare"" ></div><img id = ""stim"" ><div class = red_square  id = ""bottomsquare"" ></div>",null,word_square,response,0,none,true,,,
html-keyboard-response,520,1463376,null,"BARLEY",null,word,,,,, 'BARLEY',,
html-keyboard-response,521,1463883,null,"TIGER<img id = ""stim"" ><div class = red_square id = ""topsquare"" ></div><img id = ""stim"" ><div class = red_square  id = ""bottomsquare"" ></div>",null,word_square,response,0,none,true,,,
html-keyboard-response,522,1465390,null,"TIGER",null,word,,,,, 'TIGER',,
html-keyboard-response,523,1465869,477.25,"GLOVE<img id = ""stim"" ><div class = green_square id = ""topsquare"" ></div><img id = ""stim"" ><div class = green_square  id = ""bottomsquare"" ></div>",32,word_square,response,1,Space,true,,,
html-keyboard-response,524,1467371,null,"GLOVE",null,word,,,,, 'GLOVE',,
html-keyboard-response,525,1467879,null,"BROOK<img id = ""stim"" ><div class = red_square id = ""topsquare"" ></div><img id = ""stim"" ><div class = red_square  id = ""bottomsquare"" ></div>",null,word_square,response,0,none,true,,,
html-keyboard-response,526,1469384,null,"BROOK",null,word,,,,, 'BROOK',,
html-keyboard-response,527,1469886,null,"LAGOON<img id = ""stim"" ><div class = green_square id = ""topsquare"" ></div><img id = ""stim"" ><div class = green_square  id = ""bottomsquare"" ></div>",null,word_square,response,1,Space,false,,,
html-keyboard-response,528,1471393,null,"LAGOON",null,word,,,,, 'LAGOON',,
html-keyboard-response,529,1471900,null,"SHORTS<img id = ""stim"" ><div class = red_square id = ""topsquare"" ></div><img id = ""stim"" ><div class = red_square  id = ""bottomsquare"" ></div>",null,word_square,response,0,none,true,,,
html-keyboard-response,530,1473407,null,"SHORTS",null,word,,,,, 'SHORTS',,
html-keyboard-response,531,1473895,486.7049999998417,"DIME<img id = ""stim"" ><div class = green_square id = ""topsquare"" ></div><img id = ""stim"" ><div class = green_square  id = ""bottomsquare"" ></div>",32,word_square,response,1,Space,true,,,
html-keyboard-response,532,1475400,null,"DIME",null,word,,,,, 'DIME',,
call-function,533,1475401,,"",,,,,,,,,
html-keyboard-response,534,1475508,null,"",null,,,,,,,,
math-period,535,1477889,4368.59999999986,"",,,,,,,,,1
html-keyboard-response,536,1477992,null,"",null,,,,,,,,
math-period,537,1479450,2753.4699999997392,"",,,,,,,,,3
html-keyboard-response,538,1479553,null,"",null,,,,,,,,
math-period,539,1481765,3975.570000000065,"",,,,,,,,,4
html-keyboard-response,540,1481868,null,"",null,,,,,,,,
math-period,541,1483819,2743.5049999998882,"",,,,,,,,,4
html-keyboard-response,542,1483922,null,"",null,,,,,,,,
math-period,543,1485678,3113.5049999998882,"",,,,,,,,,5
html-keyboard-response,544,1485781,null,"",null,,,,,,,,
math-period,545,1487848,3855.6800000004005,"",,,,,,,,,4
html-keyboard-response,546,1487952,null,"",null,,,,,,,,
math-period,547,1489332,2592.5449999999255,"",,,,,,,,,5
html-keyboard-response,548,1489434,null,"",null,,,,,,,,
math-period,549,1490603,2182.9600000001956,"",,,,,,,,,2
html-keyboard-response,550,1490706,null,"",null,,,,,,,,
math-period,551,1492317,3114.429999999702,"",,,,,,,,,2
html-keyboard-response,552,1492420,null,"",null,,,,,,,,
math-period,553,1495395,5743.869999999879,"",,,,,,,,,1
html-keyboard-response,554,1495498,null,"",null,,,,,,,,
math-period,555,1496937,2638.6999999999534,"",,,,,,,,,1
html-keyboard-response,556,1497040,null,"",null,,,,,,,,
math-period,557,1499407,null,"",,,,,,,,,
html-keyboard-response,558,1500413,null,"Recall Period!",null,,,,,,,,
call-function,559,1500414,,"",,,,,,,,,
html-keyboard-response,560,1500518,null,"",null,,,,,,,,
recall-period,561,1501241,721.6049999999814,"",,,,,,,,,
html-keyboard-response,562,1501345,null,"",null,,,,,,,,
recall-period,563,1503530,9590.450000000186,"",,,,,,,,,wings
html-keyboard-response,564,1503635,null,"",null,,,,,,,,
recall-period,565,1511327,31168.8050000011,"",,,,,,,,,dustpan
html-keyboard-response,566,1511431,null,"",null,,,,,,,,
recall-period,567,1514680,12742.839999999385,"",,,,,,,,,chisel
html-keyboard-response,568,1514783,null,"",null,,,,,,,,
recall-period,569,1517505,15903.315000001108,"",,,,,,,,,stallion
html-keyboard-response,570,1517607,null,"",null,,,,,,,,
recall-period,571,1530486,82754.35000000033,"",,,,,,,,,grape 
html-keyboard-response,572,1530589,null,"",null,,,,,,,,
recall-period,573,1545398,85720.81000000052,"",,,,,,,,,chess
html-keyboard-response,574,1545501,null,"",null,,,,,,,,
recall-period,575,1575421,null,"",,,,,,,,,
html-keyboard-response,576,1575928,null,"Time's Up!",null,,,,,,,,
html-keyboard-response,577,1638685,62755.17500000005,"<p> Uh oh. You responded correctly on 57% of the GREEN squares.</p>
                  <p>We need you keep your accuracy above 80%</p>
                  <p>Press any key to continue the experiment. Thank you!</p>",32,,,,,,,,
html-keyboard-response,578,1640774,2087.429999999935,"<div style=""font-size:48px;"">Press any key to begin list 7 of 24 </div>",32,,,,,,,,
html-keyboard-response,579,1643286,null,"<div style=""font-size:60px;"">+</div>",null,,,,,,,,
html-keyboard-response,580,1643789,null,"PERFUME<img id = ""stim"" ><div class = red_square id = ""topsquare"" ></div><img id = ""stim"" ><div class = red_square  id = ""bottomsquare"" ></div>",null,word_square,response,0,none,true,,,
html-keyboard-response,581,1645293,null,"PERFUME",null,word,,,,, 'PERFUME',,
html-keyboard-response,582,1645800,null,"SIDING<img id = ""stim"" ><div class = green_square id = ""topsquare"" ></div><img id = ""stim"" ><div class = green_square  id = ""bottomsquare"" ></div>",null,word_square,response,1,Space,false,,,
html-keyboard-response,583,1647302,null,"SIDING",null,word,,,,, 'SIDING',,
html-keyboard-response,584,1647810,null,"GLASSES<img id = ""stim"" ><div class = red_square id = ""topsquare"" ></div><img id = ""stim"" ><div class = red_square  id = ""bottomsquare"" ></div>",null,word_square,response,0,none,true,,,
html-keyboard-response,585,1649313,null,"GLASSES",null,word,,,,, 'GLASSES',,
html-keyboard-response,586,1649820,null,"VALLEY<img id = ""stim"" ><div class = green_square id = ""topsquare"" ></div><img id = ""stim"" ><div class = green_square  id = ""bottomsquare"" ></div>",null,word_square,response,1,Space,false,,,
html-keyboard-response,587,1651324,null,"VALLEY",null,word,,,,, 'VALLEY',,
html-keyboard-response,588,1651831,null,"REINDEER<img id = ""stim"" ><div class = green_square id = ""topsquare"" ></div><img id = ""stim"" ><div class = green_square  id = ""bottomsquare"" ></div>",null,word_square,response,1,Space,false,,,
html-keyboard-response,589,1653335,null,"REINDEER",null,word,,,,, 'REINDEER',,
html-keyboard-response,590,1653841,null,"SCAPEGOAT<img id = ""stim"" ><div class = red_square id = ""topsquare"" ></div><img id = ""stim"" ><div class = red_square  id = ""bottomsquare"" ></div>",null,word_square,response,0,none,true,,,
html-keyboard-response,591,1655345,null,"SCAPEGOAT",null,word,,,,, 'SCAPEGOAT',,
html-keyboard-response,592,1655852,null,"BLUEJAY<img id = ""stim"" ><div class = red_square id = ""topsquare"" ></div><img id = ""stim"" ><div class = red_square  id = ""bottomsquare"" ></div>",null,word_square,response,0,none,true,,,
html-keyboard-response,593,1657354,null,"BLUEJAY",null,word,,,,, 'BLUEJAY',,
html-keyboard-response,594,1657862,null,"COCKTAIL<img id = ""stim"" ><div class = red_square id = ""topsquare"" ></div><img id = ""stim"" ><div class = red_square  id = ""bottomsquare"" ></div>",null,word_square,response,0,none,true,,,
html-keyboard-response,595,1659364,null,"COCKTAIL",null,word,,,,, 'COCKTAIL',,
html-keyboard-response,596,1659578,213.32499999995343,"PLAYGROUND<img id = ""stim"" ><div class = green_square id = ""topsquare"" ></div><img id = ""stim"" ><div class = green_square  id = ""bottomsquare"" ></div>",69,word_square,response,1,Space,false,,,
html-keyboard-response,597,1661085,null,"PLAYGROUND",null,word,,,,, 'PLAYGROUND',,
html-keyboard-response,598,1661593,null,"DRESS<img id = ""stim"" ><div class = green_square id = ""topsquare"" ></div><img id = ""stim"" ><div class = green_square  id = ""bottomsquare"" ></div>",null,word_square,response,1,Space,false,,,
html-keyboard-response,599,1663100,null,"DRESS",null,word,,,,, 'DRESS',,
html-keyboard-response,600,1663608,null,"POCKET<img id = ""stim"" ><div class = red_square id = ""topsquare"" ></div><img id = ""stim"" ><div class = red_square  id = ""bottomsquare"" ></div>",null,word_square,response,0,none,true,,,
html-keyboard-response,601,1665115,null,"POCKET",null,word,,,,, 'POCKET',,
html-keyboard-response,602,1665622,null,"PATROL<img id = ""stim"" ><div class = green_square id = ""topsquare"" ></div><img id = ""stim"" ><div class = green_square  id = ""bottomsquare"" ></div>",null,word_square,response,1,Space,false,,,
html-keyboard-response,603,1667130,null,"PATROL",null,word,,,,, 'PATROL',,
html-keyboard-response,604,1667635,null,"SUNRISE<img id = ""stim"" ><div class = green_square id = ""topsquare"" ></div><img id = ""stim"" ><div class = green_square  id = ""bottomsquare"" ></div>",null,word_square,response,1,Space,false,,,
html-keyboard-response,605,1669142,null,"SUNRISE",null,word,,,,, 'SUNRISE',,
html-keyboard-response,606,1669650,null,"CANYON<img id = ""stim"" ><div class = red_square id = ""topsquare"" ></div><img id = ""stim"" ><div class = red_square  id = ""bottomsquare"" ></div>",null,word_square,response,0,none,true,,,
html-keyboard-response,607,1671157,null,"CANYON",null,word,,,,, 'CANYON',,
html-keyboard-response,608,1671662,null,"DRESSER<img id = ""stim"" ><div class = green_square id = ""topsquare"" ></div><img id = ""stim"" ><div class = green_square  id = ""bottomsquare"" ></div>",null,word_square,response,1,Space,false,,,
html-keyboard-response,609,1673165,null,"DRESSER",null,word,,,,, 'DRESSER',,
html-keyboard-response,610,1673672,null,"WASHER<img id = ""stim"" ><div class = red_square id = ""topsquare"" ></div><img id = ""stim"" ><div class = red_square  id = ""bottomsquare"" ></div>",null,word_square,response,0,none,true,,,
html-keyboard-response,611,1675179,null,"WASHER",null,word,,,,, 'WASHER',,
html-keyboard-response,612,1675687,null,"STRANGER<img id = ""stim"" ><div class = green_square id = ""topsquare"" ></div><img id = ""stim"" ><div class = green_square  id = ""bottomsquare"" ></div>",null,word_square,response,1,Space,false,,,
html-keyboard-response,613,1677194,null,"STRANGER",null,word,,,,, 'STRANGER',,
html-keyboard-response,614,1677700,null,"SHAMPOO<img id = ""stim"" ><div class = red_square id = ""topsquare"" ></div><img id = ""stim"" ><div class = red_square  id = ""bottomsquare"" ></div>",null,word_square,response,0,none,true,,,
html-keyboard-response,615,1679207,null,"SHAMPOO",null,word,,,,, 'SHAMPOO',,
call-function,616,1679208,,"",,,,,,,,,
html-keyboard-response,617,1679315,null,"",null,,,,,,,,
math-period,618,1681627,3927.6100000001024,"",,,,,,,,,3
html-keyboard-response,619,1681733,null,"",null,,,,,,,,
math-period,620,1683816,3962.1399999998976,"",,,,,,,,,5
html-keyboard-response,621,1683921,null,"",null,,,,,,,,
math-period,622,1685594,3176.280000000028,"",,,,,,,,,2
html-keyboard-response,623,1685696,null,"",null,,,,,,,,
math-period,624,1688087,4550.670000000158,"",,,,,,,,,6
html-keyboard-response,625,1688190,null,"",null,,,,,,,,
math-period,626,1689452,2387.505000000354,"",,,,,,,,,4
html-keyboard-response,627,1689556,null,"",null,,,,,,,,
math-period,628,1690959,2531.8850000000093,"",,,,,,,,,6
html-keyboard-response,629,1691062,null,"",null,,,,,,,,
math-period,630,1692514,2747.780000000028,"",,,,,,,,,5
html-keyboard-response,631,1692617,null,"",null,,,,,,,,
math-period,632,1694438,3471.2299999999814,"",,,,,,,,,2
html-keyboard-response,633,1694540,null,"",null,,,,,,,,
math-period,634,1696053,2850.0749999999534,"",,,,,,,,,3
html-keyboard-response,635,1696156,null,"",null,,,,,,,,
math-period,636,1698366,4253.114999999758,"",,,,,,,,,4
html-keyboard-response,637,1698470,null,"",null,,,,,,,,
math-period,638,1703209,4599.270000000019,"",,,,,,,,,4
html-keyboard-response,639,1704211,null,"Recall Period!",null,,,,,,,,
call-function,640,1704212,,"",,,,,,,,,
html-keyboard-response,641,1704317,null,"",null,,,,,,,,
recall-period,642,1705025,706.2299999999814,"",,,,,,,,,
html-keyboard-response,643,1705128,null,"",null,,,,,,,,
recall-period,644,1708463,15935.924999999814,"",,,,,,,,,valley
html-keyboard-response,645,1708566,null,"",null,,,,,,,,
recall-period,646,1713147,32893.28999999957,"",,,,,,,,,scapegoat
html-keyboard-response,647,1713251,null,"",null,,,,,,,,
recall-period,648,1721031,44487.72999999928,"",,,,,,,,,siding
html-keyboard-response,649,1721135,null,"",null,,,,,,,,
recall-period,650,1736883,45145.599999999395,"",,,,,,,,,  
html-keyboard-response,651,1736986,null,"",null,,,,,,,,
recall-period,652,1737068,80.70999999996275,"",,,,,,,,,
html-keyboard-response,653,1737171,null,"",null,,,,,,,,
recall-period,654,1737233,60.074999999953434,"",,,,,,,,,
html-keyboard-response,655,1737336,null,"",null,,,,,,,,
recall-period,656,1737685,347.8400000000838,"",,,,,,,,,
html-keyboard-response,657,1737788,null,"",null,,,,,,,,
recall-period,658,1737863,73.08499999996275,"",,,,,,,,,
html-keyboard-response,659,1737965,null,"",null,,,,,,,,
recall-period,660,1738039,72.88500000000931,"",,,,,,,,,
html-keyboard-response,661,1738142,null,"",null,,,,,,,,
recall-period,662,1738213,69.31999999983236,"",,,,,,,,,
html-keyboard-response,663,1738316,null,"",null,,,,,,,,
recall-period,664,1738385,67.23499999986961,"",,,,,,,,,
html-keyboard-response,665,1738488,null,"",null,,,,,,,,
recall-period,666,1738846,356.7700000000186,"",,,,,,,,,
html-keyboard-response,667,1738949,null,"",null,,,,,,,,
recall-period,668,1740103,1152.3749999997672,"",,,,,,,,,
html-keyboard-response,669,1740207,null,"",null,,,,,,,,
recall-period,670,1740320,111.8550000002142,"",,,,,,,,,
html-keyboard-response,671,1740423,null,"",null,,,,,,,,
recall-period,672,1740495,70.17999999993481,"",,,,,,,,,
html-keyboard-response,673,1740597,null,"",null,,,,,,,,
recall-period,674,1740713,114.20999999996275,"",,,,,,,,,
html-keyboard-response,675,1740815,null,"",null,,,,,,,,
recall-period,676,1740905,88.03499999991618,"",,,,,,,,,
html-keyboard-response,677,1741008,null,"",null,,,,,,,,
recall-period,678,1741109,99.06000000005588,"",,,,,,,,,
html-keyboard-response,679,1741212,null,"",null,,,,,,,,
recall-period,680,1779218,null,"",,,,,,,,,
html-keyboard-response,681,1779724,null,"Time's Up!",null,,,,,,,,
html-keyboard-response,682,1821055,41329.65500000003,"<p> Uh oh. You responded correctly on 56% of the GREEN squares.</p>
                  <p>We need you keep your accuracy above 80%</p>
                  <p>Press any key to continue the experiment. Thank you!</p>",32,,,,,,,,
html-keyboard-response,683,1822419,1362.6449999997858,"<div style=""font-size:48px;"">Press any key to begin list 8 of 24 </div>",32,,,,,,,,
html-keyboard-response,684,1824929,null,"<div style=""font-size:60px;"">+</div>",null,,,,,,,,
html-keyboard-response,685,1825437,null,"SCOTCH<img id = ""stim"" ><div class = red_square id = ""topsquare"" ></div><img id = ""stim"" ><div class = red_square  id = ""bottomsquare"" ></div>",null,word_square,response,0,none,true,,,
html-keyboard-response,686,1826938,null,"SCOTCH",null,word,,,,, 'SCOTCH',,
html-keyboard-response,687,1827445,null,"HATCHET<img id = ""stim"" ><div class = green_square id = ""topsquare"" ></div><img id = ""stim"" ><div class = green_square  id = ""bottomsquare"" ></div>",null,word_square,response,1,Space,false,,,
html-keyboard-response,688,1828947,null,"HATCHET",null,word,,,,, 'HATCHET',,
html-keyboard-response,689,1829451,null,"QUILT<img id = ""stim"" ><div class = red_square id = ""topsquare"" ></div><img id = ""stim"" ><div class = red_square  id = ""bottomsquare"" ></div>",null,word_square,response,0,none,true,,,
html-keyboard-response,690,1830956,null,"QUILT",null,word,,,,, 'QUILT',,
html-keyboard-response,691,1831458,null,"SHINGLE<img id = ""stim"" ><div class = green_square id = ""topsquare"" ></div><img id = ""stim"" ><div class = green_square  id = ""bottomsquare"" ></div>",null,word_square,response,1,Space,false,,,
html-keyboard-response,692,1832961,null,"SHINGLE",null,word,,,,, 'SHINGLE',,
html-keyboard-response,693,1833263,301.0600000000559,"ARM<img id = ""stim"" ><div class = green_square id = ""topsquare"" ></div><img id = ""stim"" ><div class = green_square  id = ""bottomsquare"" ></div>",32,word_square,response,1,Space,true,,,
html-keyboard-response,694,1834765,null,"ARM",null,word,,,,, 'ARM',,
html-keyboard-response,695,1835272,null,"LION<img id = ""stim"" ><div class = red_square id = ""topsquare"" ></div><img id = ""stim"" ><div class = red_square  id = ""bottomsquare"" ></div>",null,word_square,response,0,none,true,,,
html-keyboard-response,696,1836775,null,"LION",null,word,,,,, 'LION',,
html-keyboard-response,697,1837282,null,"RODENT<img id = ""stim"" ><div class = red_square id = ""topsquare"" ></div><img id = ""stim"" ><div class = red_square  id = ""bottomsquare"" ></div>",null,word_square,response,0,none,true,,,
html-keyboard-response,698,1838789,null,"RODENT",null,word,,,,, 'RODENT',,
html-keyboard-response,699,1839296,null,"CHARCOAL<img id = ""stim"" ><div class = red_square id = ""topsquare"" ></div><img id = ""stim"" ><div class = red_square  id = ""bottomsquare"" ></div>",null,word_square,response,0,none,true,,,
html-keyboard-response,700,1840800,null,"CHARCOAL",null,word,,,,, 'CHARCOAL',,
html-keyboard-response,701,1841304,null,"ROBBER<img id = ""stim"" ><div class = green_square id = ""topsquare"" ></div><img id = ""stim"" ><div class = green_square  id = ""bottomsquare"" ></div>",null,word_square,response,1,Space,false,,,
html-keyboard-response,702,1842808,null,"ROBBER",null,word,,,,, 'ROBBER',,
html-keyboard-response,703,1843312,null,"SKUNK<img id = ""stim"" ><div class = green_square id = ""topsquare"" ></div><img id = ""stim"" ><div class = green_square  id = ""bottomsquare"" ></div>",null,word_square,response,1,Space,false,,,
html-keyboard-response,704,1844817,null,"SKUNK",null,word,,,,, 'SKUNK',,
html-keyboard-response,705,1845321,null,"COWBOY<img id = ""stim"" ><div class = red_square id = ""topsquare"" ></div><img id = ""stim"" ><div class = red_square  id = ""bottomsquare"" ></div>",null,word_square,response,0,none,true,,,
html-keyboard-response,706,1846827,null,"COWBOY",null,word,,,,, 'COWBOY',,
html-keyboard-response,707,1847334,null,"SADDLE<img id = ""stim"" ><div class = green_square id = ""topsquare"" ></div><img id = ""stim"" ><div class = green_square  id = ""bottomsquare"" ></div>",null,word_square,response,1,Space,false,,,
html-keyboard-response,708,1848837,null,"SADDLE",null,word,,,,, 'SADDLE',,
html-keyboard-response,709,1849343,null,"ICEBERG<img id = ""stim"" ><div class = green_square id = ""topsquare"" ></div><img id = ""stim"" ><div class = green_square  id = ""bottomsquare"" ></div>",null,word_square,response,1,Space,false,,,
html-keyboard-response,710,1850845,null,"ICEBERG",null,word,,,,, 'ICEBERG',,
html-keyboard-response,711,1851351,null,"SURGEON<img id = ""stim"" ><div class = red_square id = ""topsquare"" ></div><img id = ""stim"" ><div class = red_square  id = ""bottomsquare"" ></div>",null,word_square,response,0,none,true,,,
html-keyboard-response,712,1852855,null,"SURGEON",null,word,,,,, 'SURGEON',,
html-keyboard-response,713,1853359,null,"SPOON<img id = ""stim"" ><div class = green_square id = ""topsquare"" ></div><img id = ""stim"" ><div class = green_square  id = ""bottomsquare"" ></div>",null,word_square,response,1,Space,false,,,
html-keyboard-response,714,1854861,null,"SPOON",null,word,,,,, 'SPOON',,
html-keyboard-response,715,1855364,null,"KNIFE<img id = ""stim"" ><div class = red_square id = ""topsquare"" ></div><img id = ""stim"" ><div class = red_square  id = ""bottomsquare"" ></div>",null,word_square,response,0,none,true,,,
html-keyboard-response,716,1856869,null,"KNIFE",null,word,,,,, 'KNIFE',,
html-keyboard-response,717,1857374,null,"KLEENEX<img id = ""stim"" ><div class = green_square id = ""topsquare"" ></div><img id = ""stim"" ><div class = green_square  id = ""bottomsquare"" ></div>",null,word_square,response,1,Space,false,,,
html-keyboard-response,718,1858876,null,"KLEENEX",null,word,,,,, 'KLEENEX',,
html-keyboard-response,719,1859380,null,"LEOPARD<img id = ""stim"" ><div class = red_square id = ""topsquare"" ></div><img id = ""stim"" ><div class = red_square  id = ""bottomsquare"" ></div>",null,word_square,response,0,none,true,,,
html-keyboard-response,720,1860884,null,"LEOPARD",null,word,,,,, 'LEOPARD',,
call-function,721,1860885,,"",,,,,,,,,
html-keyboard-response,722,1860987,null,"",null,,,,,,,,
math-period,723,1868006,25174.81499999971,"",,,,,,,,,1
html-keyboard-response,724,1868110,null,"",null,,,,,,,,
math-period,725,1874210,12021.560000000056,"",,,,,,,,,3
html-keyboard-response,726,1874315,null,"",null,,,,,,,,
math-period,727,1876037,3212.3249999999534,"",,,,,,,,,1
html-keyboard-response,728,1876143,null,"",null,,,,,,,,
math-period,729,1877279,2126.6450000000186,"",,,,,,,,,3
html-keyboard-response,730,1877381,null,"",null,,,,,,,,
math-period,731,1879061,3150.405000000028,"",,,,,,,,,3
html-keyboard-response,732,1879164,null,"",null,,,,,,,,
math-period,733,1883347,8173.944999999832,"",,,,,,,,,4
html-keyboard-response,734,1883451,null,"",null,,,,,,,,
math-period,735,1884879,2708.6599999996834,"",,,,,,,,,3
html-keyboard-response,736,1884982,null,"",null,,,,,,,,
math-period,737,1884985,null,"",,,,,,,,,
html-keyboard-response,738,1885988,null,"Recall Period!",null,,,,,,,,
call-function,739,1885989,,"",,,,,,,,,
html-keyboard-response,740,1886093,null,"",null,,,,,,,,
recall-period,741,1896112,97740.21500000008,"",,,,,,,,,skunk
html-keyboard-response,742,1896215,null,"",null,,,,,,,,
recall-period,743,1898658,13746.439999999246,"",,,,,,,,,title 
html-keyboard-response,744,1898762,null,"",null,,,,,,,,
recall-period,745,1900865,9756.56500000041,"",,,,,,,,,iceberg
html-keyboard-response,746,1900968,null,"",null,,,,,,,,
recall-period,747,1903286,8485.410000000149,"",,,,,,,,,scary 
html-keyboard-response,748,1903389,null,"",null,,,,,,,,
recall-period,749,1911398,79108.58499999926,"",,,,,,,,,cleenex
html-keyboard-response,750,1911501,null,"",null,,,,,,,,
recall-period,751,1938976,160174.27000000002,"",,,,,,,,,scary
html-keyboard-response,752,1939080,null,"",null,,,,,,,,
recall-period,753,1949678,86969.91999999993,"",,,,,,,,,entitled
html-keyboard-response,754,1949782,null,"",null,,,,,,,,
recall-period,755,1960993,null,"",,,,,,,,,
html-keyboard-response,756,1961498,null,"Time's Up!",null,,,,,,,,
html-keyboard-response,757,1974769,13269.100000000093,"<p> Uh oh. You responded correctly on 56% of the GREEN squares.</p>
                  <p>We need you keep your accuracy above 80%</p>
                  <p>Press any key to continue the experiment. Thank you!</p>",32,,,,,,,,
html-keyboard-response,758,2014435,39664.929999999935,"<div style=""font-size:48px;"">Press any key to begin list 9 of 24 </div>",27,,,,,,,,
html-keyboard-response,759,2016943,null,"<div style=""font-size:60px;"">+</div>",null,,,,,,,,
html-keyboard-response,760,2017447,null,"SCALLOP<img id = ""stim"" ><div class = red_square id = ""topsquare"" ></div><img id = ""stim"" ><div class = red_square  id = ""bottomsquare"" ></div>",null,word_square,response,0,none,true,,,
html-keyboard-response,761,2018950,null,"SCALLOP",null,word,,,,, 'SCALLOP',,
html-keyboard-response,762,2019455,null,"WITNESS<img id = ""stim"" ><div class = green_square id = ""topsquare"" ></div><img id = ""stim"" ><div class = green_square  id = ""bottomsquare"" ></div>",null,word_square,response,1,Space,false,,,
html-keyboard-response,763,2020957,null,"WITNESS",null,word,,,,, 'WITNESS',,
html-keyboard-response,764,2021351,391.964999999851,"VICTIM<img id = ""stim"" ><div class = red_square id = ""topsquare"" ></div><img id = ""stim"" ><div class = red_square  id = ""bottomsquare"" ></div>",69,word_square,response,0,none,false,,,
html-keyboard-response,765,2022855,null,"VICTIM",null,word,,,,, 'VICTIM',,
html-keyboard-response,766,2023362,null,"AIRCRAFT<img id = ""stim"" ><div class = green_square id = ""topsquare"" ></div><img id = ""stim"" ><div class = green_square  id = ""bottomsquare"" ></div>",null,word_square,response,1,Space,false,,,
html-keyboard-response,767,2024869,null,"AIRCRAFT",null,word,,,,, 'AIRCRAFT',,
html-keyboard-response,768,2025376,null,"WAREHOUSE<img id = ""stim"" ><div class = red_square id = ""topsquare"" ></div><img id = ""stim"" ><div class = red_square  id = ""bottomsquare"" ></div>",null,word_square,response,0,none,true,,,
html-keyboard-response,769,2026881,null,"WAREHOUSE",null,word,,,,, 'WAREHOUSE',,
html-keyboard-response,770,2027389,null,"RIVER<img id = ""stim"" ><div class = red_square id = ""topsquare"" ></div><img id = ""stim"" ><div class = red_square  id = ""bottomsquare"" ></div>",null,word_square,response,0,none,true,,,
html-keyboard-response,771,2028891,null,"RIVER",null,word,,,,, 'RIVER',,
html-keyboard-response,772,2029389,496.3499999998603,"NOTEBOOK<img id = ""stim"" ><div class = green_square id = ""topsquare"" ></div><img id = ""stim"" ><div class = green_square  id = ""bottomsquare"" ></div>",32,word_square,response,1,Space,true,,,
html-keyboard-response,773,2030894,null,"NOTEBOOK",null,word,,,,, 'NOTEBOOK',,
html-keyboard-response,774,2031396,null,"PAPER<img id = ""stim"" ><div class = green_square id = ""topsquare"" ></div><img id = ""stim"" ><div class = green_square  id = ""bottomsquare"" ></div>",null,word_square,response,1,Space,false,,,
html-keyboard-response,775,2032901,null,"PAPER",null,word,,,,, 'PAPER',,
html-keyboard-response,776,2033403,null,"SCALPEL<img id = ""stim"" ><div class = green_square id = ""topsquare"" ></div><img id = ""stim"" ><div class = green_square  id = ""bottomsquare"" ></div>",null,word_square,response,1,Space,false,,,
html-keyboard-response,777,2034910,null,"SCALPEL",null,word,,,,, 'SCALPEL',,
html-keyboard-response,778,2035410,498.6850000000559,"DAGGER<img id = ""stim"" ><div class = red_square id = ""topsquare"" ></div><img id = ""stim"" ><div class = red_square  id = ""bottomsquare"" ></div>",69,word_square,response,0,none,false,,,
html-keyboard-response,779,2036917,null,"DAGGER",null,word,,,,, 'DAGGER',,
html-keyboard-response,780,2037423,null,"POSSUM<img id = ""stim"" ><div class = green_square id = ""topsquare"" ></div><img id = ""stim"" ><div class = green_square  id = ""bottomsquare"" ></div>",null,word_square,response,1,Space,false,,,
html-keyboard-response,781,2038931,null,"POSSUM",null,word,,,,, 'POSSUM',,
html-keyboard-response,782,2039438,null,"WINDSHIELD<img id = ""stim"" ><div class = green_square id = ""topsquare"" ></div><img id = ""stim"" ><div class = green_square  id = ""bottomsquare"" ></div>",null,word_square,response,1,Space,false,,,
html-keyboard-response,783,2040946,null,"WINDSHIELD",null,word,,,,, 'WINDSHIELD',,
html-keyboard-response,784,2041453,null,"BOULDER<img id = ""stim"" ><div class = red_square id = ""topsquare"" ></div><img id = ""stim"" ><div class = red_square  id = ""bottomsquare"" ></div>",null,word_square,response,0,none,true,,,
html-keyboard-response,785,2042960,null,"BOULDER",null,word,,,,, 'BOULDER',,
html-keyboard-response,786,2043468,null,"BANDAGE<img id = ""stim"" ><div class = red_square id = ""topsquare"" ></div><img id = ""stim"" ><div class = red_square  id = ""bottomsquare"" ></div>",null,word_square,response,0,none,true,,,
html-keyboard-response,787,2044975,null,"BANDAGE",null,word,,,,, 'BANDAGE',,
html-keyboard-response,788,2045482,null,"PANTHER<img id = ""stim"" ><div class = green_square id = ""topsquare"" ></div><img id = ""stim"" ><div class = green_square  id = ""bottomsquare"" ></div>",null,word_square,response,1,Space,false,,,
html-keyboard-response,789,2046986,null,"PANTHER",null,word,,,,, 'PANTHER',,
html-keyboard-response,790,2047494,null,"BEAST<img id = ""stim"" ><div class = red_square id = ""topsquare"" ></div><img id = ""stim"" ><div class = red_square  id = ""bottomsquare"" ></div>",null,word_square,response,0,none,true,,,
html-keyboard-response,791,2048997,null,"BEAST",null,word,,,,, 'BEAST',,
html-keyboard-response,792,2049502,null,"EGYPT<img id = ""stim"" ><div class = red_square id = ""topsquare"" ></div><img id = ""stim"" ><div class = red_square  id = ""bottomsquare"" ></div>",null,word_square,response,0,none,true,,,
html-keyboard-response,793,2051007,null,"EGYPT",null,word,,,,, 'EGYPT',,
html-keyboard-response,794,2051497,488.3950000000186,"STAMP<img id = ""stim"" ><div class = green_square id = ""topsquare"" ></div><img id = ""stim"" ><div class = green_square  id = ""bottomsquare"" ></div>",32,word_square,response,1,Space,true,,,
html-keyboard-response,795,2053000,null,"STAMP",null,word,,,,, 'STAMP',,
call-function,796,2053001,,"",,,,,,,,,
html-keyboard-response,797,2053107,null,"",null,,,,,,,,
math-period,798,2057178,7935.560000000289,"",,,,,,,,,3
html-keyboard-response,799,2057281,null,"",null,,,,,,,,
math-period,800,2059087,3408.3349999999627,"",,,,,,,,,2
html-keyboard-response,801,2059191,null,"",null,,,,,,,,
math-period,802,2062593,6628.309999999357,"",,,,,,,,,1
html-keyboard-response,803,2062695,null,"",null,,,,,,,,
math-period,804,2065361,5182.79000000027,"",,,,,,,,,5
html-keyboard-response,805,2065467,null,"",null,,,,,,,,
math-period,806,2067440,3748.244999999879,"",,,,,,,,,4
html-keyboard-response,807,2067544,null,"",null,,,,,,,,
math-period,808,2069579,3887.404999999795,"",,,,,,,,,2
html-keyboard-response,809,2069683,null,"",null,,,,,,,,
math-period,810,2071081,2628.624999999767,"",,,,,,,,,4
html-keyboard-response,811,2071184,null,"",null,,,,,,,,
math-period,812,2077003,null,"",,,,,,,,,
html-keyboard-response,813,2078006,null,"Recall Period!",null,,,,,,,,
call-function,814,2078006,,"",,,,,,,,,
html-keyboard-response,815,2078108,null,"",null,,,,,,,,
recall-period,816,2081789,19433.30000000121,"",,,,,,,,,dagger
html-keyboard-response,817,2081893,null,"",null,,,,,,,,
recall-period,818,2085633,20898.610000000568,"",,,,,,,,,scalpel
html-keyboard-response,819,2085738,null,"",null,,,,,,,,
recall-period,820,2088281,11283.819999998668,"",,,,,,,,,notebook
html-keyboard-response,821,2088384,null,"",null,,,,,,,,
recall-period,822,2093520,43377.37999999896,"",,,,,,,,,possum
html-keyboard-response,823,2093623,null,"",null,,,,,,,,
recall-period,824,2096402,12524.070000000298,"",,,,,,,,,paper
html-keyboard-response,825,2096505,null,"",null,,,,,,,,
recall-period,826,2099682,15884.084999999963,"",,,,,,,,,school
html-keyboard-response,827,2099785,null,"",null,,,,,,,,
recall-period,828,2105471,41021.49500000058,"",,,,,,,,,dagger
html-keyboard-response,829,2105575,null,"",null,,,,,,,,
recall-period,830,2114596,84054.22500000242,"",,,,,,,,,school
html-keyboard-response,831,2114699,null,"",null,,,,,,,,
recall-period,832,2121074,7016.699999999721,"",,,,,,,,,esc
html-keyboard-response,833,2121177,null,"",null,,,,,,,,
recall-period,834,2153008,null,"",,,,,,,,,
html-keyboard-response,835,2153515,null,"Time's Up!",null,,,,,,,,
html-keyboard-response,836,2190047,36530.73000000045,"<p> Uh oh. You responded correctly on 56% of the GREEN squares.</p>
                  <p>We need you keep your accuracy above 80%</p>
                  <p>Press any key to continue the experiment. Thank you!</p>",32,,,,,,,,
html-keyboard-response,837,2193697,3648.0949999997392,"<div style=""font-size:48px;"">Press any key to begin list 10 of 24 </div>",32,,,,,,,,
html-keyboard-response,838,2196205,null,"<div style=""font-size:60px;"">+</div>",null,,,,,,,,
html-keyboard-response,839,2196708,null,"MAGNET<img id = ""stim"" ><div class = red_square id = ""topsquare"" ></div><img id = ""stim"" ><div class = red_square  id = ""bottomsquare"" ></div>",null,word_square,response,0,none,true,,,
html-keyboard-response,840,2198209,null,"MAGNET",null,word,,,,, 'MAGNET',,
html-keyboard-response,841,2198712,null,"DIVER<img id = ""stim"" ><div class = green_square id = ""topsquare"" ></div><img id = ""stim"" ><div class = green_square  id = ""bottomsquare"" ></div>",null,word_square,response,1,Space,false,,,
html-keyboard-response,842,2200215,null,"DIVER",null,word,,,,, 'DIVER',,
html-keyboard-response,843,2200722,null,"RAFT<img id = ""stim"" ><div class = red_square id = ""topsquare"" ></div><img id = ""stim"" ><div class = red_square  id = ""bottomsquare"" ></div>",null,word_square,response,0,none,true,,,
html-keyboard-response,844,2202225,null,"RAFT",null,word,,,,, 'RAFT',,
html-keyboard-response,845,2202732,null,"CARPET<img id = ""stim"" ><div class = green_square id = ""topsquare"" ></div><img id = ""stim"" ><div class = green_square  id = ""bottomsquare"" ></div>",null,word_square,response,1,Space,false,,,
html-keyboard-response,846,2204237,null,"CARPET",null,word,,,,, 'CARPET',,
html-keyboard-response,847,2204740,null,"KEEPER<img id = ""stim"" ><div class = red_square id = ""topsquare"" ></div><img id = ""stim"" ><div class = red_square  id = ""bottomsquare"" ></div>",null,word_square,response,0,none,true,,,
html-keyboard-response,848,2206244,null,"KEEPER",null,word,,,,, 'KEEPER',,
html-keyboard-response,849,2206749,null,"IDOL<img id = ""stim"" ><div class = red_square id = ""topsquare"" ></div><img id = ""stim"" ><div class = red_square  id = ""bottomsquare"" ></div>",null,word_square,response,0,none,true,,,
html-keyboard-response,850,2208252,null,"IDOL",null,word,,,,, 'IDOL',,
html-keyboard-response,851,2208641,387.4599999994971,"ACTRESS<img id = ""stim"" ><div class = green_square id = ""topsquare"" ></div><img id = ""stim"" ><div class = green_square  id = ""bottomsquare"" ></div>",32,word_square,response,1,Space,true,,,
html-keyboard-response,852,2210143,null,"ACTRESS",null,word,,,,, 'ACTRESS',,
html-keyboard-response,853,2210645,null,"PATIENT<img id = ""stim"" ><div class = green_square id = ""topsquare"" ></div><img id = ""stim"" ><div class = green_square  id = ""bottomsquare"" ></div>",null,word_square,response,1,Space,false,,,
html-keyboard-response,854,2212149,null,"PATIENT",null,word,,,,, 'PATIENT',,
html-keyboard-response,855,2212654,null,"COURSE<img id = ""stim"" ><div class = green_square id = ""topsquare"" ></div><img id = ""stim"" ><div class = green_square  id = ""bottomsquare"" ></div>",null,word_square,response,1,Space,false,,,
html-keyboard-response,856,2214156,null,"COURSE",null,word,,,,, 'COURSE',,
html-keyboard-response,857,2214662,null,"SIRLOIN<img id = ""stim"" ><div class = red_square id = ""topsquare"" ></div><img id = ""stim"" ><div class = red_square  id = ""bottomsquare"" ></div>",null,word_square,response,0,none,true,,,
html-keyboard-response,858,2216166,null,"SIRLOIN",null,word,,,,, 'SIRLOIN',,
html-keyboard-response,859,2216632,465.22499999962747,"PEOPLE<img id = ""stim"" ><div class = green_square id = ""topsquare"" ></div><img id = ""stim"" ><div class = green_square  id = ""bottomsquare"" ></div>",32,word_square,response,1,Space,true,,,
html-keyboard-response,860,2218136,null,"PEOPLE",null,word,,,,, 'PEOPLE',,
html-keyboard-response,861,2218642,null,"WIDOW<img id = ""stim"" ><div class = green_square id = ""topsquare"" ></div><img id = ""stim"" ><div class = green_square  id = ""bottomsquare"" ></div>",null,word_square,response,1,Space,false,,,
html-keyboard-response,862,2220144,null,"WIDOW",null,word,,,,, 'WIDOW',,
html-keyboard-response,863,2220539,392.65999999968335,"GRAVE<img id = ""stim"" ><div class = red_square id = ""topsquare"" ></div><img id = ""stim"" ><div class = red_square  id = ""bottomsquare"" ></div>",69,word_square,response,0,none,false,,,
html-keyboard-response,864,2222044,null,"GRAVE",null,word,,,,, 'GRAVE',,
html-keyboard-response,865,2222527,481.0500000002794,"SURVEY<img id = ""stim"" ><div class = red_square id = ""topsquare"" ></div><img id = ""stim"" ><div class = red_square  id = ""bottomsquare"" ></div>",69,word_square,response,0,none,false,,,
html-keyboard-response,866,2224032,null,"SURVEY",null,word,,,,, 'SURVEY',,
html-keyboard-response,867,2224484,451.285000000149,"SHELTER<img id = ""stim"" ><div class = green_square id = ""topsquare"" ></div><img id = ""stim"" ><div class = green_square  id = ""bottomsquare"" ></div>",32,word_square,response,1,Space,true,,,
html-keyboard-response,868,2225987,null,"SHELTER",null,word,,,,, 'SHELTER',,
html-keyboard-response,869,2226489,null,"NEEDLE<img id = ""stim"" ><div class = red_square id = ""topsquare"" ></div><img id = ""stim"" ><div class = red_square  id = ""bottomsquare"" ></div>",null,word_square,response,0,none,true,,,
html-keyboard-response,870,2227993,null,"NEEDLE",null,word,,,,, 'NEEDLE',,
html-keyboard-response,871,2228495,500.0649999999441,"NURSE<img id = ""stim"" ><div class = red_square id = ""topsquare"" ></div><img id = ""stim"" ><div class = red_square  id = ""bottomsquare"" ></div>",69,word_square,response,0,none,false,,,
html-keyboard-response,872,2230001,null,"NURSE",null,word,,,,, 'NURSE',,
html-keyboard-response,873,2230503,null,"BLOCKADE<img id = ""stim"" ><div class = green_square id = ""topsquare"" ></div><img id = ""stim"" ><div class = green_square  id = ""bottomsquare"" ></div>",null,word_square,response,1,Space,false,,,
html-keyboard-response,874,2232008,null,"BLOCKADE",null,word,,,,, 'BLOCKADE',,
call-function,875,2232009,,"",,,,,,,,,
html-keyboard-response,876,2232112,null,"",null,,,,,,,,
math-period,877,2236940,8978.359999998938,"",,,,,,,,,2
html-keyboard-response,878,2237046,null,"",null,,,,,,,,
math-period,879,2238972,3623.3399999993853,"",,,,,,,,,2
html-keyboard-response,880,2239075,null,"",null,,,,,,,,
math-period,881,2241003,3687.7999999998137,"",,,,,,,,,4
html-keyboard-response,882,2241106,null,"",null,,,,,,,,
math-period,883,2242374,2393.230000000447,"",,,,,,,,,3
html-keyboard-response,884,2242478,null,"",null,,,,,,,,
math-period,885,2243427,1735.5300000002608,"",,,,,,,,,3
html-keyboard-response,886,2243530,null,"",null,,,,,,,,
math-period,887,2244847,2450.419999998994,"",,,,,,,,,2
html-keyboard-response,888,2244950,null,"",null,,,,,,,,
math-period,889,2249536,8994.999999999534,"",,,,,,,,,3
html-keyboard-response,890,2249639,null,"",null,,,,,,,,
math-period,891,2256016,null,"",,,,,,,,,
html-keyboard-response,892,2257023,null,"Recall Period!",null,,,,,,,,
call-function,893,2257024,,"",,,,,,,,,
html-keyboard-response,894,2257129,null,"",null,,,,,,,,
recall-period,895,2260215,18629.295000002254,"",,,,,,,,,diaper
html-keyboard-response,896,2260322,null,"",null,,,,,,,,
recall-period,897,2262349,8109.519999998622,"",,,,,,,,,carpet
html-keyboard-response,898,2262452,null,"",null,,,,,,,,
recall-period,899,2264192,7781.524999998044,"",,,,,,,,,actress
html-keyboard-response,900,2264294,null,"",null,,,,,,,,
recall-period,901,2266471,11078.529999997001,"",,,,,,,,,patient 
html-keyboard-response,902,2266574,null,"",null,,,,,,,,
recall-period,903,2268454,7281.0800000014715,"",,,,,,,,,course
html-keyboard-response,904,2268558,null,"",null,,,,,,,,
recall-period,905,2270691,10046.67500000028,"",,,,,,,,,people
html-keyboard-response,906,2270794,null,"",null,,,,,,,,
recall-period,907,2273953,10457.344999997877,"",,,,,,,,,widow
html-keyboard-response,908,2274057,null,"",null,,,,,,,,
recall-period,909,2277139,16537.79499999946,"",,,,,,,,,shelter
html-keyboard-response,910,2277243,null,"",null,,,,,,,,
recall-period,911,2281825,22937.28999999771,"",,,,,,,,,blockade
html-keyboard-response,912,2281931,null,"",null,,,,,,,,
recall-period,913,2332030,null,"",,,,,,,,,
html-keyboard-response,914,2332533,null,"Time's Up!",null,,,,,,,,
html-keyboard-response,915,2381143,48608.529999999795,"<p> Uh oh. You responded correctly on 55% of the GREEN squares.</p>
                  <p>We need you keep your accuracy above 80%</p>
                  <p>Press any key to continue the experiment. Thank you!</p>",32,,,,,,,,
