trial_type,trial_index,time_elapsed,rt,stimulus,key_press,test_part,targ_cond,correct_response,word,responses
pavlovia,0,1043,,"",,,,,,
external-html,1,54538,53345.70499998517,"",,,,,,
html-keyboard-response,2,55793,1247.450000140816,"Welcome to the experiment. Press any key to begin.",77,,,,,
html-keyboard-response,3,59133,3338.559999829158,"<p>You will see a list of words and colored squares in the following task.<p><p>Press the spacebar whenever you see a red square.<p><p>Do not press a key if the square is green<p><p>Press the spacebar to continue.</p>",32,,,,,
html-keyboard-response,4,63527,3892.23499991931,"<p>Please try to remember as many of the words as you can, and try to think about the meaning of each word as it appears.<p><p>After the detection and encoding task you will be asked to solve some math problems for 24 seconds.<p> Please solve as many problems as you can in the time given. <p>",32,,,,,
html-keyboard-response,5,68770,4739.999999990687,"After solving the math problems, you will be asked to type in as many words <p>from the previous list as you can remember for 75 seconds.<p> If you finish recalling before the 75 seconds are up,<p> just sit tight and try to think of any more words you could have missed. <p><p>We will begin with a brief practice session<p>Press the spacebar to begin the practice.</p>",32,,,,,
html-keyboard-response,6,71274,null,"<div style=""font-size:60px;"">+</div>",null,,,,,
html-keyboard-response,7,71776,null,"HAPPY<img id = ""stim"" ><div class = green_square id = ""topsquare"" ></div><img id = ""stim"" ><div class = green_square  id = ""bottomsquare"" ></div>",null,word_square,D,none,,
html-keyboard-response,8,73279,null,"HAPPY",null,word,,,HAPPY,
html-keyboard-response,9,73287,null,"COLD<img id = ""stim"" ><div class = red_square id = ""topsquare"" ></div><img id = ""stim"" ><div class = red_square  id = ""bottomsquare"" ></div>",null,word_square,T,SPACEBAR,,
html-keyboard-response,10,74791,null,"COLD",null,word,,,COLD,
html-keyboard-response,11,74799,null,"HEAVY<img id = ""stim"" ><div class = red_square id = ""topsquare"" ></div><img id = ""stim"" ><div class = red_square  id = ""bottomsquare"" ></div>",null,word_square,T,SPACEBAR,,
html-keyboard-response,12,76304,null,"HEAVY",null,word,,,HEAVY,
html-keyboard-response,13,76806,null,"FUNNY<img id = ""stim"" ><div class = green_square id = ""topsquare"" ></div><img id = ""stim"" ><div class = green_square  id = ""bottomsquare"" ></div>",null,word_square,D,none,,
html-keyboard-response,14,78313,null,"FUNNY",null,word,,,FUNNY,
html-keyboard-response,15,78320,null,"SCARY<img id = ""stim"" ><div class = red_square id = ""topsquare"" ></div><img id = ""stim"" ><div class = red_square  id = ""bottomsquare"" ></div>",null,word_square,T,SPACEBAR,,
html-keyboard-response,16,79822,null,"SCARY",null,word,,,SCARY,
html-keyboard-response,17,79829,null,"PEACEFUL<img id = ""stim"" ><div class = red_square id = ""topsquare"" ></div><img id = ""stim"" ><div class = red_square  id = ""bottomsquare"" ></div>",null,word_square,T,SPACEBAR,,
html-keyboard-response,18,81331,null,"PEACEFUL",null,word,,,PEACEFUL,
html-keyboard-response,19,81834,null,"LITTLE<img id = ""stim"" ><div class = green_square id = ""topsquare"" ></div><img id = ""stim"" ><div class = green_square  id = ""bottomsquare"" ></div>",null,word_square,D,none,,
html-keyboard-response,20,83338,null,"LITTLE",null,word,,,LITTLE,
html-keyboard-response,21,83840,null,"TIRED<img id = ""stim"" ><div class = green_square id = ""topsquare"" ></div><img id = ""stim"" ><div class = green_square  id = ""bottomsquare"" ></div>",null,word_square,D,none,,
html-keyboard-response,22,85345,null,"TIRED",null,word,,,TIRED,
html-keyboard-response,23,85848,null,"ENTERTAINING<img id = ""stim"" ><div class = green_square id = ""topsquare"" ></div><img id = ""stim"" ><div class = green_square  id = ""bottomsquare"" ></div>",null,word_square,D,none,,
html-keyboard-response,24,87352,null,"ENTERTAINING",null,word,,,ENTERTAINING,
html-keyboard-response,25,87359,null,"GRATEFUL<img id = ""stim"" ><div class = red_square id = ""topsquare"" ></div><img id = ""stim"" ><div class = red_square  id = ""bottomsquare"" ></div>",null,word_square,T,SPACEBAR,,
html-keyboard-response,26,88860,null,"GRATEFUL",null,word,,,GRATEFUL,
html-keyboard-response,27,89362,null,"LOUD<img id = ""stim"" ><div class = green_square id = ""topsquare"" ></div><img id = ""stim"" ><div class = green_square  id = ""bottomsquare"" ></div>",null,word_square,D,none,,
html-keyboard-response,28,90867,null,"LOUD",null,word,,,LOUD,
html-keyboard-response,29,90874,null,"SMART<img id = ""stim"" ><div class = red_square id = ""topsquare"" ></div><img id = ""stim"" ><div class = red_square  id = ""bottomsquare"" ></div>",null,word_square,T,SPACEBAR,,
html-keyboard-response,30,92376,null,"SMART",null,word,,,SMART,
html-keyboard-response,31,92382,null,"SMOOTH<img id = ""stim"" ><div class = red_square id = ""topsquare"" ></div><img id = ""stim"" ><div class = red_square  id = ""bottomsquare"" ></div>",null,word_square,T,SPACEBAR,,
html-keyboard-response,32,93889,null,"SMOOTH",null,word,,,SMOOTH,
html-keyboard-response,33,94393,null,"DISHONEST<img id = ""stim"" ><div class = green_square id = ""topsquare"" ></div><img id = ""stim"" ><div class = green_square  id = ""bottomsquare"" ></div>",null,word_square,D,none,,
html-keyboard-response,34,95894,null,"DISHONEST",null,word,,,DISHONEST,
html-keyboard-response,35,95901,null,"WEALTHY<img id = ""stim"" ><div class = red_square id = ""topsquare"" ></div><img id = ""stim"" ><div class = red_square  id = ""bottomsquare"" ></div>",null,word_square,T,SPACEBAR,,
html-keyboard-response,36,97403,null,"WEALTHY",null,word,,,WEALTHY,
html-keyboard-response,37,97908,null,"BEAUTIFUL<img id = ""stim"" ><div class = green_square id = ""topsquare"" ></div><img id = ""stim"" ><div class = green_square  id = ""bottomsquare"" ></div>",null,word_square,D,none,,
html-keyboard-response,38,99411,null,"BEAUTIFUL",null,word,,,BEAUTIFUL,
html-keyboard-response,39,99915,null,"DREARY<img id = ""stim"" ><div class = green_square id = ""topsquare"" ></div><img id = ""stim"" ><div class = green_square  id = ""bottomsquare"" ></div>",null,word_square,D,none,,
html-keyboard-response,40,101417,null,"DREARY",null,word,,,DREARY,
html-keyboard-response,41,101924,null,"PLAYFUL<img id = ""stim"" ><div class = green_square id = ""topsquare"" ></div><img id = ""stim"" ><div class = green_square  id = ""bottomsquare"" ></div>",null,word_square,D,none,,
html-keyboard-response,42,103426,null,"PLAYFUL",null,word,,,PLAYFUL,
survey-text,43,105960,2520.689999917522,"",,,,,,{"Q0":"4"}
survey-text,44,107766,1800.8399999234825,"",,,,,,{"Q0":"6"}
survey-text,45,109220,1448.6050000414252,"",,,,,,{"Q0":"4"}
survey-text,46,110876,1651.500000152737,"",,,,,,{"Q0":"2"}
survey-text,47,112582,1701.7000000923872,"",,,,,,{"Q0":"4"}
survey-text,48,113883,1296.8800000380725,"",,,,,,{"Q0":"3"}
survey-text,49,114939,1051.5100001357496,"",,,,,,{"Q0":"3"}
survey-text,50,115865,921.1099999956787,"",,,,,,{"Q0":"2"}
survey-text,51,117144,1275.2950000576675,"",,,,,,{"Q0":"1"}
survey-text,52,119028,1879.0299999527633,"",,,,,,{"Q0":"4"}
survey-text,53,120039,1006.0900000389665,"",,,,,,{"Q0":"2"}
survey-text,54,121416,1373.5149998683482,"",,,,,,{"Q0":"1"}
survey-text,55,123257,1836.159999947995,"",,,,,,{"Q0":"0"}
survey-text,56,124641,1378.8250000216067,"",,,,,,{"Q0":"1"}
survey-text,57,125853,1206.3200001139194,"",,,,,,{"Q0":"2"}
survey-text,58,126865,1006.034999853,"",,,,,,{"Q0":"4"}
survey-text,59,127796,926.075000083074,"",,,,,,{"Q0":"4"}
survey-text,60,130261,2457.660000072792,"",,,,,,{"Q0":"dishonest"}
survey-text,61,131399,1132.0599999744445,"",,,,,,{"Q0":"wealthy"}
survey-text,62,132037,632.8900000080466,"",,,,,,{"Q0":"happy"}
survey-text,63,132784,743.0000000167638,"",,,,,,{"Q0":"scary"}
survey-text,64,134318,1528.9799999445677,"",,,,,,{"Q0":"cold"}
survey-text,65,135982,1658.419999992475,"",,,,,,{"Q0":"happy"}
survey-text,66,149025,13037.23999997601,"",,,,,,{"Q0":"wealthy"}
survey-text,67,270247,121216.52500005439,"",,,,,,{"Q0":"happy"}
html-keyboard-response,68,278144,7895.204999949783,"<p>We will now begin the experiment!<p><p>Please try to remember all words from each list.<p><p>Press the spacebar whenever you see a red square.<p><p><p><p>Press the spacebar to begin.</p>",32,,,,,
html-keyboard-response,69,280294,1645.1399999205023,"<div style=""font-size:48px;"">Press any key to begin list 1 of 24 </div>",32,,,,,
html-keyboard-response,70,282802,null,"<div style=""font-size:60px;"">+</div>",null,,,,,
html-keyboard-response,71,283309,null,"NICKEL<img id = ""stim"" ><div class = red_square id = ""topsquare"" ></div><img id = ""stim"" ><div class = red_square  id = ""bottomsquare"" ></div>",null,word_square,1,SPACEBAR,,
html-keyboard-response,72,284813,null,"NICKEL",null,word,,, 'NICKEL',
html-keyboard-response,73,285320,null,"FIREPLACE<img id = ""stim"" ><div class = green_square id = ""topsquare"" ></div><img id = ""stim"" ><div class = green_square  id = ""bottomsquare"" ></div>",null,word_square,0,SPACEBAR,,
html-keyboard-response,74,286821,null,"FIREPLACE",null,word,,, 'FIREPLACE',
html-keyboard-response,75,287327,null,"ROCKET<img id = ""stim"" ><div class = green_square id = ""topsquare"" ></div><img id = ""stim"" ><div class = green_square  id = ""bottomsquare"" ></div>",null,word_square,0,SPACEBAR,,
html-keyboard-response,76,288829,null,"ROCKET",null,word,,, 'ROCKET',
html-keyboard-response,77,289333,null,"MOTEL<img id = ""stim"" ><div class = red_square id = ""topsquare"" ></div><img id = ""stim"" ><div class = red_square  id = ""bottomsquare"" ></div>",null,word_square,1,SPACEBAR,,
html-keyboard-response,78,290838,null,"MOTEL",null,word,,, 'MOTEL',
html-keyboard-response,79,291345,null,"DUNGEON<img id = ""stim"" ><div class = green_square id = ""topsquare"" ></div><img id = ""stim"" ><div class = green_square  id = ""bottomsquare"" ></div>",null,word_square,0,SPACEBAR,,
html-keyboard-response,80,292846,null,"DUNGEON",null,word,,, 'DUNGEON',
html-keyboard-response,81,293350,null,"ELK<img id = ""stim"" ><div class = red_square id = ""topsquare"" ></div><img id = ""stim"" ><div class = red_square  id = ""bottomsquare"" ></div>",null,word_square,1,SPACEBAR,,
html-keyboard-response,82,294853,null,"ELK",null,word,,, 'ELK',
html-keyboard-response,83,295359,null,"GRIZZLY<img id = ""stim"" ><div class = green_square id = ""topsquare"" ></div><img id = ""stim"" ><div class = green_square  id = ""bottomsquare"" ></div>",null,word_square,0,SPACEBAR,,
html-keyboard-response,84,296861,null,"GRIZZLY",null,word,,, 'GRIZZLY',
html-keyboard-response,85,297365,null,"RADISH<img id = ""stim"" ><div class = red_square id = ""topsquare"" ></div><img id = ""stim"" ><div class = red_square  id = ""bottomsquare"" ></div>",null,word_square,1,SPACEBAR,,
html-keyboard-response,86,298869,null,"RADISH",null,word,,, 'RADISH',
html-keyboard-response,87,299377,null,"MATCH<img id = ""stim"" ><div class = green_square id = ""topsquare"" ></div><img id = ""stim"" ><div class = green_square  id = ""bottomsquare"" ></div>",null,word_square,0,SPACEBAR,,
html-keyboard-response,88,300878,null,"MATCH",null,word,,, 'MATCH',
html-keyboard-response,89,301381,null,"FIREMAN<img id = ""stim"" ><div class = green_square id = ""topsquare"" ></div><img id = ""stim"" ><div class = green_square  id = ""bottomsquare"" ></div>",null,word_square,0,SPACEBAR,,
html-keyboard-response,90,302885,null,"FIREMAN",null,word,,, 'FIREMAN',
html-keyboard-response,91,303386,null,"TRANSPLANT<img id = ""stim"" ><div class = red_square id = ""topsquare"" ></div><img id = ""stim"" ><div class = red_square  id = ""bottomsquare"" ></div>",null,word_square,1,SPACEBAR,,
html-keyboard-response,92,304892,null,"TRANSPLANT",null,word,,, 'TRANSPLANT',
html-keyboard-response,93,305397,null,"GARBAGE<img id = ""stim"" ><div class = red_square id = ""topsquare"" ></div><img id = ""stim"" ><div class = red_square  id = ""bottomsquare"" ></div>",null,word_square,1,SPACEBAR,,
html-keyboard-response,94,306901,null,"GARBAGE",null,word,,, 'GARBAGE',
html-keyboard-response,95,307408,null,"FILM<img id = ""stim"" ><div class = green_square id = ""topsquare"" ></div><img id = ""stim"" ><div class = green_square  id = ""bottomsquare"" ></div>",null,word_square,0,SPACEBAR,,
html-keyboard-response,96,308910,null,"FILM",null,word,,, 'FILM',
html-keyboard-response,97,309413,null,"DRIVEWAY<img id = ""stim"" ><div class = green_square id = ""topsquare"" ></div><img id = ""stim"" ><div class = green_square  id = ""bottomsquare"" ></div>",null,word_square,0,SPACEBAR,,
html-keyboard-response,98,310919,null,"DRIVEWAY",null,word,,, 'DRIVEWAY',
html-keyboard-response,99,311422,null,"FUNGUS<img id = ""stim"" ><div class = red_square id = ""topsquare"" ></div><img id = ""stim"" ><div class = red_square  id = ""bottomsquare"" ></div>",null,word_square,1,SPACEBAR,,
html-keyboard-response,100,312926,null,"FUNGUS",null,word,,, 'FUNGUS',
html-keyboard-response,101,313430,null,"RAFT<img id = ""stim"" ><div class = green_square id = ""topsquare"" ></div><img id = ""stim"" ><div class = green_square  id = ""bottomsquare"" ></div>",null,word_square,0,SPACEBAR,,
html-keyboard-response,102,314934,null,"RAFT",null,word,,, 'RAFT',
html-keyboard-response,103,315392,456.6199998371303,"PORTRAIT<img id = ""stim"" ><div class = red_square id = ""topsquare"" ></div><img id = ""stim"" ><div class = red_square  id = ""bottomsquare"" ></div>",32,word_square,1,SPACEBAR,,
html-keyboard-response,104,316897,null,"PORTRAIT",null,word,,, 'PORTRAIT',
html-keyboard-response,105,317399,null,"CATTLE<img id = ""stim"" ><div class = red_square id = ""topsquare"" ></div><img id = ""stim"" ><div class = red_square  id = ""bottomsquare"" ></div>",null,word_square,1,SPACEBAR,,
html-keyboard-response,106,318906,null,"CATTLE",null,word,,, 'CATTLE',
survey-text,107,320485,1573.2000002171844,"",,,,,,{"Q0":"2"}
survey-text,108,322453,1963.3649999741465,"",,,,,,{"Q0":"0"}
survey-text,109,323880,1422.5449999794364,"",,,,,,{"Q0":"2"}
survey-text,110,326150,2263.425000011921,"",,,,,,{"Q0":"1"}
survey-text,111,328343,2186.7800001055,"",,,,,,{"Q0":"5"}
survey-text,112,329247,899.3100000079721,"",,,,,,{"Q0":"3"}
survey-text,113,330486,1233.500000089407,"",,,,,,{"Q0":"2"}
survey-text,114,331439,947.6149999536574,"",,,,,,{"Q0":"4"}
survey-text,115,332400,956.0800001490861,"",,,,,,{"Q0":"4"}
survey-text,116,333169,763.8699999079108,"",,,,,,{"Q0":"2"}
survey-text,117,335587,2412.3549999203533,"",,,,,,{"Q0":"0"}
survey-text,118,337158,1564.3800001125783,"",,,,,,{"Q0":"2"}
survey-text,119,338053,890.1699997950345,"",,,,,,{"Q0":"4"}
survey-text,120,338852,793.8200000207871,"",,,,,,{"Q0":"2"}
survey-text,121,340124,1266.4699999149889,"",,,,,,{"Q0":"2"}
survey-text,122,341018,888.5200000368059,"",,,,,,{"Q0":"2"}
survey-text,123,342239,1215.6899999827147,"",,,,,,{"Q0":"1"}
survey-text,124,343139,893.9950000494719,"",,,,,,{"Q0":"4"}
survey-text,125,345243,2099.485000129789,"",,,,,,{"Q0":"driveway"}
survey-text,126,345953,704.3949998915195,"",,,,,,{"Q0":"fungus"}
survey-text,127,346312,354.53000012785196,"",,,,,,{"Q0":"rat"}
survey-text,128,347994,1677.9899999964982,"",,,,,,{"Q0":"fireman"}
survey-text,129,349994,1994.1150001250207,"",,,,,,{"Q0":"nickel"}
survey-text,130,351103,1103.6000000312924,"",,,,,,{"Q0":"fireplace"}
survey-text,131,391248,40139.75000008941,"",,,,,,{"Q0":"rat"}
survey-text,132,473643,82390.16499998979,"",,,,,,{"Q0":"rat"}
html-keyboard-response,133,478362,4717.380000045523,"<div style=""font-size:48px;"">Press any key to begin list 2 of 24 </div>",32,,,,,
html-keyboard-response,134,480870,null,"<div style=""font-size:60px;"">+</div>",null,,,,,
html-keyboard-response,135,481374,null,"CONVICT<img id = ""stim"" ><div class = red_square id = ""topsquare"" ></div><img id = ""stim"" ><div class = red_square  id = ""bottomsquare"" ></div>",null,word_square,1,SPACEBAR,,
html-keyboard-response,136,482879,null,"CONVICT",null,word,,, 'CONVICT',
html-keyboard-response,137,483383,null,"OUTLAW<img id = ""stim"" ><div class = green_square id = ""topsquare"" ></div><img id = ""stim"" ><div class = green_square  id = ""bottomsquare"" ></div>",null,word_square,0,SPACEBAR,,
html-keyboard-response,138,484888,null,"OUTLAW",null,word,,, 'OUTLAW',
html-keyboard-response,139,485395,null,"COUGAR<img id = ""stim"" ><div class = green_square id = ""topsquare"" ></div><img id = ""stim"" ><div class = green_square  id = ""bottomsquare"" ></div>",null,word_square,0,SPACEBAR,,
html-keyboard-response,140,486897,null,"COUGAR",null,word,,, 'COUGAR',
html-keyboard-response,141,487404,null,"BOX<img id = ""stim"" ><div class = red_square id = ""topsquare"" ></div><img id = ""stim"" ><div class = red_square  id = ""bottomsquare"" ></div>",null,word_square,1,SPACEBAR,,
html-keyboard-response,142,488907,null,"BOX",null,word,,, 'BOX',
html-keyboard-response,143,489414,null,"TRIBE<img id = ""stim"" ><div class = green_square id = ""topsquare"" ></div><img id = ""stim"" ><div class = green_square  id = ""bottomsquare"" ></div>",null,word_square,0,SPACEBAR,,
html-keyboard-response,144,490919,null,"TRIBE",null,word,,, 'TRIBE',
html-keyboard-response,145,491426,null,"GIRL<img id = ""stim"" ><div class = red_square id = ""topsquare"" ></div><img id = ""stim"" ><div class = red_square  id = ""bottomsquare"" ></div>",null,word_square,1,SPACEBAR,,
html-keyboard-response,146,492928,null,"GIRL",null,word,,, 'GIRL',
html-keyboard-response,147,493430,null,"SHERIFF<img id = ""stim"" ><div class = green_square id = ""topsquare"" ></div><img id = ""stim"" ><div class = green_square  id = ""bottomsquare"" ></div>",null,word_square,0,SPACEBAR,,
html-keyboard-response,148,494933,null,"SHERIFF",null,word,,, 'SHERIFF',
html-keyboard-response,149,495439,null,"SENATE<img id = ""stim"" ><div class = red_square id = ""topsquare"" ></div><img id = ""stim"" ><div class = red_square  id = ""bottomsquare"" ></div>",null,word_square,1,SPACEBAR,,
html-keyboard-response,150,496943,null,"SENATE",null,word,,, 'SENATE',
html-keyboard-response,151,497449,null,"KEEPER<img id = ""stim"" ><div class = green_square id = ""topsquare"" ></div><img id = ""stim"" ><div class = green_square  id = ""bottomsquare"" ></div>",null,word_square,0,SPACEBAR,,
html-keyboard-response,152,498952,null,"KEEPER",null,word,,, 'KEEPER',
html-keyboard-response,153,499456,null,"DONOR<img id = ""stim"" ><div class = green_square id = ""topsquare"" ></div><img id = ""stim"" ><div class = green_square  id = ""bottomsquare"" ></div>",null,word_square,0,SPACEBAR,,
html-keyboard-response,154,500961,null,"DONOR",null,word,,, 'DONOR',
html-keyboard-response,155,501464,null,"MASK<img id = ""stim"" ><div class = red_square id = ""topsquare"" ></div><img id = ""stim"" ><div class = red_square  id = ""bottomsquare"" ></div>",null,word_square,1,SPACEBAR,,
html-keyboard-response,156,502966,null,"MASK",null,word,,, 'MASK',
html-keyboard-response,157,503473,null,"SCARF<img id = ""stim"" ><div class = red_square id = ""topsquare"" ></div><img id = ""stim"" ><div class = red_square  id = ""bottomsquare"" ></div>",null,word_square,1,SPACEBAR,,
html-keyboard-response,158,504975,null,"SCARF",null,word,,, 'SCARF',
html-keyboard-response,159,505482,null,"CRADLE<img id = ""stim"" ><div class = green_square id = ""topsquare"" ></div><img id = ""stim"" ><div class = green_square  id = ""bottomsquare"" ></div>",null,word_square,0,SPACEBAR,,
html-keyboard-response,160,506984,null,"CRADLE",null,word,,, 'CRADLE',
html-keyboard-response,161,507487,null,"BRAKE<img id = ""stim"" ><div class = green_square id = ""topsquare"" ></div><img id = ""stim"" ><div class = green_square  id = ""bottomsquare"" ></div>",null,word_square,0,SPACEBAR,,
html-keyboard-response,162,508992,null,"BRAKE",null,word,,, 'BRAKE',
html-keyboard-response,163,509499,null,"FIST<img id = ""stim"" ><div class = red_square id = ""topsquare"" ></div><img id = ""stim"" ><div class = red_square  id = ""bottomsquare"" ></div>",null,word_square,1,SPACEBAR,,
html-keyboard-response,164,511001,null,"FIST",null,word,,, 'FIST',
html-keyboard-response,165,511503,null,"HONEY<img id = ""stim"" ><div class = green_square id = ""topsquare"" ></div><img id = ""stim"" ><div class = green_square  id = ""bottomsquare"" ></div>",null,word_square,0,SPACEBAR,,
html-keyboard-response,166,513009,null,"HONEY",null,word,,, 'HONEY',
html-keyboard-response,167,513516,null,"HORNET<img id = ""stim"" ><div class = red_square id = ""topsquare"" ></div><img id = ""stim"" ><div class = red_square  id = ""bottomsquare"" ></div>",null,word_square,1,SPACEBAR,,
html-keyboard-response,168,515020,null,"HORNET",null,word,,, 'HORNET',
html-keyboard-response,169,515525,null,"BADGE<img id = ""stim"" ><div class = red_square id = ""topsquare"" ></div><img id = ""stim"" ><div class = red_square  id = ""bottomsquare"" ></div>",null,word_square,1,SPACEBAR,,
html-keyboard-response,170,517029,null,"BADGE",null,word,,, 'BADGE',
survey-text,171,519934,2902.744999853894,"",,,,,,{"Q0":"0"}
survey-text,172,521131,1191.4500000420958,"",,,,,,{"Q0":"5"}
survey-text,173,523385,2248.7500000279397,"",,,,,,{"Q0":"1"}
survey-text,174,524349,957.8899999614805,"",,,,,,{"Q0":"3"}
survey-text,175,527793,3438.8100001960993,"",,,,,,{"Q0":"2"}
survey-text,176,528705,909.250000026077,"",,,,,,{"Q0":"2"}
survey-text,177,530057,1348.5649998765439,"",,,,,,{"Q0":"5"}
survey-text,178,531011,951.4649999327958,"",,,,,,{"Q0":"5"}
survey-text,179,532050,1034.5499999821186,"",,,,,,{"Q0":"4"}
survey-text,180,532828,773.9849998615682,"",,,,,,{"Q0":"2"}
survey-text,181,533863,1031.8999998271465,"",,,,,,{"Q0":"5"}
survey-text,182,535147,1280.3700000513345,"",,,,,,{"Q0":"1"}
survey-text,183,535879,727.6399999391288,"",,,,,,{"Q0":"2"}
survey-text,184,537019,1136.4649999886751,"",,,,,,{"Q0":"1"}
survey-text,185,538746,1723.1050000991672,"",,,,,,{"Q0":"0"}
survey-text,186,539798,1046.474999981001,"",,,,,,{"Q0":"1"}
survey-text,187,540750,946.7900001909584,"",,,,,,{"Q0":"2"}
survey-text,188,542871,2115.68499985151,"",,,,,,{"Q0":"2"}
survey-text,189,544720,1842.2350001055747,"",,,,,,{"Q0":"hornet"}
survey-text,190,546504,1778.4349999856204,"",,,,,,{"Q0":"sheriff"}
survey-text,191,547156,646.6200000140816,"",,,,,,{"Q0":"senate"}
survey-text,192,549415,2253.184999804944,"",,,,,,{"Q0":"cougar"}
survey-text,193,551055,1634.319999953732,"",,,,,,{"Q0":"box"}
survey-text,194,560405,9344.10999994725,"",,,,,,{"Q0":"honey"}
survey-text,195,561042,630.3749999497086,"",,,,,,{"Q0":"hornet"}
survey-text,196,653543,92496.31000007503,"",,,,,,{"Q0":"box"}
html-keyboard-response,197,658719,5173.845000099391,"<div style=""font-size:48px;"">Press any key to begin list 3 of 24 </div>",32,,,,,
html-keyboard-response,198,661227,null,"<div style=""font-size:60px;"">+</div>",null,,,,,
html-keyboard-response,199,661734,null,"JUNGLE<img id = ""stim"" ><div class = green_square id = ""topsquare"" ></div><img id = ""stim"" ><div class = green_square  id = ""bottomsquare"" ></div>",null,word_square,0,SPACEBAR,,
html-keyboard-response,200,663236,null,"JUNGLE",null,word,,, 'JUNGLE',
html-keyboard-response,201,663620,381.7800001706928,"PRIMATE<img id = ""stim"" ><div class = red_square id = ""topsquare"" ></div><img id = ""stim"" ><div class = red_square  id = ""bottomsquare"" ></div>",32,word_square,1,SPACEBAR,,
html-keyboard-response,202,665127,null,"PRIMATE",null,word,,, 'PRIMATE',
html-keyboard-response,203,665634,null,"CLIMBER<img id = ""stim"" ><div class = red_square id = ""topsquare"" ></div><img id = ""stim"" ><div class = red_square  id = ""bottomsquare"" ></div>",null,word_square,1,SPACEBAR,,
html-keyboard-response,204,667138,null,"CLIMBER",null,word,,, 'CLIMBER',
html-keyboard-response,205,667642,null,"SUMMIT<img id = ""stim"" ><div class = green_square id = ""topsquare"" ></div><img id = ""stim"" ><div class = green_square  id = ""bottomsquare"" ></div>",null,word_square,0,SPACEBAR,,
html-keyboard-response,206,669149,null,"SUMMIT",null,word,,, 'SUMMIT',
html-keyboard-response,207,669655,null,"FLESH<img id = ""stim"" ><div class = red_square id = ""topsquare"" ></div><img id = ""stim"" ><div class = red_square  id = ""bottomsquare"" ></div>",null,word_square,1,SPACEBAR,,
html-keyboard-response,208,671158,null,"FLESH",null,word,,, 'FLESH',
html-keyboard-response,209,671663,null,"QUAIL<img id = ""stim"" ><div class = green_square id = ""topsquare"" ></div><img id = ""stim"" ><div class = green_square  id = ""bottomsquare"" ></div>",null,word_square,0,SPACEBAR,,
html-keyboard-response,210,673170,null,"QUAIL",null,word,,, 'QUAIL',
html-keyboard-response,211,673626,454.57500009797513,"STRING<img id = ""stim"" ><div class = red_square id = ""topsquare"" ></div><img id = ""stim"" ><div class = red_square  id = ""bottomsquare"" ></div>",32,word_square,1,SPACEBAR,,
html-keyboard-response,212,675134,null,"STRING",null,word,,, 'STRING',
html-keyboard-response,213,675635,null,"POSTAGE<img id = ""stim"" ><div class = green_square id = ""topsquare"" ></div><img id = ""stim"" ><div class = green_square  id = ""bottomsquare"" ></div>",null,word_square,0,SPACEBAR,,
html-keyboard-response,214,677142,null,"POSTAGE",null,word,,, 'POSTAGE',
html-keyboard-response,215,677520,376.05999992229044,"ARTIST<img id = ""stim"" ><div class = red_square id = ""topsquare"" ></div><img id = ""stim"" ><div class = red_square  id = ""bottomsquare"" ></div>",32,word_square,1,SPACEBAR,,
html-keyboard-response,216,679025,null,"ARTIST",null,word,,, 'ARTIST',
html-keyboard-response,217,679477,450.59499982744455,"SHOULDER<img id = ""stim"" ><div class = red_square id = ""topsquare"" ></div><img id = ""stim"" ><div class = red_square  id = ""bottomsquare"" ></div>",32,word_square,1,SPACEBAR,,
html-keyboard-response,218,680979,null,"SHOULDER",null,word,,, 'SHOULDER',
html-keyboard-response,219,681484,null,"GARAGE<img id = ""stim"" ><div class = green_square id = ""topsquare"" ></div><img id = ""stim"" ><div class = green_square  id = ""bottomsquare"" ></div>",null,word_square,0,SPACEBAR,,
html-keyboard-response,220,682991,null,"GARAGE",null,word,,, 'GARAGE',
html-keyboard-response,221,683498,null,"PUPPY<img id = ""stim"" ><div class = green_square id = ""topsquare"" ></div><img id = ""stim"" ><div class = green_square  id = ""bottomsquare"" ></div>",null,word_square,0,SPACEBAR,,
html-keyboard-response,222,685006,null,"PUPPY",null,word,,, 'PUPPY',
html-keyboard-response,223,685418,410.9550002031028,"MONEY<img id = ""stim"" ><div class = red_square id = ""topsquare"" ></div><img id = ""stim"" ><div class = red_square  id = ""bottomsquare"" ></div>",32,word_square,1,SPACEBAR,,
html-keyboard-response,224,686921,null,"MONEY",null,word,,, 'MONEY',
html-keyboard-response,225,687423,null,"DRILL<img id = ""stim"" ><div class = red_square id = ""topsquare"" ></div><img id = ""stim"" ><div class = red_square  id = ""bottomsquare"" ></div>",null,word_square,1,SPACEBAR,,
html-keyboard-response,226,688925,null,"DRILL",null,word,,, 'DRILL',
html-keyboard-response,227,689427,null,"BLUEPRINT<img id = ""stim"" ><div class = green_square id = ""topsquare"" ></div><img id = ""stim"" ><div class = green_square  id = ""bottomsquare"" ></div>",null,word_square,0,SPACEBAR,,
html-keyboard-response,228,690929,null,"BLUEPRINT",null,word,,, 'BLUEPRINT',
html-keyboard-response,229,691435,null,"COURSE<img id = ""stim"" ><div class = red_square id = ""topsquare"" ></div><img id = ""stim"" ><div class = red_square  id = ""bottomsquare"" ></div>",null,word_square,1,SPACEBAR,,
html-keyboard-response,230,692941,null,"COURSE",null,word,,, 'COURSE',
html-keyboard-response,231,693448,null,"MAILBOX<img id = ""stim"" ><div class = green_square id = ""topsquare"" ></div><img id = ""stim"" ><div class = green_square  id = ""bottomsquare"" ></div>",null,word_square,0,SPACEBAR,,
html-keyboard-response,232,694954,null,"MAILBOX",null,word,,, 'MAILBOX',
html-keyboard-response,233,695459,null,"HAND<img id = ""stim"" ><div class = green_square id = ""topsquare"" ></div><img id = ""stim"" ><div class = green_square  id = ""bottomsquare"" ></div>",null,word_square,0,SPACEBAR,,
html-keyboard-response,234,696963,null,"HAND",null,word,,, 'HAND',
survey-text,235,698307,1341.325000161305,"",,,,,,{"Q0":"4"}
survey-text,236,699265,952.8999999165535,"",,,,,,{"Q0":"5"}
survey-text,237,700134,863.4750000201166,"",,,,,,{"Q0":"5"}
survey-text,238,701057,917.3950001131743,"",,,,,,{"Q0":"3"}
survey-text,239,702358,1295.5950000323355,"",,,,,,{"Q0":"6"}
survey-text,240,703111,747.5950000807643,"",,,,,,{"Q0":"2"}
survey-text,241,705127,2011.0100000165403,"",,,,,,{"Q0":"3"}
survey-text,242,706168,1035.4249998927116,"",,,,,,{"Q0":"1"}
survey-text,243,707111,937.9799999296665,"",,,,,,{"Q0":"5"}
survey-text,244,707865,748.8250001333654,"",,,,,,{"Q0":"3"}
survey-text,245,708772,901.490000076592,"",,,,,,{"Q0":"1"}
survey-text,246,710277,1500.5749999545515,"",,,,,,{"Q0":"2"}
survey-text,247,711293,1010.1149999536574,"",,,,,,{"Q0":"4"}
survey-text,248,712024,725.7149999495596,"",,,,,,{"Q0":"3"}
survey-text,249,713140,1111.1500000115484,"",,,,,,{"Q0":"3"}
survey-text,250,713865,719.9699999764562,"",,,,,,{"Q0":"3"}
survey-text,251,715764,1893.0300001520663,"",,,,,,{"Q0":"0"}
survey-text,252,716774,1004.4650000054389,"",,,,,,{"Q0":"4"}
survey-text,253,718926,2145.815000170842,"",,,,,,{"Q0":"3"}
survey-text,254,719600,669.3649999797344,"",,,,,,{"Q0":"3"}
survey-text,255,720326,719.8699999134988,"",,,,,,{"Q0":"3"}
survey-text,256,721400,1068.5749999247491,"",,,,,,{"Q0":"5"}
survey-text,257,729299,7893.08000006713,"",,,,,,{"Q0":"climber"}
survey-text,258,731114,1810.384999960661,"",,,,,,{"Q0":"primate"}
survey-text,259,732732,1613.6749999132007,"",,,,,,{"Q0":"summit"}
survey-text,260,733678,940.5499999411404,"",,,,,,{"Q0":"flesh"}
survey-text,261,734438,753.580000018701,"",,,,,,{"Q0":"quail"}
survey-text,262,740537,6094.64000002481,"",,,,,,{"Q0":"course"}
survey-text,263,742893,2350.5550001282245,"",,,,,,{"Q0":"mailbox"}
survey-text,264,744970,2071.005000034347,"",,,,,,{"Q0":"hand"}
survey-text,265,749610,4635.125000029802,"",,,,,,{"Q0":"blueprint"}
survey-text,266,799775,50158.27500005253,"",,,,,,{"Q0":"summit"}
html-keyboard-response,267,801711,1933.4149998612702,"<div style=""font-size:48px;"">Press any key to begin list 4 of 24 </div>",32,,,,,
html-keyboard-response,268,804218,null,"<div style=""font-size:60px;"">+</div>",null,,,,,
html-keyboard-response,269,804723,null,"PONY<img id = ""stim"" ><div class = green_square id = ""topsquare"" ></div><img id = ""stim"" ><div class = green_square  id = ""bottomsquare"" ></div>",null,word_square,0,SPACEBAR,,
html-keyboard-response,270,806227,null,"PONY",null,word,,, 'PONY',
html-keyboard-response,271,806734,null,"FREEZER<img id = ""stim"" ><div class = red_square id = ""topsquare"" ></div><img id = ""stim"" ><div class = red_square  id = ""bottomsquare"" ></div>",null,word_square,1,SPACEBAR,,
html-keyboard-response,272,808236,null,"FREEZER",null,word,,, 'FREEZER',
html-keyboard-response,273,808738,null,"SHELF<img id = ""stim"" ><div class = red_square id = ""topsquare"" ></div><img id = ""stim"" ><div class = red_square  id = ""bottomsquare"" ></div>",null,word_square,1,SPACEBAR,,
html-keyboard-response,274,810240,null,"SHELF",null,word,,, 'SHELF',
html-keyboard-response,275,810747,null,"ELBOW<img id = ""stim"" ><div class = green_square id = ""topsquare"" ></div><img id = ""stim"" ><div class = green_square  id = ""bottomsquare"" ></div>",null,word_square,0,SPACEBAR,,
html-keyboard-response,276,812249,null,"ELBOW",null,word,,, 'ELBOW',
html-keyboard-response,277,812754,null,"GODDESS<img id = ""stim"" ><div class = red_square id = ""topsquare"" ></div><img id = ""stim"" ><div class = red_square  id = ""bottomsquare"" ></div>",null,word_square,1,SPACEBAR,,
html-keyboard-response,278,814256,null,"GODDESS",null,word,,, 'GODDESS',
html-keyboard-response,279,814764,null,"PITCHFORK<img id = ""stim"" ><div class = green_square id = ""topsquare"" ></div><img id = ""stim"" ><div class = green_square  id = ""bottomsquare"" ></div>",null,word_square,0,SPACEBAR,,
html-keyboard-response,280,816267,null,"PITCHFORK",null,word,,, 'PITCHFORK',
html-keyboard-response,281,816724,455.66500001586974,"CLAMP<img id = ""stim"" ><div class = red_square id = ""topsquare"" ></div><img id = ""stim"" ><div class = red_square  id = ""bottomsquare"" ></div>",32,word_square,1,SPACEBAR,,
html-keyboard-response,282,818226,null,"CLAMP",null,word,,, 'CLAMP',
html-keyboard-response,283,818734,null,"LIZARD<img id = ""stim"" ><div class = green_square id = ""topsquare"" ></div><img id = ""stim"" ><div class = green_square  id = ""bottomsquare"" ></div>",null,word_square,0,SPACEBAR,,
html-keyboard-response,284,820241,null,"LIZARD",null,word,,, 'LIZARD',
html-keyboard-response,285,820744,501.1700000613928,"POISON<img id = ""stim"" ><div class = red_square id = ""topsquare"" ></div><img id = ""stim"" ><div class = red_square  id = ""bottomsquare"" ></div>",32,word_square,1,SPACEBAR,,
html-keyboard-response,286,822250,null,"POISON",null,word,,, 'POISON',
html-keyboard-response,287,822757,null,"OUTFIT<img id = ""stim"" ><div class = red_square id = ""topsquare"" ></div><img id = ""stim"" ><div class = red_square  id = ""bottomsquare"" ></div>",null,word_square,1,SPACEBAR,,
html-keyboard-response,288,824262,null,"OUTFIT",null,word,,, 'OUTFIT',
html-keyboard-response,289,824769,null,"PIGEON<img id = ""stim"" ><div class = green_square id = ""topsquare"" ></div><img id = ""stim"" ><div class = green_square  id = ""bottomsquare"" ></div>",null,word_square,0,SPACEBAR,,
html-keyboard-response,290,826275,null,"PIGEON",null,word,,, 'PIGEON',
html-keyboard-response,291,826779,null,"TURKEY<img id = ""stim"" ><div class = green_square id = ""topsquare"" ></div><img id = ""stim"" ><div class = green_square  id = ""bottomsquare"" ></div>",null,word_square,0,SPACEBAR,,
html-keyboard-response,292,828281,null,"TURKEY",null,word,,, 'TURKEY',
html-keyboard-response,293,828785,null,"LADDER<img id = ""stim"" ><div class = red_square id = ""topsquare"" ></div><img id = ""stim"" ><div class = red_square  id = ""bottomsquare"" ></div>",null,word_square,1,SPACEBAR,,
html-keyboard-response,294,830291,null,"LADDER",null,word,,, 'LADDER',
html-keyboard-response,295,830797,null,"CAFE<img id = ""stim"" ><div class = red_square id = ""topsquare"" ></div><img id = ""stim"" ><div class = red_square  id = ""bottomsquare"" ></div>",null,word_square,1,SPACEBAR,,
html-keyboard-response,296,832300,null,"CAFE",null,word,,, 'CAFE',
html-keyboard-response,297,832802,null,"COOKBOOK<img id = ""stim"" ><div class = green_square id = ""topsquare"" ></div><img id = ""stim"" ><div class = green_square  id = ""bottomsquare"" ></div>",null,word_square,0,SPACEBAR,,
html-keyboard-response,298,834308,null,"COOKBOOK",null,word,,, 'COOKBOOK',
html-keyboard-response,299,834810,null,"CLOSET<img id = ""stim"" ><div class = red_square id = ""topsquare"" ></div><img id = ""stim"" ><div class = red_square  id = ""bottomsquare"" ></div>",null,word_square,1,SPACEBAR,,
html-keyboard-response,300,836316,null,"CLOSET",null,word,,, 'CLOSET',
html-keyboard-response,301,836824,null,"CRATER<img id = ""stim"" ><div class = green_square id = ""topsquare"" ></div><img id = ""stim"" ><div class = green_square  id = ""bottomsquare"" ></div>",null,word_square,0,SPACEBAR,,
html-keyboard-response,302,838328,null,"CRATER",null,word,,, 'CRATER',
html-keyboard-response,303,838835,null,"VALLEY<img id = ""stim"" ><div class = green_square id = ""topsquare"" ></div><img id = ""stim"" ><div class = green_square  id = ""bottomsquare"" ></div>",null,word_square,0,SPACEBAR,,
html-keyboard-response,304,840339,null,"VALLEY",null,word,,, 'VALLEY',
survey-text,305,841693,1348.6599999014288,"",,,,,,{"Q0":"3"}
survey-text,306,843558,1860.2100000716746,"",,,,,,{"Q0":"1"}
survey-text,307,844297,735.564999980852,"",,,,,,{"Q0":"3"}
survey-text,308,845501,1198.8099999725819,"",,,,,,{"Q0":"1"}
survey-text,309,846255,748.3349998947233,"",,,,,,{"Q0":"3"}
survey-text,310,847626,1364.9699999950826,"",,,,,,{"Q0":"3"}
survey-text,311,848686,1055.2900000475347,"",,,,,,{"Q0":"1"}
survey-text,312,849467,775.995000032708,"",,,,,,{"Q0":"3"}
survey-text,313,850892,1420.295000076294,"",,,,,,{"Q0":"3"}
survey-text,314,851887,989.9250001180917,"",,,,,,{"Q0":"4"}
survey-text,315,852671,779.3800001963973,"",,,,,,{"Q0":"5"}
survey-text,316,854229,1552.2900000214577,"",,,,,,{"Q0":"0"}
survey-text,317,855321,1086.589999962598,"",,,,,,{"Q0":"1"}
survey-text,318,856573,1246.070000110194,"",,,,,,{"Q0":"1"}
survey-text,319,857378,798.4750000759959,"",,,,,,{"Q0":"4"}
survey-text,320,858246,863.6350000742823,"",,,,,,{"Q0":"5"}
survey-text,321,858947,697.3600001074374,"",,,,,,{"Q0":"6"}
survey-text,322,860012,1061.0500001348555,"",,,,,,{"Q0":"1"}
survey-text,323,861054,1036.409999942407,"",,,,,,{"Q0":"4"}
survey-text,324,861839,779.5950002036989,"",,,,,,{"Q0":"5"}
survey-text,325,863107,1262.2550001833588,"",,,,,,{"Q0":"2"}
survey-text,326,864222,1108.9999999385327,"",,,,,,{"Q0":"4"}
survey-text,327,866648,2421.2599999736995,"",,,,,,{"Q0":"3"}
survey-text,328,868675,2020.964999916032,"",,,,,,{"Q0":"crater"}
survey-text,329,869481,799.9899999704212,"",,,,,,{"Q0":"valley"}
survey-text,330,870187,699.640000006184,"",,,,,,{"Q0":"cafe"}
survey-text,331,871649,1457.135000033304,"",,,,,,{"Q0":"cookbook"}
survey-text,332,872503,848.350000102073,"",,,,,,{"Q0":"turkey"}
survey-text,333,883200,10692.255000118166,"",,,,,,{"Q0":"ladder"}
survey-text,334,899118,15913.55499997735,"",,,,,,{"Q0":"valley"}
survey-text,335,905877,6751.749999821186,"",,,,,,{"Q0":"lizard"}
survey-text,336,920925,15041.884999955073,"",,,,,,{"Q0":"cafe"}
survey-text,337,937063,16132.740000030026,"",,,,,,{"Q0":"ladder"}
survey-text,338,960328,23259.025000035763,"",,,,,,{"Q0":"turkey"}
html-keyboard-response,339,961615,1284.9050001241267,"<div style=""font-size:48px;"">Press any key to begin list 5 of 24 </div>",32,,,,,
html-keyboard-response,340,964125,null,"<div style=""font-size:60px;"">+</div>",null,,,,,
html-keyboard-response,341,964628,null,"PALACE<img id = ""stim"" ><div class = red_square id = ""topsquare"" ></div><img id = ""stim"" ><div class = red_square  id = ""bottomsquare"" ></div>",null,word_square,1,SPACEBAR,,
html-keyboard-response,342,966131,null,"PALACE",null,word,,, 'PALACE',
html-keyboard-response,343,966635,null,"MILDEW<img id = ""stim"" ><div class = green_square id = ""topsquare"" ></div><img id = ""stim"" ><div class = green_square  id = ""bottomsquare"" ></div>",null,word_square,0,SPACEBAR,,
html-keyboard-response,344,968139,null,"MILDEW",null,word,,, 'MILDEW',
html-keyboard-response,345,968603,462.9200000781566,"SLIME<img id = ""stim"" ><div class = red_square id = ""topsquare"" ></div><img id = ""stim"" ><div class = red_square  id = ""bottomsquare"" ></div>",32,word_square,1,SPACEBAR,,
html-keyboard-response,346,970110,null,"SLIME",null,word,,, 'SLIME',
html-keyboard-response,347,970614,null,"EMPIRE<img id = ""stim"" ><div class = red_square id = ""topsquare"" ></div><img id = ""stim"" ><div class = red_square  id = ""bottomsquare"" ></div>",null,word_square,1,SPACEBAR,,
html-keyboard-response,348,972121,null,"EMPIRE",null,word,,, 'EMPIRE',
html-keyboard-response,349,972625,null,"STABLE<img id = ""stim"" ><div class = green_square id = ""topsquare"" ></div><img id = ""stim"" ><div class = green_square  id = ""bottomsquare"" ></div>",null,word_square,0,SPACEBAR,,
html-keyboard-response,350,974132,null,"STABLE",null,word,,, 'STABLE',
html-keyboard-response,351,974635,null,"DRIVER<img id = ""stim"" ><div class = green_square id = ""topsquare"" ></div><img id = ""stim"" ><div class = green_square  id = ""bottomsquare"" ></div>",null,word_square,0,SPACEBAR,,
html-keyboard-response,352,976142,null,"DRIVER",null,word,,, 'DRIVER',
html-keyboard-response,353,976647,null,"PUMPKIN<img id = ""stim"" ><div class = red_square id = ""topsquare"" ></div><img id = ""stim"" ><div class = red_square  id = ""bottomsquare"" ></div>",null,word_square,1,SPACEBAR,,
html-keyboard-response,354,978153,null,"PUMPKIN",null,word,,, 'PUMPKIN',
html-keyboard-response,355,978659,null,"MAJOR<img id = ""stim"" ><div class = green_square id = ""topsquare"" ></div><img id = ""stim"" ><div class = green_square  id = ""bottomsquare"" ></div>",null,word_square,0,SPACEBAR,,
html-keyboard-response,356,980160,null,"MAJOR",null,word,,, 'MAJOR',
html-keyboard-response,357,980667,null,"SPIDER<img id = ""stim"" ><div class = red_square id = ""topsquare"" ></div><img id = ""stim"" ><div class = red_square  id = ""bottomsquare"" ></div>",null,word_square,1,SPACEBAR,,
html-keyboard-response,358,982171,null,"SPIDER",null,word,,, 'SPIDER',
html-keyboard-response,359,982673,null,"PASTRY<img id = ""stim"" ><div class = green_square id = ""topsquare"" ></div><img id = ""stim"" ><div class = green_square  id = ""bottomsquare"" ></div>",null,word_square,0,SPACEBAR,,
html-keyboard-response,360,984178,null,"PASTRY",null,word,,, 'PASTRY',
html-keyboard-response,361,984683,null,"DRAWING<img id = ""stim"" ><div class = green_square id = ""topsquare"" ></div><img id = ""stim"" ><div class = green_square  id = ""bottomsquare"" ></div>",null,word_square,0,SPACEBAR,,
html-keyboard-response,362,986186,null,"DRAWING",null,word,,, 'DRAWING',
html-keyboard-response,363,986647,459.65999993495643,"FRAME<img id = ""stim"" ><div class = red_square id = ""topsquare"" ></div><img id = ""stim"" ><div class = red_square  id = ""bottomsquare"" ></div>",32,word_square,1,SPACEBAR,,
html-keyboard-response,364,988149,null,"FRAME",null,word,,, 'FRAME',
html-keyboard-response,365,988653,null,"ROBOT<img id = ""stim"" ><div class = green_square id = ""topsquare"" ></div><img id = ""stim"" ><div class = green_square  id = ""bottomsquare"" ></div>",null,word_square,0,SPACEBAR,,
html-keyboard-response,366,990158,null,"ROBOT",null,word,,, 'ROBOT',
html-keyboard-response,367,990663,null,"RECORD<img id = ""stim"" ><div class = green_square id = ""topsquare"" ></div><img id = ""stim"" ><div class = green_square  id = ""bottomsquare"" ></div>",null,word_square,0,SPACEBAR,,
html-keyboard-response,368,992168,null,"RECORD",null,word,,, 'RECORD',
html-keyboard-response,369,992590,420.4900001641363,"INSECT<img id = ""stim"" ><div class = red_square id = ""topsquare"" ></div><img id = ""stim"" ><div class = red_square  id = ""bottomsquare"" ></div>",32,word_square,1,SPACEBAR,,
html-keyboard-response,370,994097,null,"INSECT",null,word,,, 'INSECT',
html-keyboard-response,371,994602,null,"BACKBONE<img id = ""stim"" ><div class = green_square id = ""topsquare"" ></div><img id = ""stim"" ><div class = green_square  id = ""bottomsquare"" ></div>",null,word_square,0,SPACEBAR,,
html-keyboard-response,372,996109,null,"BACKBONE",null,word,,, 'BACKBONE',
html-keyboard-response,373,996615,null,"DOUGHNUT<img id = ""stim"" ><div class = red_square id = ""topsquare"" ></div><img id = ""stim"" ><div class = red_square  id = ""bottomsquare"" ></div>",null,word_square,1,SPACEBAR,,
html-keyboard-response,374,998123,null,"DOUGHNUT",null,word,,, 'DOUGHNUT',
html-keyboard-response,375,998631,null,"CRICKET<img id = ""stim"" ><div class = red_square id = ""topsquare"" ></div><img id = ""stim"" ><div class = red_square  id = ""bottomsquare"" ></div>",null,word_square,1,SPACEBAR,,
html-keyboard-response,376,1000133,null,"CRICKET",null,word,,, 'CRICKET',
survey-text,377,1002664,2525.91499988921,"",,,,,,{"Q0":"0"}
survey-text,378,1003545,875.9200000204146,"",,,,,,{"Q0":"4"}
survey-text,379,1004380,829.8899999354035,"",,,,,,{"Q0":"5"}
survey-text,380,1005518,1132.4350000359118,"",,,,,,{"Q0":"4"}
survey-text,381,1006410,886.3649999257177,"",,,,,,{"Q0":"6"}
survey-text,382,1007335,919.6750000119209,"",,,,,,{"Q0":"4"}
survey-text,383,1008268,927.9349998105317,"",,,,,,{"Q0":"3"}
survey-text,384,1009728,1453.785000136122,"",,,,,,{"Q0":"1"}
survey-text,385,1011117,1383.159999968484,"",,,,,,{"Q0":"1"}
survey-text,386,1012024,901.5450000297278,"",,,,,,{"Q0":"4"}
survey-text,387,1013258,1229.3599999975413,"",,,,,,{"Q0":"4"}
survey-text,388,1014560,1296.5750000439584,"",,,,,,{"Q0":"1"}
survey-text,389,1015208,642.7100000437349,"",,,,,,{"Q0":"1"}
survey-text,390,1016584,1371.2900001555681,"",,,,,,{"Q0":"2"}
survey-text,391,1018055,1465.349999954924,"",,,,,,{"Q0":"5"}
survey-text,392,1018674,613.0300001241267,"",,,,,,{"Q0":"5"}
survey-text,393,1019286,606.6650000866503,"",,,,,,{"Q0":"5"}
survey-text,394,1020526,1234.4399997964501,"",,,,,,{"Q0":"4"}
survey-text,395,1021743,1211.3649998791516,"",,,,,,{"Q0":"1"}
survey-text,396,1022844,1095.560000045225,"",,,,,,{"Q0":"5"}
survey-text,397,1024165,1315.065000206232,"",,,,,,{"Q0":"1"}
survey-text,398,1025656,1485.4150000028312,"",,,,,,{"Q0":"mildew"}
survey-text,399,1026888,1226.310000056401,"",,,,,,{"Q0":"palace"}
survey-text,400,1029736,2842.0499998610467,"",,,,,,{"Q0":"empire"}
survey-text,401,1031301,1559.9350000265986,"",,,,,,{"Q0":"insect"}
survey-text,402,1032586,1279.3199999723583,"",,,,,,{"Q0":"backbone"}
survey-text,403,1105501,72908.98999990895,"",,,,,,{"Q0":"insect"}
html-keyboard-response,404,1106132,629.1000000201166,"<div style=""font-size:48px;"">Press any key to begin list 6 of 24 </div>",32,,,,,
html-keyboard-response,405,1108639,null,"<div style=""font-size:60px;"">+</div>",null,,,,,
html-keyboard-response,406,1109146,null,"MAMMAL<img id = ""stim"" ><div class = red_square id = ""topsquare"" ></div><img id = ""stim"" ><div class = red_square  id = ""bottomsquare"" ></div>",null,word_square,1,SPACEBAR,,
html-keyboard-response,407,1110648,null,"MAMMAL",null,word,,, 'MAMMAL',
html-keyboard-response,408,1111152,null,"SNAKE<img id = ""stim"" ><div class = green_square id = ""topsquare"" ></div><img id = ""stim"" ><div class = green_square  id = ""bottomsquare"" ></div>",null,word_square,0,SPACEBAR,,
html-keyboard-response,409,1112654,null,"SNAKE",null,word,,, 'SNAKE',
html-keyboard-response,410,1113161,null,"BUGLE<img id = ""stim"" ><div class = red_square id = ""topsquare"" ></div><img id = ""stim"" ><div class = red_square  id = ""bottomsquare"" ></div>",null,word_square,1,SPACEBAR,,
html-keyboard-response,411,1114664,null,"BUGLE",null,word,,, 'BUGLE',
html-keyboard-response,412,1115167,null,"BISON<img id = ""stim"" ><div class = red_square id = ""topsquare"" ></div><img id = ""stim"" ><div class = red_square  id = ""bottomsquare"" ></div>",null,word_square,1,SPACEBAR,,
html-keyboard-response,413,1116671,null,"BISON",null,word,,, 'BISON',
html-keyboard-response,414,1117175,null,"BENCH<img id = ""stim"" ><div class = green_square id = ""topsquare"" ></div><img id = ""stim"" ><div class = green_square  id = ""bottomsquare"" ></div>",null,word_square,0,SPACEBAR,,
html-keyboard-response,415,1118678,null,"BENCH",null,word,,, 'BENCH',
html-keyboard-response,416,1119185,null,"DART<img id = ""stim"" ><div class = green_square id = ""topsquare"" ></div><img id = ""stim"" ><div class = green_square  id = ""bottomsquare"" ></div>",null,word_square,0,SPACEBAR,,
html-keyboard-response,417,1120689,null,"DART",null,word,,, 'DART',
html-keyboard-response,418,1121161,468.7699999194592,"FRIEND<img id = ""stim"" ><div class = red_square id = ""topsquare"" ></div><img id = ""stim"" ><div class = red_square  id = ""bottomsquare"" ></div>",32,word_square,1,SPACEBAR,,
html-keyboard-response,419,1122669,null,"FRIEND",null,word,,, 'FRIEND',
html-keyboard-response,420,1123175,null,"BROTHER<img id = ""stim"" ><div class = green_square id = ""topsquare"" ></div><img id = ""stim"" ><div class = green_square  id = ""bottomsquare"" ></div>",null,word_square,0,SPACEBAR,,
html-keyboard-response,421,1124677,null,"BROTHER",null,word,,, 'BROTHER',
html-keyboard-response,422,1125184,null,"WOMAN<img id = ""stim"" ><div class = red_square id = ""topsquare"" ></div><img id = ""stim"" ><div class = red_square  id = ""bottomsquare"" ></div>",null,word_square,1,SPACEBAR,,
html-keyboard-response,423,1126690,null,"WOMAN",null,word,,, 'WOMAN',
html-keyboard-response,424,1127192,null,"ANTLER<img id = ""stim"" ><div class = green_square id = ""topsquare"" ></div><img id = ""stim"" ><div class = green_square  id = ""bottomsquare"" ></div>",null,word_square,0,SPACEBAR,,
html-keyboard-response,425,1128699,null,"ANTLER",null,word,,, 'ANTLER',
html-keyboard-response,426,1129201,null,"DINER<img id = ""stim"" ><div class = green_square id = ""topsquare"" ></div><img id = ""stim"" ><div class = green_square  id = ""bottomsquare"" ></div>",null,word_square,0,SPACEBAR,,
html-keyboard-response,427,1130703,null,"DINER",null,word,,, 'DINER',
html-keyboard-response,428,1131211,null,"DOLPHIN<img id = ""stim"" ><div class = red_square id = ""topsquare"" ></div><img id = ""stim"" ><div class = red_square  id = ""bottomsquare"" ></div>",null,word_square,1,SPACEBAR,,
html-keyboard-response,429,1132722,null,"DOLPHIN",null,word,,, 'DOLPHIN',
html-keyboard-response,430,1133228,null,"ATLAS<img id = ""stim"" ><div class = green_square id = ""topsquare"" ></div><img id = ""stim"" ><div class = green_square  id = ""bottomsquare"" ></div>",null,word_square,0,SPACEBAR,,
html-keyboard-response,431,1134730,null,"ATLAS",null,word,,, 'ATLAS',
html-keyboard-response,432,1135234,null,"GLOBE<img id = ""stim"" ><div class = green_square id = ""topsquare"" ></div><img id = ""stim"" ><div class = green_square  id = ""bottomsquare"" ></div>",null,word_square,0,SPACEBAR,,
html-keyboard-response,433,1136738,null,"GLOBE",null,word,,, 'GLOBE',
html-keyboard-response,434,1137241,null,"LASER<img id = ""stim"" ><div class = red_square id = ""topsquare"" ></div><img id = ""stim"" ><div class = red_square  id = ""bottomsquare"" ></div>",null,word_square,1,SPACEBAR,,
html-keyboard-response,435,1138748,null,"LASER",null,word,,, 'LASER',
html-keyboard-response,436,1139249,null,"VENUS<img id = ""stim"" ><div class = green_square id = ""topsquare"" ></div><img id = ""stim"" ><div class = green_square  id = ""bottomsquare"" ></div>",null,word_square,0,SPACEBAR,,
html-keyboard-response,437,1140756,null,"VENUS",null,word,,, 'VENUS',
html-keyboard-response,438,1141261,null,"NEPTUNE<img id = ""stim"" ><div class = red_square id = ""topsquare"" ></div><img id = ""stim"" ><div class = red_square  id = ""bottomsquare"" ></div>",null,word_square,1,SPACEBAR,,
html-keyboard-response,439,1142764,null,"NEPTUNE",null,word,,, 'NEPTUNE',
html-keyboard-response,440,1143268,null,"PIMPLE<img id = ""stim"" ><div class = red_square id = ""topsquare"" ></div><img id = ""stim"" ><div class = red_square  id = ""bottomsquare"" ></div>",null,word_square,1,SPACEBAR,,
html-keyboard-response,441,1144770,null,"PIMPLE",null,word,,, 'PIMPLE',
survey-text,442,1146938,2163.1000000052154,"",,,,,,{"Q0":"0"}
survey-text,443,1148171,1227.2950001060963,"",,,,,,{"Q0":"6"}
survey-text,444,1149330,1154.6199999284,"",,,,,,{"Q0":"5"}
survey-text,445,1149980,644.3699998781085,"",,,,,,{"Q0":"5"}
survey-text,446,1151205,1219.5449999999255,"",,,,,,{"Q0":"2"}
survey-text,447,1151998,787.7950000111014,"",,,,,,{"Q0":"2"}
survey-text,448,1153094,1092.2199999913573,"",,,,,,{"Q0":"4"}
survey-text,449,1154375,1276.8999999389052,"",,,,,,{"Q0":"1"}
survey-text,450,1157156,2777.8149999212474,"",,,,,,{"Q0":"2"}
survey-text,451,1158090,928.8600001018494,"",,,,,,{"Q0":"5"}
survey-text,452,1159040,943.7100000213832,"",,,,,,{"Q0":"2"}
survey-text,453,1160454,1408.3549999631941,"",,,,,,{"Q0":"1"}
survey-text,454,1161382,921.4500000234693,"",,,,,,{"Q0":"4"}
survey-text,455,1162336,947.3299998790026,"",,,,,,{"Q0":"1"}
survey-text,456,1163382,1040.0600000284612,"",,,,,,{"Q0":"5"}
survey-text,457,1164625,1237.8149998839945,"",,,,,,{"Q0":"2"}
survey-text,458,1166252,1620.9599999710917,"",,,,,,{"Q0":"2"}
survey-text,459,1169782,3524.375000037253,"",,,,,,{"Q0":"4"}
survey-text,460,1171043,1255.959999980405,"",,,,,,{"Q0":"venus"}
survey-text,461,1172409,1361.8349998723716,"",,,,,,{"Q0":"neptune"}
survey-text,462,1173468,1053.2600001897663,"",,,,,,{"Q0":"bench"}
survey-text,463,1177607,4132.740000030026,"",,,,,,{"Q0":"bison"}
survey-text,464,1179605,1992.020000005141,"",,,,,,{"Q0":"brother"}
survey-text,465,1180372,759.444999974221,"",,,,,,{"Q0":"friend"}
survey-text,466,1181115,738.2150001358241,"",,,,,,{"Q0":"woman"}
survey-text,467,1182516,1395.920000039041,"",,,,,,{"Q0":"globe"}
survey-text,468,1184413,1891.605000011623,"",,,,,,{"Q0":"laser"}
survey-text,469,1257179,72760.49999985844,"",,,,,,{"Q0":"bison"}
html-keyboard-response,470,1258010,829.5549999456853,"<div style=""font-size:48px;"">Press any key to begin list 7 of 24 </div>",78,,,,,
html-keyboard-response,471,1260515,null,"<div style=""font-size:60px;"">+</div>",null,,,,,
html-keyboard-response,472,1261021,null,"HELMET<img id = ""stim"" ><div class = green_square id = ""topsquare"" ></div><img id = ""stim"" ><div class = green_square  id = ""bottomsquare"" ></div>",null,word_square,0,SPACEBAR,,
html-keyboard-response,473,1262524,null,"HELMET",null,word,,, 'HELMET',
html-keyboard-response,474,1263030,null,"BUCKET<img id = ""stim"" ><div class = red_square id = ""topsquare"" ></div><img id = ""stim"" ><div class = red_square  id = ""bottomsquare"" ></div>",null,word_square,1,SPACEBAR,,
html-keyboard-response,475,1264532,null,"BUCKET",null,word,,, 'BUCKET',
html-keyboard-response,476,1265039,null,"SPARROW<img id = ""stim"" ><div class = green_square id = ""topsquare"" ></div><img id = ""stim"" ><div class = green_square  id = ""bottomsquare"" ></div>",null,word_square,0,SPACEBAR,,
html-keyboard-response,477,1266543,null,"SPARROW",null,word,,, 'SPARROW',
html-keyboard-response,478,1267048,null,"RAZOR<img id = ""stim"" ><div class = green_square id = ""topsquare"" ></div><img id = ""stim"" ><div class = green_square  id = ""bottomsquare"" ></div>",null,word_square,0,SPACEBAR,,
html-keyboard-response,479,1268550,null,"RAZOR",null,word,,, 'RAZOR',
html-keyboard-response,480,1268953,401.3750001322478,"SWORD<img id = ""stim"" ><div class = red_square id = ""topsquare"" ></div><img id = ""stim"" ><div class = red_square  id = ""bottomsquare"" ></div>",32,word_square,1,SPACEBAR,,
html-keyboard-response,481,1270460,null,"SWORD",null,word,,, 'SWORD',
html-keyboard-response,482,1270967,null,"INFANT<img id = ""stim"" ><div class = red_square id = ""topsquare"" ></div><img id = ""stim"" ><div class = red_square  id = ""bottomsquare"" ></div>",null,word_square,1,SPACEBAR,,
html-keyboard-response,483,1272470,null,"INFANT",null,word,,, 'INFANT',
html-keyboard-response,484,1272977,null,"BABY<img id = ""stim"" ><div class = green_square id = ""topsquare"" ></div><img id = ""stim"" ><div class = green_square  id = ""bottomsquare"" ></div>",null,word_square,0,SPACEBAR,,
html-keyboard-response,485,1274480,null,"BABY",null,word,,, 'BABY',
html-keyboard-response,486,1274986,null,"BRANDY<img id = ""stim"" ><div class = red_square id = ""topsquare"" ></div><img id = ""stim"" ><div class = red_square  id = ""bottomsquare"" ></div>",null,word_square,1,SPACEBAR,,
html-keyboard-response,487,1276491,null,"BRANDY",null,word,,, 'BRANDY',
html-keyboard-response,488,1276996,null,"EAGLE<img id = ""stim"" ><div class = green_square id = ""topsquare"" ></div><img id = ""stim"" ><div class = green_square  id = ""bottomsquare"" ></div>",null,word_square,0,SPACEBAR,,
html-keyboard-response,489,1278502,null,"EAGLE",null,word,,, 'EAGLE',
html-keyboard-response,490,1279007,null,"POCKET<img id = ""stim"" ><div class = red_square id = ""topsquare"" ></div><img id = ""stim"" ><div class = red_square  id = ""bottomsquare"" ></div>",null,word_square,1,SPACEBAR,,
html-keyboard-response,491,1280512,null,"POCKET",null,word,,, 'POCKET',
html-keyboard-response,492,1281020,null,"DOORBELL<img id = ""stim"" ><div class = red_square id = ""topsquare"" ></div><img id = ""stim"" ><div class = red_square  id = ""bottomsquare"" ></div>",null,word_square,1,SPACEBAR,,
html-keyboard-response,493,1282526,null,"DOORBELL",null,word,,, 'DOORBELL',
html-keyboard-response,494,1283029,null,"VAGRANT<img id = ""stim"" ><div class = green_square id = ""topsquare"" ></div><img id = ""stim"" ><div class = green_square  id = ""bottomsquare"" ></div>",null,word_square,0,SPACEBAR,,
html-keyboard-response,495,1284536,null,"VAGRANT",null,word,,, 'VAGRANT',
html-keyboard-response,496,1285041,null,"NOMAD<img id = ""stim"" ><div class = red_square id = ""topsquare"" ></div><img id = ""stim"" ><div class = red_square  id = ""bottomsquare"" ></div>",null,word_square,1,SPACEBAR,,
html-keyboard-response,497,1286546,null,"NOMAD",null,word,,, 'NOMAD',
html-keyboard-response,498,1287053,null,"GLASSES<img id = ""stim"" ><div class = red_square id = ""topsquare"" ></div><img id = ""stim"" ><div class = red_square  id = ""bottomsquare"" ></div>",null,word_square,1,SPACEBAR,,
html-keyboard-response,499,1288559,null,"GLASSES",null,word,,, 'GLASSES',
html-keyboard-response,500,1289063,null,"HOOD<img id = ""stim"" ><div class = green_square id = ""topsquare"" ></div><img id = ""stim"" ><div class = green_square  id = ""bottomsquare"" ></div>",null,word_square,0,SPACEBAR,,
html-keyboard-response,501,1290568,null,"HOOD",null,word,,, 'HOOD',
html-keyboard-response,502,1290983,414.0800000168383,"SHORTS<img id = ""stim"" ><div class = red_square id = ""topsquare"" ></div><img id = ""stim"" ><div class = red_square  id = ""bottomsquare"" ></div>",32,word_square,1,SPACEBAR,,
html-keyboard-response,503,1292488,null,"SHORTS",null,word,,, 'SHORTS',
html-keyboard-response,504,1292991,null,"SIRLOIN<img id = ""stim"" ><div class = green_square id = ""topsquare"" ></div><img id = ""stim"" ><div class = green_square  id = ""bottomsquare"" ></div>",null,word_square,0,SPACEBAR,,
html-keyboard-response,505,1294498,null,"SIRLOIN",null,word,,, 'SIRLOIN',
html-keyboard-response,506,1295003,null,"ACTOR<img id = ""stim"" ><div class = green_square id = ""topsquare"" ></div><img id = ""stim"" ><div class = green_square  id = ""bottomsquare"" ></div>",null,word_square,0,SPACEBAR,,
html-keyboard-response,507,1296506,null,"ACTOR",null,word,,, 'ACTOR',
survey-text,508,1297747,1236.8550000246614,"",,,,,,{"Q0":"3"}
survey-text,509,1298656,904.2849999386817,"",,,,,,{"Q0":"1"}
survey-text,510,1299461,798.5249999910593,"",,,,,,{"Q0":"2"}
survey-text,511,1300644,1178.3799999393523,"",,,,,,{"Q0":"1"}
survey-text,512,1301610,961.030000122264,"",,,,,,{"Q0":"3"}
survey-text,513,1302712,1096.2300000246614,"",,,,,,{"Q0":"1"}
survey-text,514,1303665,947.2199999727309,"",,,,,,{"Q0":"5"}
survey-text,515,1304489,818.3600001502782,"",,,,,,{"Q0":"2"}
survey-text,516,1306087,1592.7099999971688,"",,,,,,{"Q0":"3"}
survey-text,517,1307358,1265.8400000073016,"",,,,,,{"Q0":"1"}
survey-text,518,1308213,850.3349998500198,"",,,,,,{"Q0":"4"}
survey-text,519,1309143,923.600000096485,"",,,,,,{"Q0":"1"}
survey-text,520,1310203,1054.1149999480695,"",,,,,,{"Q0":"6"}
survey-text,521,1311358,1149.5550000108778,"",,,,,,{"Q0":"4"}
survey-text,522,1313155,1790.8600000664592,"",,,,,,{"Q0":"3"}
survey-text,523,1313819,658.945000031963,"",,,,,,{"Q0":"2"}
survey-text,524,1314703,878.0750001315027,"",,,,,,{"Q0":"4"}
survey-text,525,1316192,1482.8749999869615,"",,,,,,{"Q0":"0"}
survey-text,526,1317048,850.499999942258,"",,,,,,{"Q0":"4"}
survey-text,527,1317639,586.0950001515448,"",,,,,,{"Q0":"4"}
survey-text,528,1318608,962.9899999126792,"",,,,,,{"Q0":"1"}
survey-text,529,1319491,877.5799998547882,"",,,,,,{"Q0":"4"}
survey-text,530,1320299,802.434999961406,"",,,,,,{"Q0":"4"}
survey-text,531,1321153,848.5399999190122,"",,,,,,{"Q0":"1"}
survey-text,532,1322939,1780.6649999693036,"",,,,,,{"Q0":"sirloin"}
survey-text,533,1323799,854.204999981448,"",,,,,,{"Q0":"actor"}
survey-text,534,1326947,3141.520000062883,"",,,,,,{"Q0":"eagle"}
survey-text,535,1327750,797.1850000321865,"",,,,,,{"Q0":"brandy"}
survey-text,536,1332411,4654.674999881536,"",,,,,,{"Q0":"hood"}
survey-text,537,1333131,715.5049999710172,"",,,,,,{"Q0":"shorts"}
survey-text,538,1334770,1633.4949999582022,"",,,,,,{"Q0":"glasses"}
survey-text,539,1336311,1534.3549998942763,"",,,,,,{"Q0":"baby"}
survey-text,540,1337053,736.6850001271814,"",,,,,,{"Q0":"infant"}
survey-text,541,1396091,59031.04000003077,"",,,,,,{"Q0":"baby"}
survey-text,542,1414028,17930.420000106096,"",,,,,,{"Q0":"baby"}
html-keyboard-response,543,1414839,809.4099999871105,"<div style=""font-size:48px;"">Press any key to begin list 8 of 24 </div>",32,,,,,
html-keyboard-response,544,1417348,null,"<div style=""font-size:60px;"">+</div>",null,,,,,
html-keyboard-response,545,1417855,null,"CURTAIN<img id = ""stim"" ><div class = green_square id = ""topsquare"" ></div><img id = ""stim"" ><div class = green_square  id = ""bottomsquare"" ></div>",null,word_square,0,SPACEBAR,,
html-keyboard-response,546,1419357,null,"CURTAIN",null,word,,, 'CURTAIN',
html-keyboard-response,547,1419767,408.2700000144541,"SHIRT<img id = ""stim"" ><div class = red_square id = ""topsquare"" ></div><img id = ""stim"" ><div class = red_square  id = ""bottomsquare"" ></div>",32,word_square,1,SPACEBAR,,
html-keyboard-response,548,1421269,null,"SHIRT",null,word,,, 'SHIRT',
html-keyboard-response,549,1421774,null,"CANVAS<img id = ""stim"" ><div class = green_square id = ""topsquare"" ></div><img id = ""stim"" ><div class = green_square  id = ""bottomsquare"" ></div>",null,word_square,0,SPACEBAR,,
html-keyboard-response,550,1423281,null,"CANVAS",null,word,,, 'CANVAS',
html-keyboard-response,551,1423785,null,"PENCIL<img id = ""stim"" ><div class = green_square id = ""topsquare"" ></div><img id = ""stim"" ><div class = green_square  id = ""bottomsquare"" ></div>",null,word_square,0,SPACEBAR,,
html-keyboard-response,552,1425292,null,"PENCIL",null,word,,, 'PENCIL',
html-keyboard-response,553,1425799,null,"MARROW<img id = ""stim"" ><div class = red_square id = ""topsquare"" ></div><img id = ""stim"" ><div class = red_square  id = ""bottomsquare"" ></div>",null,word_square,1,SPACEBAR,,
html-keyboard-response,554,1427302,null,"MARROW",null,word,,, 'MARROW',
html-keyboard-response,555,1427809,null,"JAPAN<img id = ""stim"" ><div class = red_square id = ""topsquare"" ></div><img id = ""stim"" ><div class = red_square  id = ""bottomsquare"" ></div>",null,word_square,1,SPACEBAR,,
html-keyboard-response,556,1429313,null,"JAPAN",null,word,,, 'JAPAN',
html-keyboard-response,557,1429818,null,"BEAVER<img id = ""stim"" ><div class = green_square id = ""topsquare"" ></div><img id = ""stim"" ><div class = green_square  id = ""bottomsquare"" ></div>",null,word_square,0,SPACEBAR,,
html-keyboard-response,558,1431326,null,"BEAVER",null,word,,, 'BEAVER',
html-keyboard-response,559,1431833,null,"HAMMER<img id = ""stim"" ><div class = red_square id = ""topsquare"" ></div><img id = ""stim"" ><div class = red_square  id = ""bottomsquare"" ></div>",null,word_square,1,SPACEBAR,,
html-keyboard-response,560,1433336,null,"HAMMER",null,word,,, 'HAMMER',
html-keyboard-response,561,1433842,null,"STONE<img id = ""stim"" ><div class = green_square id = ""topsquare"" ></div><img id = ""stim"" ><div class = green_square  id = ""bottomsquare"" ></div>",null,word_square,0,SPACEBAR,,
html-keyboard-response,562,1435346,null,"STONE",null,word,,, 'STONE',
html-keyboard-response,563,1435838,490.22499984130263,"VICTIM<img id = ""stim"" ><div class = red_square id = ""topsquare"" ></div><img id = ""stim"" ><div class = red_square  id = ""bottomsquare"" ></div>",32,word_square,1,SPACEBAR,,
html-keyboard-response,564,1437346,null,"VICTIM",null,word,,, 'VICTIM',
html-keyboard-response,565,1437853,null,"SUSPECT<img id = ""stim"" ><div class = red_square id = ""topsquare"" ></div><img id = ""stim"" ><div class = red_square  id = ""bottomsquare"" ></div>",null,word_square,1,SPACEBAR,,
html-keyboard-response,566,1439359,null,"SUSPECT",null,word,,, 'SUSPECT',
html-keyboard-response,567,1439863,null,"CREVICE<img id = ""stim"" ><div class = green_square id = ""topsquare"" ></div><img id = ""stim"" ><div class = green_square  id = ""bottomsquare"" ></div>",null,word_square,0,SPACEBAR,,
html-keyboard-response,568,1441371,null,"CREVICE",null,word,,, 'CREVICE',
html-keyboard-response,569,1441782,409.0549999382347,"POSSUM<img id = ""stim"" ><div class = red_square id = ""topsquare"" ></div><img id = ""stim"" ><div class = red_square  id = ""bottomsquare"" ></div>",32,word_square,1,SPACEBAR,,
html-keyboard-response,570,1443289,null,"POSSUM",null,word,,, 'POSSUM',
html-keyboard-response,571,1443795,null,"HAWK<img id = ""stim"" ><div class = red_square id = ""topsquare"" ></div><img id = ""stim"" ><div class = red_square  id = ""bottomsquare"" ></div>",null,word_square,1,SPACEBAR,,
html-keyboard-response,572,1445302,null,"HAWK",null,word,,, 'HAWK',
html-keyboard-response,573,1445809,null,"SCARECROW<img id = ""stim"" ><div class = green_square id = ""topsquare"" ></div><img id = ""stim"" ><div class = green_square  id = ""bottomsquare"" ></div>",null,word_square,0,SPACEBAR,,
html-keyboard-response,574,1447315,null,"SCARECROW",null,word,,, 'SCARECROW',
html-keyboard-response,575,1447748,431.0549998190254,"SUNSET<img id = ""stim"" ><div class = red_square id = ""topsquare"" ></div><img id = ""stim"" ><div class = red_square  id = ""bottomsquare"" ></div>",32,word_square,1,SPACEBAR,,
html-keyboard-response,576,1449250,null,"SUNSET",null,word,,, 'SUNSET',
html-keyboard-response,577,1449757,null,"SUNRISE<img id = ""stim"" ><div class = green_square id = ""topsquare"" ></div><img id = ""stim"" ><div class = green_square  id = ""bottomsquare"" ></div>",null,word_square,0,SPACEBAR,,
html-keyboard-response,578,1451264,null,"SUNRISE",null,word,,, 'SUNRISE',
html-keyboard-response,579,1451771,null,"STAMP<img id = ""stim"" ><div class = green_square id = ""topsquare"" ></div><img id = ""stim"" ><div class = green_square  id = ""bottomsquare"" ></div>",null,word_square,0,SPACEBAR,,
html-keyboard-response,580,1453276,null,"STAMP",null,word,,, 'STAMP',
survey-text,581,1454604,1322.8599999565631,"",,,,,,{"Q0":"3"}
survey-text,582,1455444,835.2899998426437,"",,,,,,{"Q0":"6"}
survey-text,583,1457776,2325.935000088066,"",,,,,,{"Q0":"2"}
survey-text,584,1459099,1317.754999967292,"",,,,,,{"Q0":"5"}
survey-text,585,1460312,1207.1749998722225,"",,,,,,{"Q0":"4"}
survey-text,586,1461538,1220.7649999763817,"",,,,,,{"Q0":"5"}
survey-text,587,1462303,758.7950001470745,"",,,,,,{"Q0":"3"}
survey-text,588,1463380,1073.365000076592,"",,,,,,{"Q0":"2"}
survey-text,589,1464492,1105.7349999900907,"",,,,,,{"Q0":"5"}
survey-text,590,1465618,1120.9499998949468,"",,,,,,{"Q0":"1"}
survey-text,591,1466465,842.6199997775257,"",,,,,,{"Q0":"4"}
survey-text,592,1467671,1201.8599999137223,"",,,,,,{"Q0":"2"}
survey-text,593,1468636,958.2549999468029,"",,,,,,{"Q0":"1"}
survey-text,594,1469758,1116.5800001472235,"",,,,,,{"Q0":"1"}
survey-text,595,1470565,802.9850001912564,"",,,,,,{"Q0":"1"}
survey-text,596,1471465,897.2700000740588,"",,,,,,{"Q0":"4"}
survey-text,597,1472991,1520.4449999146163,"",,,,,,{"Q0":"0"}
survey-text,598,1473790,794.2550000734627,"",,,,,,{"Q0":"4"}
survey-text,599,1474544,748.3849998097867,"",,,,,,{"Q0":"5"}
survey-text,600,1475491,942.1800000127405,"",,,,,,{"Q0":"4"}
survey-text,601,1476208,711.2699998542666,"",,,,,,{"Q0":"3"}
survey-text,602,1477642,1428.5699999891222,"",,,,,,{"Q0":"3"}
survey-text,603,1479381,1733.005000045523,"",,,,,,{"Q0":"hammer"}
survey-text,604,1479785,398.19000009447336,"",,,,,,{"Q0":"stone"}
survey-text,605,1480439,649.2449999786913,"",,,,,,{"Q0":"victim"}
survey-text,606,1481463,1017.5150001887232,"",,,,,,{"Q0":"suspect"}
survey-text,607,1483906,2438.330000033602,"",,,,,,{"Q0":"curtain"}
survey-text,608,1485111,1199.3499998934567,"",,,,,,{"Q0":"canvas"}
survey-text,609,1485985,867.4850000534207,"",,,,,,{"Q0":"shirt"}
survey-text,610,1486923,932.9349999316037,"",,,,,,{"Q0":"pencil"}
survey-text,611,1561072,74143.53500003926,"",,,,,,{"Q0":"curtain"}
html-keyboard-response,612,1561789,712.5750000122935,"<div style=""font-size:48px;"">Press any key to begin list 9 of 24 </div>",32,,,,,
html-keyboard-response,613,1564296,null,"<div style=""font-size:60px;"">+</div>",null,,,,,
html-keyboard-response,614,1564800,null,"POND<img id = ""stim"" ><div class = green_square id = ""topsquare"" ></div><img id = ""stim"" ><div class = green_square  id = ""bottomsquare"" ></div>",null,word_square,0,SPACEBAR,,
html-keyboard-response,615,1566301,null,"POND",null,word,,, 'POND',
html-keyboard-response,616,1566808,null,"GYMNAST<img id = ""stim"" ><div class = green_square id = ""topsquare"" ></div><img id = ""stim"" ><div class = green_square  id = ""bottomsquare"" ></div>",null,word_square,0,SPACEBAR,,
html-keyboard-response,617,1568311,null,"GYMNAST",null,word,,, 'GYMNAST',
html-keyboard-response,618,1568817,null,"MEDAL<img id = ""stim"" ><div class = red_square id = ""topsquare"" ></div><img id = ""stim"" ><div class = red_square  id = ""bottomsquare"" ></div>",null,word_square,1,SPACEBAR,,
html-keyboard-response,619,1570318,null,"MEDAL",null,word,,, 'MEDAL',
html-keyboard-response,620,1570825,null,"CIRCUS<img id = ""stim"" ><div class = green_square id = ""topsquare"" ></div><img id = ""stim"" ><div class = green_square  id = ""bottomsquare"" ></div>",null,word_square,0,SPACEBAR,,
html-keyboard-response,621,1572328,null,"CIRCUS",null,word,,, 'CIRCUS',
html-keyboard-response,622,1572831,null,"DENTIST<img id = ""stim"" ><div class = red_square id = ""topsquare"" ></div><img id = ""stim"" ><div class = red_square  id = ""bottomsquare"" ></div>",null,word_square,1,SPACEBAR,,
html-keyboard-response,623,1574336,null,"DENTIST",null,word,,, 'DENTIST',
html-keyboard-response,624,1574839,null,"FLASHLIGHT<img id = ""stim"" ><div class = green_square id = ""topsquare"" ></div><img id = ""stim"" ><div class = green_square  id = ""bottomsquare"" ></div>",null,word_square,0,SPACEBAR,,
html-keyboard-response,625,1576346,null,"FLASHLIGHT",null,word,,, 'FLASHLIGHT',
html-keyboard-response,626,1576850,null,"CRACKER<img id = ""stim"" ><div class = green_square id = ""topsquare"" ></div><img id = ""stim"" ><div class = green_square  id = ""bottomsquare"" ></div>",null,word_square,0,SPACEBAR,,
html-keyboard-response,627,1578355,null,"CRACKER",null,word,,, 'CRACKER',
html-keyboard-response,628,1578862,null,"MONSTER<img id = ""stim"" ><div class = red_square id = ""topsquare"" ></div><img id = ""stim"" ><div class = red_square  id = ""bottomsquare"" ></div>",null,word_square,1,SPACEBAR,,
html-keyboard-response,629,1580367,null,"MONSTER",null,word,,, 'MONSTER',
html-keyboard-response,630,1580875,null,"PEANUT<img id = ""stim"" ><div class = red_square id = ""topsquare"" ></div><img id = ""stim"" ><div class = red_square  id = ""bottomsquare"" ></div>",null,word_square,1,SPACEBAR,,
html-keyboard-response,631,1582378,null,"PEANUT",null,word,,, 'PEANUT',
html-keyboard-response,632,1582885,null,"BUNNY<img id = ""stim"" ><div class = red_square id = ""topsquare"" ></div><img id = ""stim"" ><div class = red_square  id = ""bottomsquare"" ></div>",null,word_square,1,SPACEBAR,,
html-keyboard-response,633,1584387,null,"BUNNY",null,word,,, 'BUNNY',
html-keyboard-response,634,1584896,null,"BLACKBOARD<img id = ""stim"" ><div class = green_square id = ""topsquare"" ></div><img id = ""stim"" ><div class = green_square  id = ""bottomsquare"" ></div>",null,word_square,0,SPACEBAR,,
html-keyboard-response,635,1586400,null,"BLACKBOARD",null,word,,, 'BLACKBOARD',
html-keyboard-response,636,1586907,null,"BOARD<img id = ""stim"" ><div class = red_square id = ""topsquare"" ></div><img id = ""stim"" ><div class = red_square  id = ""bottomsquare"" ></div>",null,word_square,1,SPACEBAR,,
html-keyboard-response,637,1588409,null,"BOARD",null,word,,, 'BOARD',
html-keyboard-response,638,1588917,null,"COLLEGE<img id = ""stim"" ><div class = red_square id = ""topsquare"" ></div><img id = ""stim"" ><div class = red_square  id = ""bottomsquare"" ></div>",null,word_square,1,SPACEBAR,,
html-keyboard-response,639,1590418,null,"COLLEGE",null,word,,, 'COLLEGE',
html-keyboard-response,640,1590921,null,"THRONE<img id = ""stim"" ><div class = green_square id = ""topsquare"" ></div><img id = ""stim"" ><div class = green_square  id = ""bottomsquare"" ></div>",null,word_square,0,SPACEBAR,,
html-keyboard-response,641,1592428,null,"THRONE",null,word,,, 'THRONE',
html-keyboard-response,642,1592935,null,"ZEBRA<img id = ""stim"" ><div class = green_square id = ""topsquare"" ></div><img id = ""stim"" ><div class = green_square  id = ""bottomsquare"" ></div>",null,word_square,0,SPACEBAR,,
html-keyboard-response,643,1594437,null,"ZEBRA",null,word,,, 'ZEBRA',
html-keyboard-response,644,1594943,null,"BUGGY<img id = ""stim"" ><div class = red_square id = ""topsquare"" ></div><img id = ""stim"" ><div class = red_square  id = ""bottomsquare"" ></div>",null,word_square,1,SPACEBAR,,
html-keyboard-response,645,1596446,null,"BUGGY",null,word,,, 'BUGGY',
html-keyboard-response,646,1596949,null,"WINGS<img id = ""stim"" ><div class = green_square id = ""topsquare"" ></div><img id = ""stim"" ><div class = green_square  id = ""bottomsquare"" ></div>",null,word_square,0,SPACEBAR,,
html-keyboard-response,647,1598452,null,"WINGS",null,word,,, 'WINGS',
html-keyboard-response,648,1598954,null,"TEACHER<img id = ""stim"" ><div class = red_square id = ""topsquare"" ></div><img id = ""stim"" ><div class = red_square  id = ""bottomsquare"" ></div>",null,word_square,1,SPACEBAR,,
html-keyboard-response,649,1600460,null,"TEACHER",null,word,,, 'TEACHER',
survey-text,650,1601653,1186.2849998287857,"",,,,,,{"Q0":"5"}
survey-text,651,1602795,1137.129999930039,"",,,,,,{"Q0":"1"}
survey-text,652,1604190,1389.1849999781698,"",,,,,,{"Q0":"3"}
survey-text,653,1605114,918.4349998831749,"",,,,,,{"Q0":"4"}
survey-text,654,1606120,999.7549999970943,"",,,,,,{"Q0":"2"}
survey-text,655,1607066,940.6049998942763,"",,,,,,{"Q0":"1"}
survey-text,656,1607910,837.6100000459701,"",,,,,,{"Q0":"3"}
survey-text,657,1609382,1466.3100000470877,"",,,,,,{"Q0":"6"}
survey-text,658,1610280,892.5350001081824,"",,,,,,{"Q0":"4"}
survey-text,659,1611148,862.2349998913705,"",,,,,,{"Q0":"3"}
survey-text,660,1612031,877.3300000466406,"",,,,,,{"Q0":"4"}
survey-text,661,1613430,1393.0949999485165,"",,,,,,{"Q0":"3"}
survey-text,662,1614321,886.7550001014024,"",,,,,,{"Q0":"4"}
survey-text,663,1615294,968.3700001332909,"",,,,,,{"Q0":"4"}
survey-text,664,1616224,924.7899998445064,"",,,,,,{"Q0":"1"}
survey-text,665,1617183,953.2149999868125,"",,,,,,{"Q0":"4"}
survey-text,666,1618747,1556.895000161603,"",,,,,,{"Q0":"2"}
survey-text,667,1619859,1106.6349998582155,"",,,,,,{"Q0":"2"}
survey-text,668,1620703,838.8199999462813,"",,,,,,{"Q0":"3"}
survey-text,669,1621454,745.4350001644343,"",,,,,,{"Q0":"4"}
survey-text,670,1622354,894.594999961555,"",,,,,,{"Q0":"4"}
survey-text,671,1623672,1312.5350000336766,"",,,,,,{"Q0":"3"}
survey-text,672,1624377,699.3600002024323,"",,,,,,{"Q0":"3"}
survey-text,673,1625017,634.8099999595433,"",,,,,,{"Q0":"3"}
survey-text,674,1626409,1386.3550000824034,"",,,,,,{"Q0":"buggy"}
survey-text,675,1627326,911.3600000273436,"",,,,,,{"Q0":"flashlight"}
survey-text,676,1628478,1148.5099999699742,"",,,,,,{"Q0":"teacher"}
survey-text,677,1630896,2410.9449998941272,"",,,,,,{"Q0":"buggy"}
survey-text,678,1632824,1922.0399998594075,"",,,,,,{"Q0":"throne"}
survey-text,679,1689828,56997.73499998264,"",,,,,,{"Q0":"."}
survey-text,680,1766192,76358.28000004403,"",,,,,,{"Q0":"."}
html-keyboard-response,681,1767139,945.9999999962747,"<div style=""font-size:48px;"">Press any key to begin list 10 of 24 </div>",32,,,,,
html-keyboard-response,682,1769646,null,"<div style=""font-size:60px;"">+</div>",null,,,,,
html-keyboard-response,683,1770151,null,"VIKING<img id = ""stim"" ><div class = green_square id = ""topsquare"" ></div><img id = ""stim"" ><div class = green_square  id = ""bottomsquare"" ></div>",null,word_square,0,SPACEBAR,,
html-keyboard-response,684,1771653,null,"VIKING",null,word,,, 'VIKING',
html-keyboard-response,685,1772161,null,"YACHT<img id = ""stim"" ><div class = green_square id = ""topsquare"" ></div><img id = ""stim"" ><div class = green_square  id = ""bottomsquare"" ></div>",null,word_square,0,SPACEBAR,,
html-keyboard-response,686,1773663,null,"YACHT",null,word,,, 'YACHT',
html-keyboard-response,687,1774168,null,"TOURIST<img id = ""stim"" ><div class = red_square id = ""topsquare"" ></div><img id = ""stim"" ><div class = red_square  id = ""bottomsquare"" ></div>",null,word_square,1,SPACEBAR,,
html-keyboard-response,688,1775672,null,"TOURIST",null,word,,, 'TOURIST',
html-keyboard-response,689,1776178,null,"DIME<img id = ""stim"" ><div class = green_square id = ""topsquare"" ></div><img id = ""stim"" ><div class = green_square  id = ""bottomsquare"" ></div>",null,word_square,0,SPACEBAR,,
html-keyboard-response,690,1777681,null,"DIME",null,word,,, 'DIME',
html-keyboard-response,691,1778185,null,"PERCH<img id = ""stim"" ><div class = red_square id = ""topsquare"" ></div><img id = ""stim"" ><div class = red_square  id = ""bottomsquare"" ></div>",null,word_square,1,SPACEBAR,,
html-keyboard-response,692,1779687,null,"PERCH",null,word,,, 'PERCH',
html-keyboard-response,693,1780193,null,"JUDGE<img id = ""stim"" ><div class = green_square id = ""topsquare"" ></div><img id = ""stim"" ><div class = green_square  id = ""bottomsquare"" ></div>",null,word_square,0,SPACEBAR,,
html-keyboard-response,694,1781696,null,"JUDGE",null,word,,, 'JUDGE',
html-keyboard-response,695,1782203,null,"BLADE<img id = ""stim"" ><div class = green_square id = ""topsquare"" ></div><img id = ""stim"" ><div class = green_square  id = ""bottomsquare"" ></div>",null,word_square,0,SPACEBAR,,
html-keyboard-response,696,1783706,null,"BLADE",null,word,,, 'BLADE',
html-keyboard-response,697,1784213,null,"SCISSORS<img id = ""stim"" ><div class = red_square id = ""topsquare"" ></div><img id = ""stim"" ><div class = red_square  id = ""bottomsquare"" ></div>",null,word_square,1,SPACEBAR,,
html-keyboard-response,698,1785716,null,"SCISSORS",null,word,,, 'SCISSORS',
html-keyboard-response,699,1786224,null,"HAYSTACK<img id = ""stim"" ><div class = red_square id = ""topsquare"" ></div><img id = ""stim"" ><div class = red_square  id = ""bottomsquare"" ></div>",null,word_square,1,SPACEBAR,,
html-keyboard-response,700,1787726,null,"HAYSTACK",null,word,,, 'HAYSTACK',
html-keyboard-response,701,1788233,null,"SUITCASE<img id = ""stim"" ><div class = red_square id = ""topsquare"" ></div><img id = ""stim"" ><div class = red_square  id = ""bottomsquare"" ></div>",null,word_square,1,SPACEBAR,,
html-keyboard-response,702,1789738,null,"SUITCASE",null,word,,, 'SUITCASE',
html-keyboard-response,703,1790245,null,"PAPER<img id = ""stim"" ><div class = green_square id = ""topsquare"" ></div><img id = ""stim"" ><div class = green_square  id = ""bottomsquare"" ></div>",null,word_square,0,SPACEBAR,,
html-keyboard-response,704,1791748,null,"PAPER",null,word,,, 'PAPER',
html-keyboard-response,705,1792253,null,"JOURNAL<img id = ""stim"" ><div class = red_square id = ""topsquare"" ></div><img id = ""stim"" ><div class = red_square  id = ""bottomsquare"" ></div>",null,word_square,1,SPACEBAR,,
html-keyboard-response,706,1793757,null,"JOURNAL",null,word,,, 'JOURNAL',
html-keyboard-response,707,1794264,null,"STRANGER<img id = ""stim"" ><div class = red_square id = ""topsquare"" ></div><img id = ""stim"" ><div class = red_square  id = ""bottomsquare"" ></div>",null,word_square,1,SPACEBAR,,
html-keyboard-response,708,1795766,null,"STRANGER",null,word,,, 'STRANGER',
html-keyboard-response,709,1796274,null,"EUROPE<img id = ""stim"" ><div class = green_square id = ""topsquare"" ></div><img id = ""stim"" ><div class = green_square  id = ""bottomsquare"" ></div>",null,word_square,0,SPACEBAR,,
html-keyboard-response,710,1797776,null,"EUROPE",null,word,,, 'EUROPE',
html-keyboard-response,711,1798280,null,"SARDINE<img id = ""stim"" ><div class = green_square id = ""topsquare"" ></div><img id = ""stim"" ><div class = green_square  id = ""bottomsquare"" ></div>",null,word_square,0,SPACEBAR,,
html-keyboard-response,712,1799785,null,"SARDINE",null,word,,, 'SARDINE',
html-keyboard-response,713,1800249,461.7550000548363,"HOOK<img id = ""stim"" ><div class = red_square id = ""topsquare"" ></div><img id = ""stim"" ><div class = red_square  id = ""bottomsquare"" ></div>",32,word_square,1,SPACEBAR,,
html-keyboard-response,714,1801752,null,"HOOK",null,word,,, 'HOOK',
html-keyboard-response,715,1802260,null,"ORANGE<img id = ""stim"" ><div class = green_square id = ""topsquare"" ></div><img id = ""stim"" ><div class = green_square  id = ""bottomsquare"" ></div>",null,word_square,0,SPACEBAR,,
html-keyboard-response,716,1803767,null,"ORANGE",null,word,,, 'ORANGE',
html-keyboard-response,717,1804274,null,"DAISY<img id = ""stim"" ><div class = red_square id = ""topsquare"" ></div><img id = ""stim"" ><div class = red_square  id = ""bottomsquare"" ></div>",null,word_square,1,SPACEBAR,,
html-keyboard-response,718,1805779,null,"DAISY",null,word,,, 'DAISY',
survey-text,719,1808239,2455.230000196025,"",,,,,,{"Q0":"0"}
survey-text,720,1809154,909.3949999660254,"",,,,,,{"Q0":"3"}
survey-text,721,1810125,964.7750000003725,"",,,,,,{"Q0":"2"}
survey-text,722,1811151,1021.1700000800192,"",,,,,,{"Q0":"6"}
survey-text,723,1811932,775.459999917075,"",,,,,,{"Q0":"4"}
survey-text,724,1812707,770.2049999497831,"",,,,,,{"Q0":"5"}
survey-text,725,1813615,902.5200000032783,"",,,,,,{"Q0":"4"}
survey-text,726,1814321,701.13499998115,"",,,,,,{"Q0":"4"}
survey-text,727,1815371,1044.6450000163168,"",,,,,,{"Q0":"6"}
survey-text,728,1816360,983.7799998931587,"",,,,,,{"Q0":"4"}
survey-text,729,1817320,954.4599999208003,"",,,,,,{"Q0":"4"}
survey-text,730,1818166,840.4300000984222,"",,,,,,{"Q0":"1"}
survey-text,731,1819234,1062.5150001142174,"",,,,,,{"Q0":"4"}
survey-text,732,1820149,908.7549999821931,"",,,,,,{"Q0":"3"}
survey-text,733,1823228,3073.835000162944,"",,,,,,{"Q0":"2"}
survey-text,734,1824146,913.7949999421835,"",,,,,,{"Q0":"4"}
survey-text,735,1825219,1067.3050000332296,"",,,,,,{"Q0":"6"}
survey-text,736,1826010,785.8649999834597,"",,,,,,{"Q0":"4"}
survey-text,737,1827263,1246.7149998992682,"",,,,,,{"Q0":"2"}
survey-text,738,1828071,802.5849999394268,"",,,,,,{"Q0":"3"}
survey-text,739,1828855,778.4850001335144,"",,,,,,{"Q0":"3"}
survey-text,740,1830140,1279.1699999943376,"",,,,,,{"Q0":"1"}
survey-text,741,1831327,1181.71999999322,"",,,,,,{"Q0":"orange"}
survey-text,742,1831920,586.9550001807511,"",,,,,,{"Q0":"daisy"}
survey-text,743,1832931,1005.170000018552,"",,,,,,{"Q0":"judge"}
survey-text,744,1833682,745.6199999433011,"",,,,,,{"Q0":"japan"}
survey-text,745,1834241,554.2399999685585,"",,,,,,{"Q0":"europe"}
survey-text,746,1835022,775.0750000122935,"",,,,,,{"Q0":"stranger"}
survey-text,747,1838517,3490.4149998910725,"",,,,,,{"Q0":"sardine"}
survey-text,748,1851601,13077.42500002496,"",,,,,,{"Q0":"blade"}
survey-text,749,1852466,858.4600000176579,"",,,,,,{"Q0":"scissors"}
survey-text,750,1909777,57304.379999870434,"",,,,,,{"Q0":"blade"}
html-keyboard-response,751,1910244,465.42000002227724,"<div style=""font-size:48px;"">Press any key to begin list 11 of 24 </div>",32,,,,,
html-keyboard-response,752,1912750,null,"<div style=""font-size:60px;"">+</div>",null,,,,,
html-keyboard-response,753,1913252,null,"BACON<img id = ""stim"" ><div class = red_square id = ""topsquare"" ></div><img id = ""stim"" ><div class = red_square  id = ""bottomsquare"" ></div>",null,word_square,1,SPACEBAR,,
html-keyboard-response,754,1914756,null,"BACON",null,word,,, 'BACON',
html-keyboard-response,755,1915262,null,"SKUNK<img id = ""stim"" ><div class = red_square id = ""topsquare"" ></div><img id = ""stim"" ><div class = red_square  id = ""bottomsquare"" ></div>",null,word_square,1,SPACEBAR,,
html-keyboard-response,756,1916764,null,"SKUNK",null,word,,, 'SKUNK',
html-keyboard-response,757,1917269,null,"CARPET<img id = ""stim"" ><div class = green_square id = ""topsquare"" ></div><img id = ""stim"" ><div class = green_square  id = ""bottomsquare"" ></div>",null,word_square,0,SPACEBAR,,
html-keyboard-response,758,1918772,null,"CARPET",null,word,,, 'CARPET',
html-keyboard-response,759,1919280,null,"GUARD<img id = ""stim"" ><div class = red_square id = ""topsquare"" ></div><img id = ""stim"" ><div class = red_square  id = ""bottomsquare"" ></div>",null,word_square,1,SPACEBAR,,
html-keyboard-response,760,1920783,null,"GUARD",null,word,,, 'GUARD',
html-keyboard-response,761,1921291,null,"GROUND<img id = ""stim"" ><div class = green_square id = ""topsquare"" ></div><img id = ""stim"" ><div class = green_square  id = ""bottomsquare"" ></div>",null,word_square,0,SPACEBAR,,
html-keyboard-response,762,1922795,null,"GROUND",null,word,,, 'GROUND',
html-keyboard-response,763,1923300,null,"ANKLE<img id = ""stim"" ><div class = red_square id = ""topsquare"" ></div><img id = ""stim"" ><div class = red_square  id = ""bottomsquare"" ></div>",null,word_square,1,SPACEBAR,,
html-keyboard-response,764,1924804,null,"ANKLE",null,word,,, 'ANKLE',
html-keyboard-response,765,1925311,null,"LODGE<img id = ""stim"" ><div class = red_square id = ""topsquare"" ></div><img id = ""stim"" ><div class = red_square  id = ""bottomsquare"" ></div>",null,word_square,1,SPACEBAR,,
html-keyboard-response,766,1926815,null,"LODGE",null,word,,, 'LODGE',
html-keyboard-response,767,1927320,null,"DOG<img id = ""stim"" ><div class = green_square id = ""topsquare"" ></div><img id = ""stim"" ><div class = green_square  id = ""bottomsquare"" ></div>",null,word_square,0,SPACEBAR,,
html-keyboard-response,768,1928823,null,"DOG",null,word,,, 'DOG',
html-keyboard-response,769,1929330,null,"SEAFOOD<img id = ""stim"" ><div class = green_square id = ""topsquare"" ></div><img id = ""stim"" ><div class = green_square  id = ""bottomsquare"" ></div>",null,word_square,0,SPACEBAR,,
html-keyboard-response,770,1930833,null,"SEAFOOD",null,word,,, 'SEAFOOD',
html-keyboard-response,771,1931340,null,"BANQUET<img id = ""stim"" ><div class = green_square id = ""topsquare"" ></div><img id = ""stim"" ><div class = green_square  id = ""bottomsquare"" ></div>",null,word_square,0,SPACEBAR,,
html-keyboard-response,772,1932843,null,"BANQUET",null,word,,, 'BANQUET',
html-keyboard-response,773,1933346,null,"DORM<img id = ""stim"" ><div class = red_square id = ""topsquare"" ></div><img id = ""stim"" ><div class = red_square  id = ""bottomsquare"" ></div>",null,word_square,1,SPACEBAR,,
html-keyboard-response,774,1934850,null,"DORM",null,word,,, 'DORM',
html-keyboard-response,775,1935356,null,"OMELET<img id = ""stim"" ><div class = green_square id = ""topsquare"" ></div><img id = ""stim"" ><div class = green_square  id = ""bottomsquare"" ></div>",null,word_square,0,SPACEBAR,,
html-keyboard-response,776,1936858,null,"OMELET",null,word,,, 'OMELET',
html-keyboard-response,777,1937364,null,"HUSBAND<img id = ""stim"" ><div class = green_square id = ""topsquare"" ></div><img id = ""stim"" ><div class = green_square  id = ""bottomsquare"" ></div>",null,word_square,0,SPACEBAR,,
html-keyboard-response,778,1938866,null,"HUSBAND",null,word,,, 'HUSBAND',
html-keyboard-response,779,1939349,481.4349999651313,"COLONEL<img id = ""stim"" ><div class = red_square id = ""topsquare"" ></div><img id = ""stim"" ><div class = red_square  id = ""bottomsquare"" ></div>",32,word_square,1,SPACEBAR,,
html-keyboard-response,780,1940857,null,"COLONEL",null,word,,, 'COLONEL',
html-keyboard-response,781,1941363,null,"CLIFF<img id = ""stim"" ><div class = red_square id = ""topsquare"" ></div><img id = ""stim"" ><div class = red_square  id = ""bottomsquare"" ></div>",null,word_square,1,SPACEBAR,,
html-keyboard-response,782,1942866,null,"CLIFF",null,word,,, 'CLIFF',
html-keyboard-response,783,1943374,null,"LAGOON<img id = ""stim"" ><div class = green_square id = ""topsquare"" ></div><img id = ""stim"" ><div class = green_square  id = ""bottomsquare"" ></div>",null,word_square,0,SPACEBAR,,
html-keyboard-response,784,1944878,null,"LAGOON",null,word,,, 'LAGOON',
html-keyboard-response,785,1945347,466.9250000733882,"BUREAU<img id = ""stim"" ><div class = red_square id = ""topsquare"" ></div><img id = ""stim"" ><div class = red_square  id = ""bottomsquare"" ></div>",32,word_square,1,SPACEBAR,,
html-keyboard-response,786,1946850,null,"BUREAU",null,word,,, 'BUREAU',
html-keyboard-response,787,1947356,null,"CHEST<img id = ""stim"" ><div class = green_square id = ""topsquare"" ></div><img id = ""stim"" ><div class = green_square  id = ""bottomsquare"" ></div>",null,word_square,0,SPACEBAR,,
html-keyboard-response,788,1948861,null,"CHEST",null,word,,, 'CHEST',
survey-text,789,1951357,2490.840000100434,"",,,,,,{"Q0":"1"}
survey-text,790,1952227,864.3249999731779,"",,,,,,{"Q0":"4"}
survey-text,791,1953128,895.5050001386553,"",,,,,,{"Q0":"6"}
survey-text,792,1953871,737.3099999967963,"",,,,,,{"Q0":"4"}
survey-text,793,1954585,708.335000090301,"",,,,,,{"Q0":"2"}
survey-text,794,1955472,881.6400000359863,"",,,,,,{"Q0":"1"}
survey-text,795,1956210,731.6149999387562,"",,,,,,{"Q0":"3"}
survey-text,796,1957157,941.080000018701,"",,,,,,{"Q0":"2"}
survey-text,797,1957967,805.0599999260157,"",,,,,,{"Q0":"3"}
survey-text,798,1958804,830.7849999982864,"",,,,,,{"Q0":"3"}
survey-text,799,1959588,779.2500001378357,"",,,,,,{"Q0":"2"}
survey-text,800,1960479,886.1950000282377,"",,,,,,{"Q0":"4"}
survey-text,801,1961260,774.9099999200553,"",,,,,,{"Q0":"3"}
survey-text,802,1961991,725.4800000227988,"",,,,,,{"Q0":"4"}
survey-text,803,1962721,725.6300000008196,"",,,,,,{"Q0":"2"}
survey-text,804,1963360,633.6499999742955,"",,,,,,{"Q0":"2"}
survey-text,805,1964972,1606.2300000339746,"",,,,,,{"Q0":"3"}
survey-text,806,1966718,1741.0850001033396,"",,,,,,{"Q0":"0"}
survey-text,807,1967684,961.14999987185,"",,,,,,{"Q0":"5"}
survey-text,808,1970189,2500.135000096634,"",,,,,,{"Q0":"2"}
survey-text,809,1970939,744.0750000532717,"",,,,,,{"Q0":"4"}
survey-text,810,1972741,1796.695000026375,"",,,,,,{"Q0":"22"}
survey-text,811,1974801,2054.520000005141,"",,,,,,{"Q0":"2"}
survey-text,812,1976322,1515.3049998916686,"",,,,,,{"Q0":"bureau"}
survey-text,813,1977729,1399.7750000562519,"",,,,,,{"Q0":"sku k"}
survey-text,814,1978937,1201.8850001040846,"",,,,,,{"Q0":"skunk"}
survey-text,815,1979658,715.5049999710172,"",,,,,,{"Q0":"bacon"}
survey-text,816,1980761,1098.0899999849498,"",,,,,,{"Q0":"guard"}
survey-text,817,1981701,933.5000000428408,"",,,,,,{"Q0":"ankle"}
survey-text,818,1982492,783.8800000026822,"",,,,,,{"Q0":"ground"}
survey-text,819,1986031,3534.0100000612438,"",,,,,,{"Q0":"banquet"}
survey-text,820,1986439,401.575000025332,"",,,,,,{"Q0":"dorm"}
survey-text,821,1988878,2433.43500001356,"",,,,,,{"Q0":"omelet"}
survey-text,822,2043803,54917.73999994621,"",,,,,,{"Q0":"dorm"}
survey-text,823,2045379,1571.1099999025464,"",,,,,,{"Q0":"dorm"}
survey-text,824,2087215,41831.3049999997,"",,,,,,{"Q0":"bacon"}
html-keyboard-response,825,2087859,641.6949999984354,"<div style=""font-size:48px;"">Press any key to begin list 12 of 24 </div>",32,,,,,
html-keyboard-response,826,2090367,null,"<div style=""font-size:60px;"">+</div>",null,,,,,
html-keyboard-response,827,2090874,null,"BLENDER<img id = ""stim"" ><div class = red_square id = ""topsquare"" ></div><img id = ""stim"" ><div class = red_square  id = ""bottomsquare"" ></div>",null,word_square,1,SPACEBAR,,
html-keyboard-response,828,2092377,null,"BLENDER",null,word,,, 'BLENDER',
html-keyboard-response,829,2092883,null,"IDOL<img id = ""stim"" ><div class = red_square id = ""topsquare"" ></div><img id = ""stim"" ><div class = red_square  id = ""bottomsquare"" ></div>",null,word_square,1,SPACEBAR,,
html-keyboard-response,830,2094386,null,"IDOL",null,word,,, 'IDOL',
html-keyboard-response,831,2094893,null,"TERMITE<img id = ""stim"" ><div class = green_square id = ""topsquare"" ></div><img id = ""stim"" ><div class = green_square  id = ""bottomsquare"" ></div>",null,word_square,0,SPACEBAR,,
html-keyboard-response,832,2096397,null,"TERMITE",null,word,,, 'TERMITE',
html-keyboard-response,833,2096903,null,"SKILLET<img id = ""stim"" ><div class = red_square id = ""topsquare"" ></div><img id = ""stim"" ><div class = red_square  id = ""bottomsquare"" ></div>",null,word_square,1,SPACEBAR,,
html-keyboard-response,834,2098405,null,"SKILLET",null,word,,, 'SKILLET',
html-keyboard-response,835,2098912,null,"TRUMPET<img id = ""stim"" ><div class = green_square id = ""topsquare"" ></div><img id = ""stim"" ><div class = green_square  id = ""bottomsquare"" ></div>",null,word_square,0,SPACEBAR,,
html-keyboard-response,836,2100416,null,"TRUMPET",null,word,,, 'TRUMPET',
html-keyboard-response,837,2100921,null,"CEILING<img id = ""stim"" ><div class = red_square id = ""topsquare"" ></div><img id = ""stim"" ><div class = red_square  id = ""bottomsquare"" ></div>",null,word_square,1,SPACEBAR,,
html-keyboard-response,838,2102424,null,"CEILING",null,word,,, 'CEILING',
html-keyboard-response,839,2102931,null,"CANYON<img id = ""stim"" ><div class = red_square id = ""topsquare"" ></div><img id = ""stim"" ><div class = red_square  id = ""bottomsquare"" ></div>",null,word_square,1,SPACEBAR,,
html-keyboard-response,840,2104433,null,"CANYON",null,word,,, 'CANYON',
html-keyboard-response,841,2104941,null,"SLOPE<img id = ""stim"" ><div class = green_square id = ""topsquare"" ></div><img id = ""stim"" ><div class = green_square  id = ""bottomsquare"" ></div>",null,word_square,0,SPACEBAR,,
html-keyboard-response,842,2106443,null,"SLOPE",null,word,,, 'SLOPE',
html-keyboard-response,843,2106950,null,"PLIERS<img id = ""stim"" ><div class = green_square id = ""topsquare"" ></div><img id = ""stim"" ><div class = green_square  id = ""bottomsquare"" ></div>",null,word_square,0,SPACEBAR,,
html-keyboard-response,844,2108452,null,"PLIERS",null,word,,, 'PLIERS',
html-keyboard-response,845,2108959,null,"CROSS<img id = ""stim"" ><div class = green_square id = ""topsquare"" ></div><img id = ""stim"" ><div class = green_square  id = ""bottomsquare"" ></div>",null,word_square,0,SPACEBAR,,
html-keyboard-response,846,2110462,null,"CROSS",null,word,,, 'CROSS',
html-keyboard-response,847,2110968,null,"TEMPLE<img id = ""stim"" ><div class = red_square id = ""topsquare"" ></div><img id = ""stim"" ><div class = red_square  id = ""bottomsquare"" ></div>",null,word_square,1,SPACEBAR,,
html-keyboard-response,848,2112474,null,"TEMPLE",null,word,,, 'TEMPLE',
html-keyboard-response,849,2112980,null,"DRESSER<img id = ""stim"" ><div class = green_square id = ""topsquare"" ></div><img id = ""stim"" ><div class = green_square  id = ""bottomsquare"" ></div>",null,word_square,0,SPACEBAR,,
html-keyboard-response,850,2114484,null,"DRESSER",null,word,,, 'DRESSER',
html-keyboard-response,851,2114992,null,"BISCUIT<img id = ""stim"" ><div class = green_square id = ""topsquare"" ></div><img id = ""stim"" ><div class = green_square  id = ""bottomsquare"" ></div>",null,word_square,0,SPACEBAR,,
html-keyboard-response,852,2116494,null,"BISCUIT",null,word,,, 'BISCUIT',
html-keyboard-response,853,2117002,null,"LILY<img id = ""stim"" ><div class = red_square id = ""topsquare"" ></div><img id = ""stim"" ><div class = red_square  id = ""bottomsquare"" ></div>",null,word_square,1,SPACEBAR,,
html-keyboard-response,854,2118506,null,"LILY",null,word,,, 'LILY',
html-keyboard-response,855,2119014,null,"BOUQUET<img id = ""stim"" ><div class = red_square id = ""topsquare"" ></div><img id = ""stim"" ><div class = red_square  id = ""bottomsquare"" ></div>",null,word_square,1,SPACEBAR,,
html-keyboard-response,856,2120516,null,"BOUQUET",null,word,,, 'BOUQUET',
html-keyboard-response,857,2121023,null,"STAPLER<img id = ""stim"" ><div class = green_square id = ""topsquare"" ></div><img id = ""stim"" ><div class = green_square  id = ""bottomsquare"" ></div>",null,word_square,0,SPACEBAR,,
html-keyboard-response,858,2122525,null,"STAPLER",null,word,,, 'STAPLER',
html-keyboard-response,859,2123029,null,"STATUE<img id = ""stim"" ><div class = red_square id = ""topsquare"" ></div><img id = ""stim"" ><div class = red_square  id = ""bottomsquare"" ></div>",null,word_square,1,SPACEBAR,,
html-keyboard-response,860,2124532,null,"STATUE",null,word,,, 'STATUE',
html-keyboard-response,861,2125040,null,"NEEDLE<img id = ""stim"" ><div class = green_square id = ""topsquare"" ></div><img id = ""stim"" ><div class = green_square  id = ""bottomsquare"" ></div>",null,word_square,0,SPACEBAR,,
html-keyboard-response,862,2126543,null,"NEEDLE",null,word,,, 'NEEDLE',
survey-text,863,2127606,1058.1950000487268,"",,,,,,{"Q0":"4"}
survey-text,864,2128518,906.2250000424683,"",,,,,,{"Q0":"6"}
survey-text,865,2129304,779.7600000631064,"",,,,,,{"Q0":"4"}
survey-text,866,2130767,1457.5100000947714,"",,,,,,{"Q0":"2"}
survey-text,867,2131861,1088.145000161603,"",,,,,,{"Q0":"2"}
survey-text,868,2132419,552.0799998193979,"",,,,,,{"Q0":"2"}
survey-text,869,2133157,732.9150000587106,"",,,,,,{"Q0":"2"}
survey-text,870,2134650,1487.280000001192,"",,,,,,{"Q0":"4"}
survey-text,871,2136901,2244.9849999975413,"",,,,,,{"Q0":"2"}
survey-text,872,2138579,1672.7899999823421,"",,,,,,{"Q0":"0"}
survey-text,873,2140174,1589.6199999842793,"",,,,,,{"Q0":"6"}
survey-text,874,2141577,1397.4349999334663,"",,,,,,{"Q0":"3"}
survey-text,875,2142974,1390.974999871105,"",,,,,,{"Q0":"2"}
survey-text,876,2143565,586.1899999435991,"",,,,,,{"Q0":"2"}
survey-text,877,2144430,858.8749999180436,"",,,,,,{"Q0":"4"}
survey-text,878,2145355,919.1949998494238,"",,,,,,{"Q0":"1"}
survey-text,879,2146282,921.3549999985844,"",,,,,,{"Q0":"4"}
survey-text,880,2147141,854.2700000107288,"",,,,,,{"Q0":"2"}
survey-text,881,2148129,980.0950000062585,"",,,,,,{"Q0":"5"}
survey-text,882,2149285,1151.045000180602,"",,,,,,{"Q0":"1"}
survey-text,883,2150063,772.3900000564754,"",,,,,,{"Q0":"4"}
survey-text,884,2150926,857.649999903515,"",,,,,,{"Q0":"5"}
survey-text,885,2152689,1757.5099999085069,"",,,,,,{"Q0":"stapler"}
survey-text,886,2153369,676.4850001782179,"",,,,,,{"Q0":"statue"}
survey-text,887,2163719,10344.180000014603,"",,,,,,{"Q0":"lily"}
survey-text,888,2179381,15655.329999979585,"",,,,,,{"Q0":"condo"}
survey-text,889,2198276,18889.745000051335,"",,,,,,{"Q0":"pliers"}
survey-text,890,2210677,12394.084999803454,"",,,,,,{"Q0":"canyon"}
survey-text,891,2271904,61221.764999907464,"",,,,,,{"Q0":"pliers"}
html-keyboard-response,892,2272677,771.100000012666,"<div style=""font-size:48px;"">Press any key to begin list 13 of 24 </div>",32,,,,,
html-keyboard-response,893,2275187,null,"<div style=""font-size:60px;"">+</div>",null,,,,,
html-keyboard-response,894,2275693,null,"GERM<img id = ""stim"" ><div class = red_square id = ""topsquare"" ></div><img id = ""stim"" ><div class = red_square  id = ""bottomsquare"" ></div>",null,word_square,1,SPACEBAR,,
html-keyboard-response,895,2277195,null,"GERM",null,word,,, 'GERM',
html-keyboard-response,896,2277700,null,"TREASURE<img id = ""stim"" ><div class = red_square id = ""topsquare"" ></div><img id = ""stim"" ><div class = red_square  id = ""bottomsquare"" ></div>",null,word_square,1,SPACEBAR,,
html-keyboard-response,897,2279205,null,"TREASURE",null,word,,, 'TREASURE',
html-keyboard-response,898,2279708,null,"SICKLE<img id = ""stim"" ><div class = green_square id = ""topsquare"" ></div><img id = ""stim"" ><div class = green_square  id = ""bottomsquare"" ></div>",null,word_square,0,SPACEBAR,,
html-keyboard-response,899,2281210,null,"SICKLE",null,word,,, 'SICKLE',
html-keyboard-response,900,2281715,null,"CHISEL<img id = ""stim"" ><div class = red_square id = ""topsquare"" ></div><img id = ""stim"" ><div class = red_square  id = ""bottomsquare"" ></div>",null,word_square,1,SPACEBAR,,
html-keyboard-response,901,2283219,null,"CHISEL",null,word,,, 'CHISEL',
html-keyboard-response,902,2283725,null,"SALESMAN<img id = ""stim"" ><div class = green_square id = ""topsquare"" ></div><img id = ""stim"" ><div class = green_square  id = ""bottomsquare"" ></div>",null,word_square,0,SPACEBAR,,
html-keyboard-response,903,2285228,null,"SALESMAN",null,word,,, 'SALESMAN',
