trial_type,trial_index,time_elapsed,rt,stimulus,key_press,test_part,task,targ_cond,correctKeyCode,correct,word,value,response
pavlovia,0,797,,"",,,,,,,,,
external-html,1,31072,30127.485000004526,"",,,,,,,,,
html-keyboard-response,2,35475,4401.599999982864,"Welcome to the experiment. Press any key to begin.",13,,,,,,,,
html-keyboard-response,3,47131,11654.615000006743,"<p>You will see a list of words and colored squares in the following task.<p><p>Press the spacebar whenever you see a red square.<p><p>Do not press a key if the square is green<p><p>Press the spacebar to continue.</p>",32,,,,,,,,
html-keyboard-response,4,82129,34496.340000012424,"<p>Please try to remember as many of the words as you can, and try to think about the meaning of each word as it appears.<p><p>After the detection and encoding task you will be asked to solve some math problems for 24 seconds.<p> Please solve as many problems as you can in the time given. <p>",78,,,,,,,,
html-keyboard-response,5,92631,10001.410000026226,"After solving the math problems, you will be asked to type in as many words <p>from the previous list as you can remember for 75 seconds.<p> If you finish recalling before the 75 seconds are up,<p> just sit tight and try to think of any more words you could have missed. <p><p>We will begin with a brief practice session<p>Press the spacebar to begin the practice.</p>",32,,,,,,,,
html-keyboard-response,6,95134,null,"<div style=""font-size:60px;"">+</div>",null,,,,,,,,
html-keyboard-response,7,95636,null,"HAPPY<img id = ""stim"" ><div class = green_square id = ""topsquare"" ></div><img id = ""stim"" ><div class = green_square  id = ""bottomsquare"" ></div>",null,word_square,prac_response,0,none,true,,,
html-keyboard-response,8,97137,null,"HAPPY",null,word,,,,,HAPPY,,
html-keyboard-response,9,97639,434.71499998122454,"COLD<img id = ""stim"" ><div class = red_square id = ""topsquare"" ></div><img id = ""stim"" ><div class = red_square  id = ""bottomsquare"" ></div>",32,word_square,prac_response,1,Space,true,,,
html-keyboard-response,10,99141,null,"COLD",null,word,,,,,COLD,,
html-keyboard-response,11,99644,null,"HEAVY<img id = ""stim"" ><div class = red_square id = ""topsquare"" ></div><img id = ""stim"" ><div class = red_square  id = ""bottomsquare"" ></div>",null,word_square,prac_response,1,Space,false,,,
html-keyboard-response,12,101145,null,"HEAVY",null,word,,,,,HEAVY,,
html-keyboard-response,13,101647,null,"FUNNY<img id = ""stim"" ><div class = green_square id = ""topsquare"" ></div><img id = ""stim"" ><div class = green_square  id = ""bottomsquare"" ></div>",null,word_square,prac_response,0,none,true,,,
html-keyboard-response,14,103148,null,"FUNNY",null,word,,,,,FUNNY,,
html-keyboard-response,15,103658,387.2149999951944,"SCARY<img id = ""stim"" ><div class = red_square id = ""topsquare"" ></div><img id = ""stim"" ><div class = red_square  id = ""bottomsquare"" ></div>",32,word_square,prac_response,1,Space,true,,,
html-keyboard-response,16,105160,null,"SCARY",null,word,,,,,SCARY,,
html-keyboard-response,17,105661,null,"PEACEFUL<img id = ""stim"" ><div class = red_square id = ""topsquare"" ></div><img id = ""stim"" ><div class = red_square  id = ""bottomsquare"" ></div>",null,word_square,prac_response,1,Space,false,,,
html-keyboard-response,18,107162,null,"PEACEFUL",null,word,,,,,PEACEFUL,,
html-keyboard-response,19,107664,null,"LITTLE<img id = ""stim"" ><div class = green_square id = ""topsquare"" ></div><img id = ""stim"" ><div class = green_square  id = ""bottomsquare"" ></div>",null,word_square,prac_response,0,none,true,,,
html-keyboard-response,20,109166,null,"LITTLE",null,word,,,,,LITTLE,,
html-keyboard-response,21,109668,null,"TIRED<img id = ""stim"" ><div class = green_square id = ""topsquare"" ></div><img id = ""stim"" ><div class = green_square  id = ""bottomsquare"" ></div>",null,word_square,prac_response,0,none,true,,,
html-keyboard-response,22,111170,null,"TIRED",null,word,,,,,TIRED,,
html-keyboard-response,23,111671,null,"ENTERTAINING<img id = ""stim"" ><div class = green_square id = ""topsquare"" ></div><img id = ""stim"" ><div class = green_square  id = ""bottomsquare"" ></div>",null,word_square,prac_response,0,none,true,,,
html-keyboard-response,24,113174,null,"ENTERTAINING",null,word,,,,,ENTERTAINING,,
html-keyboard-response,25,113676,413.85499999159947,"GRATEFUL<img id = ""stim"" ><div class = red_square id = ""topsquare"" ></div><img id = ""stim"" ><div class = red_square  id = ""bottomsquare"" ></div>",32,word_square,prac_response,1,Space,true,,,
html-keyboard-response,26,115177,null,"GRATEFUL",null,word,,,,,GRATEFUL,,
html-keyboard-response,27,115678,null,"LOUD<img id = ""stim"" ><div class = green_square id = ""topsquare"" ></div><img id = ""stim"" ><div class = green_square  id = ""bottomsquare"" ></div>",null,word_square,prac_response,0,none,true,,,
html-keyboard-response,28,117179,null,"LOUD",null,word,,,,,LOUD,,
html-keyboard-response,29,117681,426.97500000940636,"SMART<img id = ""stim"" ><div class = red_square id = ""topsquare"" ></div><img id = ""stim"" ><div class = red_square  id = ""bottomsquare"" ></div>",32,word_square,prac_response,1,Space,true,,,
html-keyboard-response,30,119183,null,"SMART",null,word,,,,,SMART,,
html-keyboard-response,31,119689,null,"SMOOTH<img id = ""stim"" ><div class = red_square id = ""topsquare"" ></div><img id = ""stim"" ><div class = red_square  id = ""bottomsquare"" ></div>",null,word_square,prac_response,1,Space,false,,,
html-keyboard-response,32,121192,null,"SMOOTH",null,word,,,,,SMOOTH,,
html-keyboard-response,33,121693,null,"DISHONEST<img id = ""stim"" ><div class = green_square id = ""topsquare"" ></div><img id = ""stim"" ><div class = green_square  id = ""bottomsquare"" ></div>",null,word_square,prac_response,0,none,true,,,
html-keyboard-response,34,123195,null,"DISHONEST",null,word,,,,,DISHONEST,,
html-keyboard-response,35,123697,482.48500004410744,"WEALTHY<img id = ""stim"" ><div class = red_square id = ""topsquare"" ></div><img id = ""stim"" ><div class = red_square  id = ""bottomsquare"" ></div>",32,word_square,prac_response,1,Space,true,,,
html-keyboard-response,36,125204,null,"WEALTHY",null,word,,,,,WEALTHY,,
html-keyboard-response,37,125705,null,"BEAUTIFUL<img id = ""stim"" ><div class = green_square id = ""topsquare"" ></div><img id = ""stim"" ><div class = green_square  id = ""bottomsquare"" ></div>",null,word_square,prac_response,0,none,true,,,
html-keyboard-response,38,127208,null,"BEAUTIFUL",null,word,,,,,BEAUTIFUL,,
html-keyboard-response,39,127710,null,"DREARY<img id = ""stim"" ><div class = green_square id = ""topsquare"" ></div><img id = ""stim"" ><div class = green_square  id = ""bottomsquare"" ></div>",null,word_square,prac_response,0,none,true,,,
html-keyboard-response,40,129211,null,"DREARY",null,word,,,,,DREARY,,
html-keyboard-response,41,129712,null,"PLAYFUL<img id = ""stim"" ><div class = red_square id = ""topsquare"" ></div><img id = ""stim"" ><div class = red_square  id = ""bottomsquare"" ></div>",null,word_square,prac_response,1,Space,false,,,
html-keyboard-response,42,131214,null,"PLAYFUL",null,word,,,,,PLAYFUL,,
html-keyboard-response,43,161303,30086.505000013858,"<p> Uh oh. You responded correctly on 78% of the red squares.</p>
                  <p>We need you keep your accuracy above 80%</p>
                  <p>We're going to try once more to make sure you understand the task. press any key to continue.</p>",32,,,,,,,,
html-keyboard-response,44,163062,1758.8100000284612,"<p>You will see a list of words and colored squares in the following task.<p><p>Press the spacebar whenever you see a red square.<p><p>Do not press a key if the square is green<p><p>Press the spacebar to continue.</p>",32,,,,,,,,
html-keyboard-response,45,165565,null,"<div style=""font-size:60px;"">+</div>",null,,,,,,,,
html-keyboard-response,46,166066,null,"HAPPY<img id = ""stim"" ><div class = green_square id = ""topsquare"" ></div><img id = ""stim"" ><div class = green_square  id = ""bottomsquare"" ></div>",null,word_square,response,0,none,true,,,
html-keyboard-response,47,167568,null,"HAPPY",null,word,,,,,HAPPY,,
html-keyboard-response,48,167993,424.4850000250153,"COLD<img id = ""stim"" ><div class = red_square id = ""topsquare"" ></div><img id = ""stim"" ><div class = red_square  id = ""bottomsquare"" ></div>",32,word_square,response,1,Space,true,,,
html-keyboard-response,49,169495,null,"COLD",null,word,,,,,COLD,,
html-keyboard-response,50,169939,443.1749999639578,"HEAVY<img id = ""stim"" ><div class = red_square id = ""topsquare"" ></div><img id = ""stim"" ><div class = red_square  id = ""bottomsquare"" ></div>",32,word_square,response,1,Space,true,,,
html-keyboard-response,51,171440,null,"HEAVY",null,word,,,,,HEAVY,,
html-keyboard-response,52,171942,null,"FUNNY<img id = ""stim"" ><div class = green_square id = ""topsquare"" ></div><img id = ""stim"" ><div class = green_square  id = ""bottomsquare"" ></div>",null,word_square,response,0,none,true,,,
html-keyboard-response,53,173444,null,"FUNNY",null,word,,,,,FUNNY,,
html-keyboard-response,54,173817,371.47499999264255,"SCARY<img id = ""stim"" ><div class = red_square id = ""topsquare"" ></div><img id = ""stim"" ><div class = red_square  id = ""bottomsquare"" ></div>",32,word_square,response,1,Space,true,,,
html-keyboard-response,55,175318,null,"SCARY",null,word,,,,,SCARY,,
html-keyboard-response,56,175785,466.0600000061095,"PEACEFUL<img id = ""stim"" ><div class = red_square id = ""topsquare"" ></div><img id = ""stim"" ><div class = red_square  id = ""bottomsquare"" ></div>",32,word_square,response,1,Space,true,,,
html-keyboard-response,57,177287,null,"PEACEFUL",null,word,,,,,PEACEFUL,,
html-keyboard-response,58,177789,null,"LITTLE<img id = ""stim"" ><div class = green_square id = ""topsquare"" ></div><img id = ""stim"" ><div class = green_square  id = ""bottomsquare"" ></div>",null,word_square,response,0,none,true,,,
html-keyboard-response,59,179291,null,"LITTLE",null,word,,,,,LITTLE,,
html-keyboard-response,60,179793,null,"TIRED<img id = ""stim"" ><div class = green_square id = ""topsquare"" ></div><img id = ""stim"" ><div class = green_square  id = ""bottomsquare"" ></div>",null,word_square,response,0,none,true,,,
html-keyboard-response,61,181294,null,"TIRED",null,word,,,,,TIRED,,
html-keyboard-response,62,181797,null,"ENTERTAINING<img id = ""stim"" ><div class = green_square id = ""topsquare"" ></div><img id = ""stim"" ><div class = green_square  id = ""bottomsquare"" ></div>",null,word_square,response,0,none,true,,,
html-keyboard-response,63,183299,null,"ENTERTAINING",null,word,,,,,ENTERTAINING,,
html-keyboard-response,64,183749,449.60499997250736,"GRATEFUL<img id = ""stim"" ><div class = red_square id = ""topsquare"" ></div><img id = ""stim"" ><div class = red_square  id = ""bottomsquare"" ></div>",32,word_square,response,1,Space,true,,,
html-keyboard-response,65,185251,null,"GRATEFUL",null,word,,,,,GRATEFUL,,
html-keyboard-response,66,185753,null,"LOUD<img id = ""stim"" ><div class = green_square id = ""topsquare"" ></div><img id = ""stim"" ><div class = green_square  id = ""bottomsquare"" ></div>",null,word_square,response,0,none,true,,,
html-keyboard-response,67,187256,null,"LOUD",null,word,,,,,LOUD,,
html-keyboard-response,68,187743,486.5550000104122,"SMART<img id = ""stim"" ><div class = red_square id = ""topsquare"" ></div><img id = ""stim"" ><div class = red_square  id = ""bottomsquare"" ></div>",32,word_square,response,1,Space,true,,,
html-keyboard-response,69,189244,null,"SMART",null,word,,,,,SMART,,
html-keyboard-response,70,189755,509.80499997967854,"SMOOTH<img id = ""stim"" ><div class = red_square id = ""topsquare"" ></div><img id = ""stim"" ><div class = red_square  id = ""bottomsquare"" ></div>",32,word_square,response,1,Space,true,,,
html-keyboard-response,71,191257,null,"SMOOTH",null,word,,,,,SMOOTH,,
html-keyboard-response,72,191759,null,"DISHONEST<img id = ""stim"" ><div class = green_square id = ""topsquare"" ></div><img id = ""stim"" ><div class = green_square  id = ""bottomsquare"" ></div>",null,word_square,response,0,none,true,,,
html-keyboard-response,73,193260,null,"DISHONEST",null,word,,,,,DISHONEST,,
html-keyboard-response,74,193686,425.1149999909103,"WEALTHY<img id = ""stim"" ><div class = red_square id = ""topsquare"" ></div><img id = ""stim"" ><div class = red_square  id = ""bottomsquare"" ></div>",32,word_square,response,1,Space,true,,,
html-keyboard-response,75,195188,null,"WEALTHY",null,word,,,,,WEALTHY,,
html-keyboard-response,76,195690,null,"BEAUTIFUL<img id = ""stim"" ><div class = green_square id = ""topsquare"" ></div><img id = ""stim"" ><div class = green_square  id = ""bottomsquare"" ></div>",null,word_square,response,0,none,true,,,
html-keyboard-response,77,197191,null,"BEAUTIFUL",null,word,,,,,BEAUTIFUL,,
html-keyboard-response,78,197693,null,"DREARY<img id = ""stim"" ><div class = green_square id = ""topsquare"" ></div><img id = ""stim"" ><div class = green_square  id = ""bottomsquare"" ></div>",null,word_square,response,0,none,true,,,
html-keyboard-response,79,199194,null,"DREARY",null,word,,,,,DREARY,,
html-keyboard-response,80,199697,null,"PLAYFUL<img id = ""stim"" ><div class = red_square id = ""topsquare"" ></div><img id = ""stim"" ><div class = red_square  id = ""bottomsquare"" ></div>",null,word_square,response,1,Space,false,,,
html-keyboard-response,81,201199,null,"PLAYFUL",null,word,,,,,PLAYFUL,,
html-keyboard-response,82,209220,8020.13999997871,"<p> Good job! You responded correctly to 94% of the red squares.</p>
                  <p>Be sure to keep your accuracy above 80%</p>
                  <p>Press any key to begin the math and recall sections. Thank you!</p>",32,,,,,,,,
call-function,83,209221,,"",,,,,,,,,
html-keyboard-response,84,209321,null,"",null,,,,,,,,
math-period,85,216709,12951.000000059139,"",,,,,,,,,4
html-keyboard-response,86,216823,null,"",null,,,,,,,,
math-period,87,219443,4542.3399999854155,"",,,,,,,,,5
html-keyboard-response,88,219557,null,"",null,,,,,,,,
math-period,89,222667,5362.959999998566,"",,,,,,,,,1
html-keyboard-response,90,222768,null,"",null,,,,,,,,
math-period,91,225212,4364.52499992447,"",,,,,,,,,6
html-keyboard-response,92,225313,null,"",null,,,,,,,,
math-period,93,228148,5041.795000026468,"",,,,,,,,,3
html-keyboard-response,94,228249,null,"",null,,,,,,,,
math-period,95,230230,3277.5049999472685,"",,,,,,,,,3
html-keyboard-response,96,230332,null,"",null,,,,,,,,
math-period,97,232447,3740.6900000059977,"",,,,,,,,,5
html-keyboard-response,98,232548,null,"",null,,,,,,,,
math-period,99,233227,null,"",,,,,,,,,
html-keyboard-response,100,234229,null,"Recall Period!",null,,,,,,,,
call-function,101,234229,,"",,,,,,,,,
html-keyboard-response,102,234331,null,"",null,,,,,,,,
recall-period,103,242344,29071.940000052564,"",,,,,,,,,happy
html-keyboard-response,104,242445,null,"",null,,,,,,,,
recall-period,105,245450,12253.095000050962,"",,,,,,,,,grateful
html-keyboard-response,106,245552,null,"",null,,,,,,,,
recall-period,107,249487,7943.150000006426,"",,,,,,,,,dreary
html-keyboard-response,108,249589,null,"",null,,,,,,,,
recall-period,109,261285,62807.16000002576,"",,,,,,,,,smile
html-keyboard-response,110,261386,null,"",null,,,,,,,,
recall-period,111,262919,6410.6499999179505,"",,,,,,,,,little
html-keyboard-response,112,263020,null,"",null,,,,,,,,
recall-period,113,301755,192066.71500002267,"",,,,,,,,,move
html-keyboard-response,114,301857,null,"",null,,,,,,,,
recall-period,115,309231,null,"",,,,,,,,,
html-keyboard-response,116,309732,null,"Time's Up!",null,,,,,,,,
html-keyboard-response,117,352579,42846.04999999283,"<p>We will now begin the experiment!<p><p>Please try to remember all words from each list.<p><p>Press the spacebar whenever you see a red square.<p><p><p><p>Press the spacebar to begin.</p>",32,,,,,,,,
html-keyboard-response,118,356599,3518.3599999872968,"<div style=""font-size:48px;"">Press any key to begin list 1 of 24 </div>",32,,,,,,,,
html-keyboard-response,119,359101,null,"<div style=""font-size:60px;"">+</div>",null,,,,,,,,
html-keyboard-response,120,359603,null,"DRAWING<img id = ""stim"" ><div class = green_square id = ""topsquare"" ></div><img id = ""stim"" ><div class = green_square  id = ""bottomsquare"" ></div>",null,word_square,response,0,none,true,,,
html-keyboard-response,121,361104,null,"DRAWING",null,word,,,,, 'DRAWING',,
html-keyboard-response,122,361605,null,"LODGE<img id = ""stim"" ><div class = red_square id = ""topsquare"" ></div><img id = ""stim"" ><div class = red_square  id = ""bottomsquare"" ></div>",null,word_square,response,1,Space,false,,,
html-keyboard-response,123,363106,null,"LODGE",null,word,,,,, 'LODGE',,
html-keyboard-response,124,363608,null,"CABOOSE<img id = ""stim"" ><div class = green_square id = ""topsquare"" ></div><img id = ""stim"" ><div class = green_square  id = ""bottomsquare"" ></div>",null,word_square,response,0,none,true,,,
html-keyboard-response,125,365109,null,"CABOOSE",null,word,,,,, 'CABOOSE',,
html-keyboard-response,126,365610,null,"TYPIST<img id = ""stim"" ><div class = green_square id = ""topsquare"" ></div><img id = ""stim"" ><div class = green_square  id = ""bottomsquare"" ></div>",null,word_square,response,0,none,true,,,
html-keyboard-response,127,367112,null,"TYPIST",null,word,,,,, 'TYPIST',,
html-keyboard-response,128,367565,452.06499996129423,"OFFICE<img id = ""stim"" ><div class = red_square id = ""topsquare"" ></div><img id = ""stim"" ><div class = red_square  id = ""bottomsquare"" ></div>",32,word_square,response,1,Space,true,,,
html-keyboard-response,129,369067,null,"OFFICE",null,word,,,,, 'OFFICE',,
html-keyboard-response,130,369543,475.97999998833984,"SCULPTURE<img id = ""stim"" ><div class = red_square id = ""topsquare"" ></div><img id = ""stim"" ><div class = red_square  id = ""bottomsquare"" ></div>",32,word_square,response,1,Space,true,,,
html-keyboard-response,131,371045,null,"SCULPTURE",null,word,,,,, 'SCULPTURE',,
html-keyboard-response,132,371412,366.1050000227988,"IDOL<img id = ""stim"" ><div class = red_square id = ""topsquare"" ></div><img id = ""stim"" ><div class = red_square  id = ""bottomsquare"" ></div>",32,word_square,response,1,Space,true,,,
html-keyboard-response,133,372914,null,"IDOL",null,word,,,,, 'IDOL',,
html-keyboard-response,134,373415,null,"SWORD<img id = ""stim"" ><div class = green_square id = ""topsquare"" ></div><img id = ""stim"" ><div class = green_square  id = ""bottomsquare"" ></div>",null,word_square,response,0,none,true,,,
html-keyboard-response,135,374917,null,"SWORD",null,word,,,,, 'SWORD',,
html-keyboard-response,136,375419,null,"LAGOON<img id = ""stim"" ><div class = green_square id = ""topsquare"" ></div><img id = ""stim"" ><div class = green_square  id = ""bottomsquare"" ></div>",null,word_square,response,0,none,true,,,
html-keyboard-response,137,376921,null,"LAGOON",null,word,,,,, 'LAGOON',,
html-keyboard-response,138,377292,369.9100000085309,"STAKE<img id = ""stim"" ><div class = red_square id = ""topsquare"" ></div><img id = ""stim"" ><div class = red_square  id = ""bottomsquare"" ></div>",32,word_square,response,1,Space,true,,,
html-keyboard-response,139,378794,null,"STAKE",null,word,,,,, 'STAKE',,
html-keyboard-response,140,379295,null,"CABIN<img id = ""stim"" ><div class = green_square id = ""topsquare"" ></div><img id = ""stim"" ><div class = green_square  id = ""bottomsquare"" ></div>",null,word_square,response,0,none,true,,,
html-keyboard-response,141,380797,null,"CABIN",null,word,,,,, 'CABIN',,
html-keyboard-response,142,381299,null,"SHAMPOO<img id = ""stim"" ><div class = green_square id = ""topsquare"" ></div><img id = ""stim"" ><div class = green_square  id = ""bottomsquare"" ></div>",null,word_square,response,0,none,true,,,
html-keyboard-response,143,382801,null,"SHAMPOO",null,word,,,,, 'SHAMPOO',,
html-keyboard-response,144,383303,null,"BLANKET<img id = ""stim"" ><div class = red_square id = ""topsquare"" ></div><img id = ""stim"" ><div class = red_square  id = ""bottomsquare"" ></div>",null,word_square,response,1,Space,false,,,
html-keyboard-response,145,384806,null,"BLANKET",null,word,,,,, 'BLANKET',,
html-keyboard-response,146,385307,null,"HARP<img id = ""stim"" ><div class = green_square id = ""topsquare"" ></div><img id = ""stim"" ><div class = green_square  id = ""bottomsquare"" ></div>",null,word_square,response,0,none,true,,,
html-keyboard-response,147,386809,null,"HARP",null,word,,,,, 'HARP',,
html-keyboard-response,148,387218,407.8750000335276,"PARCEL<img id = ""stim"" ><div class = red_square id = ""topsquare"" ></div><img id = ""stim"" ><div class = red_square  id = ""bottomsquare"" ></div>",32,word_square,response,1,Space,true,,,
html-keyboard-response,149,388720,null,"PARCEL",null,word,,,,, 'PARCEL',,
html-keyboard-response,150,389222,null,"MOTEL<img id = ""stim"" ><div class = red_square id = ""topsquare"" ></div><img id = ""stim"" ><div class = red_square  id = ""bottomsquare"" ></div>",null,word_square,response,1,Space,false,,,
html-keyboard-response,151,390724,null,"MOTEL",null,word,,,,, 'MOTEL',,
html-keyboard-response,152,391225,null,"CRAYON<img id = ""stim"" ><div class = green_square id = ""topsquare"" ></div><img id = ""stim"" ><div class = green_square  id = ""bottomsquare"" ></div>",null,word_square,response,0,none,true,,,
html-keyboard-response,153,392730,null,"CRAYON",null,word,,,,, 'CRAYON',,
html-keyboard-response,154,393123,391.5699999779463,"DANDRUFF<img id = ""stim"" ><div class = red_square id = ""topsquare"" ></div><img id = ""stim"" ><div class = red_square  id = ""bottomsquare"" ></div>",32,word_square,response,1,Space,true,,,
html-keyboard-response,155,394625,null,"DANDRUFF",null,word,,,,, 'DANDRUFF',,
call-function,156,394626,,"",,,,,,,,,
html-keyboard-response,157,394727,null,"",null,,,,,,,,
math-period,158,399081,7921.909999917261,"",,,,,,,,,3
html-keyboard-response,159,399182,null,"",null,,,,,,,,
math-period,160,401429,4239.270000020042,"",,,,,,,,,0
html-keyboard-response,161,401530,null,"",null,,,,,,,,
math-period,162,406133,8392.330000002403,"",,,,,,,,,1
html-keyboard-response,163,406234,null,"",null,,,,,,,,
math-period,164,411968,11011.46000000881,"",,,,,,,,,3
html-keyboard-response,165,412069,null,"",null,,,,,,,,
math-period,166,413614,2625.545000017155,"",,,,,,,,,3
html-keyboard-response,167,413724,null,"",null,,,,,,,,
math-period,168,415521,3039.420000044629,"",,,,,,,,,4
html-keyboard-response,169,415622,null,"",null,,,,,,,,
math-period,170,418046,4243.665000016335,"",,,,,,,,,4
html-keyboard-response,171,418148,null,"",null,,,,,,,,
math-period,172,418626,null,"",,,,,,,,,
html-keyboard-response,173,419629,null,"Recall Period!",null,,,,,,,,
call-function,174,419629,,"",,,,,,,,,
html-keyboard-response,175,419730,null,"",null,,,,,,,,
recall-period,176,480727,260953.55000015115,"",,,,,,,,,dandruff
html-keyboard-response,177,480829,null,"",null,,,,,,,,
recall-period,178,483086,7458.540000079665,"",,,,,,,,,idol
html-keyboard-response,179,483188,null,"",null,,,,,,,,
recall-period,180,486365,16520.81500017084,"",,,,,,,,,sculpture
html-keyboard-response,181,486466,null,"",null,,,,,,,,
recall-period,182,494631,null,"",,,,,,,,,
html-keyboard-response,183,495134,null,"Time's Up!",null,,,,,,,,
html-keyboard-response,184,736799,241663.7650000048,"<p> Good job! You responded correctly to 89% of the red squares.</p>
                  <p>Be sure to keep your accuracy above 80%</p>
                  <p>Press any key to continue the experiment. Thank you!</p>",32,,,,,,,,
html-keyboard-response,185,738141,1340.245000028517,"<div style=""font-size:48px;"">Press any key to begin list 2 of 24 </div>",32,,,,,,,,
html-keyboard-response,186,740644,null,"<div style=""font-size:60px;"">+</div>",null,,,,,,,,
html-keyboard-response,187,741146,null,"RODENT<img id = ""stim"" ><div class = green_square id = ""topsquare"" ></div><img id = ""stim"" ><div class = green_square  id = ""bottomsquare"" ></div>",null,word_square,response,0,none,true,,,
html-keyboard-response,188,742648,null,"RODENT",null,word,,,,, 'RODENT',,
html-keyboard-response,189,743108,459.22999997856095,"THIMBLE<img id = ""stim"" ><div class = red_square id = ""topsquare"" ></div><img id = ""stim"" ><div class = red_square  id = ""bottomsquare"" ></div>",32,word_square,response,1,Space,true,,,
html-keyboard-response,190,744610,null,"THIMBLE",null,word,,,,, 'THIMBLE',,
html-keyboard-response,191,745111,null,"COSTUME<img id = ""stim"" ><div class = green_square id = ""topsquare"" ></div><img id = ""stim"" ><div class = green_square  id = ""bottomsquare"" ></div>",null,word_square,response,0,none,true,,,
html-keyboard-response,192,746613,null,"COSTUME",null,word,,,,, 'COSTUME',,
html-keyboard-response,193,747114,null,"JUGGLER<img id = ""stim"" ><div class = green_square id = ""topsquare"" ></div><img id = ""stim"" ><div class = green_square  id = ""bottomsquare"" ></div>",null,word_square,response,0,none,true,,,
html-keyboard-response,194,748616,null,"JUGGLER",null,word,,,,, 'JUGGLER',,
html-keyboard-response,195,748912,294.2549999570474,"NAPKIN<img id = ""stim"" ><div class = red_square id = ""topsquare"" ></div><img id = ""stim"" ><div class = red_square  id = ""bottomsquare"" ></div>",32,word_square,response,1,Space,true,,,
html-keyboard-response,196,750413,null,"NAPKIN",null,word,,,,, 'NAPKIN',,
html-keyboard-response,197,750791,377.100000041537,"PATROL<img id = ""stim"" ><div class = red_square id = ""topsquare"" ></div><img id = ""stim"" ><div class = red_square  id = ""bottomsquare"" ></div>",32,word_square,response,1,Space,true,,,
html-keyboard-response,198,752293,null,"PATROL",null,word,,,,, 'PATROL',,
html-keyboard-response,199,752653,358.5750000202097,"COLUMN<img id = ""stim"" ><div class = red_square id = ""topsquare"" ></div><img id = ""stim"" ><div class = red_square  id = ""bottomsquare"" ></div>",32,word_square,response,1,Space,true,,,
html-keyboard-response,200,754154,null,"COLUMN",null,word,,,,, 'COLUMN',,
html-keyboard-response,201,754656,null,"ANKLE<img id = ""stim"" ><div class = green_square id = ""topsquare"" ></div><img id = ""stim"" ><div class = green_square  id = ""bottomsquare"" ></div>",null,word_square,response,0,none,true,,,
html-keyboard-response,202,756158,null,"ANKLE",null,word,,,,, 'ANKLE',,
html-keyboard-response,203,756660,null,"CIGAR<img id = ""stim"" ><div class = green_square id = ""topsquare"" ></div><img id = ""stim"" ><div class = green_square  id = ""bottomsquare"" ></div>",null,word_square,response,0,none,true,,,
html-keyboard-response,204,758162,null,"CIGAR",null,word,,,,, 'CIGAR',,
html-keyboard-response,205,758529,366.12000002060086,"MAILMAN<img id = ""stim"" ><div class = red_square id = ""topsquare"" ></div><img id = ""stim"" ><div class = red_square  id = ""bottomsquare"" ></div>",32,word_square,response,1,Space,true,,,
html-keyboard-response,206,760031,null,"MAILMAN",null,word,,,,, 'MAILMAN',,
html-keyboard-response,207,760533,null,"FRIES<img id = ""stim"" ><div class = green_square id = ""topsquare"" ></div><img id = ""stim"" ><div class = green_square  id = ""bottomsquare"" ></div>",null,word_square,response,0,none,true,,,
html-keyboard-response,208,762034,null,"FRIES",null,word,,,,, 'FRIES',,
html-keyboard-response,209,762535,null,"NICKEL<img id = ""stim"" ><div class = green_square id = ""topsquare"" ></div><img id = ""stim"" ><div class = green_square  id = ""bottomsquare"" ></div>",null,word_square,response,0,none,true,,,
html-keyboard-response,210,764037,null,"NICKEL",null,word,,,,, 'NICKEL',,
html-keyboard-response,211,764476,438.26000002445653,"KNAPSACK<img id = ""stim"" ><div class = red_square id = ""topsquare"" ></div><img id = ""stim"" ><div class = red_square  id = ""bottomsquare"" ></div>",32,word_square,response,1,Space,true,,,
html-keyboard-response,212,765977,null,"KNAPSACK",null,word,,,,, 'KNAPSACK',,
html-keyboard-response,213,766479,null,"GUARD<img id = ""stim"" ><div class = green_square id = ""topsquare"" ></div><img id = ""stim"" ><div class = green_square  id = ""bottomsquare"" ></div>",null,word_square,response,0,none,true,,,
html-keyboard-response,214,767980,null,"GUARD",null,word,,,,, 'GUARD',,
html-keyboard-response,215,768394,413.35499996785074,"ACTRESS<img id = ""stim"" ><div class = red_square id = ""topsquare"" ></div><img id = ""stim"" ><div class = red_square  id = ""bottomsquare"" ></div>",32,word_square,response,1,Space,true,,,
html-keyboard-response,216,769896,null,"ACTRESS",null,word,,,,, 'ACTRESS',,
html-keyboard-response,217,770397,null,"PADDING<img id = ""stim"" ><div class = red_square id = ""topsquare"" ></div><img id = ""stim"" ><div class = red_square  id = ""bottomsquare"" ></div>",null,word_square,response,1,Space,false,,,
html-keyboard-response,218,771898,null,"PADDING",null,word,,,,, 'PADDING',,
html-keyboard-response,219,772400,null,"VELVET<img id = ""stim"" ><div class = green_square id = ""topsquare"" ></div><img id = ""stim"" ><div class = green_square  id = ""bottomsquare"" ></div>",null,word_square,response,0,none,true,,,
html-keyboard-response,220,773901,null,"VELVET",null,word,,,,, 'VELVET',,
html-keyboard-response,221,774300,397.24000002024695,"BIBLE<img id = ""stim"" ><div class = red_square id = ""topsquare"" ></div><img id = ""stim"" ><div class = red_square  id = ""bottomsquare"" ></div>",32,word_square,response,1,Space,true,,,
html-keyboard-response,222,775801,null,"BIBLE",null,word,,,,, 'BIBLE',,
call-function,223,775801,,"",,,,,,,,,
html-keyboard-response,224,775903,null,"",null,,,,,,,,
math-period,225,778782,4941.099999996368,"",,,,,,,,,4
html-keyboard-response,226,778883,null,"",null,,,,,,,,
math-period,227,780087,2219.7100000921637,"",,,,,,,,,4
html-keyboard-response,228,780188,null,"",null,,,,,,,,
math-period,229,781219,1883.4700000006706,"",,,,,,,,,4
html-keyboard-response,230,781322,null,"",null,,,,,,,,
math-period,231,783942,5071.685000031721,"",,,,,,,,,2
html-keyboard-response,232,784043,null,"",null,,,,,,,,
math-period,233,785530,2838.2699999492615,"",,,,,,,,,4
html-keyboard-response,234,785632,null,"",null,,,,,,,,
math-period,235,788056,4706.450000056066,"",,,,,,,,,2
html-keyboard-response,236,788158,null,"",null,,,,,,,,
math-period,237,790709,7173.219999996945,"",,,,,,,,,3
html-keyboard-response,238,790813,null,"",null,,,,,,,,
math-period,239,791956,2055.8099999907427,"",,,,,,,,,3
html-keyboard-response,240,792058,null,"",null,,,,,,,,
math-period,241,793786,3289.3549999571405,"",,,,,,,,,1
html-keyboard-response,242,793887,null,"",null,,,,,,,,
math-period,243,795229,2492.0350000611506,"",,,,,,,,,3
html-keyboard-response,244,795331,null,"",null,,,,,,,,
math-period,245,799793,13848.490000178572,"",,,,,,,,,3
html-keyboard-response,246,799894,null,"",null,,,,,,,,
math-period,247,799896,null,"",,,,,,,,,
html-keyboard-response,248,800898,null,"Recall Period!",null,,,,,,,,
call-function,249,800898,,"",,,,,,,,,
html-keyboard-response,250,801000,null,"",null,,,,,,,,
recall-period,251,832712,180767.1749999863,"",,,,,,,,,guard
html-keyboard-response,252,832814,null,"",null,,,,,,,,
recall-period,253,837852,14032.94999996433,"",,,,,,,,,rodent
html-keyboard-response,254,837966,null,"",null,,,,,,,,
recall-period,255,842075,14832.245000055991,"",,,,,,,,,costume
html-keyboard-response,256,842177,null,"",null,,,,,,,,
recall-period,257,843862,6371.615000185557,"",,,,,,,,,juggler
html-keyboard-response,258,843963,null,"",null,,,,,,,,
recall-period,259,862452,138847.10500010988,"",,,,,,,,,actress
html-keyboard-response,260,862553,null,"",null,,,,,,,,
recall-period,261,875899,null,"",,,,,,,,,
html-keyboard-response,262,876400,null,"Time's Up!",null,,,,,,,,
html-keyboard-response,263,913934,37532.669999985956,"<p> Good job! You responded correctly to 91% of the red squares.</p>
                  <p>Be sure to keep your accuracy above 80%</p>
                  <p>Press any key to continue the experiment. Thank you!</p>",32,,,,,,,,
html-keyboard-response,264,914927,991.8750000069849,"<div style=""font-size:48px;"">Press any key to begin list 3 of 24 </div>",32,,,,,,,,
html-keyboard-response,265,917430,null,"<div style=""font-size:60px;"">+</div>",null,,,,,,,,
html-keyboard-response,266,917932,null,"NEPHEW<img id = ""stim"" ><div class = red_square id = ""topsquare"" ></div><img id = ""stim"" ><div class = red_square  id = ""bottomsquare"" ></div>",null,word_square,response,1,Space,false,,,
html-keyboard-response,267,919433,null,"NEPHEW",null,word,,,,, 'NEPHEW',,
html-keyboard-response,268,919935,null,"DESSERT<img id = ""stim"" ><div class = green_square id = ""topsquare"" ></div><img id = ""stim"" ><div class = green_square  id = ""bottomsquare"" ></div>",null,word_square,response,0,none,true,,,
html-keyboard-response,269,921437,null,"DESSERT",null,word,,,,, 'DESSERT',,
html-keyboard-response,270,921938,null,"BOYFRIEND<img id = ""stim"" ><div class = red_square id = ""topsquare"" ></div><img id = ""stim"" ><div class = red_square  id = ""bottomsquare"" ></div>",null,word_square,response,1,Space,false,,,
html-keyboard-response,271,923440,null,"BOYFRIEND",null,word,,,,, 'BOYFRIEND',,
html-keyboard-response,272,923861,420.0800000107847,"WIFE<img id = ""stim"" ><div class = red_square id = ""topsquare"" ></div><img id = ""stim"" ><div class = red_square  id = ""bottomsquare"" ></div>",32,word_square,response,1,Space,true,,,
html-keyboard-response,273,925363,null,"WIFE",null,word,,,,, 'WIFE',,
html-keyboard-response,274,925864,null,"GAUZE<img id = ""stim"" ><div class = green_square id = ""topsquare"" ></div><img id = ""stim"" ><div class = green_square  id = ""bottomsquare"" ></div>",null,word_square,response,0,none,true,,,
html-keyboard-response,275,927367,null,"GAUZE",null,word,,,,, 'GAUZE',,
html-keyboard-response,276,927868,null,"NOMAD<img id = ""stim"" ><div class = green_square id = ""topsquare"" ></div><img id = ""stim"" ><div class = green_square  id = ""bottomsquare"" ></div>",null,word_square,response,0,none,true,,,
html-keyboard-response,277,929370,null,"NOMAD",null,word,,,,, 'NOMAD',,
html-keyboard-response,278,929871,null,"PECAN<img id = ""stim"" ><div class = green_square id = ""topsquare"" ></div><img id = ""stim"" ><div class = green_square  id = ""bottomsquare"" ></div>",null,word_square,response,0,none,true,,,
html-keyboard-response,279,931373,null,"PECAN",null,word,,,,, 'PECAN',,
html-keyboard-response,280,931782,407.3400000343099,"FLASK<img id = ""stim"" ><div class = red_square id = ""topsquare"" ></div><img id = ""stim"" ><div class = red_square  id = ""bottomsquare"" ></div>",32,word_square,response,1,Space,true,,,
html-keyboard-response,281,933283,null,"FLASK",null,word,,,,, 'FLASK',,
html-keyboard-response,282,933692,408.0100000137463,"AIRPORT<img id = ""stim"" ><div class = red_square id = ""topsquare"" ></div><img id = ""stim"" ><div class = red_square  id = ""bottomsquare"" ></div>",32,word_square,response,1,Space,true,,,
html-keyboard-response,283,935193,null,"AIRPORT",null,word,,,,, 'AIRPORT',,
html-keyboard-response,284,935695,null,"UMPIRE<img id = ""stim"" ><div class = green_square id = ""topsquare"" ></div><img id = ""stim"" ><div class = green_square  id = ""bottomsquare"" ></div>",null,word_square,response,0,none,true,,,
html-keyboard-response,285,937197,null,"UMPIRE",null,word,,,,, 'UMPIRE',,
html-keyboard-response,286,937532,334.0450000250712,"CATCHER<img id = ""stim"" ><div class = red_square id = ""topsquare"" ></div><img id = ""stim"" ><div class = red_square  id = ""bottomsquare"" ></div>",32,word_square,response,1,Space,true,,,
html-keyboard-response,287,939034,null,"CATCHER",null,word,,,,, 'CATCHER',,
html-keyboard-response,288,939535,null,"LOVER<img id = ""stim"" ><div class = red_square id = ""topsquare"" ></div><img id = ""stim"" ><div class = red_square  id = ""bottomsquare"" ></div>",null,word_square,response,1,Space,false,,,
html-keyboard-response,289,941038,null,"LOVER",null,word,,,,, 'LOVER',,
html-keyboard-response,290,941540,null,"BOULDER<img id = ""stim"" ><div class = green_square id = ""topsquare"" ></div><img id = ""stim"" ><div class = green_square  id = ""bottomsquare"" ></div>",null,word_square,response,0,none,true,,,
html-keyboard-response,291,943042,null,"BOULDER",null,word,,,,, 'BOULDER',,
html-keyboard-response,292,943509,465.96499998122454,"TRANSPLANT<img id = ""stim"" ><div class = red_square id = ""topsquare"" ></div><img id = ""stim"" ><div class = red_square  id = ""bottomsquare"" ></div>",32,word_square,response,1,Space,true,,,
html-keyboard-response,293,945010,null,"TRANSPLANT",null,word,,,,, 'TRANSPLANT',,
html-keyboard-response,294,945512,null,"THRONE<img id = ""stim"" ><div class = green_square id = ""topsquare"" ></div><img id = ""stim"" ><div class = green_square  id = ""bottomsquare"" ></div>",null,word_square,response,0,none,true,,,
html-keyboard-response,295,947013,null,"THRONE",null,word,,,,, 'THRONE',,
html-keyboard-response,296,947515,null,"PRINCESS<img id = ""stim"" ><div class = green_square id = ""topsquare"" ></div><img id = ""stim"" ><div class = green_square  id = ""bottomsquare"" ></div>",null,word_square,response,0,none,true,,,
html-keyboard-response,297,949017,null,"PRINCESS",null,word,,,,, 'PRINCESS',,
html-keyboard-response,298,949395,376.56000000424683,"COCKTAIL<img id = ""stim"" ><div class = red_square id = ""topsquare"" ></div><img id = ""stim"" ><div class = red_square  id = ""bottomsquare"" ></div>",32,word_square,response,1,Space,true,,,
html-keyboard-response,299,950896,null,"COCKTAIL",null,word,,,,, 'COCKTAIL',,
html-keyboard-response,300,951398,null,"CRADLE<img id = ""stim"" ><div class = green_square id = ""topsquare"" ></div><img id = ""stim"" ><div class = green_square  id = ""bottomsquare"" ></div>",null,word_square,response,0,none,true,,,
html-keyboard-response,301,952900,null,"CRADLE",null,word,,,,, 'CRADLE',,
call-function,302,952901,,"",,,,,,,,,
html-keyboard-response,303,953002,null,"",null,,,,,,,,
math-period,304,955797,5144.570000062231,"",,,,,,,,,2
html-keyboard-response,305,955898,null,"",null,,,,,,,,
math-period,306,957362,2664.37999997288,"",,,,,,,,,1
html-keyboard-response,307,957463,null,"",null,,,,,,,,
math-period,308,958863,2599.97999999905,"",,,,,,,,,4
html-keyboard-response,309,958965,null,"",null,,,,,,,,
math-period,310,962168,10588.580000097863,"",,,,,,,,,1
html-keyboard-response,311,962269,null,"",null,,,,,,,,
math-period,312,964206,3643.6800000374205,"",,,,,,,,,3
html-keyboard-response,313,964308,null,"",null,,,,,,,,
math-period,314,965574,2353.5899999551475,"",,,,,,,,,3
html-keyboard-response,315,965676,null,"",null,,,,,,,,
math-period,316,968733,10208.860000013374,"",,,,,,,,,1
html-keyboard-response,317,968842,null,"",null,,,,,,,,
math-period,318,971291,8389.270000101533,"",,,,,,,,,5
html-keyboard-response,319,971392,null,"",null,,,,,,,,
math-period,320,972722,2379.1999999666587,"",,,,,,,,,4
html-keyboard-response,321,972825,null,"",null,,,,,,,,
math-period,322,974166,2521.13000000827,"",,,,,,,,,5
html-keyboard-response,323,974267,null,"",null,,,,,,,,
math-period,324,975869,2943.0150000262074,"",,,,,,,,,1
html-keyboard-response,325,975970,null,"",null,,,,,,,,
math-period,326,976902,null,"",,,,,,,,,
html-keyboard-response,327,977904,null,"Recall Period!",null,,,,,,,,
call-function,328,977905,,"",,,,,,,,,
html-keyboard-response,329,978006,null,"",null,,,,,,,,
recall-period,330,982145,31437.189999851398,"",,,,,,,,,boyfriend
html-keyboard-response,331,982260,null,"",null,,,,,,,,
recall-period,332,983735,4014.705000037793,"",,,,,,,,,lover
html-keyboard-response,333,983836,null,"",null,,,,,,,,
recall-period,334,985122,2912.570000102278,"",,,,,,,,,wife
html-keyboard-response,335,985224,null,"",null,,,,,,,,
recall-period,336,986885,5749.285000143573,"",,,,,,,,,throne
html-keyboard-response,337,986993,null,"",null,,,,,,,,
recall-period,338,989342,10148.149999789894,"",,,,,,,,,princess
html-keyboard-response,339,989457,null,"",null,,,,,,,,
recall-period,340,1000198,63914.454999845475,"",,,,,,,,,cradle
html-keyboard-response,341,1000305,null,"",null,,,,,,,,
recall-period,342,1052907,null,"",,,,,,,,,
html-keyboard-response,343,1053409,null,"Time's Up!",null,,,,,,,,
html-keyboard-response,344,1062744,9333.909999986645,"<p> Good job! You responded correctly to 89% of the red squares.</p>
                  <p>Be sure to keep your accuracy above 80%</p>
                  <p>Press any key to continue the experiment. Thank you!</p>",32,,,,,,,,
html-keyboard-response,345,1063611,866.7600000044331,"<div style=""font-size:48px;"">Press any key to begin list 4 of 24 </div>",32,,,,,,,,
html-keyboard-response,346,1066114,null,"<div style=""font-size:60px;"">+</div>",null,,,,,,,,
html-keyboard-response,347,1066598,483.81499998504296,"BRAKE<img id = ""stim"" ><div class = red_square id = ""topsquare"" ></div><img id = ""stim"" ><div class = red_square  id = ""bottomsquare"" ></div>",32,word_square,response,1,Space,true,,,
html-keyboard-response,348,1068100,null,"BRAKE",null,word,,,,, 'BRAKE',,
html-keyboard-response,349,1068602,null,"WASP<img id = ""stim"" ><div class = green_square id = ""topsquare"" ></div><img id = ""stim"" ><div class = green_square  id = ""bottomsquare"" ></div>",null,word_square,response,0,none,true,,,
html-keyboard-response,350,1070103,null,"WASP",null,word,,,,, 'WASP',,
html-keyboard-response,351,1070605,null,"SHRIMP<img id = ""stim"" ><div class = red_square id = ""topsquare"" ></div><img id = ""stim"" ><div class = red_square  id = ""bottomsquare"" ></div>",null,word_square,response,1,Space,false,,,
html-keyboard-response,352,1072107,null,"SHRIMP",null,word,,,,, 'SHRIMP',,
html-keyboard-response,353,1072608,null,"CLIMBER<img id = ""stim"" ><div class = red_square id = ""topsquare"" ></div><img id = ""stim"" ><div class = red_square  id = ""bottomsquare"" ></div>",null,word_square,response,1,Space,false,,,
html-keyboard-response,354,1074110,null,"CLIMBER",null,word,,,,, 'CLIMBER',,
html-keyboard-response,355,1074611,null,"BRANCH<img id = ""stim"" ><div class = green_square id = ""topsquare"" ></div><img id = ""stim"" ><div class = green_square  id = ""bottomsquare"" ></div>",null,word_square,response,0,none,true,,,
html-keyboard-response,356,1076113,null,"BRANCH",null,word,,,,, 'BRANCH',,
html-keyboard-response,357,1076615,null,"HEART<img id = ""stim"" ><div class = green_square id = ""topsquare"" ></div><img id = ""stim"" ><div class = green_square  id = ""bottomsquare"" ></div>",null,word_square,response,0,none,true,,,
html-keyboard-response,358,1078116,null,"HEART",null,word,,,,, 'HEART',,
html-keyboard-response,359,1078618,null,"BRUNETTE<img id = ""stim"" ><div class = green_square id = ""topsquare"" ></div><img id = ""stim"" ><div class = green_square  id = ""bottomsquare"" ></div>",null,word_square,response,0,none,true,,,
html-keyboard-response,360,1080119,null,"BRUNETTE",null,word,,,,, 'BRUNETTE',,
html-keyboard-response,361,1080561,440.9200000227429,"TULIP<img id = ""stim"" ><div class = red_square id = ""topsquare"" ></div><img id = ""stim"" ><div class = red_square  id = ""bottomsquare"" ></div>",32,word_square,response,1,Space,true,,,
html-keyboard-response,362,1082064,null,"TULIP",null,word,,,,, 'TULIP',,
html-keyboard-response,363,1082485,419.9799999478273,"FAUCET<img id = ""stim"" ><div class = red_square id = ""topsquare"" ></div><img id = ""stim"" ><div class = red_square  id = ""bottomsquare"" ></div>",32,word_square,response,1,Space,true,,,
html-keyboard-response,364,1083986,null,"FAUCET",null,word,,,,, 'FAUCET',,
html-keyboard-response,365,1084488,null,"PATIENT<img id = ""stim"" ><div class = green_square id = ""topsquare"" ></div><img id = ""stim"" ><div class = green_square  id = ""bottomsquare"" ></div>",null,word_square,response,0,none,true,,,
html-keyboard-response,366,1085991,null,"PATIENT",null,word,,,,, 'PATIENT',,
html-keyboard-response,367,1086435,442.67000001855195,"NURSE<img id = ""stim"" ><div class = red_square id = ""topsquare"" ></div><img id = ""stim"" ><div class = red_square  id = ""bottomsquare"" ></div>",32,word_square,response,1,Space,true,,,
html-keyboard-response,368,1087937,null,"NURSE",null,word,,,,, 'NURSE',,
html-keyboard-response,369,1088442,null,"TRIGGER<img id = ""stim"" ><div class = red_square id = ""topsquare"" ></div><img id = ""stim"" ><div class = red_square  id = ""bottomsquare"" ></div>",null,word_square,response,1,Space,false,,,
html-keyboard-response,370,1089944,null,"TRIGGER",null,word,,,,, 'TRIGGER',,
html-keyboard-response,371,1090445,null,"NEPTUNE<img id = ""stim"" ><div class = green_square id = ""topsquare"" ></div><img id = ""stim"" ><div class = green_square  id = ""bottomsquare"" ></div>",null,word_square,response,0,none,true,,,
html-keyboard-response,372,1091947,null,"NEPTUNE",null,word,,,,, 'NEPTUNE',,
html-keyboard-response,373,1092431,483.1949999788776,"FLASHLIGHT<img id = ""stim"" ><div class = red_square id = ""topsquare"" ></div><img id = ""stim"" ><div class = red_square  id = ""bottomsquare"" ></div>",32,word_square,response,1,Space,true,,,
html-keyboard-response,374,1093933,null,"FLASHLIGHT",null,word,,,,, 'FLASHLIGHT',,
html-keyboard-response,375,1094435,null,"FRECKLE<img id = ""stim"" ><div class = green_square id = ""topsquare"" ></div><img id = ""stim"" ><div class = green_square  id = ""bottomsquare"" ></div>",null,word_square,response,0,none,true,,,
html-keyboard-response,376,1095938,null,"FRECKLE",null,word,,,,, 'FRECKLE',,
html-keyboard-response,377,1096439,null,"POLICE<img id = ""stim"" ><div class = green_square id = ""topsquare"" ></div><img id = ""stim"" ><div class = green_square  id = ""bottomsquare"" ></div>",null,word_square,response,0,none,true,,,
html-keyboard-response,378,1097942,null,"POLICE",null,word,,,,, 'POLICE',,
html-keyboard-response,379,1098331,388.6300000012852,"AGENT<img id = ""stim"" ><div class = red_square id = ""topsquare"" ></div><img id = ""stim"" ><div class = red_square  id = ""bottomsquare"" ></div>",32,word_square,response,1,Space,true,,,
html-keyboard-response,380,1099833,null,"AGENT",null,word,,,,, 'AGENT',,
html-keyboard-response,381,1100335,null,"DONOR<img id = ""stim"" ><div class = green_square id = ""topsquare"" ></div><img id = ""stim"" ><div class = green_square  id = ""bottomsquare"" ></div>",null,word_square,response,0,none,true,,,
html-keyboard-response,382,1101846,null,"DONOR",null,word,,,,, 'DONOR',,
call-function,383,1101846,,"",,,,,,,,,
html-keyboard-response,384,1101948,null,"",null,,,,,,,,
math-period,385,1104833,5248.91999992542,"",,,,,,,,,0
html-keyboard-response,386,1104940,null,"",null,,,,,,,,
math-period,387,1106788,3485.9750000177883,"",,,,,,,,,5
html-keyboard-response,388,1106889,null,"",null,,,,,,,,
math-period,389,1109941,5405.940000084229,"",,,,,,,,,6
html-keyboard-response,390,1110043,null,"",null,,,,,,,,
math-period,391,1113221,6006.210000021383,"",,,,,,,,,2
html-keyboard-response,392,1113323,null,"",null,,,,,,,,
math-period,393,1115804,4783.159999991767,"",,,,,,,,,1
html-keyboard-response,394,1115906,null,"",null,,,,,,,,
math-period,395,1117899,3902.295000036247,"",,,,,,,,,3
html-keyboard-response,396,1118005,null,"",null,,,,,,,,
math-period,397,1118950,1768.1849999935366,"",,,,,,,,,2
html-keyboard-response,398,1119051,null,"",null,,,,,,,,
math-period,399,1120939,3266.509999986738,"",,,,,,,,,4
html-keyboard-response,400,1121041,null,"",null,,,,,,,,
math-period,401,1123477,4743.799999996554,"",,,,,,,,,1
html-keyboard-response,402,1123579,null,"",null,,,,,,,,
math-period,403,1125206,3150.3099999390543,"",,,,,,,,,4
html-keyboard-response,404,1125307,null,"",null,,,,,,,,
math-period,405,1125848,null,"",,,,,,,,,
html-keyboard-response,406,1126849,null,"Recall Period!",null,,,,,,,,
call-function,407,1126850,,"",,,,,,,,,
html-keyboard-response,408,1126951,null,"",null,,,,,,,,
recall-period,409,1128892,9499.17000014102,"",,,,,,,,,police
html-keyboard-response,410,1128993,null,"",null,,,,,,,,
recall-period,411,1130463,4220.635000150651,"",,,,,,,,,agent
html-keyboard-response,412,1130564,null,"",null,,,,,,,,
recall-period,413,1132445,4615.7050000620075,"",,,,,,,,,donor
html-keyboard-response,414,1132547,null,"",null,,,,,,,,
recall-period,415,1134681,6926.75500002224,"",,,,,,,,,branch
html-keyboard-response,416,1134783,null,"",null,,,,,,,,
recall-period,417,1137544,8963.819999888074,"",,,,,,,,,climber
html-keyboard-response,418,1137651,null,"",null,,,,,,,,
recall-period,419,1143768,27947.74999981746,"",,,,,,,,,wasp
html-keyboard-response,420,1143870,null,"",null,,,,,,,,
recall-period,421,1145618,5736.800000187941,"",,,,,,,,,shrimp
html-keyboard-response,422,1145722,null,"",null,,,,,,,,
recall-period,423,1201851,null,"",,,,,,,,,
html-keyboard-response,424,1202353,null,"Time's Up!",null,,,,,,,,
html-keyboard-response,425,1206442,4087.450000050012,"<p> Good job! You responded correctly to 88% of the red squares.</p>
                  <p>Be sure to keep your accuracy above 80%</p>
                  <p>Press any key to continue the experiment. Thank you!</p>",32,,,,,,,,
html-keyboard-response,426,1211682,5239.379999984521,"<div style=""font-size:48px;"">Press any key to begin list 5 of 24 </div>",32,,,,,,,,
html-keyboard-response,427,1214184,null,"<div style=""font-size:60px;"">+</div>",null,,,,,,,,
html-keyboard-response,428,1214686,null,"PUMPKIN<img id = ""stim"" ><div class = red_square id = ""topsquare"" ></div><img id = ""stim"" ><div class = red_square  id = ""bottomsquare"" ></div>",null,word_square,response,1,Space,false,,,
html-keyboard-response,429,1216187,null,"PUMPKIN",null,word,,,,, 'PUMPKIN',,
html-keyboard-response,430,1216635,446.0650000255555,"TEAPOT<img id = ""stim"" ><div class = red_square id = ""topsquare"" ></div><img id = ""stim"" ><div class = red_square  id = ""bottomsquare"" ></div>",32,word_square,response,1,Space,true,,,
html-keyboard-response,431,1218137,null,"TEAPOT",null,word,,,,, 'TEAPOT',,
html-keyboard-response,432,1218519,381.32499996572733,"TRUCK<img id = ""stim"" ><div class = red_square id = ""topsquare"" ></div><img id = ""stim"" ><div class = red_square  id = ""bottomsquare"" ></div>",32,word_square,response,1,Space,true,,,
html-keyboard-response,433,1220021,null,"TRUCK",null,word,,,,, 'TRUCK',,
html-keyboard-response,434,1220523,null,"GARBAGE<img id = ""stim"" ><div class = green_square id = ""topsquare"" ></div><img id = ""stim"" ><div class = green_square  id = ""bottomsquare"" ></div>",null,word_square,response,0,none,true,,,
html-keyboard-response,435,1222025,null,"GARBAGE",null,word,,,,, 'GARBAGE',,
html-keyboard-response,436,1222527,null,"CLERK<img id = ""stim"" ><div class = red_square id = ""topsquare"" ></div><img id = ""stim"" ><div class = red_square  id = ""bottomsquare"" ></div>",null,word_square,response,1,Space,false,,,
html-keyboard-response,437,1224029,null,"CLERK",null,word,,,,, 'CLERK',,
html-keyboard-response,438,1224530,null,"VIRUS<img id = ""stim"" ><div class = green_square id = ""topsquare"" ></div><img id = ""stim"" ><div class = green_square  id = ""bottomsquare"" ></div>",null,word_square,response,0,none,true,,,
html-keyboard-response,439,1226032,null,"VIRUS",null,word,,,,, 'VIRUS',,
html-keyboard-response,440,1226534,null,"CRIB<img id = ""stim"" ><div class = green_square id = ""topsquare"" ></div><img id = ""stim"" ><div class = green_square  id = ""bottomsquare"" ></div>",null,word_square,response,0,none,true,,,
html-keyboard-response,441,1228037,null,"CRIB",null,word,,,,, 'CRIB',,
html-keyboard-response,442,1228415,377.67999997595325,"BRICK<img id = ""stim"" ><div class = red_square id = ""topsquare"" ></div><img id = ""stim"" ><div class = red_square  id = ""bottomsquare"" ></div>",32,word_square,response,1,Space,true,,,
html-keyboard-response,443,1229917,null,"BRICK",null,word,,,,, 'BRICK',,
html-keyboard-response,444,1230420,null,"FARMER<img id = ""stim"" ><div class = green_square id = ""topsquare"" ></div><img id = ""stim"" ><div class = green_square  id = ""bottomsquare"" ></div>",null,word_square,response,0,none,true,,,
html-keyboard-response,445,1231921,null,"FARMER",null,word,,,,, 'FARMER',,
html-keyboard-response,446,1232423,null,"HEDGE<img id = ""stim"" ><div class = red_square id = ""topsquare"" ></div><img id = ""stim"" ><div class = red_square  id = ""bottomsquare"" ></div>",null,word_square,response,1,Space,false,,,
html-keyboard-response,447,1233931,null,"HEDGE",null,word,,,,, 'HEDGE',,
html-keyboard-response,448,1234433,null,"STABLE<img id = ""stim"" ><div class = green_square id = ""topsquare"" ></div><img id = ""stim"" ><div class = green_square  id = ""bottomsquare"" ></div>",null,word_square,response,0,none,true,,,
html-keyboard-response,449,1235935,null,"STABLE",null,word,,,,, 'STABLE',,
html-keyboard-response,450,1236436,null,"WIDOW<img id = ""stim"" ><div class = green_square id = ""topsquare"" ></div><img id = ""stim"" ><div class = green_square  id = ""bottomsquare"" ></div>",null,word_square,response,0,none,true,,,
html-keyboard-response,451,1237938,null,"WIDOW",null,word,,,,, 'WIDOW',,
html-keyboard-response,452,1238440,null,"GLACIER<img id = ""stim"" ><div class = red_square id = ""topsquare"" ></div><img id = ""stim"" ><div class = red_square  id = ""bottomsquare"" ></div>",null,word_square,response,1,Space,false,,,
html-keyboard-response,453,1239942,null,"GLACIER",null,word,,,,, 'GLACIER',,
html-keyboard-response,454,1240444,null,"FREEZER<img id = ""stim"" ><div class = green_square id = ""topsquare"" ></div><img id = ""stim"" ><div class = green_square  id = ""bottomsquare"" ></div>",null,word_square,response,0,none,true,,,
html-keyboard-response,455,1241946,null,"FREEZER",null,word,,,,, 'FREEZER',,
html-keyboard-response,456,1242448,null,"SQUIRREL<img id = ""stim"" ><div class = red_square id = ""topsquare"" ></div><img id = ""stim"" ><div class = red_square  id = ""bottomsquare"" ></div>",null,word_square,response,1,Space,false,,,
html-keyboard-response,457,1243950,null,"SQUIRREL",null,word,,,,, 'SQUIRREL',,
html-keyboard-response,458,1244451,null,"ZIPPER<img id = ""stim"" ><div class = green_square id = ""topsquare"" ></div><img id = ""stim"" ><div class = green_square  id = ""bottomsquare"" ></div>",null,word_square,response,0,none,true,,,
html-keyboard-response,459,1245953,null,"ZIPPER",null,word,,,,, 'ZIPPER',,
html-keyboard-response,460,1246455,null,"SKIRT<img id = ""stim"" ><div class = green_square id = ""topsquare"" ></div><img id = ""stim"" ><div class = green_square  id = ""bottomsquare"" ></div>",null,word_square,response,0,none,true,,,
html-keyboard-response,461,1247956,null,"SKIRT",null,word,,,,, 'SKIRT',,
html-keyboard-response,462,1248391,433.69500001426786,"BANDIT<img id = ""stim"" ><div class = red_square id = ""topsquare"" ></div><img id = ""stim"" ><div class = red_square  id = ""bottomsquare"" ></div>",32,word_square,response,1,Space,true,,,
html-keyboard-response,463,1249893,null,"BANDIT",null,word,,,,, 'BANDIT',,
call-function,464,1249893,,"",,,,,,,,,
html-keyboard-response,465,1249995,null,"",null,,,,,,,,
math-period,466,1252222,4052.610000013374,"",,,,,,,,,3
html-keyboard-response,467,1252335,null,"",null,,,,,,,,
math-period,468,1255203,5018.900000082795,"",,,,,,,,,2
html-keyboard-response,469,1255304,null,"",null,,,,,,,,
math-period,470,1256938,3006.3300000038,"",,,,,,,,,4
html-keyboard-response,471,1257045,null,"",null,,,,,,,,
math-period,472,1258939,3429.7500000102445,"",,,,,,,,,3
html-keyboard-response,473,1259040,null,"",null,,,,,,,,
math-period,474,1260571,2882.8999999677762,"",,,,,,,,,3
html-keyboard-response,475,1260673,null,"",null,,,,,,,,
math-period,476,1262490,3428.5899999085814,"",,,,,,,,,2
html-keyboard-response,477,1262591,null,"",null,,,,,,,,
math-period,478,1265853,10453.985000145622,"",,,,,,,,,1
html-keyboard-response,479,1265958,null,"",null,,,,,,,,
math-period,480,1267396,2627.8799999854527,"",,,,,,,,,2
html-keyboard-response,481,1267507,null,"",null,,,,,,,,
math-period,482,1268726,2308.3600000245497,"",,,,,,,,,4
html-keyboard-response,483,1268827,null,"",null,,,,,,,,
math-period,484,1269803,1809.2349999933504,"",,,,,,,,,4
html-keyboard-response,485,1269904,null,"",null,,,,,,,,
math-period,486,1272777,5364.950000017416,"",,,,,,,,,2
html-keyboard-response,487,1272878,null,"",null,,,,,,,,
math-period,488,1273895,null,"",,,,,,,,,
html-keyboard-response,489,1274896,null,"Recall Period!",null,,,,,,,,
call-function,490,1274896,,"",,,,,,,,,
html-keyboard-response,491,1274998,null,"",null,,,,,,,,
recall-period,492,1277305,9472.904999856837,"",,,,,,,,,farmer
html-keyboard-response,493,1277407,null,"",null,,,,,,,,
recall-period,494,1280320,12066.359999764245,"",,,,,,,,,hedge
html-keyboard-response,495,1280421,null,"",null,,,,,,,,
recall-period,496,1281935,4938.88500018511,"",,,,,,,,,skirt
html-keyboard-response,497,1282037,null,"",null,,,,,,,,
recall-period,498,1283316,4634.5250000595115,"",,,,,,,,,bandit
html-keyboard-response,499,1283422,null,"",null,,,,,,,,
recall-period,500,1286064,11854.175000218675,"",,,,,,,,,squirrel
html-keyboard-response,501,1286166,null,"",null,,,,,,,,
recall-period,502,1290478,17310.434999933932,"",,,,,,,,,glacier
html-keyboard-response,503,1290588,null,"",null,,,,,,,,
recall-period,504,1349898,51698.139999993145,"",,,,,,,,,alt
html-keyboard-response,505,1350400,null,"Time's Up!",null,,,,,,,,
html-keyboard-response,506,1394165,43763.90000001993,"<p> Good job! You responded correctly to 85% of the red squares.</p>
                  <p>Be sure to keep your accuracy above 80%</p>
                  <p>Press any key to continue the experiment. Thank you!</p>",32,,,,,,,,
html-keyboard-response,507,1395336,1170.1199999661185,"<div style=""font-size:48px;"">Press any key to begin list 6 of 24 </div>",32,,,,,,,,
html-keyboard-response,508,1397842,null,"<div style=""font-size:60px;"">+</div>",null,,,,,,,,
html-keyboard-response,509,1398222,378.6899999831803,"ROBBER<img id = ""stim"" ><div class = red_square id = ""topsquare"" ></div><img id = ""stim"" ><div class = red_square  id = ""bottomsquare"" ></div>",32,word_square,response,1,Space,true,,,
html-keyboard-response,510,1399724,null,"ROBBER",null,word,,,,, 'ROBBER',,
html-keyboard-response,511,1400165,440.02999999793246,"BANK<img id = ""stim"" ><div class = red_square id = ""topsquare"" ></div><img id = ""stim"" ><div class = red_square  id = ""bottomsquare"" ></div>",32,word_square,response,1,Space,true,,,
html-keyboard-response,512,1401667,null,"BANK",null,word,,,,, 'BANK',,
html-keyboard-response,513,1402103,434.7449999768287,"MOTHER<img id = ""stim"" ><div class = red_square id = ""topsquare"" ></div><img id = ""stim"" ><div class = red_square  id = ""bottomsquare"" ></div>",32,word_square,response,1,Space,true,,,
html-keyboard-response,514,1403605,null,"MOTHER",null,word,,,,, 'MOTHER',,
html-keyboard-response,515,1404106,null,"WITNESS<img id = ""stim"" ><div class = green_square id = ""topsquare"" ></div><img id = ""stim"" ><div class = green_square  id = ""bottomsquare"" ></div>",null,word_square,response,0,none,true,,,
html-keyboard-response,516,1405608,null,"WITNESS",null,word,,,,, 'WITNESS',,
html-keyboard-response,517,1405996,386.1549999564886,"OUTLAW<img id = ""stim"" ><div class = red_square id = ""topsquare"" ></div><img id = ""stim"" ><div class = red_square  id = ""bottomsquare"" ></div>",32,word_square,response,1,Space,true,,,
html-keyboard-response,518,1407497,null,"OUTLAW",null,word,,,,, 'OUTLAW',,
html-keyboard-response,519,1407998,null,"SQUID<img id = ""stim"" ><div class = green_square id = ""topsquare"" ></div><img id = ""stim"" ><div class = green_square  id = ""bottomsquare"" ></div>",null,word_square,response,0,none,true,,,
html-keyboard-response,520,1409501,null,"SQUID",null,word,,,,, 'SQUID',,
html-keyboard-response,521,1410002,null,"GLOVE<img id = ""stim"" ><div class = green_square id = ""topsquare"" ></div><img id = ""stim"" ><div class = green_square  id = ""bottomsquare"" ></div>",null,word_square,response,0,none,true,,,
html-keyboard-response,522,1411504,null,"GLOVE",null,word,,,,, 'GLOVE',,
html-keyboard-response,523,1412006,null,"CONTRACT<img id = ""stim"" ><div class = red_square id = ""topsquare"" ></div><img id = ""stim"" ><div class = red_square  id = ""bottomsquare"" ></div>",null,word_square,response,1,Space,false,,,
html-keyboard-response,524,1413508,null,"CONTRACT",null,word,,,,, 'CONTRACT',,
html-keyboard-response,525,1414011,null,"VILLAGE<img id = ""stim"" ><div class = green_square id = ""topsquare"" ></div><img id = ""stim"" ><div class = green_square  id = ""bottomsquare"" ></div>",null,word_square,response,0,none,true,,,
html-keyboard-response,526,1415512,null,"VILLAGE",null,word,,,,, 'VILLAGE',,
html-keyboard-response,527,1415851,337.16500003356487,"LOBBY<img id = ""stim"" ><div class = red_square id = ""topsquare"" ></div><img id = ""stim"" ><div class = red_square  id = ""bottomsquare"" ></div>",32,word_square,response,1,Space,true,,,
html-keyboard-response,528,1417352,null,"LOBBY",null,word,,,,, 'LOBBY',,
html-keyboard-response,529,1417854,null,"NOVEL<img id = ""stim"" ><div class = green_square id = ""topsquare"" ></div><img id = ""stim"" ><div class = green_square  id = ""bottomsquare"" ></div>",null,word_square,response,0,none,true,,,
html-keyboard-response,530,1419355,null,"NOVEL",null,word,,,,, 'NOVEL',,
html-keyboard-response,531,1419857,null,"GUITAR<img id = ""stim"" ><div class = green_square id = ""topsquare"" ></div><img id = ""stim"" ><div class = green_square  id = ""bottomsquare"" ></div>",null,word_square,response,0,none,true,,,
html-keyboard-response,532,1421358,null,"GUITAR",null,word,,,,, 'GUITAR',,
html-keyboard-response,533,1421698,339.4700000062585,"FOOTBALL<img id = ""stim"" ><div class = red_square id = ""topsquare"" ></div><img id = ""stim"" ><div class = red_square  id = ""bottomsquare"" ></div>",32,word_square,response,1,Space,true,,,
html-keyboard-response,534,1423200,null,"FOOTBALL",null,word,,,,, 'FOOTBALL',,
html-keyboard-response,535,1423702,null,"SOFTBALL<img id = ""stim"" ><div class = green_square id = ""topsquare"" ></div><img id = ""stim"" ><div class = green_square  id = ""bottomsquare"" ></div>",null,word_square,response,0,none,true,,,
html-keyboard-response,536,1425204,null,"SOFTBALL",null,word,,,,, 'SOFTBALL',,
html-keyboard-response,537,1425566,360.86000001523644,"CAFE<img id = ""stim"" ><div class = red_square id = ""topsquare"" ></div><img id = ""stim"" ><div class = red_square  id = ""bottomsquare"" ></div>",32,word_square,response,1,Space,true,,,
html-keyboard-response,538,1427068,null,"CAFE",null,word,,,,, 'CAFE',,
html-keyboard-response,539,1427569,null,"CREEK<img id = ""stim"" ><div class = green_square id = ""topsquare"" ></div><img id = ""stim"" ><div class = green_square  id = ""bottomsquare"" ></div>",null,word_square,response,0,none,true,,,
html-keyboard-response,540,1429071,null,"CREEK",null,word,,,,, 'CREEK',,
html-keyboard-response,541,1429572,null,"DRESS<img id = ""stim"" ><div class = green_square id = ""topsquare"" ></div><img id = ""stim"" ><div class = green_square  id = ""bottomsquare"" ></div>",null,word_square,response,0,none,true,,,
html-keyboard-response,542,1431074,null,"DRESS",null,word,,,,, 'DRESS',,
html-keyboard-response,543,1431440,365.02499994821846,"SICKLE<img id = ""stim"" ><div class = red_square id = ""topsquare"" ></div><img id = ""stim"" ><div class = red_square  id = ""bottomsquare"" ></div>",32,word_square,response,1,Space,true,,,
html-keyboard-response,544,1432942,null,"SICKLE",null,word,,,,, 'SICKLE',,
call-function,545,1432943,,"",,,,,,,,,
html-keyboard-response,546,1433044,null,"",null,,,,,,,,
math-period,547,1436288,5352.815000049304,"",,,,,,,,,6
html-keyboard-response,548,1436391,null,"",null,,,,,,,,
math-period,549,1437940,2968.334999983199,"",,,,,,,,,4
html-keyboard-response,550,1438042,null,"",null,,,,,,,,
math-period,551,1439852,3510.2049999986775,"",,,,,,,,,3
html-keyboard-response,552,1439953,null,"",null,,,,,,,,
math-period,553,1442643,4972.024999966379,"",,,,,,,,,2
html-keyboard-response,554,1442747,null,"",null,,,,,,,,
math-period,555,1446226,10784.48000003118,"",,,,,,,,,3
html-keyboard-response,556,1446327,null,"",null,,,,,,,,
math-period,557,1447846,2838.315000059083,"",,,,,,,,,1
html-keyboard-response,558,1447948,null,"",null,,,,,,,,
math-period,559,1449303,2422.7249999530613,"",,,,,,,,,3
html-keyboard-response,560,1449408,null,"",null,,,,,,,,
math-period,561,1452551,5895.23999998346,"",,,,,,,,,2
html-keyboard-response,562,1452652,null,"",null,,,,,,,,
math-period,563,1455247,8900.069999974221,"",,,,,,,,,5
html-keyboard-response,564,1455350,null,"",null,,,,,,,,
math-period,565,1456957,1225.3250000067055,"",,,,,,,,,2
html-keyboard-response,566,1457958,null,"Recall Period!",null,,,,,,,,
call-function,567,1457959,,"",,,,,,,,,
html-keyboard-response,568,1458060,null,"",null,,,,,,,,
recall-period,569,1460952,15758.830000122543,"",,,,,,,,,robber
html-keyboard-response,570,1461053,null,"",null,,,,,,,,
recall-period,571,1462904,3927.255000162404,"",,,,,,,,,bank
html-keyboard-response,572,1463005,null,"",null,,,,,,,,
recall-period,573,1467828,35074.704999802634,"",,,,,,,,,outlaw
html-keyboard-response,574,1467942,null,"",null,,,,,,,,
recall-period,575,1471526,8822.300000116229,"",,,,,,,,,mother
html-keyboard-response,576,1471627,null,"",null,,,,,,,,
recall-period,577,1477976,13648.620000050869,"",,,,,,,,,creek
html-keyboard-response,578,1478078,null,"",null,,,,,,,,
recall-period,579,1480059,5942.515000060666,"",,,,,,,,,bandit
html-keyboard-response,580,1480161,null,"",null,,,,,,,,
recall-period,581,1488947,56333.175000036135,"",,,,,,,,,window
html-keyboard-response,582,1489049,null,"",null,,,,,,,,
recall-period,583,1501296,93168.60999981873,"",,,,,,,,,village
html-keyboard-response,584,1501400,null,"",null,,,,,,,,
recall-period,585,1503614,10128.834999864921,"",,,,,,,,,contract
html-keyboard-response,586,1503717,null,"",null,,,,,,,,
recall-period,587,1532959,null,"",,,,,,,,,
html-keyboard-response,588,1533461,null,"Time's Up!",null,,,,,,,,
html-keyboard-response,589,1561534,28071.740000043064,"<p> Good job! You responded correctly to 87% of the red squares.</p>
                  <p>Be sure to keep your accuracy above 80%</p>
                  <p>Press any key to continue the experiment. Thank you!</p>",32,,,,,,,,
html-keyboard-response,590,1567331,5796.280000009574,"<div style=""font-size:48px;"">Press any key to begin list 7 of 24 </div>",32,,,,,,,,
html-keyboard-response,591,1569834,null,"<div style=""font-size:60px;"">+</div>",null,,,,,,,,
html-keyboard-response,592,1570336,null,"PACKAGE<img id = ""stim"" ><div class = green_square id = ""topsquare"" ></div><img id = ""stim"" ><div class = green_square  id = ""bottomsquare"" ></div>",null,word_square,response,0,none,true,,,
html-keyboard-response,593,1571837,null,"PACKAGE",null,word,,,,, 'PACKAGE',,
html-keyboard-response,594,1572340,null,"GIFT<img id = ""stim"" ><div class = green_square id = ""topsquare"" ></div><img id = ""stim"" ><div class = green_square  id = ""bottomsquare"" ></div>",null,word_square,response,0,none,true,,,
html-keyboard-response,595,1573841,null,"GIFT",null,word,,,,, 'GIFT',,
html-keyboard-response,596,1574343,null,"ADULT<img id = ""stim"" ><div class = green_square id = ""topsquare"" ></div><img id = ""stim"" ><div class = green_square  id = ""bottomsquare"" ></div>",null,word_square,response,0,none,true,,,
html-keyboard-response,597,1575844,null,"ADULT",null,word,,,,, 'ADULT',,
html-keyboard-response,598,1576265,419.3599999998696,"JOURNAL<img id = ""stim"" ><div class = red_square id = ""topsquare"" ></div><img id = ""stim"" ><div class = red_square  id = ""bottomsquare"" ></div>",32,word_square,response,1,Space,true,,,
html-keyboard-response,599,1577767,null,"JOURNAL",null,word,,,,, 'JOURNAL',,
html-keyboard-response,600,1578269,null,"LUGGAGE<img id = ""stim"" ><div class = green_square id = ""topsquare"" ></div><img id = ""stim"" ><div class = green_square  id = ""bottomsquare"" ></div>",null,word_square,response,0,none,true,,,
html-keyboard-response,601,1579771,null,"LUGGAGE",null,word,,,,, 'LUGGAGE',,
html-keyboard-response,602,1580117,344.5050000445917,"BASKET<img id = ""stim"" ><div class = red_square id = ""topsquare"" ></div><img id = ""stim"" ><div class = red_square  id = ""bottomsquare"" ></div>",32,word_square,response,1,Space,true,,,
html-keyboard-response,603,1581619,null,"BASKET",null,word,,,,, 'BASKET',,
html-keyboard-response,604,1582066,446.5150000178255,"LIVER<img id = ""stim"" ><div class = red_square id = ""topsquare"" ></div><img id = ""stim"" ><div class = red_square  id = ""bottomsquare"" ></div>",32,word_square,response,1,Space,true,,,
html-keyboard-response,605,1583568,null,"LIVER",null,word,,,,, 'LIVER',,
html-keyboard-response,606,1584070,null,"TOOTHBRUSH<img id = ""stim"" ><div class = green_square id = ""topsquare"" ></div><img id = ""stim"" ><div class = green_square  id = ""bottomsquare"" ></div>",null,word_square,response,0,none,true,,,
html-keyboard-response,607,1585571,null,"TOOTHBRUSH",null,word,,,,, 'TOOTHBRUSH',,
html-keyboard-response,608,1586004,431.25500000314787,"WARDROBE<img id = ""stim"" ><div class = red_square id = ""topsquare"" ></div><img id = ""stim"" ><div class = red_square  id = ""bottomsquare"" ></div>",32,word_square,response,1,Space,true,,,
html-keyboard-response,609,1587506,null,"WARDROBE",null,word,,,,, 'WARDROBE',,
html-keyboard-response,610,1588009,null,"KETTLE<img id = ""stim"" ><div class = green_square id = ""topsquare"" ></div><img id = ""stim"" ><div class = green_square  id = ""bottomsquare"" ></div>",null,word_square,response,0,none,true,,,
html-keyboard-response,611,1589511,null,"KETTLE",null,word,,,,, 'KETTLE',,
html-keyboard-response,612,1590013,null,"COBWEB<img id = ""stim"" ><div class = red_square id = ""topsquare"" ></div><img id = ""stim"" ><div class = red_square  id = ""bottomsquare"" ></div>",null,word_square,response,1,Space,false,,,
html-keyboard-response,613,1591514,null,"COBWEB",null,word,,,,, 'COBWEB',,
html-keyboard-response,614,1592016,null,"BUTLER<img id = ""stim"" ><div class = red_square id = ""topsquare"" ></div><img id = ""stim"" ><div class = red_square  id = ""bottomsquare"" ></div>",null,word_square,response,1,Space,false,,,
html-keyboard-response,615,1593518,null,"BUTLER",null,word,,,,, 'BUTLER',,
html-keyboard-response,616,1594020,null,"BEEF<img id = ""stim"" ><div class = green_square id = ""topsquare"" ></div><img id = ""stim"" ><div class = green_square  id = ""bottomsquare"" ></div>",null,word_square,response,0,none,true,,,
html-keyboard-response,617,1595522,null,"BEEF",null,word,,,,, 'BEEF',,
html-keyboard-response,618,1595934,411.0849999706261,"STAPLE<img id = ""stim"" ><div class = red_square id = ""topsquare"" ></div><img id = ""stim"" ><div class = red_square  id = ""bottomsquare"" ></div>",32,word_square,response,1,Space,true,,,
html-keyboard-response,619,1597436,null,"STAPLE",null,word,,,,, 'STAPLE',,
html-keyboard-response,620,1597938,null,"NOTEBOOK<img id = ""stim"" ><div class = green_square id = ""topsquare"" ></div><img id = ""stim"" ><div class = green_square  id = ""bottomsquare"" ></div>",null,word_square,response,0,none,true,,,
html-keyboard-response,621,1599439,null,"NOTEBOOK",null,word,,,,, 'NOTEBOOK',,
html-keyboard-response,622,1599845,405.289999966044,"POND<img id = ""stim"" ><div class = red_square id = ""topsquare"" ></div><img id = ""stim"" ><div class = red_square  id = ""bottomsquare"" ></div>",32,word_square,response,1,Space,true,,,
html-keyboard-response,623,1601347,null,"POND",null,word,,,,, 'POND',,
html-keyboard-response,624,1601848,null,"RADISH<img id = ""stim"" ><div class = red_square id = ""topsquare"" ></div><img id = ""stim"" ><div class = red_square  id = ""bottomsquare"" ></div>",null,word_square,response,1,Space,false,,,
html-keyboard-response,625,1603351,null,"RADISH",null,word,,,,, 'RADISH',,
html-keyboard-response,626,1603864,null,"BINDER<img id = ""stim"" ><div class = green_square id = ""topsquare"" ></div><img id = ""stim"" ><div class = green_square  id = ""bottomsquare"" ></div>",null,word_square,response,0,none,true,,,
html-keyboard-response,627,1605365,null,"BINDER",null,word,,,,, 'BINDER',,
call-function,628,1605366,,"",,,,,,,,,
html-keyboard-response,629,1605467,null,"",null,,,,,,,,
math-period,630,1608542,5634.974999993574,"",,,,,,,,,3
html-keyboard-response,631,1608645,null,"",null,,,,,,,,
math-period,632,1610707,3983.2449999521486,"",,,,,,,,,3
html-keyboard-response,633,1610809,null,"",null,,,,,,,,
math-period,634,1612544,3329.3249999987893,"",,,,,,,,,2
html-keyboard-response,635,1612646,null,"",null,,,,,,,,
math-period,636,1613811,2193.6400000122376,"",,,,,,,,,4
html-keyboard-response,637,1613912,null,"",null,,,,,,,,
math-period,638,1615956,3756.984999985434,"",,,,,,,,,5
html-keyboard-response,639,1616058,null,"",null,,,,,,,,
math-period,640,1617381,2516.5949999936856,"",,,,,,,,,4
html-keyboard-response,641,1617483,null,"",null,,,,,,,,
math-period,642,1618894,2745.11999997776,"",,,,,,,,,3
html-keyboard-response,643,1618996,null,"",null,,,,,,,,
math-period,644,1619945,1814.2549999756739,"",,,,,,,,,3
html-keyboard-response,645,1620046,null,"",null,,,,,,,,
math-period,646,1622130,3797.225000045728,"",,,,,,,,,1
html-keyboard-response,647,1622231,null,"",null,,,,,,,,
math-period,648,1624890,5012.219999975059,"",,,,,,,,,6
html-keyboard-response,649,1624991,null,"",null,,,,,,,,
math-period,650,1626587,3088.1800000206567,"",,,,,,,,,4
html-keyboard-response,651,1626689,null,"",null,,,,,,,,
math-period,652,1629367,2657.3450000141747,"",,,,,,,,,1
html-keyboard-response,653,1630369,null,"Recall Period!",null,,,,,,,,
call-function,654,1630369,,"",,,,,,,,,
html-keyboard-response,655,1630471,null,"",null,,,,,,,,
recall-period,656,1632894,9793.289999885019,"",,,,,,,,,staple
html-keyboard-response,657,1633009,null,"",null,,,,,,,,
recall-period,658,1634938,9669.099999824539,"",,,,,,,,,notebook
html-keyboard-response,659,1635053,null,"",null,,,,,,,,
recall-period,660,1636726,6666.44999984419,"",,,,,,,,,binder
html-keyboard-response,661,1636828,null,"",null,,,,,,,,
recall-period,662,1638834,6520.4249999369495,"",,,,,,,,,radish
html-keyboard-response,663,1638936,null,"",null,,,,,,,,
recall-period,664,1640392,7822.570000018459,"",,,,,,,,,package
html-keyboard-response,665,1640498,null,"",null,,,,,,,,
recall-period,666,1642128,4733.725000114646,"",,,,,,,,,gift
html-keyboard-response,667,1642230,null,"",null,,,,,,,,
recall-period,668,1646028,8941.560000064783,"",,,,,,,,,adult
html-keyboard-response,669,1646130,null,"",null,,,,,,,,
recall-period,670,1696159,396291.7800002033,"",,,,,,,,,journal
html-keyboard-response,671,1696260,null,"",null,,,,,,,,
recall-period,672,1705371,null,"",,,,,,,,,
html-keyboard-response,673,1705873,null,"Time's Up!",null,,,,,,,,
html-keyboard-response,674,1711540,5665.934999997262,"<p> Good job! You responded correctly to 86% of the red squares.</p>
                  <p>Be sure to keep your accuracy above 80%</p>
                  <p>Press any key to continue the experiment. Thank you!</p>",32,,,,,,,,
html-keyboard-response,675,1713889,2347.4999999743886,"<div style=""font-size:48px;"">Press any key to begin list 8 of 24 </div>",32,,,,,,,,
html-keyboard-response,676,1716391,null,"<div style=""font-size:60px;"">+</div>",null,,,,,,,,
html-keyboard-response,677,1716892,null,"ACTOR<img id = ""stim"" ><div class = green_square id = ""topsquare"" ></div><img id = ""stim"" ><div class = green_square  id = ""bottomsquare"" ></div>",null,word_square,response,0,none,true,,,
html-keyboard-response,678,1718394,null,"ACTOR",null,word,,,,, 'ACTOR',,
html-keyboard-response,679,1718896,null,"FILM<img id = ""stim"" ><div class = green_square id = ""topsquare"" ></div><img id = ""stim"" ><div class = green_square  id = ""bottomsquare"" ></div>",null,word_square,response,0,none,true,,,
html-keyboard-response,680,1720397,null,"FILM",null,word,,,,, 'FILM',,
html-keyboard-response,681,1720899,null,"PLANET<img id = ""stim"" ><div class = green_square id = ""topsquare"" ></div><img id = ""stim"" ><div class = green_square  id = ""bottomsquare"" ></div>",null,word_square,response,0,none,true,,,
html-keyboard-response,682,1722401,null,"PLANET",null,word,,,,, 'PLANET',,
html-keyboard-response,683,1722903,null,"SERPENT<img id = ""stim"" ><div class = red_square id = ""topsquare"" ></div><img id = ""stim"" ><div class = red_square  id = ""bottomsquare"" ></div>",null,word_square,response,1,Space,false,,,
html-keyboard-response,684,1724404,null,"SERPENT",null,word,,,,, 'SERPENT',,
html-keyboard-response,685,1724906,null,"MUFFIN<img id = ""stim"" ><div class = green_square id = ""topsquare"" ></div><img id = ""stim"" ><div class = green_square  id = ""bottomsquare"" ></div>",null,word_square,response,0,none,true,,,
html-keyboard-response,686,1726407,null,"MUFFIN",null,word,,,,, 'MUFFIN',,
html-keyboard-response,687,1726851,442.90499994531274,"FATHER<img id = ""stim"" ><div class = red_square id = ""topsquare"" ></div><img id = ""stim"" ><div class = red_square  id = ""bottomsquare"" ></div>",32,word_square,response,1,Space,true,,,
html-keyboard-response,688,1728352,null,"FATHER",null,word,,,,, 'FATHER',,
html-keyboard-response,689,1728782,428.9800000260584,"COLLEGE<img id = ""stim"" ><div class = red_square id = ""topsquare"" ></div><img id = ""stim"" ><div class = red_square  id = ""bottomsquare"" ></div>",32,word_square,response,1,Space,true,,,
html-keyboard-response,690,1730284,null,"COLLEGE",null,word,,,,, 'COLLEGE',,
html-keyboard-response,691,1730787,null,"NIGHTGOWN<img id = ""stim"" ><div class = green_square id = ""topsquare"" ></div><img id = ""stim"" ><div class = green_square  id = ""bottomsquare"" ></div>",null,word_square,response,0,none,true,,,
html-keyboard-response,692,1732288,null,"NIGHTGOWN",null,word,,,,, 'NIGHTGOWN',,
html-keyboard-response,693,1732644,354.529999953229,"BANKER<img id = ""stim"" ><div class = red_square id = ""topsquare"" ></div><img id = ""stim"" ><div class = red_square  id = ""bottomsquare"" ></div>",32,word_square,response,1,Space,true,,,
html-keyboard-response,694,1734145,null,"BANKER",null,word,,,,, 'BANKER',,
html-keyboard-response,695,1734647,null,"COIN<img id = ""stim"" ><div class = green_square id = ""topsquare"" ></div><img id = ""stim"" ><div class = green_square  id = ""bottomsquare"" ></div>",null,word_square,response,0,none,true,,,
html-keyboard-response,696,1736148,null,"COIN",null,word,,,,, 'COIN',,
html-keyboard-response,697,1736650,null,"PARTNER<img id = ""stim"" ><div class = red_square id = ""topsquare"" ></div><img id = ""stim"" ><div class = red_square  id = ""bottomsquare"" ></div>",null,word_square,response,1,Space,false,,,
html-keyboard-response,698,1738151,null,"PARTNER",null,word,,,,, 'PARTNER',,
html-keyboard-response,699,1738654,null,"PEOPLE<img id = ""stim"" ><div class = red_square id = ""topsquare"" ></div><img id = ""stim"" ><div class = red_square  id = ""bottomsquare"" ></div>",null,word_square,response,1,Space,false,,,
html-keyboard-response,700,1740156,null,"PEOPLE",null,word,,,,, 'PEOPLE',,
html-keyboard-response,701,1740657,null,"PENCIL<img id = ""stim"" ><div class = green_square id = ""topsquare"" ></div><img id = ""stim"" ><div class = green_square  id = ""bottomsquare"" ></div>",null,word_square,response,0,none,true,,,
html-keyboard-response,702,1742159,null,"PENCIL",null,word,,,,, 'PENCIL',,
html-keyboard-response,703,1742582,421.5250000124797,"FRIEND<img id = ""stim"" ><div class = red_square id = ""topsquare"" ></div><img id = ""stim"" ><div class = red_square  id = ""bottomsquare"" ></div>",32,word_square,response,1,Space,true,,,
html-keyboard-response,704,1744084,null,"FRIEND",null,word,,,,, 'FRIEND',,
html-keyboard-response,705,1744586,null,"SPONGE<img id = ""stim"" ><div class = green_square id = ""topsquare"" ></div><img id = ""stim"" ><div class = green_square  id = ""bottomsquare"" ></div>",null,word_square,response,0,none,true,,,
html-keyboard-response,706,1746089,null,"SPONGE",null,word,,,,, 'SPONGE',,
html-keyboard-response,707,1746591,null,"ISLAND<img id = ""stim"" ><div class = red_square id = ""topsquare"" ></div><img id = ""stim"" ><div class = red_square  id = ""bottomsquare"" ></div>",null,word_square,response,1,Space,false,,,
html-keyboard-response,708,1748093,null,"ISLAND",null,word,,,,, 'ISLAND',,
html-keyboard-response,709,1748595,null,"PIMPLE<img id = ""stim"" ><div class = red_square id = ""topsquare"" ></div><img id = ""stim"" ><div class = red_square  id = ""bottomsquare"" ></div>",null,word_square,response,1,Space,false,,,
html-keyboard-response,710,1750098,null,"PIMPLE",null,word,,,,, 'PIMPLE',,
html-keyboard-response,711,1750600,null,"RAFT<img id = ""stim"" ><div class = green_square id = ""topsquare"" ></div><img id = ""stim"" ><div class = green_square  id = ""bottomsquare"" ></div>",null,word_square,response,0,none,true,,,
html-keyboard-response,712,1752102,null,"RAFT",null,word,,,,, 'RAFT',,
call-function,713,1752103,,"",,,,,,,,,
html-keyboard-response,714,1752204,null,"",null,,,,,,,,
math-period,715,1755191,5248.330000031274,"",,,,,,,,,5
html-keyboard-response,716,1755292,null,"",null,,,,,,,,
math-period,717,1756513,1869.654999987688,"",,,,,,,,,5
html-keyboard-response,718,1756615,null,"",null,,,,,,,,
math-period,719,1758526,3653.55000004638,"",,,,,,,,,2
html-keyboard-response,720,1758628,null,"",null,,,,,,,,
math-period,721,1760051,2694.3349999492057,"",,,,,,,,,4
html-keyboard-response,722,1760167,null,"",null,,,,,,,,
math-period,723,1761691,2925.4499999806285,"",,,,,,,,,3
html-keyboard-response,724,1761792,null,"",null,,,,,,,,
math-period,725,1763071,2346.7050000908785,"",,,,,,,,,3
html-keyboard-response,726,1763173,null,"",null,,,,,,,,
math-period,727,1764654,2806.739999970887,"",,,,,,,,,2
html-keyboard-response,728,1764756,null,"",null,,,,,,,,
math-period,729,1766008,2388.319999910891,"",,,,,,,,,4
html-keyboard-response,730,1766110,null,"",null,,,,,,,,
math-period,731,1767394,2447.134999965783,"",,,,,,,,,3
html-keyboard-response,732,1767497,null,"",null,,,,,,,,
math-period,733,1768629,2127.410000015516,"",,,,,,,,,4
html-keyboard-response,734,1768730,null,"",null,,,,,,,,
math-period,735,1770383,3185.360000061337,"",,,,,,,,,5
html-keyboard-response,736,1770485,null,"",null,,,,,,,,
math-period,737,1772503,3907.309999980498,"",,,,,,,,,1
html-keyboard-response,738,1772604,null,"",null,,,,,,,,
math-period,739,1774471,3332.6649999362417,"",,,,,,,,,3
html-keyboard-response,740,1774573,null,"",null,,,,,,,,
math-period,741,1776104,null,"",,,,,,,,,
html-keyboard-response,742,1777106,null,"Recall Period!",null,,,,,,,,
call-function,743,1777106,,"",,,,,,,,,
html-keyboard-response,744,1777208,null,"",null,,,,,,,,
recall-period,745,1779112,10265.564999892376,"",,,,,,,,,island
html-keyboard-response,746,1779213,null,"",null,,,,,,,,
recall-period,747,1780613,5799.095000198577,"",,,,,,,,,pimple
html-keyboard-response,748,1780715,null,"",null,,,,,,,,
recall-period,749,1782476,6167.330000025686,"",,,,,,,,,wrath
html-keyboard-response,750,1782577,null,"",null,,,,,,,,
recall-period,751,1784806,5603.1649998622015,"",,,,,,,,,banker
html-keyboard-response,752,1784908,null,"",null,,,,,,,,
recall-period,753,1786988,8573.114999977406,"",,,,,,,,,coin
html-keyboard-response,754,1787097,null,"",null,,,,,,,,
recall-period,755,1788186,4201.279999862891,"",,,,,,,,,muffin
html-keyboard-response,756,1788300,null,"",null,,,,,,,,
recall-period,757,1791902,9810.00500015216,"",,,,,,,,,father
html-keyboard-response,758,1792004,null,"",null,,,,,,,,
recall-period,759,1852108,null,"",,,,,,,,,
html-keyboard-response,760,1852609,null,"Time's Up!",null,,,,,,,,
html-keyboard-response,761,1855086,2474.9099999899045,"<p> Good job! You responded correctly to 85% of the red squares.</p>
                  <p>Be sure to keep your accuracy above 80%</p>
                  <p>Press any key to continue the experiment. Thank you!</p>",32,,,,,,,,
html-keyboard-response,762,1856275,1188.2550000445917,"<div style=""font-size:48px;"">Press any key to begin list 9 of 24 </div>",32,,,,,,,,
html-keyboard-response,763,1858778,null,"<div style=""font-size:60px;"">+</div>",null,,,,,,,,
html-keyboard-response,764,1859280,null,"HORSE<img id = ""stim"" ><div class = red_square id = ""topsquare"" ></div><img id = ""stim"" ><div class = red_square  id = ""bottomsquare"" ></div>",null,word_square,response,1,Space,false,,,
html-keyboard-response,765,1860781,null,"HORSE",null,word,,,,, 'HORSE',,
html-keyboard-response,766,1861161,379.224999982398,"PARSLEY<img id = ""stim"" ><div class = red_square id = ""topsquare"" ></div><img id = ""stim"" ><div class = red_square  id = ""bottomsquare"" ></div>",32,word_square,response,1,Space,true,,,
html-keyboard-response,767,1862664,null,"PARSLEY",null,word,,,,, 'PARSLEY',,
html-keyboard-response,768,1863136,470.62500001629815,"CRAB<img id = ""stim"" ><div class = red_square id = ""topsquare"" ></div><img id = ""stim"" ><div class = red_square  id = ""bottomsquare"" ></div>",32,word_square,response,1,Space,true,,,
html-keyboard-response,769,1864637,null,"CRAB",null,word,,,,, 'CRAB',,
html-keyboard-response,770,1865139,null,"PLIERS<img id = ""stim"" ><div class = green_square id = ""topsquare"" ></div><img id = ""stim"" ><div class = green_square  id = ""bottomsquare"" ></div>",null,word_square,response,0,none,true,,,
html-keyboard-response,771,1866640,null,"PLIERS",null,word,,,,, 'PLIERS',,
html-keyboard-response,772,1867142,null,"SHEPHERD<img id = ""stim"" ><div class = green_square id = ""topsquare"" ></div><img id = ""stim"" ><div class = green_square  id = ""bottomsquare"" ></div>",null,word_square,response,0,none,true,,,
html-keyboard-response,773,1868644,null,"SHEPHERD",null,word,,,,, 'SHEPHERD',,
html-keyboard-response,774,1869145,null,"PLASTER<img id = ""stim"" ><div class = red_square id = ""topsquare"" ></div><img id = ""stim"" ><div class = red_square  id = ""bottomsquare"" ></div>",null,word_square,response,1,Space,false,,,
html-keyboard-response,775,1870648,null,"PLASTER",null,word,,,,, 'PLASTER',,
html-keyboard-response,776,1871150,null,"CEILING<img id = ""stim"" ><div class = green_square id = ""topsquare"" ></div><img id = ""stim"" ><div class = green_square  id = ""bottomsquare"" ></div>",null,word_square,response,0,none,true,,,
html-keyboard-response,777,1872653,null,"CEILING",null,word,,,,, 'CEILING',,
html-keyboard-response,778,1872991,337.4199999962002,"SNAKE<img id = ""stim"" ><div class = red_square id = ""topsquare"" ></div><img id = ""stim"" ><div class = red_square  id = ""bottomsquare"" ></div>",32,word_square,response,1,Space,true,,,
html-keyboard-response,779,1874494,null,"SNAKE",null,word,,,,, 'SNAKE',,
html-keyboard-response,780,1874995,null,"COBRA<img id = ""stim"" ><div class = green_square id = ""topsquare"" ></div><img id = ""stim"" ><div class = green_square  id = ""bottomsquare"" ></div>",null,word_square,response,0,none,true,,,
html-keyboard-response,781,1876498,null,"COBRA",null,word,,,,, 'COBRA',,
html-keyboard-response,782,1876878,379.1049999999814,"CHICKEN<img id = ""stim"" ><div class = red_square id = ""topsquare"" ></div><img id = ""stim"" ><div class = red_square  id = ""bottomsquare"" ></div>",32,word_square,response,1,Space,true,,,
html-keyboard-response,783,1878380,null,"CHICKEN",null,word,,,,, 'CHICKEN',,
html-keyboard-response,784,1878882,null,"BISON<img id = ""stim"" ><div class = green_square id = ""topsquare"" ></div><img id = ""stim"" ><div class = green_square  id = ""bottomsquare"" ></div>",null,word_square,response,0,none,true,,,
html-keyboard-response,785,1880385,null,"BISON",null,word,,,,, 'BISON',,
html-keyboard-response,786,1880886,null,"RUBY<img id = ""stim"" ><div class = red_square id = ""topsquare"" ></div><img id = ""stim"" ><div class = red_square  id = ""bottomsquare"" ></div>",null,word_square,response,1,Space,false,,,
html-keyboard-response,787,1882402,null,"RUBY",null,word,,,,, 'RUBY',,
html-keyboard-response,788,1882904,null,"GANGSTER<img id = ""stim"" ><div class = green_square id = ""topsquare"" ></div><img id = ""stim"" ><div class = green_square  id = ""bottomsquare"" ></div>",null,word_square,response,0,none,true,,,
html-keyboard-response,789,1884406,null,"GANGSTER",null,word,,,,, 'GANGSTER',,
html-keyboard-response,790,1884908,null,"BUSH<img id = ""stim"" ><div class = green_square id = ""topsquare"" ></div><img id = ""stim"" ><div class = green_square  id = ""bottomsquare"" ></div>",null,word_square,response,0,none,true,,,
html-keyboard-response,791,1886410,null,"BUSH",null,word,,,,, 'BUSH',,
html-keyboard-response,792,1886800,388.6499999789521,"WRENCH<img id = ""stim"" ><div class = red_square id = ""topsquare"" ></div><img id = ""stim"" ><div class = red_square  id = ""bottomsquare"" ></div>",32,word_square,response,1,Space,true,,,
html-keyboard-response,793,1888302,null,"WRENCH",null,word,,,,, 'WRENCH',,
html-keyboard-response,794,1888803,null,"LACE<img id = ""stim"" ><div class = green_square id = ""topsquare"" ></div><img id = ""stim"" ><div class = green_square  id = ""bottomsquare"" ></div>",null,word_square,response,0,none,true,,,
html-keyboard-response,795,1890305,null,"LACE",null,word,,,,, 'LACE',,
html-keyboard-response,796,1890806,null,"PRIEST<img id = ""stim"" ><div class = green_square id = ""topsquare"" ></div><img id = ""stim"" ><div class = green_square  id = ""bottomsquare"" ></div>",null,word_square,response,0,none,true,,,
html-keyboard-response,797,1892309,null,"PRIEST",null,word,,,,, 'PRIEST',,
html-keyboard-response,798,1892810,null,"SAUCER<img id = ""stim"" ><div class = red_square id = ""topsquare"" ></div><img id = ""stim"" ><div class = red_square  id = ""bottomsquare"" ></div>",null,word_square,response,1,Space,false,,,
html-keyboard-response,799,1894312,null,"SAUCER",null,word,,,,, 'SAUCER',,
call-function,800,1894313,,"",,,,,,,,,
html-keyboard-response,801,1894414,null,"",null,,,,,,,,
math-period,802,1896680,3824.8700000112876,"",,,,,,,,,4
html-keyboard-response,803,1896787,null,"",null,,,,,,,,
math-period,804,1898940,3803.29500004882,"",,,,,,,,,5
html-keyboard-response,805,1899041,null,"",null,,,,,,,,
math-period,806,1900427,2643.68999999715,"",,,,,,,,,4
html-keyboard-response,807,1900529,null,"",null,,,,,,,,
math-period,808,1902364,3529.0050000185147,"",,,,,,,,,1
html-keyboard-response,809,1902466,null,"",null,,,,,,,,
math-period,810,1904308,3467.30000001844,"",,,,,,,,,6
html-keyboard-response,811,1904410,null,"",null,,,,,,,,
math-period,812,1905701,2389.8250000202097,"",,,,,,,,,4
html-keyboard-response,813,1905803,null,"",null,,,,,,,,
math-period,814,1907480,3003.160000022035,"",,,,,,,,,1
html-keyboard-response,815,1907592,null,"",null,,,,,,,,
math-period,816,1908962,2353.369999967981,"",,,,,,,,,1
html-keyboard-response,817,1909063,null,"",null,,,,,,,,
math-period,818,1912855,7340.160000021569,"",,,,,,,,,0
html-keyboard-response,819,1912957,null,"",null,,,,,,,,
math-period,820,1914943,3856.6899999859743,"",,,,,,,,,1
html-keyboard-response,821,1915045,null,"",null,,,,,,,,
math-period,822,1917850,5397.294999973383,"",,,,,,,,,2
html-keyboard-response,823,1917951,null,"",null,,,,,,,,
math-period,824,1918315,null,"",,,,,,,,,
html-keyboard-response,825,1919316,null,"Recall Period!",null,,,,,,,,
call-function,826,1919316,,"",,,,,,,,,
html-keyboard-response,827,1919417,null,"",null,,,,,,,,
recall-period,828,1922479,12596.68500017142,"",,,,,,,,,gangsta
html-keyboard-response,829,1922583,null,"",null,,,,,,,,
recall-period,830,1923896,3357.900000119116,"",,,,,,,,,bush
html-keyboard-response,831,1924010,null,"",null,,,,,,,,
recall-period,832,1925488,5763.980000047013,"",,,,,,,,,wrench
html-keyboard-response,833,1925601,null,"",null,,,,,,,,
recall-period,834,1926881,5653.935000183992,"",,,,,,,,,priest
html-keyboard-response,835,1926982,null,"",null,,,,,,,,
recall-period,836,1928230,3902.2400000249036,"",,,,,,,,,snake
html-keyboard-response,837,1928332,null,"",null,,,,,,,,
recall-period,838,1930098,6240.300000063144,"",,,,,,,,,cobra
html-keyboard-response,839,1930200,null,"",null,,,,,,,,
recall-period,840,1931435,4574.055000150111,"",,,,,,,,,horse
html-keyboard-response,841,1931537,null,"",null,,,,,,,,
recall-period,842,1934621,9136.275000229944,"",,,,,,,,,parsley
html-keyboard-response,843,1934722,null,"",null,,,,,,,,
recall-period,844,1994318,null,"",,,,,,,,,
html-keyboard-response,845,1994820,null,"Time's Up!",null,,,,,,,,
html-keyboard-response,846,2000103,5282.7000000397675,"<p> Good job! You responded correctly to 84% of the red squares.</p>
                  <p>Be sure to keep your accuracy above 80%</p>
                  <p>Press any key to continue the experiment. Thank you!</p>",32,,,,,,,,
html-keyboard-response,847,2001368,1263.9600000111386,"<div style=""font-size:48px;"">Press any key to begin list 10 of 24 </div>",32,,,,,,,,
html-keyboard-response,848,2003871,null,"<div style=""font-size:60px;"">+</div>",null,,,,,,,,
html-keyboard-response,849,2004373,null,"JEEP<img id = ""stim"" ><div class = red_square id = ""topsquare"" ></div><img id = ""stim"" ><div class = red_square  id = ""bottomsquare"" ></div>",null,word_square,response,1,Space,false,,,
html-keyboard-response,850,2005876,null,"JEEP",null,word,,,,, 'JEEP',,
html-keyboard-response,851,2006319,442.1149999834597,"DWARF<img id = ""stim"" ><div class = red_square id = ""topsquare"" ></div><img id = ""stim"" ><div class = red_square  id = ""bottomsquare"" ></div>",32,word_square,response,1,Space,true,,,
html-keyboard-response,852,2007820,null,"DWARF",null,word,,,,, 'DWARF',,
html-keyboard-response,853,2008321,null,"CLOTHES<img id = ""stim"" ><div class = red_square id = ""topsquare"" ></div><img id = ""stim"" ><div class = red_square  id = ""bottomsquare"" ></div>",null,word_square,response,1,Space,false,,,
html-keyboard-response,854,2009824,null,"CLOTHES",null,word,,,,, 'CLOTHES',,
html-keyboard-response,855,2010326,null,"BLOUSE<img id = ""stim"" ><div class = green_square id = ""topsquare"" ></div><img id = ""stim"" ><div class = green_square  id = ""bottomsquare"" ></div>",null,word_square,response,0,none,true,,,
html-keyboard-response,856,2011827,null,"BLOUSE",null,word,,,,, 'BLOUSE',,
html-keyboard-response,857,2012328,null,"MUMMY<img id = ""stim"" ><div class = green_square id = ""topsquare"" ></div><img id = ""stim"" ><div class = green_square  id = ""bottomsquare"" ></div>",null,word_square,response,0,none,true,,,
html-keyboard-response,858,2013831,null,"MUMMY",null,word,,,,, 'MUMMY',,
html-keyboard-response,859,2014250,418.5050000087358,"CRYSTAL<img id = ""stim"" ><div class = red_square id = ""topsquare"" ></div><img id = ""stim"" ><div class = red_square  id = ""bottomsquare"" ></div>",32,word_square,response,1,Space,true,,,
html-keyboard-response,860,2015752,null,"CRYSTAL",null,word,,,,, 'CRYSTAL',,
html-keyboard-response,861,2016253,null,"KNUCKLE<img id = ""stim"" ><div class = green_square id = ""topsquare"" ></div><img id = ""stim"" ><div class = green_square  id = ""bottomsquare"" ></div>",null,word_square,response,0,none,true,,,
html-keyboard-response,862,2017756,null,"KNUCKLE",null,word,,,,, 'KNUCKLE',,
html-keyboard-response,863,2018163,405.2749999682419,"TOMBSTONE<img id = ""stim"" ><div class = red_square id = ""topsquare"" ></div><img id = ""stim"" ><div class = red_square  id = ""bottomsquare"" ></div>",32,word_square,response,1,Space,true,,,
html-keyboard-response,864,2019665,null,"TOMBSTONE",null,word,,,,, 'TOMBSTONE',,
html-keyboard-response,865,2020167,null,"MARROW<img id = ""stim"" ><div class = green_square id = ""topsquare"" ></div><img id = ""stim"" ><div class = green_square  id = ""bottomsquare"" ></div>",null,word_square,response,0,none,true,,,
html-keyboard-response,866,2021669,null,"MARROW",null,word,,,,, 'MARROW',,
html-keyboard-response,867,2022171,null,"SWATTER<img id = ""stim"" ><div class = red_square id = ""topsquare"" ></div><img id = ""stim"" ><div class = red_square  id = ""bottomsquare"" ></div>",null,word_square,response,1,Space,false,,,
html-keyboard-response,868,2023673,null,"SWATTER",null,word,,,,, 'SWATTER',,
html-keyboard-response,869,2024175,null,"CANVAS<img id = ""stim"" ><div class = green_square id = ""topsquare"" ></div><img id = ""stim"" ><div class = green_square  id = ""bottomsquare"" ></div>",null,word_square,response,0,none,true,,,
html-keyboard-response,870,2025677,null,"CANVAS",null,word,,,,, 'CANVAS',,
html-keyboard-response,871,2026113,435.56499999249354,"SUITE<img id = ""stim"" ><div class = red_square id = ""topsquare"" ></div><img id = ""stim"" ><div class = red_square  id = ""bottomsquare"" ></div>",32,word_square,response,1,Space,true,,,
html-keyboard-response,872,2027615,null,"SUITE",null,word,,,,, 'SUITE',,
html-keyboard-response,873,2028116,null,"QUEEN<img id = ""stim"" ><div class = green_square id = ""topsquare"" ></div><img id = ""stim"" ><div class = green_square  id = ""bottomsquare"" ></div>",null,word_square,response,0,none,true,,,
html-keyboard-response,874,2029618,null,"QUEEN",null,word,,,,, 'QUEEN',,
html-keyboard-response,875,2030124,null,"OMELET<img id = ""stim"" ><div class = green_square id = ""topsquare"" ></div><img id = ""stim"" ><div class = green_square  id = ""bottomsquare"" ></div>",null,word_square,response,0,none,true,,,
html-keyboard-response,876,2031627,null,"OMELET",null,word,,,,, 'OMELET',,
html-keyboard-response,877,2032129,null,"BACON<img id = ""stim"" ><div class = red_square id = ""topsquare"" ></div><img id = ""stim"" ><div class = red_square  id = ""bottomsquare"" ></div>",null,word_square,response,1,Space,false,,,
html-keyboard-response,878,2033630,null,"BACON",null,word,,,,, 'BACON',,
html-keyboard-response,879,2034132,null,"SWIMMER<img id = ""stim"" ><div class = green_square id = ""topsquare"" ></div><img id = ""stim"" ><div class = green_square  id = ""bottomsquare"" ></div>",null,word_square,response,0,none,true,,,
html-keyboard-response,880,2035634,null,"SWIMMER",null,word,,,,, 'SWIMMER',,
html-keyboard-response,881,2036136,null,"SWAMP<img id = ""stim"" ><div class = green_square id = ""topsquare"" ></div><img id = ""stim"" ><div class = green_square  id = ""bottomsquare"" ></div>",null,word_square,response,0,none,true,,,
html-keyboard-response,882,2037638,null,"SWAMP",null,word,,,,, 'SWAMP',,
html-keyboard-response,883,2038140,null,"BEAKER<img id = ""stim"" ><div class = red_square id = ""topsquare"" ></div><img id = ""stim"" ><div class = red_square  id = ""bottomsquare"" ></div>",null,word_square,response,1,Space,false,,,
html-keyboard-response,884,2039642,null,"BEAKER",null,word,,,,, 'BEAKER',,
call-function,885,2039643,,"",,,,,,,,,
html-keyboard-response,886,2039745,null,"",null,,,,,,,,
math-period,887,2041805,3840.064999938477,"",,,,,,,,,1
html-keyboard-response,888,2041906,null,"",null,,,,,,,,
math-period,889,2044774,6030.390000087209,"",,,,,,,,,3 
html-keyboard-response,890,2044876,null,"",null,,,,,,,,
math-period,891,2046148,2403.8350000046194,"",,,,,,,,,4
html-keyboard-response,892,2046250,null,"",null,,,,,,,,
math-period,893,2048652,4005.749999952968,"",,,,,,,,,6
html-keyboard-response,894,2048755,null,"",null,,,,,,,,
math-period,895,2052859,10629.98000002699,"",,,,,,,,,6 
html-keyboard-response,896,2052964,null,"",null,,,,,,,,
math-period,897,2054835,3580.1700000301935,"",,,,,,,,,6
html-keyboard-response,898,2054947,null,"",null,,,,,,,,
math-period,899,2058158,13102.15499997139,"",,,,,,,,,3
html-keyboard-response,900,2058265,null,"",null,,,,,,,,
math-period,901,2059760,2741.944999957923,"",,,,,,,,,1
html-keyboard-response,902,2059874,null,"",null,,,,,,,,
math-period,903,2062685,5370.715000026394,"",,,,,,,,,1
html-keyboard-response,904,2062792,null,"",null,,,,,,,,
math-period,905,2063645,null,"",,,,,,,,,
html-keyboard-response,906,2064647,null,"Recall Period!",null,,,,,,,,
call-function,907,2064647,,"",,,,,,,,,
html-keyboard-response,908,2064749,null,"",null,,,,,,,,
recall-period,909,2066926,11454.149999772198,"",,,,,,,,,crystal
html-keyboard-response,910,2067036,null,"",null,,,,,,,,
recall-period,911,2069073,12362.12000012165,"",,,,,,,,,tombstone
html-keyboard-response,912,2069186,null,"",null,,,,,,,,
recall-period,913,2071968,18216.234999825247,"",,,,,,,,,marrow
