trial_type,trial_index,time_elapsed,rt,stimulus,key_press,test_part,targ_cond,correct_response,word,responses
pavlovia,0,742,,"",,,,,,
external-html,1,1341160,1231680.5999999633,"",,,,,,
html-keyboard-response,2,1343616,2451.5900000697,"Welcome to the experiment. Press any key to begin.",32,,,,,
html-keyboard-response,3,1391152,47532.13499998674,"<p>You will see a list of words and colored squares in the following task.<p><p>Press the spacebar whenever you see a GREEN square.<p><p>Do not press a key if the square is RED<p><p>Press the spacebar to continue.</p>",32,,,,,
html-keyboard-response,4,1399435,7779.489999986254,"<p>Please try to remember as many of the words as you can, and try to think about the meaning of each word as it appears.<p><p>After the detection and encoding task you will be asked to solve some math problems for 24 seconds.<p> Please solve as many problems as you can in the time given. <p>",32,,,,,
html-keyboard-response,5,1405120,5183.485000045039,"After solving the math problems, you will be asked to type in as many words <p>from the previous list as you can remember for 75 seconds.<p> If you finish recalling before the 75 seconds are up,<p> just sit tight and try to think of any more words you could have missed. <p><p>We will begin with a brief practice session<p>Press the spacebar to begin the practice.</p>",32,,,,,
html-keyboard-response,6,1407628,null,"<div style=""font-size:60px;"">+</div>",null,,,,,
html-keyboard-response,7,1408133,null,"HAPPY<img id = ""stim"" ><div class = red_square id = ""topsquare"" ></div><img id = ""stim"" ><div class = red_square  id = ""bottomsquare"" ></div>",null,word_square,D,none,,
html-keyboard-response,8,1409636,null,"HAPPY",null,word,,,HAPPY,
html-keyboard-response,9,1409643,null,"COLD<img id = ""stim"" ><div class = green_square id = ""topsquare"" ></div><img id = ""stim"" ><div class = green_square  id = ""bottomsquare"" ></div>",null,word_square,T,SPACEBAR,,
html-keyboard-response,10,1411145,null,"COLD",null,word,,,COLD,
html-keyboard-response,11,1411153,null,"HEAVY<img id = ""stim"" ><div class = green_square id = ""topsquare"" ></div><img id = ""stim"" ><div class = green_square  id = ""bottomsquare"" ></div>",null,word_square,T,SPACEBAR,,
html-keyboard-response,12,1412656,null,"HEAVY",null,word,,,HEAVY,
html-keyboard-response,13,1413161,null,"FUNNY<img id = ""stim"" ><div class = red_square id = ""topsquare"" ></div><img id = ""stim"" ><div class = red_square  id = ""bottomsquare"" ></div>",null,word_square,D,none,,
html-keyboard-response,14,1414664,null,"FUNNY",null,word,,,FUNNY,
html-keyboard-response,15,1414672,null,"SCARY<img id = ""stim"" ><div class = green_square id = ""topsquare"" ></div><img id = ""stim"" ><div class = green_square  id = ""bottomsquare"" ></div>",null,word_square,T,SPACEBAR,,
html-keyboard-response,16,1416175,null,"SCARY",null,word,,,SCARY,
html-keyboard-response,17,1416183,null,"PEACEFUL<img id = ""stim"" ><div class = green_square id = ""topsquare"" ></div><img id = ""stim"" ><div class = green_square  id = ""bottomsquare"" ></div>",null,word_square,T,SPACEBAR,,
html-keyboard-response,18,1417687,null,"PEACEFUL",null,word,,,PEACEFUL,
html-keyboard-response,19,1418190,null,"LITTLE<img id = ""stim"" ><div class = red_square id = ""topsquare"" ></div><img id = ""stim"" ><div class = red_square  id = ""bottomsquare"" ></div>",null,word_square,D,none,,
html-keyboard-response,20,1419696,null,"LITTLE",null,word,,,LITTLE,
html-keyboard-response,21,1420201,null,"TIRED<img id = ""stim"" ><div class = red_square id = ""topsquare"" ></div><img id = ""stim"" ><div class = red_square  id = ""bottomsquare"" ></div>",null,word_square,D,none,,
html-keyboard-response,22,1421705,null,"TIRED",null,word,,,TIRED,
html-keyboard-response,23,1422210,null,"ENTERTAINING<img id = ""stim"" ><div class = red_square id = ""topsquare"" ></div><img id = ""stim"" ><div class = red_square  id = ""bottomsquare"" ></div>",null,word_square,D,none,,
html-keyboard-response,24,1423714,null,"ENTERTAINING",null,word,,,ENTERTAINING,
html-keyboard-response,25,1423721,null,"GRATEFUL<img id = ""stim"" ><div class = green_square id = ""topsquare"" ></div><img id = ""stim"" ><div class = green_square  id = ""bottomsquare"" ></div>",null,word_square,T,SPACEBAR,,
html-keyboard-response,26,1425223,null,"GRATEFUL",null,word,,,GRATEFUL,
html-keyboard-response,27,1425725,null,"LOUD<img id = ""stim"" ><div class = red_square id = ""topsquare"" ></div><img id = ""stim"" ><div class = red_square  id = ""bottomsquare"" ></div>",null,word_square,D,none,,
html-keyboard-response,28,1427230,null,"LOUD",null,word,,,LOUD,
html-keyboard-response,29,1427237,null,"SMART<img id = ""stim"" ><div class = green_square id = ""topsquare"" ></div><img id = ""stim"" ><div class = green_square  id = ""bottomsquare"" ></div>",null,word_square,T,SPACEBAR,,
html-keyboard-response,30,1428741,null,"SMART",null,word,,,SMART,
html-keyboard-response,31,1428747,null,"SMOOTH<img id = ""stim"" ><div class = green_square id = ""topsquare"" ></div><img id = ""stim"" ><div class = green_square  id = ""bottomsquare"" ></div>",null,word_square,T,SPACEBAR,,
html-keyboard-response,32,1430250,null,"SMOOTH",null,word,,,SMOOTH,
html-keyboard-response,33,1430752,null,"DISHONEST<img id = ""stim"" ><div class = red_square id = ""topsquare"" ></div><img id = ""stim"" ><div class = red_square  id = ""bottomsquare"" ></div>",null,word_square,D,none,,
html-keyboard-response,34,1432256,null,"DISHONEST",null,word,,,DISHONEST,
html-keyboard-response,35,1432263,null,"WEALTHY<img id = ""stim"" ><div class = green_square id = ""topsquare"" ></div><img id = ""stim"" ><div class = green_square  id = ""bottomsquare"" ></div>",null,word_square,T,SPACEBAR,,
html-keyboard-response,36,1433767,null,"WEALTHY",null,word,,,WEALTHY,
html-keyboard-response,37,1434273,null,"BEAUTIFUL<img id = ""stim"" ><div class = red_square id = ""topsquare"" ></div><img id = ""stim"" ><div class = red_square  id = ""bottomsquare"" ></div>",null,word_square,D,none,,
html-keyboard-response,38,1435775,null,"BEAUTIFUL",null,word,,,BEAUTIFUL,
html-keyboard-response,39,1436280,null,"DREARY<img id = ""stim"" ><div class = red_square id = ""topsquare"" ></div><img id = ""stim"" ><div class = red_square  id = ""bottomsquare"" ></div>",null,word_square,D,none,,
html-keyboard-response,40,1437783,null,"DREARY",null,word,,,DREARY,
html-keyboard-response,41,1438285,null,"PLAYFUL<img id = ""stim"" ><div class = red_square id = ""topsquare"" ></div><img id = ""stim"" ><div class = red_square  id = ""bottomsquare"" ></div>",null,word_square,D,none,,
html-keyboard-response,42,1439789,null,"PLAYFUL",null,word,,,PLAYFUL,
survey-text,43,1444680,4881.114999996498,"",,,,,,{"Q0":"1"}
survey-text,44,1447488,2801.6650000354275,"",,,,,,{"Q0":"2"}
survey-text,45,1449965,2471.7749999836087,"",,,,,,{"Q0":"4"}
survey-text,46,1452029,2059.804999968037,"",,,,,,{"Q0":"6"}
survey-text,47,1453955,1920.9349999437109,"",,,,,,{"Q0":"5"}
survey-text,48,1456132,2172.2549999831244,"",,,,,,{"Q0":"1"}
survey-text,49,1459029,2891.9600000372157,"",,,,,,{"Q0":"2"}
survey-text,50,1461029,1995.6100000999868,"",,,,,,{"Q0":"4"}
survey-text,51,1462840,1806.1000000452623,"",,,,,,{"Q0":"3"}
survey-text,52,1465398,2553.095000097528,"",,,,,,{"Q0":"2"}
survey-text,53,1471820,6416.520000086166,"",,,,,,{"Q0":"dreary"}
survey-text,54,1477218,5393.040000111796,"",,,,,,{"Q0":"grateful"}
survey-text,55,1479636,2411.634999909438,"",,,,,,{"Q0":"beautiful"}
survey-text,56,1486021,6379.53000003472,"",,,,,,{"Q0":"dishonest"}
survey-text,57,1501796,15769.205000018701,"",,,,,,{"Q0":"dreary "}
survey-text,58,1507616,5814.239999977872,"",,,,,,{"Q0":"dreary"}
survey-text,59,1513351,5730.260000098497,"",,,,,,{"Q0":"grateful"}
survey-text,60,1515797,2441.3100000238046,"",,,,,,{"Q0":"beautiful"}
survey-text,61,1520959,5156.87499998603,"",,,,,,{"Q0":"dishonest"}
survey-text,62,1577933,56967.949999962,"",,,,,,{"Q0":"dreary"}
html-keyboard-response,63,1587488,9552.925000083633,"<p>We will now begin the experiment!<p><p>Please try to remember all words from each list.<p><p>Press the spacebar whenever you see a GREEN square.<p><p><p><p>Press the spacebar to begin.</p>",32,,,,,
html-keyboard-response,64,1590293,2303.0649999855086,"<div style=""font-size:48px;"">Press any key to begin list 1 of 24 </div>",32,,,,,
html-keyboard-response,65,1592795,null,"<div style=""font-size:60px;"">+</div>",null,,,,,
html-keyboard-response,66,1593300,null,"SKETCH<img id = ""stim"" ><div class = red_square id = ""topsquare"" ></div><img id = ""stim"" ><div class = red_square  id = ""bottomsquare"" ></div>",null,word_square,0,SPACEBAR,,
html-keyboard-response,67,1594803,null,"SKETCH",null,word,,, 'SKETCH',
html-keyboard-response,68,1595308,null,"FROG<img id = ""stim"" ><div class = red_square id = ""topsquare"" ></div><img id = ""stim"" ><div class = red_square  id = ""bottomsquare"" ></div>",null,word_square,0,SPACEBAR,,
html-keyboard-response,69,1596813,null,"FROG",null,word,,, 'FROG',
html-keyboard-response,70,1597317,null,"COLUMN<img id = ""stim"" ><div class = green_square id = ""topsquare"" ></div><img id = ""stim"" ><div class = green_square  id = ""bottomsquare"" ></div>",null,word_square,1,SPACEBAR,,
html-keyboard-response,71,1598820,null,"COLUMN",null,word,,, 'COLUMN',
html-keyboard-response,72,1599326,null,"PARENT<img id = ""stim"" ><div class = red_square id = ""topsquare"" ></div><img id = ""stim"" ><div class = red_square  id = ""bottomsquare"" ></div>",null,word_square,0,SPACEBAR,,
html-keyboard-response,73,1600828,null,"PARENT",null,word,,, 'PARENT',
html-keyboard-response,74,1601334,null,"OUTLAW<img id = ""stim"" ><div class = red_square id = ""topsquare"" ></div><img id = ""stim"" ><div class = red_square  id = ""bottomsquare"" ></div>",null,word_square,0,SPACEBAR,,
html-keyboard-response,75,1602836,null,"OUTLAW",null,word,,, 'OUTLAW',
html-keyboard-response,76,1603340,null,"NEUTRON<img id = ""stim"" ><div class = green_square id = ""topsquare"" ></div><img id = ""stim"" ><div class = green_square  id = ""bottomsquare"" ></div>",null,word_square,1,SPACEBAR,,
html-keyboard-response,77,1604846,null,"NEUTRON",null,word,,, 'NEUTRON',
html-keyboard-response,78,1605351,null,"MATCH<img id = ""stim"" ><div class = red_square id = ""topsquare"" ></div><img id = ""stim"" ><div class = red_square  id = ""bottomsquare"" ></div>",null,word_square,0,SPACEBAR,,
html-keyboard-response,79,1606854,null,"MATCH",null,word,,, 'MATCH',
html-keyboard-response,80,1607360,null,"KEEPER<img id = ""stim"" ><div class = red_square id = ""topsquare"" ></div><img id = ""stim"" ><div class = red_square  id = ""bottomsquare"" ></div>",null,word_square,0,SPACEBAR,,
html-keyboard-response,81,1608864,null,"KEEPER",null,word,,, 'KEEPER',
html-keyboard-response,82,1609305,440.0300000561401,"SALT<img id = ""stim"" ><div class = green_square id = ""topsquare"" ></div><img id = ""stim"" ><div class = green_square  id = ""bottomsquare"" ></div>",32,word_square,1,SPACEBAR,,
html-keyboard-response,83,1610811,null,"SALT",null,word,,, 'SALT',
html-keyboard-response,84,1611313,null,"POND<img id = ""stim"" ><div class = red_square id = ""topsquare"" ></div><img id = ""stim"" ><div class = red_square  id = ""bottomsquare"" ></div>",null,word_square,0,SPACEBAR,,
html-keyboard-response,85,1612817,null,"POND",null,word,,, 'POND',
html-keyboard-response,86,1613322,null,"CANYON<img id = ""stim"" ><div class = green_square id = ""topsquare"" ></div><img id = ""stim"" ><div class = green_square  id = ""bottomsquare"" ></div>",null,word_square,1,SPACEBAR,,
html-keyboard-response,87,1614825,null,"CANYON",null,word,,, 'CANYON',
html-keyboard-response,88,1615330,null,"SLOPE<img id = ""stim"" ><div class = green_square id = ""topsquare"" ></div><img id = ""stim"" ><div class = green_square  id = ""bottomsquare"" ></div>",null,word_square,1,SPACEBAR,,
html-keyboard-response,89,1616835,null,"SLOPE",null,word,,, 'SLOPE',
html-keyboard-response,90,1617339,null,"CIRCUS<img id = ""stim"" ><div class = red_square id = ""topsquare"" ></div><img id = ""stim"" ><div class = red_square  id = ""bottomsquare"" ></div>",null,word_square,0,SPACEBAR,,
html-keyboard-response,91,1618841,null,"CIRCUS",null,word,,, 'CIRCUS',
html-keyboard-response,92,1619249,406.83999995235354,"WITNESS<img id = ""stim"" ><div class = green_square id = ""topsquare"" ></div><img id = ""stim"" ><div class = green_square  id = ""bottomsquare"" ></div>",32,word_square,1,SPACEBAR,,
html-keyboard-response,93,1620753,null,"WITNESS",null,word,,, 'WITNESS',
html-keyboard-response,94,1621195,441.04499998502433,"PLANT<img id = ""stim"" ><div class = green_square id = ""topsquare"" ></div><img id = ""stim"" ><div class = green_square  id = ""bottomsquare"" ></div>",32,word_square,1,SPACEBAR,,
html-keyboard-response,95,1622698,null,"PLANT",null,word,,, 'PLANT',
html-keyboard-response,96,1623201,502.00500001665205,"BUNNY<img id = ""stim"" ><div class = green_square id = ""topsquare"" ></div><img id = ""stim"" ><div class = green_square  id = ""bottomsquare"" ></div>",32,word_square,1,SPACEBAR,,
html-keyboard-response,97,1624704,null,"BUNNY",null,word,,, 'BUNNY',
html-keyboard-response,98,1625211,null,"BOULDER<img id = ""stim"" ><div class = red_square id = ""topsquare"" ></div><img id = ""stim"" ><div class = red_square  id = ""bottomsquare"" ></div>",null,word_square,0,SPACEBAR,,
html-keyboard-response,99,1626714,null,"BOULDER",null,word,,, 'BOULDER',
html-keyboard-response,100,1627220,null,"PLIERS<img id = ""stim"" ><div class = green_square id = ""topsquare"" ></div><img id = ""stim"" ><div class = green_square  id = ""bottomsquare"" ></div>",null,word_square,1,SPACEBAR,,
html-keyboard-response,101,1628723,null,"PLIERS",null,word,,, 'PLIERS',
survey-text,102,1632633,3905.7999999495223,"",,,,,,{"Q0":"1"}
survey-text,103,1637165,4526.430000085384,"",,,,,,{"Q0":"3"}
survey-text,104,1638707,1538.0850000074133,"",,,,,,{"Q0":"4"}
survey-text,105,1640076,1364.0550000127405,"",,,,,,{"Q0":"2"}
survey-text,106,1641590,1508.7200000416487,"",,,,,,{"Q0":"3"}
survey-text,107,1643281,1687.199999927543,"",,,,,,{"Q0":"2"}
survey-text,108,1644594,1307.8499999828637,"",,,,,,{"Q0":"3"}
survey-text,109,1646406,1807.5550000648946,"",,,,,,{"Q0":"2"}
survey-text,110,1647752,1341.855000006035,"",,,,,,{"Q0":"4"}
survey-text,111,1649874,2116.8300000717863,"",,,,,,{"Q0":"2"}
survey-text,112,1653232,3352.6850000489503,"",,,,,,{"Q0":"2"}
survey-text,113,1657917,4680.105000035837,"",,,,,,{"Q0":"pond"}
survey-text,114,1658771,847.9749999241903,"",,,,,,{"Q0":"salt"}
survey-text,115,1663025,4249.3150000227615,"",,,,,,{"Q0":"column"}
survey-text,116,1667212,4181.7149999551475,"",,,,,,{"Q0":"witnes"}
survey-text,117,1672371,5152.914999984205,"",,,,,,{"Q0":"frog"}
survey-text,118,1678466,6089.819999993779,"",,,,,,{"Q0":"canyon"}
survey-text,119,1789488,111006.36500003748,"",,,,,,{"Q0":"pond"}
html-keyboard-response,120,1793631,4141.8099999427795,"<div style=""font-size:48px;"">Press any key to begin list 2 of 24 </div>",32,,,,,
html-keyboard-response,121,1796133,null,"<div style=""font-size:60px;"">+</div>",null,,,,,
html-keyboard-response,122,1796637,null,"WORKER<img id = ""stim"" ><div class = red_square id = ""topsquare"" ></div><img id = ""stim"" ><div class = red_square  id = ""bottomsquare"" ></div>",null,word_square,0,SPACEBAR,,
html-keyboard-response,123,1798142,null,"WORKER",null,word,,, 'WORKER',
html-keyboard-response,124,1798647,null,"POPCORN<img id = ""stim"" ><div class = red_square id = ""topsquare"" ></div><img id = ""stim"" ><div class = red_square  id = ""bottomsquare"" ></div>",null,word_square,0,SPACEBAR,,
html-keyboard-response,125,1800150,null,"POPCORN",null,word,,, 'POPCORN',
html-keyboard-response,126,1800531,379.3049999512732,"COCOON<img id = ""stim"" ><div class = green_square id = ""topsquare"" ></div><img id = ""stim"" ><div class = green_square  id = ""bottomsquare"" ></div>",32,word_square,1,SPACEBAR,,
html-keyboard-response,127,1802034,null,"COCOON",null,word,,, 'COCOON',
html-keyboard-response,128,1802536,null,"SMOG<img id = ""stim"" ><div class = red_square id = ""topsquare"" ></div><img id = ""stim"" ><div class = red_square  id = ""bottomsquare"" ></div>",null,word_square,0,SPACEBAR,,
html-keyboard-response,129,1804040,null,"SMOG",null,word,,, 'SMOG',
html-keyboard-response,130,1804542,null,"ANCHOR<img id = ""stim"" ><div class = red_square id = ""topsquare"" ></div><img id = ""stim"" ><div class = red_square  id = ""bottomsquare"" ></div>",null,word_square,0,SPACEBAR,,
html-keyboard-response,131,1806048,null,"ANCHOR",null,word,,, 'ANCHOR',
html-keyboard-response,132,1806553,null,"DAGGER<img id = ""stim"" ><div class = green_square id = ""topsquare"" ></div><img id = ""stim"" ><div class = green_square  id = ""bottomsquare"" ></div>",null,word_square,1,SPACEBAR,,
html-keyboard-response,133,1808057,null,"DAGGER",null,word,,, 'DAGGER',
html-keyboard-response,134,1808562,null,"BODY<img id = ""stim"" ><div class = red_square id = ""topsquare"" ></div><img id = ""stim"" ><div class = red_square  id = ""bottomsquare"" ></div>",null,word_square,0,SPACEBAR,,
html-keyboard-response,135,1810066,null,"BODY",null,word,,, 'BODY',
html-keyboard-response,136,1810571,null,"PEBBLE<img id = ""stim"" ><div class = red_square id = ""topsquare"" ></div><img id = ""stim"" ><div class = red_square  id = ""bottomsquare"" ></div>",null,word_square,0,SPACEBAR,,
html-keyboard-response,137,1812073,null,"PEBBLE",null,word,,, 'PEBBLE',
html-keyboard-response,138,1812579,null,"SHERIFF<img id = ""stim"" ><div class = green_square id = ""topsquare"" ></div><img id = ""stim"" ><div class = green_square  id = ""bottomsquare"" ></div>",null,word_square,1,SPACEBAR,,
html-keyboard-response,139,1814083,null,"SHERIFF",null,word,,, 'SHERIFF',
html-keyboard-response,140,1814588,null,"PARTY<img id = ""stim"" ><div class = red_square id = ""topsquare"" ></div><img id = ""stim"" ><div class = red_square  id = ""bottomsquare"" ></div>",null,word_square,0,SPACEBAR,,
html-keyboard-response,141,1816091,null,"PARTY",null,word,,, 'PARTY',
html-keyboard-response,142,1816596,null,"STONE<img id = ""stim"" ><div class = green_square id = ""topsquare"" ></div><img id = ""stim"" ><div class = green_square  id = ""bottomsquare"" ></div>",null,word_square,1,SPACEBAR,,
html-keyboard-response,143,1818100,null,"STONE",null,word,,, 'STONE',
html-keyboard-response,144,1818605,null,"FRECKLE<img id = ""stim"" ><div class = green_square id = ""topsquare"" ></div><img id = ""stim"" ><div class = green_square  id = ""bottomsquare"" ></div>",null,word_square,1,SPACEBAR,,
html-keyboard-response,145,1820109,null,"FRECKLE",null,word,,, 'FRECKLE',
html-keyboard-response,146,1820614,null,"FOREHEAD<img id = ""stim"" ><div class = red_square id = ""topsquare"" ></div><img id = ""stim"" ><div class = red_square  id = ""bottomsquare"" ></div>",null,word_square,0,SPACEBAR,,
html-keyboard-response,147,1822117,null,"FOREHEAD",null,word,,, 'FOREHEAD',
html-keyboard-response,148,1822622,null,"WOLF<img id = ""stim"" ><div class = green_square id = ""topsquare"" ></div><img id = ""stim"" ><div class = green_square  id = ""bottomsquare"" ></div>",null,word_square,1,SPACEBAR,,
html-keyboard-response,149,1824126,null,"WOLF",null,word,,, 'WOLF',
html-keyboard-response,150,1824631,null,"RELISH<img id = ""stim"" ><div class = green_square id = ""topsquare"" ></div><img id = ""stim"" ><div class = green_square  id = ""bottomsquare"" ></div>",null,word_square,1,SPACEBAR,,
html-keyboard-response,151,1826138,null,"RELISH",null,word,,, 'RELISH',
html-keyboard-response,152,1826639,null,"CREVICE<img id = ""stim"" ><div class = green_square id = ""topsquare"" ></div><img id = ""stim"" ><div class = green_square  id = ""bottomsquare"" ></div>",null,word_square,1,SPACEBAR,,
html-keyboard-response,153,1828143,null,"CREVICE",null,word,,, 'CREVICE',
html-keyboard-response,154,1828648,null,"TYPIST<img id = ""stim"" ><div class = red_square id = ""topsquare"" ></div><img id = ""stim"" ><div class = red_square  id = ""bottomsquare"" ></div>",null,word_square,0,SPACEBAR,,
html-keyboard-response,155,1830150,null,"TYPIST",null,word,,, 'TYPIST',
html-keyboard-response,156,1830651,null,"BLOCKADE<img id = ""stim"" ><div class = green_square id = ""topsquare"" ></div><img id = ""stim"" ><div class = green_square  id = ""bottomsquare"" ></div>",null,word_square,1,SPACEBAR,,
html-keyboard-response,157,1832154,null,"BLOCKADE",null,word,,, 'BLOCKADE',
survey-text,158,1837841,5682.230000034906,"",,,,,,{"Q0":"2"}
survey-text,159,1839151,1303.2949999906123,"",,,,,,{"Q0":"4"}
survey-text,160,1843125,3968.5600000666454,"",,,,,,{"Q0":"3"}
survey-text,161,1844633,1504.3600000208244,"",,,,,,{"Q0":"6"}
survey-text,162,1845913,1274.3400000035763,"",,,,,,{"Q0":"1"}
survey-text,163,1847459,1540.8700000261888,"",,,,,,{"Q0":"1"}
survey-text,164,1849168,1704.135000007227,"",,,,,,{"Q0":"5"}
survey-text,165,1850338,1164.9500000057742,"",,,,,,{"Q0":"2"}
survey-text,166,1851977,1634.1749998973683,"",,,,,,{"Q0":"1"}
survey-text,167,1853132,1150.3550000488758,"",,,,,,{"Q0":"3"}
survey-text,168,1855581,2444.0349999349564,"",,,,,,{"Q0":"5"}
survey-text,169,1859577,3991.32999998983,"",,,,,,{"Q0":"4"}
survey-text,170,1864950,5366.314999992028,"",,,,,,{"Q0":"smog"}
survey-text,171,1867615,2659.0350000187755,"",,,,,,{"Q0":"popcorn"}
survey-text,172,1868677,1056.8249999778345,"",,,,,,{"Q0":"anchor"}
survey-text,173,1895442,26760.149999987334,"",,,,,,{"Q0":"penthouse"}
survey-text,174,1959299,63850.42499995325,"",,,,,,{"Q0":"smog"}
html-keyboard-response,175,1968356,9055.730000021867,"<div style=""font-size:48px;"">Press any key to begin list 3 of 24 </div>",32,,,,,
html-keyboard-response,176,1970862,null,"<div style=""font-size:60px;"">+</div>",null,,,,,
html-keyboard-response,177,1971368,null,"PRINCESS<img id = ""stim"" ><div class = green_square id = ""topsquare"" ></div><img id = ""stim"" ><div class = green_square  id = ""bottomsquare"" ></div>",null,word_square,1,SPACEBAR,,
html-keyboard-response,178,1972870,null,"PRINCESS",null,word,,, 'PRINCESS',
html-keyboard-response,179,1973374,null,"COFFIN<img id = ""stim"" ><div class = green_square id = ""topsquare"" ></div><img id = ""stim"" ><div class = green_square  id = ""bottomsquare"" ></div>",null,word_square,1,SPACEBAR,,
html-keyboard-response,180,1974877,null,"COFFIN",null,word,,, 'COFFIN',
html-keyboard-response,181,1975379,null,"LEOPARD<img id = ""stim"" ><div class = red_square id = ""topsquare"" ></div><img id = ""stim"" ><div class = red_square  id = ""bottomsquare"" ></div>",null,word_square,0,SPACEBAR,,
html-keyboard-response,182,1976886,null,"LEOPARD",null,word,,, 'LEOPARD',
html-keyboard-response,183,1977389,null,"BEAVER<img id = ""stim"" ><div class = green_square id = ""topsquare"" ></div><img id = ""stim"" ><div class = green_square  id = ""bottomsquare"" ></div>",null,word_square,1,SPACEBAR,,
html-keyboard-response,184,1978892,null,"BEAVER",null,word,,, 'BEAVER',
html-keyboard-response,185,1979396,null,"SWIMMER<img id = ""stim"" ><div class = green_square id = ""topsquare"" ></div><img id = ""stim"" ><div class = green_square  id = ""bottomsquare"" ></div>",null,word_square,1,SPACEBAR,,
html-keyboard-response,186,1980900,null,"SWIMMER",null,word,,, 'SWIMMER',
html-keyboard-response,187,1981403,null,"CRICKET<img id = ""stim"" ><div class = red_square id = ""topsquare"" ></div><img id = ""stim"" ><div class = red_square  id = ""bottomsquare"" ></div>",null,word_square,0,SPACEBAR,,
html-keyboard-response,188,1982909,null,"CRICKET",null,word,,, 'CRICKET',
html-keyboard-response,189,1983414,null,"LACE<img id = ""stim"" ><div class = green_square id = ""topsquare"" ></div><img id = ""stim"" ><div class = green_square  id = ""bottomsquare"" ></div>",null,word_square,1,SPACEBAR,,
html-keyboard-response,190,1984917,null,"LACE",null,word,,, 'LACE',
html-keyboard-response,191,1985422,null,"DRESS<img id = ""stim"" ><div class = green_square id = ""topsquare"" ></div><img id = ""stim"" ><div class = green_square  id = ""bottomsquare"" ></div>",null,word_square,1,SPACEBAR,,
html-keyboard-response,192,1986926,null,"DRESS",null,word,,, 'DRESS',
html-keyboard-response,193,1987429,null,"SPINACH<img id = ""stim"" ><div class = red_square id = ""topsquare"" ></div><img id = ""stim"" ><div class = red_square  id = ""bottomsquare"" ></div>",null,word_square,0,SPACEBAR,,
html-keyboard-response,194,1988935,null,"SPINACH",null,word,,, 'SPINACH',
html-keyboard-response,195,1989439,null,"FLIPPER<img id = ""stim"" ><div class = green_square id = ""topsquare"" ></div><img id = ""stim"" ><div class = green_square  id = ""bottomsquare"" ></div>",null,word_square,1,SPACEBAR,,
html-keyboard-response,196,1990943,null,"FLIPPER",null,word,,, 'FLIPPER',
html-keyboard-response,197,1991448,null,"QUEEN<img id = ""stim"" ><div class = red_square id = ""topsquare"" ></div><img id = ""stim"" ><div class = red_square  id = ""bottomsquare"" ></div>",null,word_square,0,SPACEBAR,,
html-keyboard-response,198,1992952,null,"QUEEN",null,word,,, 'QUEEN',
html-keyboard-response,199,1993455,null,"EARRING<img id = ""stim"" ><div class = red_square id = ""topsquare"" ></div><img id = ""stim"" ><div class = red_square  id = ""bottomsquare"" ></div>",null,word_square,0,SPACEBAR,,
html-keyboard-response,200,1994957,null,"EARRING",null,word,,, 'EARRING',
html-keyboard-response,201,1995459,null,"MACHINE<img id = ""stim"" ><div class = green_square id = ""topsquare"" ></div><img id = ""stim"" ><div class = green_square  id = ""bottomsquare"" ></div>",null,word_square,1,SPACEBAR,,
html-keyboard-response,202,1996963,null,"MACHINE",null,word,,, 'MACHINE',
html-keyboard-response,203,1997468,null,"PAPER<img id = ""stim"" ><div class = red_square id = ""topsquare"" ></div><img id = ""stim"" ><div class = red_square  id = ""bottomsquare"" ></div>",null,word_square,0,SPACEBAR,,
html-keyboard-response,204,1998971,null,"PAPER",null,word,,, 'PAPER',
html-keyboard-response,205,1999476,null,"MISSILE<img id = ""stim"" ><div class = red_square id = ""topsquare"" ></div><img id = ""stim"" ><div class = red_square  id = ""bottomsquare"" ></div>",null,word_square,0,SPACEBAR,,
html-keyboard-response,206,2000979,null,"MISSILE",null,word,,, 'MISSILE',
html-keyboard-response,207,2001485,null,"SHRUB<img id = ""stim"" ><div class = red_square id = ""topsquare"" ></div><img id = ""stim"" ><div class = red_square  id = ""bottomsquare"" ></div>",null,word_square,0,SPACEBAR,,
html-keyboard-response,208,2002988,null,"SHRUB",null,word,,, 'SHRUB',
html-keyboard-response,209,2003494,null,"RULER<img id = ""stim"" ><div class = green_square id = ""topsquare"" ></div><img id = ""stim"" ><div class = green_square  id = ""bottomsquare"" ></div>",null,word_square,1,SPACEBAR,,
html-keyboard-response,210,2004997,null,"RULER",null,word,,, 'RULER',
html-keyboard-response,211,2005502,null,"HORNET<img id = ""stim"" ><div class = red_square id = ""topsquare"" ></div><img id = ""stim"" ><div class = red_square  id = ""bottomsquare"" ></div>",null,word_square,0,SPACEBAR,,
html-keyboard-response,212,2007005,null,"HORNET",null,word,,, 'HORNET',
survey-text,213,2013520,6511.609999928623,"",,,,,,{"Q0":"2"}
survey-text,214,2015366,1841.0050000529736,"",,,,,,{"Q0":"1"}
survey-text,215,2016842,1470.2749999705702,"",,,,,,{"Q0":"4"}
survey-text,216,2018373,1526.56000002753,"",,,,,,{"Q0":"1"}
survey-text,217,2019428,1049.9300000956282,"",,,,,,{"Q0":"4"}
survey-text,218,2023804,4370.779999997467,"",,,,,,{"Q0":"0"}
survey-text,219,2025707,1897.9899999685585,"",,,,,,{"Q0":"4"}
survey-text,220,2027998,2285.93999997247,"",,,,,,{"Q0":"1"}
survey-text,221,2030520,2517.0599999837577,"",,,,,,{"Q0":"3"}
survey-text,222,2031546,1021.4599999599159,"",,,,,,{"Q0":"4"}
survey-text,223,2035587,4035.6449999380857,"",,,,,,{"Q0":"princess"}
survey-text,224,2040459,4866.309999953955,"",,,,,,{"Q0":"coffin"}
survey-text,225,2042113,1648.185000056401,"",,,,,,{"Q0":"missle"}
survey-text,226,2077093,34974.96999998111,"",,,,,,{"Q0":"penthouse"}
survey-text,227,2114107,37007.02999997884,"",,,,,,{"Q0":"princess"}
html-keyboard-response,228,2114751,642.3949999734759,"<div style=""font-size:48px;"">Press any key to begin list 4 of 24 </div>",13,,,,,
html-keyboard-response,229,2117257,null,"<div style=""font-size:60px;"">+</div>",null,,,,,
html-keyboard-response,230,2117379,119.82500005979091,"ELK<img id = ""stim"" ><div class = green_square id = ""topsquare"" ></div><img id = ""stim"" ><div class = green_square  id = ""bottomsquare"" ></div>",13,word_square,1,SPACEBAR,,
html-keyboard-response,231,2118883,null,"ELK",null,word,,, 'ELK',
html-keyboard-response,232,2119299,414.1799999633804,"LEADER<img id = ""stim"" ><div class = green_square id = ""topsquare"" ></div><img id = ""stim"" ><div class = green_square  id = ""bottomsquare"" ></div>",32,word_square,1,SPACEBAR,,
html-keyboard-response,233,2120805,null,"LEADER",null,word,,, 'LEADER',
html-keyboard-response,234,2121307,null,"SODA<img id = ""stim"" ><div class = red_square id = ""topsquare"" ></div><img id = ""stim"" ><div class = red_square  id = ""bottomsquare"" ></div>",null,word_square,0,SPACEBAR,,
html-keyboard-response,235,2122813,null,"SODA",null,word,,, 'SODA',
html-keyboard-response,236,2123276,461.04999992530793,"JOINT<img id = ""stim"" ><div class = green_square id = ""topsquare"" ></div><img id = ""stim"" ><div class = green_square  id = ""bottomsquare"" ></div>",32,word_square,1,SPACEBAR,,
html-keyboard-response,237,2124781,null,"JOINT",null,word,,, 'JOINT',
html-keyboard-response,238,2125254,471.1600000737235,"SOFA<img id = ""stim"" ><div class = green_square id = ""topsquare"" ></div><img id = ""stim"" ><div class = green_square  id = ""bottomsquare"" ></div>",32,word_square,1,SPACEBAR,,
html-keyboard-response,239,2126758,null,"SOFA",null,word,,, 'SOFA',
html-keyboard-response,240,2127261,null,"TRIGGER<img id = ""stim"" ><div class = red_square id = ""topsquare"" ></div><img id = ""stim"" ><div class = red_square  id = ""bottomsquare"" ></div>",null,word_square,0,SPACEBAR,,
html-keyboard-response,241,2128767,null,"TRIGGER",null,word,,, 'TRIGGER',
html-keyboard-response,242,2129275,null,"RIFLE<img id = ""stim"" ><div class = green_square id = ""topsquare"" ></div><img id = ""stim"" ><div class = green_square  id = ""bottomsquare"" ></div>",null,word_square,1,SPACEBAR,,
html-keyboard-response,243,2130777,null,"RIFLE",null,word,,, 'RIFLE',
html-keyboard-response,244,2131283,null,"MOUNTAIN<img id = ""stim"" ><div class = green_square id = ""topsquare"" ></div><img id = ""stim"" ><div class = green_square  id = ""bottomsquare"" ></div>",null,word_square,1,SPACEBAR,,
html-keyboard-response,245,2132786,null,"MOUNTAIN",null,word,,, 'MOUNTAIN',
html-keyboard-response,246,2133292,null,"HEDGE<img id = ""stim"" ><div class = red_square id = ""topsquare"" ></div><img id = ""stim"" ><div class = red_square  id = ""bottomsquare"" ></div>",null,word_square,0,SPACEBAR,,
html-keyboard-response,247,2134795,null,"HEDGE",null,word,,, 'HEDGE',
html-keyboard-response,248,2135287,490.3199999826029,"SLIDE<img id = ""stim"" ><div class = green_square id = ""topsquare"" ></div><img id = ""stim"" ><div class = green_square  id = ""bottomsquare"" ></div>",32,word_square,1,SPACEBAR,,
html-keyboard-response,249,2136792,null,"SLIDE",null,word,,, 'SLIDE',
html-keyboard-response,250,2137297,null,"HOSTESS<img id = ""stim"" ><div class = red_square id = ""topsquare"" ></div><img id = ""stim"" ><div class = red_square  id = ""bottomsquare"" ></div>",null,word_square,0,SPACEBAR,,
html-keyboard-response,251,2138800,null,"HOSTESS",null,word,,, 'HOSTESS',
html-keyboard-response,252,2139306,null,"BANQUET<img id = ""stim"" ><div class = red_square id = ""topsquare"" ></div><img id = ""stim"" ><div class = red_square  id = ""bottomsquare"" ></div>",null,word_square,0,SPACEBAR,,
html-keyboard-response,253,2140809,null,"BANQUET",null,word,,, 'BANQUET',
html-keyboard-response,254,2141314,null,"STOVE<img id = ""stim"" ><div class = green_square id = ""topsquare"" ></div><img id = ""stim"" ><div class = green_square  id = ""bottomsquare"" ></div>",null,word_square,1,SPACEBAR,,
html-keyboard-response,255,2142818,null,"STOVE",null,word,,, 'STOVE',
html-keyboard-response,256,2143323,null,"VALVE<img id = ""stim"" ><div class = red_square id = ""topsquare"" ></div><img id = ""stim"" ><div class = red_square  id = ""bottomsquare"" ></div>",null,word_square,0,SPACEBAR,,
html-keyboard-response,257,2144826,null,"VALVE",null,word,,, 'VALVE',
html-keyboard-response,258,2145331,null,"MOTOR<img id = ""stim"" ><div class = red_square id = ""topsquare"" ></div><img id = ""stim"" ><div class = red_square  id = ""bottomsquare"" ></div>",null,word_square,0,SPACEBAR,,
html-keyboard-response,259,2146834,null,"MOTOR",null,word,,, 'MOTOR',
html-keyboard-response,260,2147337,null,"MUSTARD<img id = ""stim"" ><div class = red_square id = ""topsquare"" ></div><img id = ""stim"" ><div class = red_square  id = ""bottomsquare"" ></div>",null,word_square,0,SPACEBAR,,
html-keyboard-response,261,2148843,null,"MUSTARD",null,word,,, 'MUSTARD',
html-keyboard-response,262,2149273,428.0949999811128,"WAITRESS<img id = ""stim"" ><div class = green_square id = ""topsquare"" ></div><img id = ""stim"" ><div class = green_square  id = ""bottomsquare"" ></div>",32,word_square,1,SPACEBAR,,
html-keyboard-response,263,2150776,null,"WAITRESS",null,word,,, 'WAITRESS',
html-keyboard-response,264,2151281,null,"DWARF<img id = ""stim"" ><div class = red_square id = ""topsquare"" ></div><img id = ""stim"" ><div class = red_square  id = ""bottomsquare"" ></div>",null,word_square,0,SPACEBAR,,
html-keyboard-response,265,2152783,null,"DWARF",null,word,,, 'DWARF',
survey-text,266,2154586,1798.5150000313297,"",,,,,,{"Q0":"4"}
survey-text,267,2156989,2397.7550000417978,"",,,,,,{"Q0":"0"}
survey-text,268,2158614,1618.750000023283,"",,,,,,{"Q0":"5"}
survey-text,269,2162238,3618.8400000100955,"",,,,,,{"Q0":"3"}
survey-text,270,2163671,1427.735000033863,"",,,,,,{"Q0":"3"}
survey-text,271,2164830,1155.0049999495968,"",,,,,,{"Q0":"2"}
survey-text,272,2167690,2855.254999944009,"",,,,,,{"Q0":"4"}
survey-text,273,2168780,1084.3700000550598,"",,,,,,{"Q0":"3"}
survey-text,274,2170525,1740.8950000535697,"",,,,,,{"Q0":"4"}
survey-text,275,2172212,1681.3700000056997,"",,,,,,{"Q0":"4"}
survey-text,276,2174304,2086.4849999779835,"",,,,,,{"Q0":"1"}
survey-text,277,2176308,2000.4300000146031,"",,,,,,{"Q0":"3"}
survey-text,278,2177826,1513.050000066869,"",,,,,,{"Q0":"1"}
survey-text,279,2194102,16270.720000029542,"",,,,,,{"Q0":"elk"}
survey-text,280,2197371,3263.4850000031292,"",,,,,,{"Q0":"soda"}
survey-text,281,2198502,1126.0400000028312,"",,,,,,{"Q0":"sofa"}
survey-text,282,2206162,7655.324999941513,"",,,,,,{"Q0":"steam"}
survey-text,283,2247199,41029.89499992691,"",,,,,,{"Q0":"elk"}
survey-text,284,2264741,17538.22499990929,"",,,,,,{"Q0":"elk"}
html-keyboard-response,285,2271069,6326.479999930598,"<div style=""font-size:48px;"">Press any key to begin list 5 of 24 </div>",13,,,,,
html-keyboard-response,286,2273574,null,"<div style=""font-size:60px;"">+</div>",null,,,,,
html-keyboard-response,287,2274078,null,"LIZARD<img id = ""stim"" ><div class = green_square id = ""topsquare"" ></div><img id = ""stim"" ><div class = green_square  id = ""bottomsquare"" ></div>",null,word_square,1,SPACEBAR,,
html-keyboard-response,288,2275582,null,"LIZARD",null,word,,, 'LIZARD',
html-keyboard-response,289,2276088,null,"DOLPHIN<img id = ""stim"" ><div class = red_square id = ""topsquare"" ></div><img id = ""stim"" ><div class = red_square  id = ""bottomsquare"" ></div>",null,word_square,0,SPACEBAR,,
html-keyboard-response,290,2277591,null,"DOLPHIN",null,word,,, 'DOLPHIN',
html-keyboard-response,291,2278095,null,"RADISH<img id = ""stim"" ><div class = green_square id = ""topsquare"" ></div><img id = ""stim"" ><div class = green_square  id = ""bottomsquare"" ></div>",null,word_square,1,SPACEBAR,,
html-keyboard-response,292,2279599,null,"RADISH",null,word,,, 'RADISH',
html-keyboard-response,293,2280104,null,"TRIBE<img id = ""stim"" ><div class = red_square id = ""topsquare"" ></div><img id = ""stim"" ><div class = red_square  id = ""bottomsquare"" ></div>",null,word_square,0,SPACEBAR,,
html-keyboard-response,294,2281608,null,"TRIBE",null,word,,, 'TRIBE',
html-keyboard-response,295,2282112,null,"BRIDGE<img id = ""stim"" ><div class = green_square id = ""topsquare"" ></div><img id = ""stim"" ><div class = green_square  id = ""bottomsquare"" ></div>",null,word_square,1,SPACEBAR,,
html-keyboard-response,296,2283614,null,"BRIDGE",null,word,,, 'BRIDGE',
html-keyboard-response,297,2284116,null,"CARROT<img id = ""stim"" ><div class = red_square id = ""topsquare"" ></div><img id = ""stim"" ><div class = red_square  id = ""bottomsquare"" ></div>",null,word_square,0,SPACEBAR,,
html-keyboard-response,298,2285621,null,"CARROT",null,word,,, 'CARROT',
html-keyboard-response,299,2286107,484.6150000812486,"TURNIP<img id = ""stim"" ><div class = green_square id = ""topsquare"" ></div><img id = ""stim"" ><div class = green_square  id = ""bottomsquare"" ></div>",32,word_square,1,SPACEBAR,,
html-keyboard-response,300,2287613,null,"TURNIP",null,word,,, 'TURNIP',
html-keyboard-response,301,2288093,478.20999997202307,"CLOTHES<img id = ""stim"" ><div class = green_square id = ""topsquare"" ></div><img id = ""stim"" ><div class = green_square  id = ""bottomsquare"" ></div>",32,word_square,1,SPACEBAR,,
html-keyboard-response,302,2289595,null,"CLOTHES",null,word,,, 'CLOTHES',
html-keyboard-response,303,2290101,null,"CHEST<img id = ""stim"" ><div class = green_square id = ""topsquare"" ></div><img id = ""stim"" ><div class = green_square  id = ""bottomsquare"" ></div>",null,word_square,1,SPACEBAR,,
html-keyboard-response,304,2291604,null,"CHEST",null,word,,, 'CHEST',
html-keyboard-response,305,2292039,433.420000015758,"BANDAGE<img id = ""stim"" ><div class = red_square id = ""topsquare"" ></div><img id = ""stim"" ><div class = red_square  id = ""bottomsquare"" ></div>",32,word_square,0,SPACEBAR,,
html-keyboard-response,306,2293541,null,"BANDAGE",null,word,,, 'BANDAGE',
html-keyboard-response,307,2294048,null,"CROSS<img id = ""stim"" ><div class = red_square id = ""topsquare"" ></div><img id = ""stim"" ><div class = red_square  id = ""bottomsquare"" ></div>",null,word_square,0,SPACEBAR,,
html-keyboard-response,308,2295551,null,"CROSS",null,word,,, 'CROSS',
html-keyboard-response,309,2296055,null,"CHAPEL<img id = ""stim"" ><div class = green_square id = ""topsquare"" ></div><img id = ""stim"" ><div class = green_square  id = ""bottomsquare"" ></div>",null,word_square,1,SPACEBAR,,
html-keyboard-response,310,2297560,null,"CHAPEL",null,word,,, 'CHAPEL',
html-keyboard-response,311,2298063,null,"PORTRAIT<img id = ""stim"" ><div class = red_square id = ""topsquare"" ></div><img id = ""stim"" ><div class = red_square  id = ""bottomsquare"" ></div>",null,word_square,0,SPACEBAR,,
html-keyboard-response,312,2299567,null,"PORTRAIT",null,word,,, 'PORTRAIT',
html-keyboard-response,313,2300072,null,"LITTER<img id = ""stim"" ><div class = red_square id = ""topsquare"" ></div><img id = ""stim"" ><div class = red_square  id = ""bottomsquare"" ></div>",null,word_square,0,SPACEBAR,,
html-keyboard-response,314,2301577,null,"LITTER",null,word,,, 'LITTER',
html-keyboard-response,315,2302012,432.60499997995794,"MAJOR<img id = ""stim"" ><div class = green_square id = ""topsquare"" ></div><img id = ""stim"" ><div class = green_square  id = ""bottomsquare"" ></div>",32,word_square,1,SPACEBAR,,
html-keyboard-response,316,2303514,null,"MAJOR",null,word,,, 'MAJOR',
html-keyboard-response,317,2304016,null,"PICNIC<img id = ""stim"" ><div class = red_square id = ""topsquare"" ></div><img id = ""stim"" ><div class = red_square  id = ""bottomsquare"" ></div>",null,word_square,0,SPACEBAR,,
html-keyboard-response,318,2305519,null,"PICNIC",null,word,,, 'PICNIC',
html-keyboard-response,319,2306024,null,"CRACKER<img id = ""stim"" ><div class = red_square id = ""topsquare"" ></div><img id = ""stim"" ><div class = red_square  id = ""bottomsquare"" ></div>",null,word_square,0,SPACEBAR,,
html-keyboard-response,320,2307528,null,"CRACKER",null,word,,, 'CRACKER',
html-keyboard-response,321,2308031,null,"PICTURE<img id = ""stim"" ><div class = green_square id = ""topsquare"" ></div><img id = ""stim"" ><div class = green_square  id = ""bottomsquare"" ></div>",null,word_square,1,SPACEBAR,,
html-keyboard-response,322,2309536,null,"PICTURE",null,word,,, 'PICTURE',
survey-text,323,2311882,2341.7099999496713,"",,,,,,{"Q0":"4"}
survey-text,324,2313407,1519.5349999703467,"",,,,,,{"Q0":"1"}
survey-text,325,2315256,1844.4850000087172,"",,,,,,{"Q0":"5"}
survey-text,326,2316738,1477.2700000321493,"",,,,,,{"Q0":"1"}
survey-text,327,2318307,1564.2949999310076,"",,,,,,{"Q0":"1"}
survey-text,328,2320357,2045.3749999869615,"",,,,,,{"Q0":"4"}
survey-text,329,2321579,1216.939999954775,"",,,,,,{"Q0":"4"}
survey-text,330,2322971,1387.0250000618398,"",,,,,,{"Q0":"6"}
survey-text,331,2324325,1349.0750000346452,"",,,,,,{"Q0":"4"}
survey-text,332,2326589,2259.269999922253,"",,,,,,{"Q0":"1"}
survey-text,333,2329769,3174.8749999096617,"",,,,,,{"Q0":"1"}
survey-text,334,2331370,1595.8300000056624,"",,,,,,{"Q0":"2"}
survey-text,335,2332794,1418.6350000090897,"",,,,,,{"Q0":"4"}
survey-text,336,2334480,1680.5900000035763,"",,,,,,{"Q0":"3"}
survey-text,337,2339141,4656.774999923073,"",,,,,,{"Q0":"picnic"}
survey-text,338,2340478,1331.899999990128,"",,,,,,{"Q0":"major"}
survey-text,339,2362483,21997.16500006616,"",,,,,,{"Q0":"tribe"}
survey-text,340,2366050,3562.0799999451265,"",,,,,,{"Q0":"bridge"}
survey-text,341,2369266,3211.100000073202,"",,,,,,{"Q0":"carrot"}
survey-text,342,2372795,3524.699999950826,"",,,,,,{"Q0":"turnip"}
survey-text,343,2378698,5897.209999966435,"",,,,,,{"Q0":"clothes"}
survey-text,344,2407295,28591.954999952577,"",,,,,,{"Q0":"tribe"}
survey-text,345,2419210,11910.090000019409,"",,,,,,{"Q0":"clothes"}
html-keyboard-response,346,2419797,585.6349999085069,"<div style=""font-size:48px;"">Press any key to begin list 6 of 24 </div>",13,,,,,
html-keyboard-response,347,2422303,null,"<div style=""font-size:60px;"">+</div>",null,,,,,
html-keyboard-response,348,2422806,null,"CAPTAIN<img id = ""stim"" ><div class = green_square id = ""topsquare"" ></div><img id = ""stim"" ><div class = green_square  id = ""bottomsquare"" ></div>",null,word_square,1,SPACEBAR,,
html-keyboard-response,349,2424313,null,"CAPTAIN",null,word,,, 'CAPTAIN',
html-keyboard-response,350,2424818,null,"SHOELACE<img id = ""stim"" ><div class = red_square id = ""topsquare"" ></div><img id = ""stim"" ><div class = red_square  id = ""bottomsquare"" ></div>",null,word_square,0,SPACEBAR,,
html-keyboard-response,351,2426324,null,"SHOELACE",null,word,,, 'SHOELACE',
html-keyboard-response,352,2426827,null,"MARS<img id = ""stim"" ><div class = green_square id = ""topsquare"" ></div><img id = ""stim"" ><div class = green_square  id = ""bottomsquare"" ></div>",null,word_square,1,SPACEBAR,,
html-keyboard-response,353,2428332,null,"MARS",null,word,,, 'MARS',
html-keyboard-response,354,2428837,null,"UMPIRE<img id = ""stim"" ><div class = red_square id = ""topsquare"" ></div><img id = ""stim"" ><div class = red_square  id = ""bottomsquare"" ></div>",null,word_square,0,SPACEBAR,,
html-keyboard-response,355,2430340,null,"UMPIRE",null,word,,, 'UMPIRE',
html-keyboard-response,356,2430846,null,"RACKET<img id = ""stim"" ><div class = green_square id = ""topsquare"" ></div><img id = ""stim"" ><div class = green_square  id = ""bottomsquare"" ></div>",null,word_square,1,SPACEBAR,,
html-keyboard-response,357,2432350,null,"RACKET",null,word,,, 'RACKET',
html-keyboard-response,358,2432855,null,"SWATTER<img id = ""stim"" ><div class = red_square id = ""topsquare"" ></div><img id = ""stim"" ><div class = red_square  id = ""bottomsquare"" ></div>",null,word_square,0,SPACEBAR,,
html-keyboard-response,359,2434357,null,"SWATTER",null,word,,, 'SWATTER',
html-keyboard-response,360,2434758,399.91499995812774,"SWAMP<img id = ""stim"" ><div class = green_square id = ""topsquare"" ></div><img id = ""stim"" ><div class = green_square  id = ""bottomsquare"" ></div>",32,word_square,1,SPACEBAR,,
html-keyboard-response,361,2436261,null,"SWAMP",null,word,,, 'SWAMP',
html-keyboard-response,362,2436767,null,"FACE<img id = ""stim"" ><div class = green_square id = ""topsquare"" ></div><img id = ""stim"" ><div class = green_square  id = ""bottomsquare"" ></div>",null,word_square,1,SPACEBAR,,
html-keyboard-response,363,2438271,null,"FACE",null,word,,, 'FACE',
html-keyboard-response,364,2438776,null,"DOUGHNUT<img id = ""stim"" ><div class = green_square id = ""topsquare"" ></div><img id = ""stim"" ><div class = green_square  id = ""bottomsquare"" ></div>",null,word_square,1,SPACEBAR,,
html-keyboard-response,365,2440280,null,"DOUGHNUT",null,word,,, 'DOUGHNUT',
html-keyboard-response,366,2440785,null,"LOFT<img id = ""stim"" ><div class = red_square id = ""topsquare"" ></div><img id = ""stim"" ><div class = red_square  id = ""bottomsquare"" ></div>",null,word_square,0,SPACEBAR,,
html-keyboard-response,367,2442289,null,"LOFT",null,word,,, 'LOFT',
html-keyboard-response,368,2442792,null,"SPOOL<img id = ""stim"" ><div class = red_square id = ""topsquare"" ></div><img id = ""stim"" ><div class = red_square  id = ""bottomsquare"" ></div>",null,word_square,0,SPACEBAR,,
html-keyboard-response,369,2444297,null,"SPOOL",null,word,,, 'SPOOL',
html-keyboard-response,370,2444802,null,"NECKLACE<img id = ""stim"" ><div class = green_square id = ""topsquare"" ></div><img id = ""stim"" ><div class = green_square  id = ""bottomsquare"" ></div>",null,word_square,1,SPACEBAR,,
html-keyboard-response,371,2446308,null,"NECKLACE",null,word,,, 'NECKLACE',
html-keyboard-response,372,2446811,null,"FUNGUS<img id = ""stim"" ><div class = red_square id = ""topsquare"" ></div><img id = ""stim"" ><div class = red_square  id = ""bottomsquare"" ></div>",null,word_square,0,SPACEBAR,,
html-keyboard-response,373,2448316,null,"FUNGUS",null,word,,, 'FUNGUS',
html-keyboard-response,374,2448818,null,"CABBAGE<img id = ""stim"" ><div class = red_square id = ""topsquare"" ></div><img id = ""stim"" ><div class = red_square  id = ""bottomsquare"" ></div>",null,word_square,0,SPACEBAR,,
html-keyboard-response,375,2450325,null,"CABBAGE",null,word,,, 'CABBAGE',
html-keyboard-response,376,2450828,null,"RIVER<img id = ""stim"" ><div class = green_square id = ""topsquare"" ></div><img id = ""stim"" ><div class = green_square  id = ""bottomsquare"" ></div>",null,word_square,1,SPACEBAR,,
html-keyboard-response,377,2452331,null,"RIVER",null,word,,, 'RIVER',
html-keyboard-response,378,2452836,null,"SNAKE<img id = ""stim"" ><div class = red_square id = ""topsquare"" ></div><img id = ""stim"" ><div class = red_square  id = ""bottomsquare"" ></div>",null,word_square,0,SPACEBAR,,
html-keyboard-response,379,2454340,null,"SNAKE",null,word,,, 'SNAKE',
html-keyboard-response,380,2454844,null,"TIGER<img id = ""stim"" ><div class = red_square id = ""topsquare"" ></div><img id = ""stim"" ><div class = red_square  id = ""bottomsquare"" ></div>",null,word_square,0,SPACEBAR,,
html-keyboard-response,381,2456347,null,"TIGER",null,word,,, 'TIGER',
html-keyboard-response,382,2456849,null,"SPARROW<img id = ""stim"" ><div class = green_square id = ""topsquare"" ></div><img id = ""stim"" ><div class = green_square  id = ""bottomsquare"" ></div>",null,word_square,1,SPACEBAR,,
html-keyboard-response,383,2458351,null,"SPARROW",null,word,,, 'SPARROW',
survey-text,384,2460920,2563.6100000701845,"",,,,,,{"Q0":"5"}
survey-text,385,2462371,1447.1150001045316,"",,,,,,{"Q0":"1"}
survey-text,386,2466452,4076.065000030212,"",,,,,,{"Q0":"0"}
survey-text,387,2468861,2404.164999956265,"",,,,,,{"Q0":"5"}
survey-text,388,2471010,2142.314999946393,"",,,,,,{"Q0":"3"}
survey-text,389,2472100,1085.1000000257045,"",,,,,,{"Q0":"3"}
survey-text,390,2475041,2936.1100000096485,"",,,,,,{"Q0":"0"}
survey-text,391,2476710,1664.1550000058487,"",,,,,,{"Q0":"5"}
survey-text,392,2478112,1396.1450000060722,"",,,,,,{"Q0":"5"}
survey-text,393,2480336,2219.069999991916,"",,,,,,{"Q0":"4"}
survey-text,394,2481994,1653.4349999856204,"",,,,,,{"Q0":"1"}
survey-text,395,2487219,5220.384999993257,"",,,,,,{"Q0":"1"}
survey-text,396,2490345,3120.5250000348315,"",,,,,,{"Q0":"sparrow"}
survey-text,397,2491791,1442.159999976866,"",,,,,,{"Q0":"shoelace"}
survey-text,398,2505544,13748.490000027232,"",,,,,,{"Q0":"umpire"}
survey-text,399,2509528,3978.3799999859184,"",,,,,,{"Q0":"snake"}
survey-text,400,2541223,31689.14000003133,"",,,,,,{"Q0":"snake"}
survey-text,401,2550915,9687.445000046864,"",,,,,,{"Q0":"shoelace"}
survey-text,402,2557167,6247.999999905005,"",,,,,,{"Q0":"tribe"}
survey-text,403,2565706,8534.665000042878,"",,,,,,{"Q0":"snake"}
html-keyboard-response,404,2570696,4988.950000028126,"<div style=""font-size:48px;"">Press any key to begin list 7 of 24 </div>",32,,,,,
html-keyboard-response,405,2573203,null,"<div style=""font-size:60px;"">+</div>",null,,,,,
html-keyboard-response,406,2573706,null,"TOMBSTONE<img id = ""stim"" ><div class = red_square id = ""topsquare"" ></div><img id = ""stim"" ><div class = red_square  id = ""bottomsquare"" ></div>",null,word_square,0,SPACEBAR,,
html-keyboard-response,407,2575209,null,"TOMBSTONE",null,word,,, 'TOMBSTONE',
html-keyboard-response,408,2575712,null,"BOUQUET<img id = ""stim"" ><div class = green_square id = ""topsquare"" ></div><img id = ""stim"" ><div class = green_square  id = ""bottomsquare"" ></div>",null,word_square,1,SPACEBAR,,
html-keyboard-response,409,2577216,null,"BOUQUET",null,word,,, 'BOUQUET',
html-keyboard-response,410,2577229,10.209999978542328,"SNOB<img id = ""stim"" ><div class = red_square id = ""topsquare"" ></div><img id = ""stim"" ><div class = red_square  id = ""bottomsquare"" ></div>",32,word_square,0,SPACEBAR,,
html-keyboard-response,411,2578732,null,"SNOB",null,word,,, 'SNOB',
html-keyboard-response,412,2579236,null,"JOKER<img id = ""stim"" ><div class = green_square id = ""topsquare"" ></div><img id = ""stim"" ><div class = green_square  id = ""bottomsquare"" ></div>",null,word_square,1,SPACEBAR,,
html-keyboard-response,413,2580740,null,"JOKER",null,word,,, 'JOKER',
html-keyboard-response,414,2581242,null,"PALACE<img id = ""stim"" ><div class = red_square id = ""topsquare"" ></div><img id = ""stim"" ><div class = red_square  id = ""bottomsquare"" ></div>",null,word_square,0,SPACEBAR,,
html-keyboard-response,415,2582748,null,"PALACE",null,word,,, 'PALACE',
html-keyboard-response,416,2583250,null,"CIGAR<img id = ""stim"" ><div class = green_square id = ""topsquare"" ></div><img id = ""stim"" ><div class = green_square  id = ""bottomsquare"" ></div>",null,word_square,1,SPACEBAR,,
html-keyboard-response,417,2584753,null,"CIGAR",null,word,,, 'CIGAR',
html-keyboard-response,418,2585258,null,"DRAGON<img id = ""stim"" ><div class = red_square id = ""topsquare"" ></div><img id = ""stim"" ><div class = red_square  id = ""bottomsquare"" ></div>",null,word_square,0,SPACEBAR,,
html-keyboard-response,419,2586760,null,"DRAGON",null,word,,, 'DRAGON',
html-keyboard-response,420,2587262,null,"COSTUME<img id = ""stim"" ><div class = red_square id = ""topsquare"" ></div><img id = ""stim"" ><div class = red_square  id = ""bottomsquare"" ></div>",null,word_square,0,SPACEBAR,,
html-keyboard-response,421,2588764,null,"COSTUME",null,word,,, 'COSTUME',
html-keyboard-response,422,2589269,null,"WARDROBE<img id = ""stim"" ><div class = red_square id = ""topsquare"" ></div><img id = ""stim"" ><div class = red_square  id = ""bottomsquare"" ></div>",null,word_square,0,SPACEBAR,,
html-keyboard-response,423,2590772,null,"WARDROBE",null,word,,, 'WARDROBE',
html-keyboard-response,424,2591277,null,"HAMMER<img id = ""stim"" ><div class = green_square id = ""topsquare"" ></div><img id = ""stim"" ><div class = green_square  id = ""bottomsquare"" ></div>",null,word_square,1,SPACEBAR,,
html-keyboard-response,425,2592782,null,"HAMMER",null,word,,, 'HAMMER',
html-keyboard-response,426,2593287,null,"TART<img id = ""stim"" ><div class = green_square id = ""topsquare"" ></div><img id = ""stim"" ><div class = green_square  id = ""bottomsquare"" ></div>",null,word_square,1,SPACEBAR,,
html-keyboard-response,427,2594790,null,"TART",null,word,,, 'TART',
html-keyboard-response,428,2595295,null,"CASKET<img id = ""stim"" ><div class = red_square id = ""topsquare"" ></div><img id = ""stim"" ><div class = red_square  id = ""bottomsquare"" ></div>",null,word_square,0,SPACEBAR,,
html-keyboard-response,429,2596798,null,"CASKET",null,word,,, 'CASKET',
html-keyboard-response,430,2597217,417.6649999571964,"TABLE<img id = ""stim"" ><div class = green_square id = ""topsquare"" ></div><img id = ""stim"" ><div class = green_square  id = ""bottomsquare"" ></div>",32,word_square,1,SPACEBAR,,
html-keyboard-response,431,2598721,null,"TABLE",null,word,,, 'TABLE',
html-keyboard-response,432,2599224,null,"MUFFIN<img id = ""stim"" ><div class = green_square id = ""topsquare"" ></div><img id = ""stim"" ><div class = green_square  id = ""bottomsquare"" ></div>",null,word_square,1,SPACEBAR,,
html-keyboard-response,433,2600730,null,"MUFFIN",null,word,,, 'MUFFIN',
html-keyboard-response,434,2601233,null,"SOLDIER<img id = ""stim"" ><div class = red_square id = ""topsquare"" ></div><img id = ""stim"" ><div class = red_square  id = ""bottomsquare"" ></div>",null,word_square,0,SPACEBAR,,
html-keyboard-response,435,2602737,null,"SOLDIER",null,word,,, 'SOLDIER',
html-keyboard-response,436,2603088,349.5600000023842,"PRINCE<img id = ""stim"" ><div class = green_square id = ""topsquare"" ></div><img id = ""stim"" ><div class = green_square  id = ""bottomsquare"" ></div>",32,word_square,1,SPACEBAR,,
html-keyboard-response,437,2604595,null,"PRINCE",null,word,,, 'PRINCE',
html-keyboard-response,438,2605098,null,"GARDEN<img id = ""stim"" ><div class = green_square id = ""topsquare"" ></div><img id = ""stim"" ><div class = green_square  id = ""bottomsquare"" ></div>",null,word_square,1,SPACEBAR,,
html-keyboard-response,439,2606604,null,"GARDEN",null,word,,, 'GARDEN',
html-keyboard-response,440,2607109,null,"QUARTER<img id = ""stim"" ><div class = red_square id = ""topsquare"" ></div><img id = ""stim"" ><div class = red_square  id = ""bottomsquare"" ></div>",null,word_square,0,SPACEBAR,,
html-keyboard-response,441,2608612,null,"QUARTER",null,word,,, 'QUARTER',
survey-text,442,2613414,4797.069999971427,"",,,,,,{"Q0":"4"}
survey-text,443,2614569,1149.184999987483,"",,,,,,{"Q0":"4"}
survey-text,444,2615860,1286.3450000295416,"",,,,,,{"Q0":"6"}
survey-text,445,2617356,1490.2250000741333,"",,,,,,{"Q0":"5"}
survey-text,446,2618971,1610.0249999435619,"",,,,,,{"Q0":"1"}
survey-text,447,2620385,1409.0599999763072,"",,,,,,{"Q0":"5"}
survey-text,448,2622823,2433.6249999469146,"",,,,,,{"Q0":"3"}
survey-text,449,2623995,1167.989999987185,"",,,,,,{"Q0":"5"}
survey-text,450,2625453,1453.2999999355525,"",,,,,,{"Q0":"1"}
survey-text,451,2626677,1218.9950000029057,"",,,,,,{"Q0":"5"}
survey-text,452,2627687,1005.2300000097603,"",,,,,,{"Q0":"3"}
survey-text,453,2629471,1779.4799999101087,"",,,,,,{"Q0":"4"}
survey-text,454,2630924,1447.465000092052,"",,,,,,{"Q0":"5"}
survey-text,455,2632138,1208.7700000265613,"",,,,,,{"Q0":"5"}
survey-text,456,2633133,990.3650000924245,"",,,,,,{"Q0":"5"}
survey-text,457,2637650,4511.984999990091,"",,,,,,{"Q0":"bouqet"}
survey-text,458,2639100,1444.7500000242144,"",,,,,,{"Q0":"tombstone"}
survey-text,459,2661284,22177.87499993574,"",,,,,,{"Q0":"coffin"}
survey-text,460,2720853,59562.40000005346,"",,,,,,{"Q0":"tombstone"}
html-keyboard-response,461,2725750,4895.065000047907,"<div style=""font-size:48px;"">Press any key to begin list 8 of 24 </div>",13,,,,,
html-keyboard-response,462,2728257,null,"<div style=""font-size:60px;"">+</div>",null,,,,,
html-keyboard-response,463,2728762,null,"NEPHEW<img id = ""stim"" ><div class = red_square id = ""topsquare"" ></div><img id = ""stim"" ><div class = red_square  id = ""bottomsquare"" ></div>",null,word_square,0,SPACEBAR,,
html-keyboard-response,464,2730265,null,"NEPHEW",null,word,,, 'NEPHEW',
html-keyboard-response,465,2730770,null,"QUAIL<img id = ""stim"" ><div class = green_square id = ""topsquare"" ></div><img id = ""stim"" ><div class = green_square  id = ""bottomsquare"" ></div>",null,word_square,1,SPACEBAR,,
html-keyboard-response,466,2732274,null,"QUAIL",null,word,,, 'QUAIL',
html-keyboard-response,467,2732776,null,"FRIAR<img id = ""stim"" ><div class = red_square id = ""topsquare"" ></div><img id = ""stim"" ><div class = red_square  id = ""bottomsquare"" ></div>",null,word_square,0,SPACEBAR,,
html-keyboard-response,468,2734278,null,"FRIAR",null,word,,, 'FRIAR',
html-keyboard-response,469,2734782,null,"PLATE<img id = ""stim"" ><div class = green_square id = ""topsquare"" ></div><img id = ""stim"" ><div class = green_square  id = ""bottomsquare"" ></div>",null,word_square,1,SPACEBAR,,
html-keyboard-response,470,2736286,null,"PLATE",null,word,,, 'PLATE',
html-keyboard-response,471,2736791,null,"SALESMAN<img id = ""stim"" ><div class = red_square id = ""topsquare"" ></div><img id = ""stim"" ><div class = red_square  id = ""bottomsquare"" ></div>",null,word_square,0,SPACEBAR,,
html-keyboard-response,472,2738293,null,"SALESMAN",null,word,,, 'SALESMAN',
html-keyboard-response,473,2738797,null,"DECK<img id = ""stim"" ><div class = green_square id = ""topsquare"" ></div><img id = ""stim"" ><div class = green_square  id = ""bottomsquare"" ></div>",null,word_square,1,SPACEBAR,,
html-keyboard-response,474,2740301,null,"DECK",null,word,,, 'DECK',
html-keyboard-response,475,2740804,null,"HIKER<img id = ""stim"" ><div class = red_square id = ""topsquare"" ></div><img id = ""stim"" ><div class = red_square  id = ""bottomsquare"" ></div>",null,word_square,0,SPACEBAR,,
html-keyboard-response,476,2742307,null,"HIKER",null,word,,, 'HIKER',
html-keyboard-response,477,2742813,null,"VIKING<img id = ""stim"" ><div class = red_square id = ""topsquare"" ></div><img id = ""stim"" ><div class = red_square  id = ""bottomsquare"" ></div>",null,word_square,0,SPACEBAR,,
html-keyboard-response,478,2744315,null,"VIKING",null,word,,, 'VIKING',
html-keyboard-response,479,2744818,null,"NOTEBOOK<img id = ""stim"" ><div class = red_square id = ""topsquare"" ></div><img id = ""stim"" ><div class = red_square  id = ""bottomsquare"" ></div>",null,word_square,0,SPACEBAR,,
html-keyboard-response,480,2746322,null,"NOTEBOOK",null,word,,, 'NOTEBOOK',
html-keyboard-response,481,2746798,474.0100000053644,"OFFICE<img id = ""stim"" ><div class = green_square id = ""topsquare"" ></div><img id = ""stim"" ><div class = green_square  id = ""bottomsquare"" ></div>",32,word_square,1,SPACEBAR,,
html-keyboard-response,482,2748302,null,"OFFICE",null,word,,, 'OFFICE',
html-keyboard-response,483,2748751,447.5999999558553,"BLACKBOARD<img id = ""stim"" ><div class = green_square id = ""topsquare"" ></div><img id = ""stim"" ><div class = green_square  id = ""bottomsquare"" ></div>",32,word_square,1,SPACEBAR,,
html-keyboard-response,484,2750253,null,"BLACKBOARD",null,word,,, 'BLACKBOARD',
html-keyboard-response,485,2750757,null,"CRIB<img id = ""stim"" ><div class = red_square id = ""topsquare"" ></div><img id = ""stim"" ><div class = red_square  id = ""bottomsquare"" ></div>",null,word_square,0,SPACEBAR,,
html-keyboard-response,486,2752264,null,"CRIB",null,word,,, 'CRIB',
html-keyboard-response,487,2752673,407.81000000424683,"RATTLE<img id = ""stim"" ><div class = green_square id = ""topsquare"" ></div><img id = ""stim"" ><div class = green_square  id = ""bottomsquare"" ></div>",32,word_square,1,SPACEBAR,,
html-keyboard-response,488,2754176,null,"RATTLE",null,word,,, 'RATTLE',
html-keyboard-response,489,2754631,453.02999997511506,"RAFT<img id = ""stim"" ><div class = green_square id = ""topsquare"" ></div><img id = ""stim"" ><div class = green_square  id = ""bottomsquare"" ></div>",32,word_square,1,SPACEBAR,,
html-keyboard-response,490,2756137,null,"RAFT",null,word,,, 'RAFT',
html-keyboard-response,491,2756644,null,"CROOK<img id = ""stim"" ><div class = red_square id = ""topsquare"" ></div><img id = ""stim"" ><div class = red_square  id = ""bottomsquare"" ></div>",null,word_square,0,SPACEBAR,,
html-keyboard-response,492,2758147,null,"CROOK",null,word,,, 'CROOK',
html-keyboard-response,493,2758652,null,"BOARD<img id = ""stim"" ><div class = green_square id = ""topsquare"" ></div><img id = ""stim"" ><div class = green_square  id = ""bottomsquare"" ></div>",null,word_square,1,SPACEBAR,,
html-keyboard-response,494,2760159,null,"BOARD",null,word,,, 'BOARD',
html-keyboard-response,495,2760608,448.02999997045845,"CLERK<img id = ""stim"" ><div class = green_square id = ""topsquare"" ></div><img id = ""stim"" ><div class = green_square  id = ""bottomsquare"" ></div>",32,word_square,1,SPACEBAR,,
html-keyboard-response,496,2762112,null,"CLERK",null,word,,, 'CLERK',
html-keyboard-response,497,2762618,null,"PISTON<img id = ""stim"" ><div class = red_square id = ""topsquare"" ></div><img id = ""stim"" ><div class = red_square  id = ""bottomsquare"" ></div>",null,word_square,0,SPACEBAR,,
html-keyboard-response,498,2764119,null,"PISTON",null,word,,, 'PISTON',
survey-text,499,2766898,2775.219999952242,"",,,,,,{"Q0":"1"}
survey-text,500,2768201,1299.6949999360368,"",,,,,,{"Q0":"5"}
survey-text,501,2769770,1565.775000024587,"",,,,,,{"Q0":"5"}
survey-text,502,2771143,1369.8650000151247,"",,,,,,{"Q0":"3"}
survey-text,503,2772029,882.2400000644848,"",,,,,,{"Q0":"3"}
survey-text,504,2773388,1356.3399999402463,"",,,,,,{"Q0":"5"}
survey-text,505,2774589,1196.2150000035763,"",,,,,,{"Q0":"4"}
survey-text,506,2775876,1283.2850000122562,"",,,,,,{"Q0":"6"}
survey-text,507,2778087,2200.375000014901,"",,,,,,{"Q0":"4"}
survey-text,508,2779827,1736.3149999873713,"",,,,,,{"Q0":"1"}
survey-text,509,2782956,3125.9600000921637,"",,,,,,{"Q0":"5"}
survey-text,510,2785534,2574.5699999388307,"",,,,,,{"Q0":"0"}
survey-text,511,2787579,2038.0150000564754,"",,,,,,{"Q0":"4"}
survey-text,512,2788772,1187.2800000710413,"",,,,,,{"Q0":"4"}
survey-text,513,2793032,4256.620000000112,"",,,,,,{"Q0":"quail"}
survey-text,514,2821761,28723.94999989774,"",,,,,,{"Q0":"coffin"}
survey-text,515,2856207,34438.74499993399,"",,,,,,{"Q0":"quail"}
survey-text,516,2875469,19255.78999996651,"",,,,,,{"Q0":"quail"}
html-keyboard-response,517,2876008,536.7550000082701,"<div style=""font-size:48px;"">Press any key to begin list 9 of 24 </div>",13,,,,,
html-keyboard-response,518,2878511,null,"<div style=""font-size:60px;"">+</div>",null,,,,,
html-keyboard-response,519,2879014,null,"TIMBER<img id = ""stim"" ><div class = red_square id = ""topsquare"" ></div><img id = ""stim"" ><div class = red_square  id = ""bottomsquare"" ></div>",null,word_square,0,SPACEBAR,,
html-keyboard-response,520,2880517,null,"TIMBER",null,word,,, 'TIMBER',
html-keyboard-response,521,2881019,null,"HOUND<img id = ""stim"" ><div class = green_square id = ""topsquare"" ></div><img id = ""stim"" ><div class = green_square  id = ""bottomsquare"" ></div>",null,word_square,1,SPACEBAR,,
html-keyboard-response,522,2882521,null,"HOUND",null,word,,, 'HOUND',
html-keyboard-response,523,2883023,null,"PUPPY<img id = ""stim"" ><div class = green_square id = ""topsquare"" ></div><img id = ""stim"" ><div class = green_square  id = ""bottomsquare"" ></div>",null,word_square,1,SPACEBAR,,
html-keyboard-response,524,2884529,null,"PUPPY",null,word,,, 'PUPPY',
html-keyboard-response,525,2885034,null,"TROUSERS<img id = ""stim"" ><div class = red_square id = ""topsquare"" ></div><img id = ""stim"" ><div class = red_square  id = ""bottomsquare"" ></div>",null,word_square,0,SPACEBAR,,
html-keyboard-response,526,2886539,null,"TROUSERS",null,word,,, 'TROUSERS',
html-keyboard-response,527,2887043,null,"DAISY<img id = ""stim"" ><div class = red_square id = ""topsquare"" ></div><img id = ""stim"" ><div class = red_square  id = ""bottomsquare"" ></div>",null,word_square,0,SPACEBAR,,
html-keyboard-response,528,2888547,null,"DAISY",null,word,,, 'DAISY',
html-keyboard-response,529,2889052,null,"PIGMENT<img id = ""stim"" ><div class = green_square id = ""topsquare"" ></div><img id = ""stim"" ><div class = green_square  id = ""bottomsquare"" ></div>",null,word_square,1,SPACEBAR,,
html-keyboard-response,530,2890554,null,"PIGMENT",null,word,,, 'PIGMENT',
html-keyboard-response,531,2891061,null,"PLAID<img id = ""stim"" ><div class = red_square id = ""topsquare"" ></div><img id = ""stim"" ><div class = red_square  id = ""bottomsquare"" ></div>",null,word_square,0,SPACEBAR,,
html-keyboard-response,532,2892567,null,"PLAID",null,word,,, 'PLAID',
html-keyboard-response,533,2893070,null,"BACON<img id = ""stim"" ><div class = green_square id = ""topsquare"" ></div><img id = ""stim"" ><div class = green_square  id = ""bottomsquare"" ></div>",null,word_square,1,SPACEBAR,,
html-keyboard-response,534,2894575,null,"BACON",null,word,,, 'BACON',
html-keyboard-response,535,2895078,null,"WINDOW<img id = ""stim"" ><div class = red_square id = ""topsquare"" ></div><img id = ""stim"" ><div class = red_square  id = ""bottomsquare"" ></div>",null,word_square,0,SPACEBAR,,
html-keyboard-response,536,2896583,null,"WINDOW",null,word,,, 'WINDOW',
html-keyboard-response,537,2897084,null,"ATOM<img id = ""stim"" ><div class = red_square id = ""topsquare"" ></div><img id = ""stim"" ><div class = red_square  id = ""bottomsquare"" ></div>",null,word_square,0,SPACEBAR,,
html-keyboard-response,538,2898591,null,"ATOM",null,word,,, 'ATOM',
html-keyboard-response,539,2899008,415.4850000049919,"WHISKERS<img id = ""stim"" ><div class = green_square id = ""topsquare"" ></div><img id = ""stim"" ><div class = green_square  id = ""bottomsquare"" ></div>",32,word_square,1,SPACEBAR,,
html-keyboard-response,540,2900511,null,"WHISKERS",null,word,,, 'WHISKERS',
html-keyboard-response,541,2901016,null,"SAUSAGE<img id = ""stim"" ><div class = red_square id = ""topsquare"" ></div><img id = ""stim"" ><div class = red_square  id = ""bottomsquare"" ></div>",null,word_square,0,SPACEBAR,,
html-keyboard-response,542,2902521,null,"SAUSAGE",null,word,,, 'SAUSAGE',
html-keyboard-response,543,2903027,null,"SHORTCAKE<img id = ""stim"" ><div class = green_square id = ""topsquare"" ></div><img id = ""stim"" ><div class = green_square  id = ""bottomsquare"" ></div>",null,word_square,1,SPACEBAR,,
html-keyboard-response,544,2904532,null,"SHORTCAKE",null,word,,, 'SHORTCAKE',
html-keyboard-response,545,2905035,null,"KITCHEN<img id = ""stim"" ><div class = green_square id = ""topsquare"" ></div><img id = ""stim"" ><div class = green_square  id = ""bottomsquare"" ></div>",null,word_square,1,SPACEBAR,,
html-keyboard-response,546,2906537,null,"KITCHEN",null,word,,, 'KITCHEN',
html-keyboard-response,547,2907041,null,"SLACKS<img id = ""stim"" ><div class = green_square id = ""topsquare"" ></div><img id = ""stim"" ><div class = green_square  id = ""bottomsquare"" ></div>",null,word_square,1,SPACEBAR,,
html-keyboard-response,548,2908547,null,"SLACKS",null,word,,, 'SLACKS',
html-keyboard-response,549,2909052,null,"DUST<img id = ""stim"" ><div class = red_square id = ""topsquare"" ></div><img id = ""stim"" ><div class = red_square  id = ""bottomsquare"" ></div>",null,word_square,0,SPACEBAR,,
html-keyboard-response,550,2910555,null,"DUST",null,word,,, 'DUST',
html-keyboard-response,551,2911061,null,"MARSH<img id = ""stim"" ><div class = red_square id = ""topsquare"" ></div><img id = ""stim"" ><div class = red_square  id = ""bottomsquare"" ></div>",null,word_square,0,SPACEBAR,,
html-keyboard-response,552,2912563,null,"MARSH",null,word,,, 'MARSH',
html-keyboard-response,553,2913065,null,"FRIES<img id = ""stim"" ><div class = green_square id = ""topsquare"" ></div><img id = ""stim"" ><div class = green_square  id = ""bottomsquare"" ></div>",null,word_square,1,SPACEBAR,,
html-keyboard-response,554,2914568,null,"FRIES",null,word,,, 'FRIES',
survey-text,555,2917508,2935.5699999723583,"",,,,,,{"Q0":"4"}
survey-text,556,2920035,2523.8599999574944,"",,,,,,{"Q0":"0"}
survey-text,557,2921055,1017.4499999266118,"",,,,,,{"Q0":"4"}
survey-text,558,2921977,917.5699999323115,"",,,,,,{"Q0":"5"}
survey-text,559,2923800,1818.1199999526143,"",,,,,,{"Q0":"4"}
survey-text,560,2924945,1140.1900000637397,"",,,,,,{"Q0":"6"}
survey-text,561,2926285,1336.2750000087544,"",,,,,,{"Q0":"4"}
survey-text,562,2927625,1335.8050000388175,"",,,,,,{"Q0":"1"}
survey-text,563,2928874,1244.8649998987094,"",,,,,,{"Q0":"4"}
survey-text,564,2932854,3976.124999928288,"",,,,,,{"Q0":"2"}
survey-text,565,2934743,1885.0099999690428,"",,,,,,{"Q0":"2"}
survey-text,566,2937167,2420.9550000960007,"",,,,,,{"Q0":"3"}
survey-text,567,2945500,8326.40999997966,"",,,,,,{"Q0":"4"}
survey-text,568,2956060,10554.564999998547,"",,,,,,{"Q0":"daisy"}
survey-text,569,2959586,3522.969999932684,"",,,,,,{"Q0":"trousers"}
survey-text,570,2963460,3868.529999977909,"",,,,,,{"Q0":"puppy"}
survey-text,571,2978944,15478.990000090562,"",,,,,,{"Q0":"puppet"}
survey-text,572,2981177,2229.1299999924377,"",,,,,,{"Q0":"bacon"}
survey-text,573,3004098,22916.639999952167,"",,,,,,{"Q0":"bacon"}
survey-text,574,3009619,5514.979999978095,"",,,,,,{"Q0":"bacon"}
survey-text,575,3016332,6708.074999973178,"",,,,,,{"Q0":"bacon"}
survey-text,576,3023477,7140.849999967031,"",,,,,,{"Q0":"bacon"}
html-keyboard-response,577,3023937,457.58499996736646,"<div style=""font-size:48px;"">Press any key to begin list 10 of 24 </div>",13,,,,,
html-keyboard-response,578,3026445,null,"<div style=""font-size:60px;"">+</div>",null,,,,,
html-keyboard-response,579,3026950,null,"POSTAGE<img id = ""stim"" ><div class = red_square id = ""topsquare"" ></div><img id = ""stim"" ><div class = red_square  id = ""bottomsquare"" ></div>",null,word_square,0,SPACEBAR,,
html-keyboard-response,580,3028453,null,"POSTAGE",null,word,,, 'POSTAGE',
html-keyboard-response,581,3028957,null,"POCKET<img id = ""stim"" ><div class = green_square id = ""topsquare"" ></div><img id = ""stim"" ><div class = green_square  id = ""bottomsquare"" ></div>",null,word_square,1,SPACEBAR,,
html-keyboard-response,582,3030459,null,"POCKET",null,word,,, 'POCKET',
html-keyboard-response,583,3030962,null,"ZEBRA<img id = ""stim"" ><div class = green_square id = ""topsquare"" ></div><img id = ""stim"" ><div class = green_square  id = ""bottomsquare"" ></div>",null,word_square,1,SPACEBAR,,
html-keyboard-response,584,3032465,null,"ZEBRA",null,word,,, 'ZEBRA',
html-keyboard-response,585,3032969,null,"SADDLE<img id = ""stim"" ><div class = red_square id = ""topsquare"" ></div><img id = ""stim"" ><div class = red_square  id = ""bottomsquare"" ></div>",null,word_square,0,SPACEBAR,,
html-keyboard-response,586,3034472,null,"SADDLE",null,word,,, 'SADDLE',
html-keyboard-response,587,3034977,null,"STATUE<img id = ""stim"" ><div class = red_square id = ""topsquare"" ></div><img id = ""stim"" ><div class = red_square  id = ""bottomsquare"" ></div>",null,word_square,0,SPACEBAR,,
html-keyboard-response,588,3036479,null,"STATUE",null,word,,, 'STATUE',
html-keyboard-response,589,3036981,null,"BUGGY<img id = ""stim"" ><div class = green_square id = ""topsquare"" ></div><img id = ""stim"" ><div class = green_square  id = ""bottomsquare"" ></div>",null,word_square,1,SPACEBAR,,
html-keyboard-response,590,3038485,null,"BUGGY",null,word,,, 'BUGGY',
html-keyboard-response,591,3038989,null,"OMELET<img id = ""stim"" ><div class = red_square id = ""topsquare"" ></div><img id = ""stim"" ><div class = red_square  id = ""bottomsquare"" ></div>",null,word_square,0,SPACEBAR,,
html-keyboard-response,592,3040493,null,"OMELET",null,word,,, 'OMELET',
html-keyboard-response,593,3040998,null,"MAILBOX<img id = ""stim"" ><div class = green_square id = ""topsquare"" ></div><img id = ""stim"" ><div class = green_square  id = ""bottomsquare"" ></div>",null,word_square,1,SPACEBAR,,
html-keyboard-response,594,3042501,null,"MAILBOX",null,word,,, 'MAILBOX',
html-keyboard-response,595,3043007,null,"BINDER<img id = ""stim"" ><div class = red_square id = ""topsquare"" ></div><img id = ""stim"" ><div class = red_square  id = ""bottomsquare"" ></div>",null,word_square,0,SPACEBAR,,
html-keyboard-response,596,3044509,null,"BINDER",null,word,,, 'BINDER',
html-keyboard-response,597,3045014,null,"RECORD<img id = ""stim"" ><div class = red_square id = ""topsquare"" ></div><img id = ""stim"" ><div class = red_square  id = ""bottomsquare"" ></div>",null,word_square,0,SPACEBAR,,
html-keyboard-response,598,3046520,null,"RECORD",null,word,,, 'RECORD',
html-keyboard-response,599,3047024,null,"TUBA<img id = ""stim"" ><div class = green_square id = ""topsquare"" ></div><img id = ""stim"" ><div class = green_square  id = ""bottomsquare"" ></div>",null,word_square,1,SPACEBAR,,
html-keyboard-response,600,3048526,null,"TUBA",null,word,,, 'TUBA',
html-keyboard-response,601,3049030,null,"STAIRS<img id = ""stim"" ><div class = red_square id = ""topsquare"" ></div><img id = ""stim"" ><div class = red_square  id = ""bottomsquare"" ></div>",null,word_square,0,SPACEBAR,,
html-keyboard-response,602,3050535,null,"STAIRS",null,word,,, 'STAIRS',
html-keyboard-response,603,3051019,481.8199999863282,"STALLION<img id = ""stim"" ><div class = green_square id = ""topsquare"" ></div><img id = ""stim"" ><div class = green_square  id = ""bottomsquare"" ></div>",32,word_square,1,SPACEBAR,,
html-keyboard-response,604,3052521,null,"STALLION",null,word,,, 'STALLION',
html-keyboard-response,605,3053025,null,"DESSERT<img id = ""stim"" ><div class = green_square id = ""topsquare"" ></div><img id = ""stim"" ><div class = green_square  id = ""bottomsquare"" ></div>",null,word_square,1,SPACEBAR,,
html-keyboard-response,606,3054529,null,"DESSERT",null,word,,, 'DESSERT',
html-keyboard-response,607,3055034,null,"HAYSTACK<img id = ""stim"" ><div class = green_square id = ""topsquare"" ></div><img id = ""stim"" ><div class = green_square  id = ""bottomsquare"" ></div>",null,word_square,1,SPACEBAR,,
html-keyboard-response,608,3056538,null,"HAYSTACK",null,word,,, 'HAYSTACK',
html-keyboard-response,609,3057043,null,"DONKEY<img id = ""stim"" ><div class = red_square id = ""topsquare"" ></div><img id = ""stim"" ><div class = red_square  id = ""bottomsquare"" ></div>",null,word_square,0,SPACEBAR,,
html-keyboard-response,610,3058548,null,"DONKEY",null,word,,, 'DONKEY',
html-keyboard-response,611,3059051,null,"SHAMPOO<img id = ""stim"" ><div class = red_square id = ""topsquare"" ></div><img id = ""stim"" ><div class = red_square  id = ""bottomsquare"" ></div>",null,word_square,0,SPACEBAR,,
html-keyboard-response,612,3060554,null,"SHAMPOO",null,word,,, 'SHAMPOO',
html-keyboard-response,613,3061059,null,"ATTIC<img id = ""stim"" ><div class = green_square id = ""topsquare"" ></div><img id = ""stim"" ><div class = green_square  id = ""bottomsquare"" ></div>",null,word_square,1,SPACEBAR,,
html-keyboard-response,614,3062563,null,"ATTIC",null,word,,, 'ATTIC',
survey-text,615,3066498,3931.319999974221,"",,,,,,{"Q0":"2"}
survey-text,616,3068572,2069.774999981746,"",,,,,,{"Q0":"1"}
survey-text,617,3069623,1046.3000000454485,"",,,,,,{"Q0":"2"}
survey-text,618,3072117,2489.794999943115,"",,,,,,{"Q0":"0"}
survey-text,619,3073411,1290.1299999793991,"",,,,,,{"Q0":"3"}
survey-text,620,3075541,2126.120000029914,"",,,,,,{"Q0":"1"}
survey-text,621,3079786,4238.819999969564,"",,,,,,{"Q0":"4"}
survey-text,622,3081088,1297.664999961853,"",,,,,,{"Q0":"2"}
survey-text,623,3082581,1490.1750000426546,"",,,,,,{"Q0":"5"}
survey-text,624,3083896,1310.9600000316277,"",,,,,,{"Q0":"1"}
survey-text,625,3088017,4117.2350000124425,"",,,,,,{"Q0":"4"}
survey-text,626,3094045,6024.36999999918,"",,,,,,{"Q0":"pocket"}
survey-text,627,3097910,3859.3350000446662,"",,,,,,{"Q0":"zebra"}
survey-text,628,3100726,2811.669999966398,"",,,,,,{"Q0":"saddle"}
survey-text,629,3103493,2763.4900000412017,"",,,,,,{"Q0":"statue"}
survey-text,630,3128308,24810.774999903515,"",,,,,,{"Q0":"statue"}
survey-text,631,3134041,5727.845000103116,"",,,,,,{"Q0":"statue"}
survey-text,632,3136502,2457.3749999981374,"",,,,,,{"Q0":"statue"}
survey-text,633,3149686,13179.684999980964,"",,,,,,{"Q0":"statue"}
survey-text,634,3156707,7017.570000025444,"",,,,,,{"Q0":"statue"}
survey-text,635,3171255,14544.709999929182,"",,,,,,{"Q0":"statue"}
html-keyboard-response,636,3171842,584.789999993518,"<div style=""font-size:48px;"">Press any key to begin list 11 of 24 </div>",13,,,,,
html-keyboard-response,637,3174347,null,"<div style=""font-size:60px;"">+</div>",null,,,,,
html-keyboard-response,638,3174850,null,"MONSTER<img id = ""stim"" ><div class = green_square id = ""topsquare"" ></div><img id = ""stim"" ><div class = green_square  id = ""bottomsquare"" ></div>",null,word_square,1,SPACEBAR,,
html-keyboard-response,639,3176351,null,"MONSTER",null,word,,, 'MONSTER',
html-keyboard-response,640,3176854,null,"PLASTER<img id = ""stim"" ><div class = red_square id = ""topsquare"" ></div><img id = ""stim"" ><div class = red_square  id = ""bottomsquare"" ></div>",null,word_square,0,SPACEBAR,,
html-keyboard-response,641,3178358,null,"PLASTER",null,word,,, 'PLASTER',
html-keyboard-response,642,3178862,null,"BUBBLE<img id = ""stim"" ><div class = red_square id = ""topsquare"" ></div><img id = ""stim"" ><div class = red_square  id = ""bottomsquare"" ></div>",null,word_square,0,SPACEBAR,,
html-keyboard-response,643,3180365,null,"BUBBLE",null,word,,, 'BUBBLE',
html-keyboard-response,644,3180869,null,"HARP<img id = ""stim"" ><div class = green_square id = ""topsquare"" ></div><img id = ""stim"" ><div class = green_square  id = ""bottomsquare"" ></div>",null,word_square,1,SPACEBAR,,
html-keyboard-response,645,3182372,null,"HARP",null,word,,, 'HARP',
html-keyboard-response,646,3182876,null,"BANJO<img id = ""stim"" ><div class = green_square id = ""topsquare"" ></div><img id = ""stim"" ><div class = green_square  id = ""bottomsquare"" ></div>",null,word_square,1,SPACEBAR,,
html-keyboard-response,647,3184377,null,"BANJO",null,word,,, 'BANJO',
html-keyboard-response,648,3184485,106.08000005595386,"WRENCH<img id = ""stim"" ><div class = red_square id = ""topsquare"" ></div><img id = ""stim"" ><div class = red_square  id = ""bottomsquare"" ></div>",32,word_square,0,SPACEBAR,,
html-keyboard-response,649,3185987,null,"WRENCH",null,word,,, 'WRENCH',
html-keyboard-response,650,3186494,null,"PORCH<img id = ""stim"" ><div class = green_square id = ""topsquare"" ></div><img id = ""stim"" ><div class = green_square  id = ""bottomsquare"" ></div>",null,word_square,1,SPACEBAR,,
html-keyboard-response,651,3187997,null,"PORCH",null,word,,, 'PORCH',
html-keyboard-response,652,3188500,null,"HOOK<img id = ""stim"" ><div class = red_square id = ""topsquare"" ></div><img id = ""stim"" ><div class = red_square  id = ""bottomsquare"" ></div>",null,word_square,0,SPACEBAR,,
html-keyboard-response,653,3190005,null,"HOOK",null,word,,, 'HOOK',
html-keyboard-response,654,3190507,null,"LOUNGE<img id = ""stim"" ><div class = green_square id = ""topsquare"" ></div><img id = ""stim"" ><div class = green_square  id = ""bottomsquare"" ></div>",null,word_square,1,SPACEBAR,,
html-keyboard-response,655,3192012,null,"LOUNGE",null,word,,, 'LOUNGE',
html-keyboard-response,656,3192513,null,"CLIMBER<img id = ""stim"" ><div class = green_square id = ""topsquare"" ></div><img id = ""stim"" ><div class = green_square  id = ""bottomsquare"" ></div>",null,word_square,1,SPACEBAR,,
html-keyboard-response,657,3194018,null,"CLIMBER",null,word,,, 'CLIMBER',
html-keyboard-response,658,3194520,null,"SUMMIT<img id = ""stim"" ><div class = red_square id = ""topsquare"" ></div><img id = ""stim"" ><div class = red_square  id = ""bottomsquare"" ></div>",null,word_square,0,SPACEBAR,,
html-keyboard-response,659,3196025,null,"SUMMIT",null,word,,, 'SUMMIT',
html-keyboard-response,660,3196529,null,"NEEDLE<img id = ""stim"" ><div class = green_square id = ""topsquare"" ></div><img id = ""stim"" ><div class = green_square  id = ""bottomsquare"" ></div>",null,word_square,1,SPACEBAR,,
html-keyboard-response,661,3198034,null,"NEEDLE",null,word,,, 'NEEDLE',
html-keyboard-response,662,3198538,null,"SOFTBALL<img id = ""stim"" ><div class = red_square id = ""topsquare"" ></div><img id = ""stim"" ><div class = red_square  id = ""bottomsquare"" ></div>",null,word_square,0,SPACEBAR,,
html-keyboard-response,663,3200045,null,"SOFTBALL",null,word,,, 'SOFTBALL',
html-keyboard-response,664,3200548,null,"TWEEZERS<img id = ""stim"" ><div class = red_square id = ""topsquare"" ></div><img id = ""stim"" ><div class = red_square  id = ""bottomsquare"" ></div>",null,word_square,0,SPACEBAR,,
html-keyboard-response,665,3202052,null,"TWEEZERS",null,word,,, 'TWEEZERS',
html-keyboard-response,666,3202556,null,"GLASSES<img id = ""stim"" ><div class = red_square id = ""topsquare"" ></div><img id = ""stim"" ><div class = red_square  id = ""bottomsquare"" ></div>",null,word_square,0,SPACEBAR,,
html-keyboard-response,667,3204060,null,"GLASSES",null,word,,, 'GLASSES',
html-keyboard-response,668,3204563,null,"TROUT<img id = ""stim"" ><div class = green_square id = ""topsquare"" ></div><img id = ""stim"" ><div class = green_square  id = ""bottomsquare"" ></div>",null,word_square,1,SPACEBAR,,
html-keyboard-response,669,3206068,null,"TROUT",null,word,,, 'TROUT',
html-keyboard-response,670,3206571,null,"ISLAND<img id = ""stim"" ><div class = green_square id = ""topsquare"" ></div><img id = ""stim"" ><div class = green_square  id = ""bottomsquare"" ></div>",null,word_square,1,SPACEBAR,,
html-keyboard-response,671,3208075,null,"ISLAND",null,word,,, 'ISLAND',
html-keyboard-response,672,3208580,null,"BUG<img id = ""stim"" ><div class = red_square id = ""topsquare"" ></div><img id = ""stim"" ><div class = red_square  id = ""bottomsquare"" ></div>",null,word_square,0,SPACEBAR,,
html-keyboard-response,673,3210083,null,"BUG",null,word,,, 'BUG',
survey-text,674,3213361,3274.350000079721,"",,,,,,{"Q0":"5"}
survey-text,675,3214502,1135.66000002902,"",,,,,,{"Q0":"2"}
survey-text,676,3215784,1278.3400000771508,"",,,,,,{"Q0":"3"}
survey-text,677,3217646,1857.2750000748783,"",,,,,,{"Q0":"5"}
survey-text,678,3219682,2033.6399999214336,"",,,,,,{"Q0":"2"}
survey-text,679,3221285,1600.0600000843406,"",,,,,,{"Q0":"1"}
survey-text,680,3223700,2411.1399999819696,"",,,,,,{"Q0":"0"}
survey-text,681,3225673,1970.4100000672042,"",,,,,,{"Q0":"5"}
survey-text,682,3228911,3234.4199999934062,"",,,,,,{"Q0":"0"}
survey-text,683,3231106,2191.7400000384077,"",,,,,,{"Q0":"0"}
survey-text,684,3233341,2231.9349999306723,"",,,,,,{"Q0":"0"}
survey-text,685,3235048,1703.499999945052,"",,,,,,{"Q0":"6"}
survey-text,686,3243642,8588.655000086874,"",,,,,,{"Q0":"needle"}
survey-text,687,3245109,1462.69499999471,"",,,,,,{"Q0":"summit"}
survey-text,688,3250125,5012.654999969527,"",,,,,,{"Q0":"lounge"}
survey-text,689,3252683,2555.064999964088,"",,,,,,{"Q0":"banjo"}
survey-text,690,3254785,2097.304999944754,"",,,,,,{"Q0":"harp"}
survey-text,691,3257158,2367.3750000307336,"",,,,,,{"Q0":"plaster"}
survey-text,692,3259919,2756.775000016205,"",,,,,,{"Q0":"monster"}
survey-text,693,3291627,31701.430000015534,"",,,,,,{"Q0":"monster"}
survey-text,694,3300784,9151.455000042915,"",,,,,,{"Q0":"monster"}
survey-text,695,3311822,11034.529999946244,"",,,,,,{"Q0":"monster"}
html-keyboard-response,696,3312937,1113.4600000223145,"<div style=""font-size:48px;"">Press any key to begin list 12 of 24 </div>",13,,,,,
html-keyboard-response,697,3315442,null,"<div style=""font-size:60px;"">+</div>",null,,,,,
html-keyboard-response,698,3315947,null,"LETTUCE<img id = ""stim"" ><div class = green_square id = ""topsquare"" ></div><img id = ""stim"" ><div class = green_square  id = ""bottomsquare"" ></div>",null,word_square,1,SPACEBAR,,
html-keyboard-response,699,3317450,null,"LETTUCE",null,word,,, 'LETTUCE',
html-keyboard-response,700,3317953,null,"SLIME<img id = ""stim"" ><div class = red_square id = ""topsquare"" ></div><img id = ""stim"" ><div class = red_square  id = ""bottomsquare"" ></div>",null,word_square,0,SPACEBAR,,
html-keyboard-response,701,3319459,null,"SLIME",null,word,,, 'SLIME',
html-keyboard-response,702,3319961,null,"ANGEL<img id = ""stim"" ><div class = red_square id = ""topsquare"" ></div><img id = ""stim"" ><div class = red_square  id = ""bottomsquare"" ></div>",null,word_square,0,SPACEBAR,,
html-keyboard-response,703,3321463,null,"ANGEL",null,word,,, 'ANGEL',
html-keyboard-response,704,3321967,null,"AUTHOR<img id = ""stim"" ><div class = green_square id = ""topsquare"" ></div><img id = ""stim"" ><div class = green_square  id = ""bottomsquare"" ></div>",null,word_square,1,SPACEBAR,,
html-keyboard-response,705,3323470,null,"AUTHOR",null,word,,, 'AUTHOR',
html-keyboard-response,706,3323974,null,"JUGGLER<img id = ""stim"" ><div class = green_square id = ""topsquare"" ></div><img id = ""stim"" ><div class = green_square  id = ""bottomsquare"" ></div>",null,word_square,1,SPACEBAR,,
html-keyboard-response,707,3325478,null,"JUGGLER",null,word,,, 'JUGGLER',
html-keyboard-response,708,3325984,null,"LOBBY<img id = ""stim"" ><div class = red_square id = ""topsquare"" ></div><img id = ""stim"" ><div class = red_square  id = ""bottomsquare"" ></div>",null,word_square,0,SPACEBAR,,
html-keyboard-response,709,3327486,null,"LOBBY",null,word,,, 'LOBBY',
html-keyboard-response,710,3327992,null,"BANKER<img id = ""stim"" ><div class = green_square id = ""topsquare"" ></div><img id = ""stim"" ><div class = green_square  id = ""bottomsquare"" ></div>",null,word_square,1,SPACEBAR,,
html-keyboard-response,711,3329495,null,"BANKER",null,word,,, 'BANKER',
html-keyboard-response,712,3329999,null,"MARKET<img id = ""stim"" ><div class = red_square id = ""topsquare"" ></div><img id = ""stim"" ><div class = red_square  id = ""bottomsquare"" ></div>",null,word_square,0,SPACEBAR,,
html-keyboard-response,713,3331502,null,"MARKET",null,word,,, 'MARKET',
html-keyboard-response,714,3332005,null,"CANAL<img id = ""stim"" ><div class = green_square id = ""topsquare"" ></div><img id = ""stim"" ><div class = green_square  id = ""bottomsquare"" ></div>",null,word_square,1,SPACEBAR,,
html-keyboard-response,715,3333509,null,"CANAL",null,word,,, 'CANAL',
html-keyboard-response,716,3334013,null,"WAREHOUSE<img id = ""stim"" ><div class = green_square id = ""topsquare"" ></div><img id = ""stim"" ><div class = green_square  id = ""bottomsquare"" ></div>",null,word_square,1,SPACEBAR,,
html-keyboard-response,717,3335517,null,"WAREHOUSE",null,word,,, 'WAREHOUSE',
html-keyboard-response,718,3336023,null,"BARREL<img id = ""stim"" ><div class = red_square id = ""topsquare"" ></div><img id = ""stim"" ><div class = red_square  id = ""bottomsquare"" ></div>",null,word_square,0,SPACEBAR,,
html-keyboard-response,719,3337525,null,"BARREL",null,word,,, 'BARREL',
html-keyboard-response,720,3338031,null,"SCOUT<img id = ""stim"" ><div class = green_square id = ""topsquare"" ></div><img id = ""stim"" ><div class = green_square  id = ""bottomsquare"" ></div>",null,word_square,1,SPACEBAR,,
html-keyboard-response,721,3339534,null,"SCOUT",null,word,,, 'SCOUT',
html-keyboard-response,722,3340040,null,"CUPBOARD<img id = ""stim"" ><div class = red_square id = ""topsquare"" ></div><img id = ""stim"" ><div class = red_square  id = ""bottomsquare"" ></div>",null,word_square,0,SPACEBAR,,
html-keyboard-response,723,3341544,null,"CUPBOARD",null,word,,, 'CUPBOARD',
html-keyboard-response,724,3342052,null,"CHAMPAGNE<img id = ""stim"" ><div class = red_square id = ""topsquare"" ></div><img id = ""stim"" ><div class = red_square  id = ""bottomsquare"" ></div>",null,word_square,0,SPACEBAR,,
html-keyboard-response,725,3343554,null,"CHAMPAGNE",null,word,,, 'CHAMPAGNE',
html-keyboard-response,726,3344059,null,"PORT<img id = ""stim"" ><div class = red_square id = ""topsquare"" ></div><img id = ""stim"" ><div class = red_square  id = ""bottomsquare"" ></div>",null,word_square,0,SPACEBAR,,
html-keyboard-response,727,3345564,null,"PORT",null,word,,, 'PORT',
html-keyboard-response,728,3346069,null,"TURKEY<img id = ""stim"" ><div class = green_square id = ""topsquare"" ></div><img id = ""stim"" ><div class = green_square  id = ""bottomsquare"" ></div>",null,word_square,1,SPACEBAR,,
html-keyboard-response,729,3347572,null,"TURKEY",null,word,,, 'TURKEY',
html-keyboard-response,730,3348074,null,"JOURNAL<img id = ""stim"" ><div class = green_square id = ""topsquare"" ></div><img id = ""stim"" ><div class = green_square  id = ""bottomsquare"" ></div>",null,word_square,1,SPACEBAR,,
html-keyboard-response,731,3349578,null,"JOURNAL",null,word,,, 'JOURNAL',
html-keyboard-response,732,3350085,null,"SEAFOOD<img id = ""stim"" ><div class = red_square id = ""topsquare"" ></div><img id = ""stim"" ><div class = red_square  id = ""bottomsquare"" ></div>",null,word_square,0,SPACEBAR,,
html-keyboard-response,733,3351587,null,"SEAFOOD",null,word,,, 'SEAFOOD',
survey-text,734,3354037,2444.705000030808,"",,,,,,{"Q0":"5"}
survey-text,735,3356302,2260.3099999250844,"",,,,,,{"Q0":"2"}
survey-text,736,3357599,1290.6600000569597,"",,,,,,{"Q0":"5"}
survey-text,737,3358957,1353.720000013709,"",,,,,,{"Q0":"2"}
survey-text,738,3360294,1332.7450000215322,"",,,,,,{"Q0":"3"}
survey-text,739,3363600,3302.2300000302494,"",,,,,,{"Q0":"4"}
survey-text,740,3366500,2895.535000017844,"",,,,,,{"Q0":"6"}
survey-text,741,3368302,1798.0400000233203,"",,,,,,{"Q0":"2"}
survey-text,742,3370738,2432.2200000751764,"",,,,,,{"Q0":"5"}
survey-text,743,3373288,2545.9150000242516,"",,,,,,{"Q0":"5"}
survey-text,744,3374926,1634.5649999566376,"",,,,,,{"Q0":"1"}
survey-text,745,3378920,3989.8250000551343,"",,,,,,{"Q0":"5"}
survey-text,746,3387478,8553.264999995008,"",,,,,,{"Q0":"canal"}
survey-text,747,3391121,3639.850000035949,"",,,,,,{"Q0":"banker"}
survey-text,748,3398106,6980.93499999959,"",,,,,,{"Q0":"lobby"}
survey-text,749,3402257,4145.650000078604,"",,,,,,{"Q0":"author"}
survey-text,750,3405025,2763.2949999533594,"",,,,,,{"Q0":"angel"}
survey-text,751,3440078,35047.179999994114,"",,,,,,{"Q0":"canal"}
survey-text,752,3453206,13121.56999995932,"",,,,,,{"Q0":"canal"}
survey-text,753,3466013,12802.980000036769,"",,,,,,{"Q0":"canal"}
html-keyboard-response,754,3466706,691.1099998978898,"<div style=""font-size:48px;"">Press any key to begin list 13 of 24 </div>",13,,,,,
html-keyboard-response,755,3469210,null,"<div style=""font-size:60px;"">+</div>",null,,,,,
html-keyboard-response,756,3469712,null,"CANOE<img id = ""stim"" ><div class = green_square id = ""topsquare"" ></div><img id = ""stim"" ><div class = green_square  id = ""bottomsquare"" ></div>",null,word_square,1,SPACEBAR,,
html-keyboard-response,757,3471214,null,"CANOE",null,word,,, 'CANOE',
html-keyboard-response,758,3471717,null,"FATHER<img id = ""stim"" ><div class = red_square id = ""topsquare"" ></div><img id = ""stim"" ><div class = red_square  id = ""bottomsquare"" ></div>",null,word_square,0,SPACEBAR,,
html-keyboard-response,759,3473219,null,"FATHER",null,word,,, 'FATHER',
html-keyboard-response,760,3473722,null,"PREACHER<img id = ""stim"" ><div class = green_square id = ""topsquare"" ></div><img id = ""stim"" ><div class = green_square  id = ""bottomsquare"" ></div>",null,word_square,1,SPACEBAR,,
html-keyboard-response,761,3475224,null,"PREACHER",null,word,,, 'PREACHER',
html-keyboard-response,762,3475729,null,"CURTAIN<img id = ""stim"" ><div class = red_square id = ""topsquare"" ></div><img id = ""stim"" ><div class = red_square  id = ""bottomsquare"" ></div>",null,word_square,0,SPACEBAR,,
html-keyboard-response,763,3477232,null,"CURTAIN",null,word,,, 'CURTAIN',
html-keyboard-response,764,3477738,null,"CHISEL<img id = ""stim"" ><div class = green_square id = ""topsquare"" ></div><img id = ""stim"" ><div class = green_square  id = ""bottomsquare"" ></div>",null,word_square,1,SPACEBAR,,
html-keyboard-response,765,3479240,null,"CHISEL",null,word,,, 'CHISEL',
html-keyboard-response,766,3479745,null,"SALAD<img id = ""stim"" ><div class = red_square id = ""topsquare"" ></div><img id = ""stim"" ><div class = red_square  id = ""bottomsquare"" ></div>",null,word_square,0,SPACEBAR,,
html-keyboard-response,767,3481248,null,"SALAD",null,word,,, 'SALAD',
html-keyboard-response,768,3481753,null,"RAZOR<img id = ""stim"" ><div class = red_square id = ""topsquare"" ></div><img id = ""stim"" ><div class = red_square  id = ""bottomsquare"" ></div>",null,word_square,0,SPACEBAR,,
html-keyboard-response,769,3483258,null,"RAZOR",null,word,,, 'RAZOR',
html-keyboard-response,770,3483763,null,"COOKIE<img id = ""stim"" ><div class = green_square id = ""topsquare"" ></div><img id = ""stim"" ><div class = green_square  id = ""bottomsquare"" ></div>",null,word_square,1,SPACEBAR,,
html-keyboard-response,771,3485265,null,"COOKIE",null,word,,, 'COOKIE',
html-keyboard-response,772,3485771,null,"OATMEAL<img id = ""stim"" ><div class = green_square id = ""topsquare"" ></div><img id = ""stim"" ><div class = green_square  id = ""bottomsquare"" ></div>",null,word_square,1,SPACEBAR,,
html-keyboard-response,773,3487274,null,"OATMEAL",null,word,,, 'OATMEAL',
html-keyboard-response,774,3487778,null,"GARAGE<img id = ""stim"" ><div class = red_square id = ""topsquare"" ></div><img id = ""stim"" ><div class = red_square  id = ""bottomsquare"" ></div>",null,word_square,0,SPACEBAR,,
html-keyboard-response,775,3489285,null,"GARAGE",null,word,,, 'GARAGE',
html-keyboard-response,776,3489789,null,"WINDSHIELD<img id = ""stim"" ><div class = red_square id = ""topsquare"" ></div><img id = ""stim"" ><div class = red_square  id = ""bottomsquare"" ></div>",null,word_square,0,SPACEBAR,,
html-keyboard-response,777,3491292,null,"WINDSHIELD",null,word,,, 'WINDSHIELD',
html-keyboard-response,778,3491798,null,"MANSION<img id = ""stim"" ><div class = green_square id = ""topsquare"" ></div><img id = ""stim"" ><div class = green_square  id = ""bottomsquare"" ></div>",null,word_square,1,SPACEBAR,,
html-keyboard-response,779,3493301,null,"MANSION",null,word,,, 'MANSION',
html-keyboard-response,780,3493804,null,"CARTON<img id = ""stim"" ><div class = red_square id = ""topsquare"" ></div><img id = ""stim"" ><div class = red_square  id = ""bottomsquare"" ></div>",null,word_square,0,SPACEBAR,,
html-keyboard-response,781,3495309,null,"CARTON",null,word,,, 'CARTON',
html-keyboard-response,782,3495815,null,"SILK<img id = ""stim"" ><div class = green_square id = ""topsquare"" ></div><img id = ""stim"" ><div class = green_square  id = ""bottomsquare"" ></div>",null,word_square,1,SPACEBAR,,
html-keyboard-response,783,3497318,null,"SILK",null,word,,, 'SILK',
html-keyboard-response,784,3497824,null,"SAND<img id = ""stim"" ><div class = red_square id = ""topsquare"" ></div><img id = ""stim"" ><div class = red_square  id = ""bottomsquare"" ></div>",null,word_square,0,SPACEBAR,,
html-keyboard-response,785,3499326,null,"SAND",null,word,,, 'SAND',
html-keyboard-response,786,3499830,null,"WATER<img id = ""stim"" ><div class = red_square id = ""topsquare"" ></div><img id = ""stim"" ><div class = red_square  id = ""bottomsquare"" ></div>",null,word_square,0,SPACEBAR,,
html-keyboard-response,787,3501332,null,"WATER",null,word,,, 'WATER',
html-keyboard-response,788,3501834,null,"OCEAN<img id = ""stim"" ><div class = green_square id = ""topsquare"" ></div><img id = ""stim"" ><div class = green_square  id = ""bottomsquare"" ></div>",null,word_square,1,SPACEBAR,,
html-keyboard-response,789,3503338,null,"OCEAN",null,word,,, 'OCEAN',
html-keyboard-response,790,3503844,null,"OUTFIT<img id = ""stim"" ><div class = green_square id = ""topsquare"" ></div><img id = ""stim"" ><div class = green_square  id = ""bottomsquare"" ></div>",null,word_square,1,SPACEBAR,,
html-keyboard-response,791,3505347,null,"OUTFIT",null,word,,, 'OUTFIT',
survey-text,792,3507373,2022.594999987632,"",,,,,,{"Q0":"3"}
survey-text,793,3508536,1159.0249999426305,"",,,,,,{"Q0":"4"}
survey-text,794,3509708,1168.6399999307469,"",,,,,,{"Q0":"3"}
survey-text,795,3511053,1342.2649999847636,"",,,,,,{"Q0":"5"}
survey-text,796,3512540,1482.520000077784,"",,,,,,{"Q0":"5"}
survey-text,797,3516292,3748.299999977462,"",,,,,,{"Q0":"0"}
survey-text,798,3519848,3551.8150000134483,"",,,,,,{"Q0":"1"}
survey-text,799,3521340,1487.165000056848,"",,,,,,{"Q0":"5"}
survey-text,800,3522557,1214.1899999696761,"",,,,,,{"Q0":"3"}
survey-text,801,3524399,1838.2249999558553,"",,,,,,{"Q0":"2"}
survey-text,802,3526418,2013.9600000111386,"",,,,,,{"Q0":"2"}
survey-text,803,3528768,2345.409999950789,"",,,,,,{"Q0":"1"}
survey-text,804,3530868,2094.554999959655,"",,,,,,{"Q0":"1"}
survey-text,805,3536323,5449.904999928549,"",,,,,,{"Q0":"oatmeal"}
survey-text,806,3540688,4361.264999955893,"",,,,,,{"Q0":"cookie"}
survey-text,807,3543622,2930.6649999925867,"",,,,,,{"Q0":"razor"}
survey-text,808,3547208,3579.685000004247,"",,,,,,{"Q0":"preacher"}
survey-text,809,3549367,2153.319999924861,"",,,,,,{"Q0":"father"}
survey-text,810,3551843,2473.145000054501,"",,,,,,{"Q0":"canoe"}
survey-text,811,3677828,125975.80999997444,"",,,,,,{"Q0":"cookie"}
html-keyboard-response,812,3678517,686.8000000249594,"<div style=""font-size:48px;"">Press any key to begin list 14 of 24 </div>",13,,,,,
html-keyboard-response,813,3681023,null,"<div style=""font-size:60px;"">+</div>",null,,,,,
html-keyboard-response,814,3681528,null,"NEPTUNE<img id = ""stim"" ><div class = green_square id = ""topsquare"" ></div><img id = ""stim"" ><div class = green_square  id = ""bottomsquare"" ></div>",null,word_square,1,SPACEBAR,,
html-keyboard-response,815,3683031,null,"NEPTUNE",null,word,,, 'NEPTUNE',
html-keyboard-response,816,3683535,null,"CATCHER<img id = ""stim"" ><div class = red_square id = ""topsquare"" ></div><img id = ""stim"" ><div class = red_square  id = ""bottomsquare"" ></div>",null,word_square,0,SPACEBAR,,
html-keyboard-response,817,3685041,null,"CATCHER",null,word,,, 'CATCHER',
html-keyboard-response,818,3685545,null,"CONCRETE<img id = ""stim"" ><div class = green_square id = ""topsquare"" ></div><img id = ""stim"" ><div class = green_square  id = ""bottomsquare"" ></div>",null,word_square,1,SPACEBAR,,
html-keyboard-response,819,3687049,null,"CONCRETE",null,word,,, 'CONCRETE',
html-keyboard-response,820,3687552,null,"PLANET<img id = ""stim"" ><div class = red_square id = ""topsquare"" ></div><img id = ""stim"" ><div class = red_square  id = ""bottomsquare"" ></div>",null,word_square,0,SPACEBAR,,
html-keyboard-response,821,3689057,null,"PLANET",null,word,,, 'PLANET',
html-keyboard-response,822,3689560,null,"TORTOISE<img id = ""stim"" ><div class = green_square id = ""topsquare"" ></div><img id = ""stim"" ><div class = green_square  id = ""bottomsquare"" ></div>",null,word_square,1,SPACEBAR,,
html-keyboard-response,823,3691066,null,"TORTOISE",null,word,,, 'TORTOISE',
html-keyboard-response,824,3691569,null,"HUSBAND<img id = ""stim"" ><div class = red_square id = ""topsquare"" ></div><img id = ""stim"" ><div class = red_square  id = ""bottomsquare"" ></div>",null,word_square,0,SPACEBAR,,
html-keyboard-response,825,3693071,null,"HUSBAND",null,word,,, 'HUSBAND',
html-keyboard-response,826,3693574,null,"DART<img id = ""stim"" ><div class = red_square id = ""topsquare"" ></div><img id = ""stim"" ><div class = red_square  id = ""bottomsquare"" ></div>",null,word_square,0,SPACEBAR,,
html-keyboard-response,827,3695077,null,"DART",null,word,,, 'DART',
html-keyboard-response,828,3695582,null,"EMPIRE<img id = ""stim"" ><div class = green_square id = ""topsquare"" ></div><img id = ""stim"" ><div class = green_square  id = ""bottomsquare"" ></div>",null,word_square,1,SPACEBAR,,
html-keyboard-response,829,3697086,null,"EMPIRE",null,word,,, 'EMPIRE',
html-keyboard-response,830,3697591,null,"INSECT<img id = ""stim"" ><div class = green_square id = ""topsquare"" ></div><img id = ""stim"" ><div class = green_square  id = ""bottomsquare"" ></div>",null,word_square,1,SPACEBAR,,
html-keyboard-response,831,3699095,null,"INSECT",null,word,,, 'INSECT',
