trial_type,trial_index,time_elapsed,rt,stimulus,key_press,test_part,task,targ_cond,correctKeyCode,correct,word,value,response
pavlovia,0,715,,"",,,,,,,,,
external-html,1,16415,15571.850000007544,"",,,,,,,,,
html-keyboard-response,2,18041,1623.1850000331178,"Welcome to the experiment. Press any key to begin.",32,,,,,,,,
html-keyboard-response,3,27386,9342.68499998143,"<p>You will see a list of words and colored squares in the following task.<p><p>Press the spacebar whenever you see a GREEN square.<p><p>Do not press a key if the square is RED<p><p>Press the spacebar to continue.</p>",32,,,,,,,,
html-keyboard-response,4,36433,8543.030000000726,"<p>Please try to remember as many of the words as you can, and try to think about the meaning of each word as it appears.<p><p>After the detection and encoding task you will be asked to solve some math problems for 24 seconds.<p> Please solve as many problems as you can in the time given. <p>",32,,,,,,,,
html-keyboard-response,5,39233,2297.8800000273623,"After solving the math problems, you will be asked to type in as many words <p>from the previous list as you can remember for 75 seconds.<p> If you finish recalling before the 75 seconds are up,<p> just sit tight and try to think of any more words you could have missed. <p><p>We will begin with a brief practice session<p>Press the spacebar to begin the practice.</p>",32,,,,,,,,
html-keyboard-response,6,41737,null,"<div style=""font-size:60px;"">+</div>",null,,,,,,,,
html-keyboard-response,7,42242,null,"HAPPY<img id = ""stim"" ><div class = red_square id = ""topsquare"" ></div><img id = ""stim"" ><div class = red_square  id = ""bottomsquare"" ></div>",null,word_square,prac_response,0,none,true,,,
html-keyboard-response,8,43745,null,"HAPPY",null,word,,,,,HAPPY,,
html-keyboard-response,9,44248,493.63000004086643,"COLD<img id = ""stim"" ><div class = green_square id = ""topsquare"" ></div><img id = ""stim"" ><div class = green_square  id = ""bottomsquare"" ></div>",32,word_square,prac_response,1,Space,true,,,
html-keyboard-response,10,45751,null,"COLD",null,word,,,,,COLD,,
html-keyboard-response,11,46253,null,"HEAVY<img id = ""stim"" ><div class = green_square id = ""topsquare"" ></div><img id = ""stim"" ><div class = green_square  id = ""bottomsquare"" ></div>",null,word_square,prac_response,1,Space,false,,,
html-keyboard-response,12,47756,null,"HEAVY",null,word,,,,,HEAVY,,
html-keyboard-response,13,48258,null,"FUNNY<img id = ""stim"" ><div class = red_square id = ""topsquare"" ></div><img id = ""stim"" ><div class = red_square  id = ""bottomsquare"" ></div>",null,word_square,prac_response,0,none,true,,,
html-keyboard-response,14,49762,null,"FUNNY",null,word,,,,,FUNNY,,
html-keyboard-response,15,50264,366.25999998068437,"SCARY<img id = ""stim"" ><div class = green_square id = ""topsquare"" ></div><img id = ""stim"" ><div class = green_square  id = ""bottomsquare"" ></div>",32,word_square,prac_response,1,Space,true,,,
html-keyboard-response,16,51767,null,"SCARY",null,word,,,,,SCARY,,
html-keyboard-response,17,52269,408.13499997602776,"PEACEFUL<img id = ""stim"" ><div class = green_square id = ""topsquare"" ></div><img id = ""stim"" ><div class = green_square  id = ""bottomsquare"" ></div>",32,word_square,prac_response,1,Space,true,,,
html-keyboard-response,18,53772,null,"PEACEFUL",null,word,,,,,PEACEFUL,,
html-keyboard-response,19,54274,null,"LITTLE<img id = ""stim"" ><div class = red_square id = ""topsquare"" ></div><img id = ""stim"" ><div class = red_square  id = ""bottomsquare"" ></div>",null,word_square,prac_response,0,none,true,,,
html-keyboard-response,20,55778,null,"LITTLE",null,word,,,,,LITTLE,,
html-keyboard-response,21,56280,null,"TIRED<img id = ""stim"" ><div class = red_square id = ""topsquare"" ></div><img id = ""stim"" ><div class = red_square  id = ""bottomsquare"" ></div>",null,word_square,prac_response,0,none,true,,,
html-keyboard-response,22,57783,null,"TIRED",null,word,,,,,TIRED,,
html-keyboard-response,23,58290,null,"ENTERTAINING<img id = ""stim"" ><div class = red_square id = ""topsquare"" ></div><img id = ""stim"" ><div class = red_square  id = ""bottomsquare"" ></div>",null,word_square,prac_response,0,none,true,,,
html-keyboard-response,24,59792,null,"ENTERTAINING",null,word,,,,,ENTERTAINING,,
html-keyboard-response,25,60295,327.6249999762513,"GRATEFUL<img id = ""stim"" ><div class = green_square id = ""topsquare"" ></div><img id = ""stim"" ><div class = green_square  id = ""bottomsquare"" ></div>",32,word_square,prac_response,1,Space,true,,,
html-keyboard-response,26,61799,null,"GRATEFUL",null,word,,,,,GRATEFUL,,
html-keyboard-response,27,62303,null,"LOUD<img id = ""stim"" ><div class = red_square id = ""topsquare"" ></div><img id = ""stim"" ><div class = red_square  id = ""bottomsquare"" ></div>",null,word_square,prac_response,0,none,true,,,
html-keyboard-response,28,63805,null,"LOUD",null,word,,,,,LOUD,,
html-keyboard-response,29,64311,347.86000003805384,"SMART<img id = ""stim"" ><div class = green_square id = ""topsquare"" ></div><img id = ""stim"" ><div class = green_square  id = ""bottomsquare"" ></div>",32,word_square,prac_response,1,Space,true,,,
html-keyboard-response,30,65813,null,"SMART",null,word,,,,,SMART,,
html-keyboard-response,31,66316,442.1299999812618,"SMOOTH<img id = ""stim"" ><div class = green_square id = ""topsquare"" ></div><img id = ""stim"" ><div class = green_square  id = ""bottomsquare"" ></div>",32,word_square,prac_response,1,Space,true,,,
html-keyboard-response,32,67821,null,"SMOOTH",null,word,,,,,SMOOTH,,
html-keyboard-response,33,68327,null,"DISHONEST<img id = ""stim"" ><div class = red_square id = ""topsquare"" ></div><img id = ""stim"" ><div class = red_square  id = ""bottomsquare"" ></div>",null,word_square,prac_response,0,none,true,,,
html-keyboard-response,34,69829,null,"DISHONEST",null,word,,,,,DISHONEST,,
html-keyboard-response,35,70333,321.9200000166893,"WEALTHY<img id = ""stim"" ><div class = green_square id = ""topsquare"" ></div><img id = ""stim"" ><div class = green_square  id = ""bottomsquare"" ></div>",32,word_square,prac_response,1,Space,true,,,
html-keyboard-response,36,71837,null,"WEALTHY",null,word,,,,,WEALTHY,,
html-keyboard-response,37,72343,null,"BEAUTIFUL<img id = ""stim"" ><div class = red_square id = ""topsquare"" ></div><img id = ""stim"" ><div class = red_square  id = ""bottomsquare"" ></div>",null,word_square,prac_response,0,none,true,,,
html-keyboard-response,38,73846,null,"BEAUTIFUL",null,word,,,,,BEAUTIFUL,,
html-keyboard-response,39,74349,null,"DREARY<img id = ""stim"" ><div class = red_square id = ""topsquare"" ></div><img id = ""stim"" ><div class = red_square  id = ""bottomsquare"" ></div>",null,word_square,prac_response,0,none,true,,,
html-keyboard-response,40,75852,null,"DREARY",null,word,,,,,DREARY,,
html-keyboard-response,41,76357,357.5950000085868,"PLAYFUL<img id = ""stim"" ><div class = green_square id = ""topsquare"" ></div><img id = ""stim"" ><div class = green_square  id = ""bottomsquare"" ></div>",32,word_square,prac_response,1,Space,true,,,
html-keyboard-response,42,77859,null,"PLAYFUL",null,word,,,,,PLAYFUL,,
html-keyboard-response,43,82753,4891.550000000279,"<p> Good job! You responded correctly to 94% of the GREEN squares.</p>
                  <p>Be sure to keep your accuracy above 80%</p>
                  <p>We're going to try once more to make sure you understand  the task. press any key to continue. </p>",32,,,,,,,,
html-keyboard-response,44,84361,1606.8599999998696,"<p>You will see a list of words and colored squares in the following task.<p><p>Press the spacebar whenever you see a GREEN square.<p><p>Do not press a key if the square is RED<p><p>Press the spacebar to continue.</p>",32,,,,,,,,
html-keyboard-response,45,86871,null,"<div style=""font-size:60px;"">+</div>",null,,,,,,,,
html-keyboard-response,46,87373,null,"HAPPY<img id = ""stim"" ><div class = red_square id = ""topsquare"" ></div><img id = ""stim"" ><div class = red_square  id = ""bottomsquare"" ></div>",null,word_square,response,0,none,true,,,
html-keyboard-response,47,88877,null,"HAPPY",null,word,,,,,HAPPY,,
html-keyboard-response,48,89250,371.8450000160374,"COLD<img id = ""stim"" ><div class = green_square id = ""topsquare"" ></div><img id = ""stim"" ><div class = green_square  id = ""bottomsquare"" ></div>",32,word_square,response,1,Space,true,,,
html-keyboard-response,49,90753,null,"COLD",null,word,,,,,COLD,,
html-keyboard-response,50,91113,357.82999999355525,"HEAVY<img id = ""stim"" ><div class = green_square id = ""topsquare"" ></div><img id = ""stim"" ><div class = green_square  id = ""bottomsquare"" ></div>",32,word_square,response,1,Space,true,,,
html-keyboard-response,51,92616,null,"HEAVY",null,word,,,,,HEAVY,,
html-keyboard-response,52,93122,null,"FUNNY<img id = ""stim"" ><div class = red_square id = ""topsquare"" ></div><img id = ""stim"" ><div class = red_square  id = ""bottomsquare"" ></div>",null,word_square,response,0,none,true,,,
html-keyboard-response,53,94626,null,"FUNNY",null,word,,,,,FUNNY,,
html-keyboard-response,54,94961,333.56499997898936,"SCARY<img id = ""stim"" ><div class = green_square id = ""topsquare"" ></div><img id = ""stim"" ><div class = green_square  id = ""bottomsquare"" ></div>",32,word_square,response,1,Space,true,,,
html-keyboard-response,55,96466,null,"SCARY",null,word,,,,,SCARY,,
html-keyboard-response,56,96906,437.7650000387803,"PEACEFUL<img id = ""stim"" ><div class = green_square id = ""topsquare"" ></div><img id = ""stim"" ><div class = green_square  id = ""bottomsquare"" ></div>",32,word_square,response,1,Space,true,,,
html-keyboard-response,57,98411,null,"PEACEFUL",null,word,,,,,PEACEFUL,,
html-keyboard-response,58,98914,null,"LITTLE<img id = ""stim"" ><div class = red_square id = ""topsquare"" ></div><img id = ""stim"" ><div class = red_square  id = ""bottomsquare"" ></div>",null,word_square,response,0,none,true,,,
html-keyboard-response,59,100418,null,"LITTLE",null,word,,,,,LITTLE,,
html-keyboard-response,60,100920,null,"TIRED<img id = ""stim"" ><div class = red_square id = ""topsquare"" ></div><img id = ""stim"" ><div class = red_square  id = ""bottomsquare"" ></div>",null,word_square,response,0,none,true,,,
html-keyboard-response,61,102423,null,"TIRED",null,word,,,,,TIRED,,
html-keyboard-response,62,102925,null,"ENTERTAINING<img id = ""stim"" ><div class = red_square id = ""topsquare"" ></div><img id = ""stim"" ><div class = red_square  id = ""bottomsquare"" ></div>",null,word_square,response,0,none,true,,,
html-keyboard-response,63,104429,null,"ENTERTAINING",null,word,,,,,ENTERTAINING,,
html-keyboard-response,64,104778,347.74999995715916,"GRATEFUL<img id = ""stim"" ><div class = green_square id = ""topsquare"" ></div><img id = ""stim"" ><div class = green_square  id = ""bottomsquare"" ></div>",32,word_square,response,1,Space,true,,,
html-keyboard-response,65,106285,null,"GRATEFUL",null,word,,,,,GRATEFUL,,
html-keyboard-response,66,106791,null,"LOUD<img id = ""stim"" ><div class = red_square id = ""topsquare"" ></div><img id = ""stim"" ><div class = red_square  id = ""bottomsquare"" ></div>",null,word_square,response,0,none,true,,,
html-keyboard-response,67,108293,null,"LOUD",null,word,,,,,LOUD,,
html-keyboard-response,68,108593,299.059999990277,"SMART<img id = ""stim"" ><div class = green_square id = ""topsquare"" ></div><img id = ""stim"" ><div class = green_square  id = ""bottomsquare"" ></div>",32,word_square,response,1,Space,true,,,
html-keyboard-response,69,110098,null,"SMART",null,word,,,,,SMART,,
html-keyboard-response,70,110475,374.69500000588596,"SMOOTH<img id = ""stim"" ><div class = green_square id = ""topsquare"" ></div><img id = ""stim"" ><div class = green_square  id = ""bottomsquare"" ></div>",32,word_square,response,1,Space,true,,,
html-keyboard-response,71,111981,null,"SMOOTH",null,word,,,,,SMOOTH,,
html-keyboard-response,72,112486,null,"DISHONEST<img id = ""stim"" ><div class = red_square id = ""topsquare"" ></div><img id = ""stim"" ><div class = red_square  id = ""bottomsquare"" ></div>",null,word_square,response,0,none,true,,,
html-keyboard-response,73,113992,null,"DISHONEST",null,word,,,,,DISHONEST,,
html-keyboard-response,74,114329,336.124999972526,"WEALTHY<img id = ""stim"" ><div class = green_square id = ""topsquare"" ></div><img id = ""stim"" ><div class = green_square  id = ""bottomsquare"" ></div>",32,word_square,response,1,Space,true,,,
html-keyboard-response,75,115832,null,"WEALTHY",null,word,,,,,WEALTHY,,
html-keyboard-response,76,116334,null,"BEAUTIFUL<img id = ""stim"" ><div class = red_square id = ""topsquare"" ></div><img id = ""stim"" ><div class = red_square  id = ""bottomsquare"" ></div>",null,word_square,response,0,none,true,,,
html-keyboard-response,77,117837,null,"BEAUTIFUL",null,word,,,,,BEAUTIFUL,,
html-keyboard-response,78,118340,null,"DREARY<img id = ""stim"" ><div class = red_square id = ""topsquare"" ></div><img id = ""stim"" ><div class = red_square  id = ""bottomsquare"" ></div>",null,word_square,response,0,none,true,,,
html-keyboard-response,79,119842,null,"DREARY",null,word,,,,,DREARY,,
html-keyboard-response,80,120242,396.83000004151836,"PLAYFUL<img id = ""stim"" ><div class = green_square id = ""topsquare"" ></div><img id = ""stim"" ><div class = green_square  id = ""bottomsquare"" ></div>",32,word_square,response,1,Space,true,,,
html-keyboard-response,81,121746,null,"PLAYFUL",null,word,,,,,PLAYFUL,,
html-keyboard-response,82,124114,2365.525000030175,"<p> Good job! You responded correctly to 100% of the GREEN squares.</p>
                  <p>Be sure to keep your accuracy above 80%</p>
                  <p>Press any key to begin the math and recall sections. Thank you!</p>",32,,,,,,,,
call-function,83,124115,,"",,,,,,,,,
html-keyboard-response,84,124221,null,"",null,,,,,,,,
math-period,85,134385,19630.334999936167,"",,,,,,,,,3
html-keyboard-response,86,134489,null,"",null,,,,,,,,
math-period,87,137273,5350.289999914821,"",,,,,,,,,4
html-keyboard-response,88,137378,null,"",null,,,,,,,,
math-period,89,139185,3499.405000009574,"",,,,,,,,,1
html-keyboard-response,90,139287,null,"",null,,,,,,,,
math-period,91,140272,1879.5150000369176,"",,,,,,,,,2
html-keyboard-response,92,140375,null,"",null,,,,,,,,
math-period,93,142321,3801.6449999413453,"",,,,,,,,,5
html-keyboard-response,94,142424,null,"",null,,,,,,,,
math-period,95,144603,4258.039999986067,"",,,,,,,,,2
html-keyboard-response,96,144707,null,"",null,,,,,,,,
math-period,97,147001,4498.494999948889,"",,,,,,,,,4
html-keyboard-response,98,147107,null,"",null,,,,,,,,
math-period,99,148119,932.6149999978952,"",,,,,,,,,4
html-keyboard-response,100,149122,null,"Recall Period!",null,,,,,,,,
call-function,101,149123,,"",,,,,,,,,
html-keyboard-response,102,149229,null,"",null,,,,,,,,
recall-period,103,156875,10206.01500000339,"",,,,,,,,, 
html-keyboard-response,104,156979,null,"",null,,,,,,,,
recall-period,105,162233,56573.519999568816,"",,,,,,,,,peaceful 
html-keyboard-response,106,162336,null,"",null,,,,,,,,
recall-period,107,166585,27179.29499980528,"",,,,,,,,,little
html-keyboard-response,108,166690,null,"",null,,,,,,,,
recall-period,109,168249,5610.5099999695085,"",,,,,,,,,hot
html-keyboard-response,110,168353,null,"",null,,,,,,,,
recall-period,111,175225,33422.389999905135,"",,,,,,,,,warm
html-keyboard-response,112,175328,null,"",null,,,,,,,,
recall-period,113,176410,4127.645000058692,"",,,,,,,,,kind
html-keyboard-response,114,176515,null,"",null,,,,,,,,
recall-period,115,184130,62152.23000012338,"",,,,,,,,,relaxed 
html-keyboard-response,116,184234,null,"",null,,,,,,,,
recall-period,117,188314,22472.6349998964,"",,,,,,,,,green
html-keyboard-response,118,188419,null,"",null,,,,,,,,
recall-period,119,224126,null,"",,,,,,,,,
html-keyboard-response,120,224632,null,"Time's Up!",null,,,,,,,,
html-keyboard-response,121,244386,19752.604999986943,"<p>We will now begin the experiment!<p><p>Please try to remember all words from each list.<p><p>Press the spacebar whenever you see a GREEN square.<p><p><p><p>Press the spacebar to begin.</p>",32,,,,,,,,
html-keyboard-response,122,246474,1585.4549999930896,"<div style=""font-size:48px;"">Press any key to begin list 1 of 24 </div>",32,,,,,,,,
html-keyboard-response,123,248979,null,"<div style=""font-size:60px;"">+</div>",null,,,,,,,,
html-keyboard-response,124,249486,null,"FEMALE<img id = ""stim"" ><div class = red_square id = ""topsquare"" ></div><img id = ""stim"" ><div class = red_square  id = ""bottomsquare"" ></div>",null,word_square,response,0,none,true,,,
html-keyboard-response,125,250989,null,"FEMALE",null,word,,,,, 'FEMALE',,
html-keyboard-response,126,251492,null,"LOVER<img id = ""stim"" ><div class = red_square id = ""topsquare"" ></div><img id = ""stim"" ><div class = red_square  id = ""bottomsquare"" ></div>",null,word_square,response,0,none,true,,,
html-keyboard-response,127,252994,null,"LOVER",null,word,,,,, 'LOVER',,
html-keyboard-response,128,253395,399.1599999717437,"CONSOLE<img id = ""stim"" ><div class = green_square id = ""topsquare"" ></div><img id = ""stim"" ><div class = green_square  id = ""bottomsquare"" ></div>",32,word_square,response,1,Space,true,,,
html-keyboard-response,129,254899,null,"CONSOLE",null,word,,,,, 'CONSOLE',,
html-keyboard-response,130,255299,398.4099999652244,"MONGOOSE<img id = ""stim"" ><div class = green_square id = ""topsquare"" ></div><img id = ""stim"" ><div class = green_square  id = ""bottomsquare"" ></div>",32,word_square,response,1,Space,true,,,
html-keyboard-response,131,256803,null,"MONGOOSE",null,word,,,,, 'MONGOOSE',,
html-keyboard-response,132,257306,null,"LAGOON<img id = ""stim"" ><div class = red_square id = ""topsquare"" ></div><img id = ""stim"" ><div class = red_square  id = ""bottomsquare"" ></div>",null,word_square,response,0,none,true,,,
html-keyboard-response,133,258811,null,"LAGOON",null,word,,,,, 'LAGOON',,
html-keyboard-response,134,259315,null,"PUDDLE<img id = ""stim"" ><div class = green_square id = ""topsquare"" ></div><img id = ""stim"" ><div class = green_square  id = ""bottomsquare"" ></div>",null,word_square,response,1,Space,false,,,
html-keyboard-response,135,260820,null,"PUDDLE",null,word,,,,, 'PUDDLE',,
html-keyboard-response,136,261178,357.17999999178573,"MONEY<img id = ""stim"" ><div class = green_square id = ""topsquare"" ></div><img id = ""stim"" ><div class = green_square  id = ""bottomsquare"" ></div>",32,word_square,response,1,Space,true,,,
html-keyboard-response,137,262680,null,"MONEY",null,word,,,,, 'MONEY',,
html-keyboard-response,138,263184,null,"LILY<img id = ""stim"" ><div class = red_square id = ""topsquare"" ></div><img id = ""stim"" ><div class = red_square  id = ""bottomsquare"" ></div>",null,word_square,response,0,none,true,,,
html-keyboard-response,139,264687,null,"LILY",null,word,,,,, 'LILY',,
html-keyboard-response,140,265042,353.9049999671988,"DRAGON<img id = ""stim"" ><div class = green_square id = ""topsquare"" ></div><img id = ""stim"" ><div class = green_square  id = ""bottomsquare"" ></div>",32,word_square,response,1,Space,true,,,
html-keyboard-response,141,266547,null,"DRAGON",null,word,,,,, 'DRAGON',,
html-keyboard-response,142,266916,367.18499998096377,"VENUS<img id = ""stim"" ><div class = green_square id = ""topsquare"" ></div><img id = ""stim"" ><div class = green_square  id = ""bottomsquare"" ></div>",32,word_square,response,1,Space,true,,,
html-keyboard-response,143,268419,null,"VENUS",null,word,,,,, 'VENUS',,
html-keyboard-response,144,268924,null,"UNCLE<img id = ""stim"" ><div class = red_square id = ""topsquare"" ></div><img id = ""stim"" ><div class = red_square  id = ""bottomsquare"" ></div>",null,word_square,response,0,none,true,,,
html-keyboard-response,145,270425,null,"UNCLE",null,word,,,,, 'UNCLE',,
html-keyboard-response,146,270931,null,"BEAKER<img id = ""stim"" ><div class = red_square id = ""topsquare"" ></div><img id = ""stim"" ><div class = red_square  id = ""bottomsquare"" ></div>",null,word_square,response,0,none,true,,,
html-keyboard-response,147,272433,null,"BEAKER",null,word,,,,, 'BEAKER',,
html-keyboard-response,148,272898,463.8450000202283,"MARINE<img id = ""stim"" ><div class = green_square id = ""topsquare"" ></div><img id = ""stim"" ><div class = green_square  id = ""bottomsquare"" ></div>",32,word_square,response,1,Space,true,,,
html-keyboard-response,149,274404,null,"MARINE",null,word,,,,, 'MARINE',,
html-keyboard-response,150,274910,null,"CLOSET<img id = ""stim"" ><div class = red_square id = ""topsquare"" ></div><img id = ""stim"" ><div class = red_square  id = ""bottomsquare"" ></div>",null,word_square,response,0,none,true,,,
html-keyboard-response,151,276414,null,"CLOSET",null,word,,,,, 'CLOSET',,
html-keyboard-response,152,276916,null,"REINDEER<img id = ""stim"" ><div class = red_square id = ""topsquare"" ></div><img id = ""stim"" ><div class = red_square  id = ""bottomsquare"" ></div>",null,word_square,response,0,none,true,,,
html-keyboard-response,153,278419,null,"REINDEER",null,word,,,,, 'REINDEER',,
html-keyboard-response,154,278827,405.849999981001,"RAILROAD<img id = ""stim"" ><div class = green_square id = ""topsquare"" ></div><img id = ""stim"" ><div class = green_square  id = ""bottomsquare"" ></div>",32,word_square,response,1,Space,true,,,
html-keyboard-response,155,280329,null,"RAILROAD",null,word,,,,, 'RAILROAD',,
html-keyboard-response,156,280836,null,"WOLF<img id = ""stim"" ><div class = red_square id = ""topsquare"" ></div><img id = ""stim"" ><div class = red_square  id = ""bottomsquare"" ></div>",null,word_square,response,0,none,true,,,
html-keyboard-response,157,282342,null,"WOLF",null,word,,,,, 'WOLF',,
html-keyboard-response,158,282731,386.9599999743514,"IDOL<img id = ""stim"" ><div class = green_square id = ""topsquare"" ></div><img id = ""stim"" ><div class = green_square  id = ""bottomsquare"" ></div>",32,word_square,response,1,Space,true,,,
html-keyboard-response,159,284232,null,"IDOL",null,word,,,,, 'IDOL',,
call-function,160,284233,,"",,,,,,,,,
html-keyboard-response,161,284336,null,"",null,,,,,,,,
math-period,162,286578,4377.154999994673,"",,,,,,,,,4
html-keyboard-response,163,286680,null,"",null,,,,,,,,
math-period,164,288761,4024.459999985993,"",,,,,,,,,4
html-keyboard-response,165,288864,null,"",null,,,,,,,,
math-period,166,291121,4423.84999996284,"",,,,,,,,,2
html-keyboard-response,167,291224,null,"",null,,,,,,,,
math-period,168,292056,1573.5850000637583,"",,,,,,,,,2
html-keyboard-response,169,292158,null,"",null,,,,,,,,
math-period,170,293475,2541.71999997925,"",,,,,,,,,3
html-keyboard-response,171,293577,null,"",null,,,,,,,,
math-period,172,294657,2086.010000028182,"",,,,,,,,,3
html-keyboard-response,173,294761,null,"",null,,,,,,,,
math-period,174,296088,2549.830000032671,"",,,,,,,,,3
html-keyboard-response,175,296189,null,"",null,,,,,,,,
math-period,176,297691,2902.99499995308,"",,,,,,,,,2
html-keyboard-response,177,297796,null,"",null,,,,,,,,
math-period,178,299690,3665.689999994356,"",,,,,,,,,0
html-keyboard-response,179,299793,null,"",null,,,,,,,,
math-period,180,301435,3209.5200000330806,"",,,,,,,,,5
html-keyboard-response,181,301539,null,"",null,,,,,,,,
math-period,182,302776,2368.2149999658577,"",,,,,,,,,5
html-keyboard-response,183,302880,null,"",null,,,,,,,,
math-period,184,304848,3871.880000049714,"",,,,,,,,,3
html-keyboard-response,185,304953,null,"",null,,,,,,,,
math-period,186,306305,2621.785000024829,"",,,,,,,,,5
html-keyboard-response,187,306409,null,"",null,,,,,,,,
math-period,188,308083,3256.6750000114553,"",,,,,,,,,5
html-keyboard-response,189,308185,null,"",null,,,,,,,,
math-period,190,308239,null,"",,,,,,,,,
html-keyboard-response,191,309241,null,"Recall Period!",null,,,,,,,,
call-function,192,309242,,"",,,,,,,,,
html-keyboard-response,193,309348,null,"",null,,,,,,,,
recall-period,194,312066,20159.099999873433,"",,,,,,,,,mongoose
html-keyboard-response,195,312169,null,"",null,,,,,,,,
recall-period,196,313186,3307.250000012573,"",,,,,,,,,lover
html-keyboard-response,197,313288,null,"",null,,,,,,,,
recall-period,198,322642,86045.71499972371,"",,,,,,,,,wisdom 
html-keyboard-response,199,322744,null,"",null,,,,,,,,
recall-period,200,330522,113424.18499995256,"",,,,,,,,,merciful 
html-keyboard-response,201,330628,null,"",null,,,,,,,,
recall-period,202,333219,15870.984999928623,"",,,,,,,,,wedding
html-keyboard-response,203,333321,null,"",null,,,,,,,,
recall-period,204,384244,null,"",,,,,,,,,
html-keyboard-response,205,384751,null,"Time's Up!",null,,,,,,,,
html-keyboard-response,206,391652,6899.085000040941,"<p> Good job! You responded correctly to 97% of the GREEN squares.</p>
                  <p>Be sure to keep your accuracy above 80%</p>
                  <p>Press any key to continue the experiment. Thank you!</p>",32,,,,,,,,
html-keyboard-response,207,392419,765.8899999805726,"<div style=""font-size:48px;"">Press any key to begin list 2 of 24 </div>",32,,,,,,,,
html-keyboard-response,208,394922,null,"<div style=""font-size:60px;"">+</div>",null,,,,,,,,
html-keyboard-response,209,395428,null,"OX<img id = ""stim"" ><div class = red_square id = ""topsquare"" ></div><img id = ""stim"" ><div class = red_square  id = ""bottomsquare"" ></div>",null,word_square,response,0,none,true,,,
html-keyboard-response,210,396930,null,"OX",null,word,,,,, 'OX',,
html-keyboard-response,211,397432,null,"SKIRT<img id = ""stim"" ><div class = red_square id = ""topsquare"" ></div><img id = ""stim"" ><div class = red_square  id = ""bottomsquare"" ></div>",null,word_square,response,0,none,true,,,
html-keyboard-response,212,398934,null,"SKIRT",null,word,,,,, 'SKIRT',,
html-keyboard-response,213,399440,null,"SHORTS<img id = ""stim"" ><div class = green_square id = ""topsquare"" ></div><img id = ""stim"" ><div class = green_square  id = ""bottomsquare"" ></div>",null,word_square,response,1,Space,false,,,
html-keyboard-response,214,400943,null,"SHORTS",null,word,,,,, 'SHORTS',,
html-keyboard-response,215,401435,490.810000046622,"MAMMAL<img id = ""stim"" ><div class = green_square id = ""topsquare"" ></div><img id = ""stim"" ><div class = green_square  id = ""bottomsquare"" ></div>",32,word_square,response,1,Space,true,,,
html-keyboard-response,216,402938,null,"MAMMAL",null,word,,,,, 'MAMMAL',,
html-keyboard-response,217,403439,null,"CASTLE<img id = ""stim"" ><div class = red_square id = ""topsquare"" ></div><img id = ""stim"" ><div class = red_square  id = ""bottomsquare"" ></div>",null,word_square,response,0,none,true,,,
html-keyboard-response,218,404943,null,"CASTLE",null,word,,,,, 'CASTLE',,
html-keyboard-response,219,405387,442.5349999801256,"FLIPPER<img id = ""stim"" ><div class = green_square id = ""topsquare"" ></div><img id = ""stim"" ><div class = green_square  id = ""bottomsquare"" ></div>",32,word_square,response,1,Space,true,,,
html-keyboard-response,220,406890,null,"FLIPPER",null,word,,,,, 'FLIPPER',,
html-keyboard-response,221,407379,487.83499997807667,"SNOB<img id = ""stim"" ><div class = green_square id = ""topsquare"" ></div><img id = ""stim"" ><div class = green_square  id = ""bottomsquare"" ></div>",32,word_square,response,1,Space,true,,,
html-keyboard-response,222,408885,null,"SNOB",null,word,,,,, 'SNOB',,
html-keyboard-response,223,409391,null,"SALT<img id = ""stim"" ><div class = red_square id = ""topsquare"" ></div><img id = ""stim"" ><div class = red_square  id = ""bottomsquare"" ></div>",null,word_square,response,0,none,true,,,
html-keyboard-response,224,410896,null,"SALT",null,word,,,,, 'SALT',,
html-keyboard-response,225,411283,386.17000001249835,"DOORBELL<img id = ""stim"" ><div class = green_square id = ""topsquare"" ></div><img id = ""stim"" ><div class = green_square  id = ""bottomsquare"" ></div>",32,word_square,response,1,Space,true,,,
html-keyboard-response,226,412789,null,"DOORBELL",null,word,,,,, 'DOORBELL',,
html-keyboard-response,227,413187,396.6899999650195,"GAZELLE<img id = ""stim"" ><div class = green_square id = ""topsquare"" ></div><img id = ""stim"" ><div class = green_square  id = ""bottomsquare"" ></div>",32,word_square,response,1,Space,true,,,
html-keyboard-response,228,414693,null,"GAZELLE",null,word,,,,, 'GAZELLE',,
html-keyboard-response,229,415198,null,"GERM<img id = ""stim"" ><div class = red_square id = ""topsquare"" ></div><img id = ""stim"" ><div class = red_square  id = ""bottomsquare"" ></div>",null,word_square,response,0,none,true,,,
html-keyboard-response,230,416703,null,"GERM",null,word,,,,, 'GERM',,
html-keyboard-response,231,417210,null,"ICEBERG<img id = ""stim"" ><div class = red_square id = ""topsquare"" ></div><img id = ""stim"" ><div class = red_square  id = ""bottomsquare"" ></div>",null,word_square,response,0,none,true,,,
html-keyboard-response,232,418714,null,"ICEBERG",null,word,,,,, 'ICEBERG',,
html-keyboard-response,233,419100,384.8299999954179,"VIRUS<img id = ""stim"" ><div class = green_square id = ""topsquare"" ></div><img id = ""stim"" ><div class = green_square  id = ""bottomsquare"" ></div>",32,word_square,response,1,Space,true,,,
html-keyboard-response,234,420602,null,"VIRUS",null,word,,,,, 'VIRUS',,
html-keyboard-response,235,421103,null,"SHIRT<img id = ""stim"" ><div class = red_square id = ""topsquare"" ></div><img id = ""stim"" ><div class = red_square  id = ""bottomsquare"" ></div>",null,word_square,response,0,none,true,,,
html-keyboard-response,236,422607,null,"SHIRT",null,word,,,,, 'SHIRT',,
html-keyboard-response,237,423109,null,"DRESS<img id = ""stim"" ><div class = red_square id = ""topsquare"" ></div><img id = ""stim"" ><div class = red_square  id = ""bottomsquare"" ></div>",null,word_square,response,0,none,true,,,
html-keyboard-response,238,424613,null,"DRESS",null,word,,,,, 'DRESS',,
html-keyboard-response,239,425027,412.0250000269152,"STALLION<img id = ""stim"" ><div class = green_square id = ""topsquare"" ></div><img id = ""stim"" ><div class = green_square  id = ""bottomsquare"" ></div>",32,word_square,response,1,Space,true,,,
html-keyboard-response,240,426532,null,"STALLION",null,word,,,,, 'STALLION',,
html-keyboard-response,241,427038,null,"VALLEY<img id = ""stim"" ><div class = red_square id = ""topsquare"" ></div><img id = ""stim"" ><div class = red_square  id = ""bottomsquare"" ></div>",null,word_square,response,0,none,true,,,
html-keyboard-response,242,428543,null,"VALLEY",null,word,,,,, 'VALLEY',,
html-keyboard-response,243,428979,434.4249999849126,"MUSHROOM<img id = ""stim"" ><div class = green_square id = ""topsquare"" ></div><img id = ""stim"" ><div class = green_square  id = ""bottomsquare"" ></div>",32,word_square,response,1,Space,true,,,
html-keyboard-response,244,430485,null,"MUSHROOM",null,word,,,,, 'MUSHROOM',,
call-function,245,430486,,"",,,,,,,,,
html-keyboard-response,246,430591,null,"",null,,,,,,,,
math-period,247,433178,5109.204999927897,"",,,,,,,,,5
html-keyboard-response,248,433284,null,"",null,,,,,,,,
math-period,249,434091,1546.2799999513663,"",,,,,,,,,5
html-keyboard-response,250,434196,null,"",null,,,,,,,,
math-period,251,435099,1762.6499999896623,"",,,,,,,,,5
html-keyboard-response,252,435202,null,"",null,,,,,,,,
math-period,253,436243,1998.5250000027008,"",,,,,,,,,3
html-keyboard-response,254,436346,null,"",null,,,,,,,,
math-period,255,437139,1517.6949999877252,"",,,,,,,,,3
html-keyboard-response,256,437242,null,"",null,,,,,,,,
math-period,257,438874,3182.0750000188127,"",,,,,,,,,1
html-keyboard-response,258,438976,null,"",null,,,,,,,,
math-period,259,439748,1475.0200000125915,"",,,,,,,,,3
html-keyboard-response,260,439851,null,"",null,,,,,,,,
math-period,261,441699,3613.4849999216385,"",,,,,,,,,1
html-keyboard-response,262,441802,null,"",null,,,,,,,,
math-period,263,447828,11937.885000021197,"",,,,,,,,,0
html-keyboard-response,264,447930,null,"",null,,,,,,,,
math-period,265,448859,1799.2750000557862,"",,,,,,,,,2
html-keyboard-response,266,448965,null,"",null,,,,,,,,
math-period,267,450331,2641.684999980498,"",,,,,,,,,4
html-keyboard-response,268,450437,null,"",null,,,,,,,,
math-period,269,451779,2578.635000041686,"",,,,,,,,,6
html-keyboard-response,270,451883,null,"",null,,,,,,,,
math-period,271,453570,3302.0850000320934,"",,,,,,,,,1
html-keyboard-response,272,453673,null,"",null,,,,,,,,
math-period,273,454491,null,"",,,,,,,,,
html-keyboard-response,274,455493,null,"Recall Period!",null,,,,,,,,
call-function,275,455494,,"",,,,,,,,,
html-keyboard-response,276,455599,null,"",null,,,,,,,,
recall-period,277,459035,18683.824999898206,"",,,,,,,,,stallion 
html-keyboard-response,278,459141,null,"",null,,,,,,,,
recall-period,279,459747,1998.895000142511,"",,,,,,,,,snob
html-keyboard-response,280,459851,null,"",null,,,,,,,,
recall-period,281,461427,8230.099999927916,"",,,,,,,,,mammal
html-keyboard-response,282,461530,null,"",null,,,,,,,,
recall-period,283,462506,4241.940000094473,"",,,,,,,,,valley 
html-keyboard-response,284,462608,null,"",null,,,,,,,,
recall-period,285,466995,12828.22500000475,"",,,,,,,,,ox
html-keyboard-response,286,467098,null,"",null,,,,,,,,
recall-period,287,468427,7629.475000197999,"",,,,,,,,,candle
html-keyboard-response,288,468533,null,"",null,,,,,,,,
recall-period,289,469467,3031.7800000775605,"",,,,,,,,,door
html-keyboard-response,290,469573,null,"",null,,,,,,,,
recall-period,291,471011,6915.585000067949,"",,,,,,,,,mat
html-keyboard-response,292,471114,null,"",null,,,,,,,,
recall-period,293,473636,13171.824999968521,"",,,,,,,,,lion 
html-keyboard-response,294,473738,null,"",null,,,,,,,,
recall-period,295,530496,null,"",,,,,,,,,
html-keyboard-response,296,531003,null,"Time's Up!",null,,,,,,,,
html-keyboard-response,297,538093,7088.375000050291,"<p> Good job! You responded correctly to 96% of the GREEN squares.</p>
                  <p>Be sure to keep your accuracy above 80%</p>
                  <p>Press any key to continue the experiment. Thank you!</p>",32,,,,,,,,
html-keyboard-response,298,538122,27.449999994132668,"<div style=""font-size:48px;"">Press any key to begin list 3 of 24 </div>",66,,,,,,,,
html-keyboard-response,299,540625,null,"<div style=""font-size:60px;"">+</div>",null,,,,,,,,
html-keyboard-response,300,541127,null,"SLEEVE<img id = ""stim"" ><div class = green_square id = ""topsquare"" ></div><img id = ""stim"" ><div class = green_square  id = ""bottomsquare"" ></div>",null,word_square,response,1,Space,false,,,
html-keyboard-response,301,542629,null,"SLEEVE",null,word,,,,, 'SLEEVE',,
html-keyboard-response,302,542979,348.98499998962507,"FACE<img id = ""stim"" ><div class = green_square id = ""topsquare"" ></div><img id = ""stim"" ><div class = green_square  id = ""bottomsquare"" ></div>",32,word_square,response,1,Space,true,,,
html-keyboard-response,303,544485,null,"FACE",null,word,,,,, 'FACE',,
html-keyboard-response,304,544987,null,"LADY<img id = ""stim"" ><div class = red_square id = ""topsquare"" ></div><img id = ""stim"" ><div class = red_square  id = ""bottomsquare"" ></div>",null,word_square,response,0,none,true,,,
html-keyboard-response,305,546491,null,"LADY",null,word,,,,, 'LADY',,
html-keyboard-response,306,546993,null,"HOOD<img id = ""stim"" ><div class = red_square id = ""topsquare"" ></div><img id = ""stim"" ><div class = red_square  id = ""bottomsquare"" ></div>",null,word_square,response,0,none,true,,,
html-keyboard-response,307,548496,null,"HOOD",null,word,,,,, 'HOOD',,
html-keyboard-response,308,548949,451.31000003311783,"DAUGHTER<img id = ""stim"" ><div class = green_square id = ""topsquare"" ></div><img id = ""stim"" ><div class = green_square  id = ""bottomsquare"" ></div>",32,word_square,response,1,Space,true,,,
html-keyboard-response,309,550454,null,"DAUGHTER",null,word,,,,, 'DAUGHTER',,
html-keyboard-response,310,550960,null,"KEEPER<img id = ""stim"" ><div class = red_square id = ""topsquare"" ></div><img id = ""stim"" ><div class = red_square  id = ""bottomsquare"" ></div>",null,word_square,response,0,none,true,,,
html-keyboard-response,311,552464,null,"KEEPER",null,word,,,,, 'KEEPER',,
html-keyboard-response,312,552971,null,"TURTLE<img id = ""stim"" ><div class = red_square id = ""topsquare"" ></div><img id = ""stim"" ><div class = red_square  id = ""bottomsquare"" ></div>",null,word_square,response,0,none,true,,,
html-keyboard-response,313,554478,null,"TURTLE",null,word,,,,, 'TURTLE',,
html-keyboard-response,314,554982,null,"SHACK<img id = ""stim"" ><div class = green_square id = ""topsquare"" ></div><img id = ""stim"" ><div class = green_square  id = ""bottomsquare"" ></div>",null,word_square,response,1,Space,false,,,
html-keyboard-response,315,556487,null,"SHACK",null,word,,,,, 'SHACK',,
html-keyboard-response,316,556993,null,"DOCTOR<img id = ""stim"" ><div class = red_square id = ""topsquare"" ></div><img id = ""stim"" ><div class = red_square  id = ""bottomsquare"" ></div>",null,word_square,response,0,none,true,,,
html-keyboard-response,317,558496,null,"DOCTOR",null,word,,,,, 'DOCTOR',,
html-keyboard-response,318,558957,459.24499997636303,"MARS<img id = ""stim"" ><div class = red_square id = ""topsquare"" ></div><img id = ""stim"" ><div class = red_square  id = ""bottomsquare"" ></div>",32,word_square,response,0,none,false,,,
html-keyboard-response,319,560459,null,"MARS",null,word,,,,, 'MARS',,
html-keyboard-response,320,560892,431.78500002250075,"BUBBLE<img id = ""stim"" ><div class = green_square id = ""topsquare"" ></div><img id = ""stim"" ><div class = green_square  id = ""bottomsquare"" ></div>",32,word_square,response,1,Space,true,,,
html-keyboard-response,321,562395,null,"BUBBLE",null,word,,,,, 'BUBBLE',,
html-keyboard-response,322,562820,423.6300000338815,"CANAL<img id = ""stim"" ><div class = green_square id = ""topsquare"" ></div><img id = ""stim"" ><div class = green_square  id = ""bottomsquare"" ></div>",32,word_square,response,1,Space,true,,,
html-keyboard-response,323,564326,null,"CANAL",null,word,,,,, 'CANAL',,
html-keyboard-response,324,564832,null,"DOUGHNUT<img id = ""stim"" ><div class = red_square id = ""topsquare"" ></div><img id = ""stim"" ><div class = red_square  id = ""bottomsquare"" ></div>",null,word_square,response,0,none,true,,,
html-keyboard-response,325,566336,null,"DOUGHNUT",null,word,,,,, 'DOUGHNUT',,
html-keyboard-response,326,566772,435.34500000532717,"PEBBLE<img id = ""stim"" ><div class = green_square id = ""topsquare"" ></div><img id = ""stim"" ><div class = green_square  id = ""bottomsquare"" ></div>",32,word_square,response,1,Space,true,,,
html-keyboard-response,327,568278,null,"PEBBLE",null,word,,,,, 'PEBBLE',,
html-keyboard-response,328,568739,460.1949999923818,"STONE<img id = ""stim"" ><div class = green_square id = ""topsquare"" ></div><img id = ""stim"" ><div class = green_square  id = ""bottomsquare"" ></div>",32,word_square,response,1,Space,true,,,
html-keyboard-response,329,570246,null,"STONE",null,word,,,,, 'STONE',,
html-keyboard-response,330,570748,null,"CLAMP<img id = ""stim"" ><div class = red_square id = ""topsquare"" ></div><img id = ""stim"" ><div class = red_square  id = ""bottomsquare"" ></div>",null,word_square,response,0,none,true,,,
html-keyboard-response,331,572251,null,"CLAMP",null,word,,,,, 'CLAMP',,
html-keyboard-response,332,572588,335.59000003151596,"SLUG<img id = ""stim"" ><div class = green_square id = ""topsquare"" ></div><img id = ""stim"" ><div class = green_square  id = ""bottomsquare"" ></div>",32,word_square,response,1,Space,true,,,
html-keyboard-response,333,574091,null,"SLUG",null,word,,,,, 'SLUG',,
html-keyboard-response,334,574598,null,"CONVENT<img id = ""stim"" ><div class = red_square id = ""topsquare"" ></div><img id = ""stim"" ><div class = red_square  id = ""bottomsquare"" ></div>",null,word_square,response,0,none,true,,,
html-keyboard-response,335,576100,null,"CONVENT",null,word,,,,, 'CONVENT',,
call-function,336,576101,,"",,,,,,,,,
html-keyboard-response,337,576203,null,"",null,,,,,,,,
math-period,338,578933,5393.385000061244,"",,,,,,,,,6
html-keyboard-response,339,579035,null,"",null,,,,,,,,
math-period,340,582255,6353.425000037532,"",,,,,,,,,2
html-keyboard-response,341,582358,null,"",null,,,,,,,,
math-period,342,583653,2507.3549999506213,"",,,,,,,,,5
html-keyboard-response,343,583756,null,"",null,,,,,,,,
math-period,344,584484,1404.274999978952,"",,,,,,,,,5
html-keyboard-response,345,584587,null,"",null,,,,,,,,
math-period,346,585629,2008.6750000482425,"",,,,,,,,,6
html-keyboard-response,347,585734,null,"",null,,,,,,,,
math-period,348,586789,2026.940000068862,"",,,,,,,,,5
html-keyboard-response,349,586892,null,"",null,,,,,,,,
math-period,350,588564,3292.6149999839254,"",,,,,,,,,2
html-keyboard-response,351,588667,null,"",null,,,,,,,,
math-period,352,590195,3013.904999999795,"",,,,,,,,,4
html-keyboard-response,353,590299,null,"",null,,,,,,,,
math-period,354,594244,7815.634999948088,"",,,,,,,,,3
html-keyboard-response,355,594348,null,"",null,,,,,,,,
math-period,356,596028,3317.229999927804,"",,,,,,,,,3
html-keyboard-response,357,596130,null,"",null,,,,,,,,
math-period,358,597996,3649.3249999475665,"",,,,,,,,,1
html-keyboard-response,359,598103,null,"",null,,,,,,,,
math-period,360,599396,2527.9450000380166,"",,,,,,,,,6
html-keyboard-response,361,599499,null,"",null,,,,,,,,
math-period,362,600102,null,"",,,,,,,,,
html-keyboard-response,363,601105,null,"Recall Period!",null,,,,,,,,
call-function,364,601106,,"",,,,,,,,,
html-keyboard-response,365,601211,null,"",null,,,,,,,,
recall-period,366,603211,9239.534999942407,"",,,,,,,,,doctor
html-keyboard-response,367,603313,null,"",null,,,,,,,,
recall-period,368,604220,3247.569999890402,"",,,,,,,,,sleeve
html-keyboard-response,369,604326,null,"",null,,,,,,,,
recall-period,370,605612,4413.855000108015,"",,,,,,,,,turtle 
html-keyboard-response,371,605718,null,"",null,,,,,,,,
recall-period,372,607420,9445.169999904465,"",,,,,,,,,keeper
html-keyboard-response,373,607522,null,"",null,,,,,,,,
recall-period,374,613588,34956.279999925755,"",,,,,,,,,shack
html-keyboard-response,375,613691,null,"",null,,,,,,,,
recall-period,376,616804,14620.569999911822,"",,,,,,,,,hood
html-keyboard-response,377,616908,null,"",null,,,,,,,,
recall-period,378,635516,279380.08500036085,"",,,,,,,,,valley
html-keyboard-response,379,635619,null,"",null,,,,,,,,
recall-period,380,637270,7577.549999929033,"",,,,,,,,,nice
html-keyboard-response,381,637372,null,"",null,,,,,,,,
recall-period,382,676108,null,"",,,,,,,,,
html-keyboard-response,383,676615,null,"Time's Up!",null,,,,,,,,
html-keyboard-response,384,684974,8357.714999991003,"<p> Good job! You responded correctly to 93% of the GREEN squares.</p>
                  <p>Be sure to keep your accuracy above 80%</p>
                  <p>Press any key to continue the experiment. Thank you!</p>",32,,,,,,,,
html-keyboard-response,385,685637,661.1600000178441,"<div style=""font-size:48px;"">Press any key to begin list 4 of 24 </div>",32,,,,,,,,
html-keyboard-response,386,688140,null,"<div style=""font-size:60px;"">+</div>",null,,,,,,,,
html-keyboard-response,387,688646,null,"SAPPHIRE<img id = ""stim"" ><div class = green_square id = ""topsquare"" ></div><img id = ""stim"" ><div class = green_square  id = ""bottomsquare"" ></div>",null,word_square,response,1,Space,false,,,
html-keyboard-response,388,690149,null,"SAPPHIRE",null,word,,,,, 'SAPPHIRE',,
html-keyboard-response,389,690654,null,"JOKER<img id = ""stim"" ><div class = green_square id = ""topsquare"" ></div><img id = ""stim"" ><div class = green_square  id = ""bottomsquare"" ></div>",null,word_square,response,1,Space,false,,,
html-keyboard-response,390,692155,null,"JOKER",null,word,,,,, 'JOKER',,
html-keyboard-response,391,692657,null,"STAMP<img id = ""stim"" ><div class = red_square id = ""topsquare"" ></div><img id = ""stim"" ><div class = red_square  id = ""bottomsquare"" ></div>",null,word_square,response,0,none,true,,,
html-keyboard-response,392,694159,null,"STAMP",null,word,,,,, 'STAMP',,
html-keyboard-response,393,694663,null,"RABBIT<img id = ""stim"" ><div class = red_square id = ""topsquare"" ></div><img id = ""stim"" ><div class = red_square  id = ""bottomsquare"" ></div>",null,word_square,response,0,none,true,,,
html-keyboard-response,394,696167,null,"RABBIT",null,word,,,,, 'RABBIT',,
html-keyboard-response,395,696566,397.8600000264123,"OUTFIT<img id = ""stim"" ><div class = green_square id = ""topsquare"" ></div><img id = ""stim"" ><div class = green_square  id = ""bottomsquare"" ></div>",32,word_square,response,1,Space,true,,,
html-keyboard-response,396,698071,null,"OUTFIT",null,word,,,,, 'OUTFIT',,
html-keyboard-response,397,698577,null,"COSTUME<img id = ""stim"" ><div class = red_square id = ""topsquare"" ></div><img id = ""stim"" ><div class = red_square  id = ""bottomsquare"" ></div>",null,word_square,response,0,none,true,,,
html-keyboard-response,398,700081,null,"COSTUME",null,word,,,,, 'COSTUME',,
html-keyboard-response,399,700584,null,"BOUQUET<img id = ""stim"" ><div class = red_square id = ""topsquare"" ></div><img id = ""stim"" ><div class = red_square  id = ""bottomsquare"" ></div>",null,word_square,response,0,none,true,,,
html-keyboard-response,400,702086,null,"BOUQUET",null,word,,,,, 'BOUQUET',,
html-keyboard-response,401,702461,373.65000002318993,"PLANT<img id = ""stim"" ><div class = green_square id = ""topsquare"" ></div><img id = ""stim"" ><div class = green_square  id = ""bottomsquare"" ></div>",32,word_square,response,1,Space,true,,,
html-keyboard-response,402,703964,null,"PLANT",null,word,,,,, 'PLANT',,
html-keyboard-response,403,704466,null,"STICKER<img id = ""stim"" ><div class = red_square id = ""topsquare"" ></div><img id = ""stim"" ><div class = red_square  id = ""bottomsquare"" ></div>",null,word_square,response,0,none,true,,,
html-keyboard-response,404,705970,null,"STICKER",null,word,,,,, 'STICKER',,
html-keyboard-response,405,706476,null,"MAGNET<img id = ""stim"" ><div class = red_square id = ""topsquare"" ></div><img id = ""stim"" ><div class = red_square  id = ""bottomsquare"" ></div>",null,word_square,response,0,none,true,,,
html-keyboard-response,406,707981,null,"MAGNET",null,word,,,,, 'MAGNET',,
html-keyboard-response,407,708335,352.8900000383146,"FREEWAY<img id = ""stim"" ><div class = green_square id = ""topsquare"" ></div><img id = ""stim"" ><div class = green_square  id = ""bottomsquare"" ></div>",32,word_square,response,1,Space,true,,,
html-keyboard-response,408,709837,null,"FREEWAY",null,word,,,,, 'FREEWAY',,
html-keyboard-response,409,710189,350.63499998068437,"ANGEL<img id = ""stim"" ><div class = green_square id = ""topsquare"" ></div><img id = ""stim"" ><div class = green_square  id = ""bottomsquare"" ></div>",32,word_square,response,1,Space,true,,,
html-keyboard-response,410,711693,null,"ANGEL",null,word,,,,, 'ANGEL',,
html-keyboard-response,411,712199,null,"PARSLEY<img id = ""stim"" ><div class = red_square id = ""topsquare"" ></div><img id = ""stim"" ><div class = red_square  id = ""bottomsquare"" ></div>",null,word_square,response,0,none,true,,,
html-keyboard-response,412,713702,null,"PARSLEY",null,word,,,,, 'PARSLEY',,
html-keyboard-response,413,714061,357.9349999781698,"SNACK<img id = ""stim"" ><div class = green_square id = ""topsquare"" ></div><img id = ""stim"" ><div class = green_square  id = ""bottomsquare"" ></div>",32,word_square,response,1,Space,true,,,
html-keyboard-response,414,715564,null,"SNACK",null,word,,,,, 'SNACK',,
html-keyboard-response,415,715917,352.0499999867752,"SATURN<img id = ""stim"" ><div class = green_square id = ""topsquare"" ></div><img id = ""stim"" ><div class = green_square  id = ""bottomsquare"" ></div>",32,word_square,response,1,Space,true,,,
html-keyboard-response,416,717420,null,"SATURN",null,word,,,,, 'SATURN',,
html-keyboard-response,417,717924,null,"ISLAND<img id = ""stim"" ><div class = red_square id = ""topsquare"" ></div><img id = ""stim"" ><div class = red_square  id = ""bottomsquare"" ></div>",null,word_square,response,0,none,true,,,
html-keyboard-response,418,719426,null,"ISLAND",null,word,,,,, 'ISLAND',,
html-keyboard-response,419,719847,419.14499999256805,"CONVICT<img id = ""stim"" ><div class = green_square id = ""topsquare"" ></div><img id = ""stim"" ><div class = green_square  id = ""bottomsquare"" ></div>",32,word_square,response,1,Space,true,,,
html-keyboard-response,420,721352,null,"CONVICT",null,word,,,,, 'CONVICT',,
html-keyboard-response,421,721858,null,"PEANUT<img id = ""stim"" ><div class = red_square id = ""topsquare"" ></div><img id = ""stim"" ><div class = red_square  id = ""bottomsquare"" ></div>",null,word_square,response,0,none,true,,,
html-keyboard-response,422,723362,null,"PEANUT",null,word,,,,, 'PEANUT',,
call-function,423,723363,,"",,,,,,,,,
html-keyboard-response,424,723469,null,"",null,,,,,,,,
math-period,425,725077,3157.7399999951012,"",,,,,,,,,3
html-keyboard-response,426,725179,null,"",null,,,,,,,,
math-period,427,725885,1368.8400000100955,"",,,,,,,,,3
html-keyboard-response,428,725989,null,"",null,,,,,,,,
math-period,429,727301,2566.3900000508875,"",,,,,,,,,4
html-keyboard-response,430,727405,null,"",null,,,,,,,,
math-period,431,728925,2990.3350000386126,"",,,,,,,,,1
html-keyboard-response,432,729031,null,"",null,,,,,,,,
math-period,433,731509,4889.689999923576,"",,,,,,,,,1
html-keyboard-response,434,731612,null,"",null,,,,,,,,
math-period,435,733268,3222.0799999777228,"",,,,,,,,,3
html-keyboard-response,436,733371,null,"",null,,,,,,,,
math-period,437,735493,4145.484999986365,"",,,,,,,,,1
html-keyboard-response,438,735598,null,"",null,,,,,,,,
math-period,439,736950,2620.0750000425614,"",,,,,,,,,6
html-keyboard-response,440,737053,null,"",null,,,,,,,,
math-period,441,738678,3143.4400000143796,"",,,,,,,,,1
html-keyboard-response,442,738780,null,"",null,,,,,,,,
math-period,443,740750,3878.9300000062212,"",,,,,,,,,1
html-keyboard-response,444,740853,null,"",null,,,,,,,,
math-period,445,743390,5023.930000024848,"",,,,,,,,,4
html-keyboard-response,446,743495,null,"",null,,,,,,,,
math-period,447,744781,2521.950000023935,"",,,,,,,,,2
html-keyboard-response,448,744885,null,"",null,,,,,,,,
math-period,449,746117,2398.20499997586,"",,,,,,,,,5
html-keyboard-response,450,746220,null,"",null,,,,,,,,
math-period,451,747367,null,"",,,,,,,,,
html-keyboard-response,452,748373,null,"Recall Period!",null,,,,,,,,
call-function,453,748374,,"",,,,,,,,,
html-keyboard-response,454,748477,null,"",null,,,,,,,,
recall-period,455,752517,25378.095000050962,"",,,,,,,,,convict 
html-keyboard-response,456,752620,null,"",null,,,,,,,,
recall-period,457,753341,3015.024999855086,"",,,,,,,,,island
html-keyboard-response,458,753447,null,"",null,,,,,,,,
recall-period,459,757189,23827.230000053532,"",,,,,,,,,rabbit
html-keyboard-response,460,757293,null,"",null,,,,,,,,
recall-period,461,761390,26951.500000141095,"",,,,,,,,,peanut
html-keyboard-response,462,761496,null,"",null,,,,,,,,
recall-period,463,768645,54635.314999788534,"",,,,,,,,,diamond
html-keyboard-response,464,768748,null,"",null,,,,,,,,
recall-period,465,780703,125330.43500001077,"",,,,,,,,,ice
html-keyboard-response,466,780808,null,"",null,,,,,,,,
recall-period,467,823379,null,"",,,,,,,,,
html-keyboard-response,468,823885,null,"Time's Up!",null,,,,,,,,
html-keyboard-response,469,846951,23063.84999997681,"<p> Good job! You responded correctly to 92% of the GREEN squares.</p>
                  <p>Be sure to keep your accuracy above 80%</p>
                  <p>Press any key to continue the experiment. Thank you!</p>",32,,,,,,,,
html-keyboard-response,470,851159,4206.454999977723,"<div style=""font-size:48px;"">Press any key to begin list 5 of 24 </div>",32,,,,,,,,
html-keyboard-response,471,853666,null,"<div style=""font-size:60px;"">+</div>",null,,,,,,,,
html-keyboard-response,472,854173,null,"EARRING<img id = ""stim"" ><div class = red_square id = ""topsquare"" ></div><img id = ""stim"" ><div class = red_square  id = ""bottomsquare"" ></div>",null,word_square,response,0,none,true,,,
html-keyboard-response,473,855675,null,"EARRING",null,word,,,,, 'EARRING',,
html-keyboard-response,474,856179,null,"PAINTING<img id = ""stim"" ><div class = red_square id = ""topsquare"" ></div><img id = ""stim"" ><div class = red_square  id = ""bottomsquare"" ></div>",null,word_square,response,0,none,true,,,
html-keyboard-response,475,857683,null,"PAINTING",null,word,,,,, 'PAINTING',,
html-keyboard-response,476,858072,387.0549999992363,"PATIENT<img id = ""stim"" ><div class = green_square id = ""topsquare"" ></div><img id = ""stim"" ><div class = green_square  id = ""bottomsquare"" ></div>",32,word_square,response,1,Space,true,,,
html-keyboard-response,477,859578,null,"PATIENT",null,word,,,,, 'PATIENT',,
html-keyboard-response,478,860015,435.95999997342005,"NURSE<img id = ""stim"" ><div class = green_square id = ""topsquare"" ></div><img id = ""stim"" ><div class = green_square  id = ""bottomsquare"" ></div>",32,word_square,response,1,Space,true,,,
html-keyboard-response,479,861520,null,"NURSE",null,word,,,,, 'NURSE',,
html-keyboard-response,480,862024,null,"SENATE<img id = ""stim"" ><div class = red_square id = ""topsquare"" ></div><img id = ""stim"" ><div class = red_square  id = ""bottomsquare"" ></div>",null,word_square,response,0,none,true,,,
html-keyboard-response,481,863529,null,"SENATE",null,word,,,,, 'SENATE',,
html-keyboard-response,482,863959,428.75500000081956,"BROTHER<img id = ""stim"" ><div class = green_square id = ""topsquare"" ></div><img id = ""stim"" ><div class = green_square  id = ""bottomsquare"" ></div>",32,word_square,response,1,Space,true,,,
html-keyboard-response,483,865464,null,"BROTHER",null,word,,,,, 'BROTHER',,
html-keyboard-response,484,865971,null,"BANDIT<img id = ""stim"" ><div class = red_square id = ""topsquare"" ></div><img id = ""stim"" ><div class = red_square  id = ""bottomsquare"" ></div>",null,word_square,response,0,none,true,,,
html-keyboard-response,485,867475,null,"BANDIT",null,word,,,,, 'BANDIT',,
html-keyboard-response,486,867981,null,"ARTIST<img id = ""stim"" ><div class = red_square id = ""topsquare"" ></div><img id = ""stim"" ><div class = red_square  id = ""bottomsquare"" ></div>",null,word_square,response,0,none,true,,,
html-keyboard-response,487,869486,null,"ARTIST",null,word,,,,, 'ARTIST',,
html-keyboard-response,488,869823,335.53000004030764,"QUAIL<img id = ""stim"" ><div class = green_square id = ""topsquare"" ></div><img id = ""stim"" ><div class = green_square  id = ""bottomsquare"" ></div>",32,word_square,response,1,Space,true,,,
html-keyboard-response,489,871332,null,"QUAIL",null,word,,,,, 'QUAIL',,
html-keyboard-response,490,871843,null,"MEAT<img id = ""stim"" ><div class = red_square id = ""topsquare"" ></div><img id = ""stim"" ><div class = red_square  id = ""bottomsquare"" ></div>",null,word_square,response,0,none,true,,,
html-keyboard-response,491,873347,null,"MEAT",null,word,,,,, 'MEAT',,
html-keyboard-response,492,873737,389.1600000206381,"JELLO<img id = ""stim"" ><div class = green_square id = ""topsquare"" ></div><img id = ""stim"" ><div class = green_square  id = ""bottomsquare"" ></div>",32,word_square,response,1,Space,true,,,
html-keyboard-response,493,875240,null,"JELLO",null,word,,,,, 'JELLO',,
html-keyboard-response,494,875581,340.07999999448657,"BELLY<img id = ""stim"" ><div class = green_square id = ""topsquare"" ></div><img id = ""stim"" ><div class = green_square  id = ""bottomsquare"" ></div>",32,word_square,response,1,Space,true,,,
html-keyboard-response,495,877085,null,"BELLY",null,word,,,,, 'BELLY',,
html-keyboard-response,496,877587,null,"CARTON<img id = ""stim"" ><div class = red_square id = ""topsquare"" ></div><img id = ""stim"" ><div class = red_square  id = ""bottomsquare"" ></div>",null,word_square,response,0,none,true,,,
html-keyboard-response,497,879091,null,"CARTON",null,word,,,,, 'CARTON',,
html-keyboard-response,498,879592,null,"HANDBAG<img id = ""stim"" ><div class = red_square id = ""topsquare"" ></div><img id = ""stim"" ><div class = red_square  id = ""bottomsquare"" ></div>",null,word_square,response,0,none,true,,,
html-keyboard-response,499,881099,null,"HANDBAG",null,word,,,,, 'HANDBAG',,
html-keyboard-response,500,881603,null,"SCOUT<img id = ""stim"" ><div class = green_square id = ""topsquare"" ></div><img id = ""stim"" ><div class = green_square  id = ""bottomsquare"" ></div>",null,word_square,response,1,Space,false,,,
html-keyboard-response,501,883107,null,"SCOUT",null,word,,,,, 'SCOUT',,
html-keyboard-response,502,883614,null,"SIBLING<img id = ""stim"" ><div class = red_square id = ""topsquare"" ></div><img id = ""stim"" ><div class = red_square  id = ""bottomsquare"" ></div>",null,word_square,response,0,none,true,,,
html-keyboard-response,503,885116,null,"SIBLING",null,word,,,,, 'SIBLING',,
html-keyboard-response,504,885619,null,"GRIZZLY<img id = ""stim"" ><div class = green_square id = ""topsquare"" ></div><img id = ""stim"" ><div class = green_square  id = ""bottomsquare"" ></div>",null,word_square,response,1,Space,false,,,
html-keyboard-response,505,887123,null,"GRIZZLY",null,word,,,,, 'GRIZZLY',,
html-keyboard-response,506,887577,453.319999971427,"CRAB<img id = ""stim"" ><div class = green_square id = ""topsquare"" ></div><img id = ""stim"" ><div class = green_square  id = ""bottomsquare"" ></div>",32,word_square,response,1,Space,true,,,
html-keyboard-response,507,889080,null,"CRAB",null,word,,,,, 'CRAB',,
call-function,508,889082,,"",,,,,,,,,
html-keyboard-response,509,889186,null,"",null,,,,,,,,
math-period,510,891079,3718.074999982491,"",,,,,,,,,2
html-keyboard-response,511,891182,null,"",null,,,,,,,,
math-period,512,892782,3135.4799999971874,"",,,,,,,,,2
html-keyboard-response,513,892885,null,"",null,,,,,,,,
math-period,514,895456,5056.479999970179,"",,,,,,,,,3
html-keyboard-response,515,895560,null,"",null,,,,,,,,
math-period,516,897056,2899.0149999735877,"",,,,,,,,,4
html-keyboard-response,517,897160,null,"",null,,,,,,,,
math-period,518,898872,3331.590000074357,"",,,,,,,,,4
html-keyboard-response,519,898975,null,"",null,,,,,,,,
math-period,520,899959,1891.7149999761023,"",,,,,,,,,5
html-keyboard-response,521,900062,null,"",null,,,,,,,,
math-period,522,900863,1550.799999909941,"",,,,,,,,,3
html-keyboard-response,523,900968,null,"",null,,,,,,,,
math-period,524,902095,2218.269999953918,"",,,,,,,,,2
html-keyboard-response,525,902201,null,"",null,,,,,,,,
math-period,526,903311,2193.6850000638515,"",,,,,,,,,2
html-keyboard-response,527,903413,null,"",null,,,,,,,,
math-period,528,905367,3825.1600000658073,"",,,,,,,,,5
html-keyboard-response,529,905470,null,"",null,,,,,,,,
math-period,530,907678,4397.689999954309,"",,,,,,,,,1
html-keyboard-response,531,907780,null,"",null,,,,,,,,
math-period,532,909422,3170.815000019502,"",,,,,,,,,4
html-keyboard-response,533,909529,null,"",null,,,,,,,,
math-period,534,910668,2182.990000001155,"",,,,,,,,,1
html-keyboard-response,535,910773,null,"",null,,,,,,,,
math-period,536,911911,2210.2799999993294,"",,,,,,,,,6
html-keyboard-response,537,912014,null,"",null,,,,,,,,
math-period,538,913086,null,"",,,,,,,,,
html-keyboard-response,539,914088,null,"Recall Period!",null,,,,,,,,
call-function,540,914089,,"",,,,,,,,,
html-keyboard-response,541,914196,null,"",null,,,,,,,,
recall-period,542,915008,810.910000000149,"",,,,,,,,,
html-keyboard-response,543,915111,null,"",null,,,,,,,,
recall-period,544,917295,11835.049999703187,"",,,,,,,,,grizzley 
html-keyboard-response,545,917400,null,"",null,,,,,,,,
recall-period,546,918487,3479.844999848865,"",,,,,,,,,crab
html-keyboard-response,547,918590,null,"",null,,,,,,,,
recall-period,548,919535,4960.719999857247,"",,,,,,,,,patient
html-keyboard-response,549,919638,null,"",null,,,,,,,,
recall-period,550,921159,8620.43000018457,"",,,,,,,,,nurse
html-keyboard-response,551,921262,null,"",null,,,,,,,,
recall-period,552,922375,4808.470000105444,"",,,,,,,,,handbag
html-keyboard-response,553,922478,null,"",null,,,,,,,,
recall-period,554,932263,56302.65500006499,"",,,,,,,,,quail
html-keyboard-response,555,932366,null,"",null,,,,,,,,
recall-period,556,989092,null,"",,,,,,,,,
html-keyboard-response,557,989598,null,"Time's Up!",null,,,,,,,,
html-keyboard-response,558,1003657,14057.139999989886,"<p> Good job! You responded correctly to 92% of the GREEN squares.</p>
                  <p>Be sure to keep your accuracy above 80%</p>
                  <p>Press any key to continue the experiment. Thank you!</p>",32,,,,,,,,
html-keyboard-response,559,1004830,1171.2549999938346,"<div style=""font-size:48px;"">Press any key to begin list 6 of 24 </div>",32,,,,,,,,
html-keyboard-response,560,1007338,null,"<div style=""font-size:60px;"">+</div>",null,,,,,,,,
html-keyboard-response,561,1007844,null,"TIMBER<img id = ""stim"" ><div class = red_square id = ""topsquare"" ></div><img id = ""stim"" ><div class = red_square  id = ""bottomsquare"" ></div>",null,word_square,response,0,none,true,,,
html-keyboard-response,562,1009346,null,"TIMBER",null,word,,,,, 'TIMBER',,
html-keyboard-response,563,1009849,null,"LAMP<img id = ""stim"" ><div class = red_square id = ""topsquare"" ></div><img id = ""stim"" ><div class = red_square  id = ""bottomsquare"" ></div>",null,word_square,response,0,none,true,,,
html-keyboard-response,564,1011351,null,"LAMP",null,word,,,,, 'LAMP',,
html-keyboard-response,565,1011855,null,"CHAMBER<img id = ""stim"" ><div class = green_square id = ""topsquare"" ></div><img id = ""stim"" ><div class = green_square  id = ""bottomsquare"" ></div>",null,word_square,response,1,Space,false,,,
html-keyboard-response,566,1013359,null,"CHAMBER",null,word,,,,, 'CHAMBER',,
html-keyboard-response,567,1013753,392.69000000786036,"JEANS<img id = ""stim"" ><div class = green_square id = ""topsquare"" ></div><img id = ""stim"" ><div class = green_square  id = ""bottomsquare"" ></div>",32,word_square,response,1,Space,true,,,
html-keyboard-response,568,1015257,null,"JEANS",null,word,,,,, 'JEANS',,
html-keyboard-response,569,1015764,null,"BEAVER<img id = ""stim"" ><div class = red_square id = ""topsquare"" ></div><img id = ""stim"" ><div class = red_square  id = ""bottomsquare"" ></div>",null,word_square,response,0,none,true,,,
html-keyboard-response,570,1017268,null,"BEAVER",null,word,,,,, 'BEAVER',,
html-keyboard-response,571,1017744,474.17500003939494,"BISON<img id = ""stim"" ><div class = green_square id = ""topsquare"" ></div><img id = ""stim"" ><div class = green_square  id = ""bottomsquare"" ></div>",32,word_square,response,1,Space,true,,,
html-keyboard-response,572,1019247,null,"BISON",null,word,,,,, 'BISON',,
html-keyboard-response,573,1019754,null,"PADDING<img id = ""stim"" ><div class = red_square id = ""topsquare"" ></div><img id = ""stim"" ><div class = red_square  id = ""bottomsquare"" ></div>",null,word_square,response,0,none,true,,,
html-keyboard-response,574,1021258,null,"PADDING",null,word,,,,, 'PADDING',,
html-keyboard-response,575,1021764,null,"VELVET<img id = ""stim"" ><div class = red_square id = ""topsquare"" ></div><img id = ""stim"" ><div class = red_square  id = ""bottomsquare"" ></div>",null,word_square,response,0,none,true,,,
html-keyboard-response,576,1023268,null,"VELVET",null,word,,,,, 'VELVET',,
html-keyboard-response,577,1023663,392.82000000821427,"GUARD<img id = ""stim"" ><div class = green_square id = ""topsquare"" ></div><img id = ""stim"" ><div class = green_square  id = ""bottomsquare"" ></div>",32,word_square,response,1,Space,true,,,
html-keyboard-response,578,1025167,null,"GUARD",null,word,,,,, 'GUARD',,
html-keyboard-response,579,1025673,null,"STREET<img id = ""stim"" ><div class = red_square id = ""topsquare"" ></div><img id = ""stim"" ><div class = red_square  id = ""bottomsquare"" ></div>",null,word_square,response,0,none,true,,,
html-keyboard-response,580,1027178,null,"STREET",null,word,,,,, 'STREET',,
html-keyboard-response,581,1027684,null,"FIST<img id = ""stim"" ><div class = green_square id = ""topsquare"" ></div><img id = ""stim"" ><div class = green_square  id = ""bottomsquare"" ></div>",null,word_square,response,1,Space,false,,,
html-keyboard-response,582,1029188,null,"FIST",null,word,,,,, 'FIST',,
html-keyboard-response,583,1029552,362.4249999993481,"GOBLIN<img id = ""stim"" ><div class = green_square id = ""topsquare"" ></div><img id = ""stim"" ><div class = green_square  id = ""bottomsquare"" ></div>",32,word_square,response,1,Space,true,,,
html-keyboard-response,584,1031055,null,"GOBLIN",null,word,,,,, 'GOBLIN',,
html-keyboard-response,585,1031561,null,"DENIM<img id = ""stim"" ><div class = red_square id = ""topsquare"" ></div><img id = ""stim"" ><div class = red_square  id = ""bottomsquare"" ></div>",null,word_square,response,0,none,true,,,
html-keyboard-response,586,1033066,null,"DENIM",null,word,,,,, 'DENIM',,
html-keyboard-response,587,1033572,null,"POND<img id = ""stim"" ><div class = red_square id = ""topsquare"" ></div><img id = ""stim"" ><div class = red_square  id = ""bottomsquare"" ></div>",null,word_square,response,0,none,true,,,
html-keyboard-response,588,1035078,null,"POND",null,word,,,,, 'POND',,
html-keyboard-response,589,1035472,391.8249999987893,"MATCH<img id = ""stim"" ><div class = green_square id = ""topsquare"" ></div><img id = ""stim"" ><div class = green_square  id = ""bottomsquare"" ></div>",32,word_square,response,1,Space,true,,,
html-keyboard-response,590,1036975,null,"MATCH",null,word,,,,, 'MATCH',,
html-keyboard-response,591,1037482,null,"SNAKE<img id = ""stim"" ><div class = red_square id = ""topsquare"" ></div><img id = ""stim"" ><div class = red_square  id = ""bottomsquare"" ></div>",null,word_square,response,0,none,true,,,
html-keyboard-response,592,1038985,null,"SNAKE",null,word,,,,, 'SNAKE',,
html-keyboard-response,593,1039377,389.8200000403449,"STAIRS<img id = ""stim"" ><div class = green_square id = ""topsquare"" ></div><img id = ""stim"" ><div class = green_square  id = ""bottomsquare"" ></div>",32,word_square,response,1,Space,true,,,
html-keyboard-response,594,1040879,null,"STAIRS",null,word,,,,, 'STAIRS',,
html-keyboard-response,595,1041249,367.69000004278496,"COLONEL<img id = ""stim"" ><div class = green_square id = ""topsquare"" ></div><img id = ""stim"" ><div class = green_square  id = ""bottomsquare"" ></div>",32,word_square,response,1,Space,true,,,
html-keyboard-response,596,1042751,null,"COLONEL",null,word,,,,, 'COLONEL',,
call-function,597,1042752,,"",,,,,,,,,
html-keyboard-response,598,1042857,null,"",null,,,,,,,,
math-period,599,1044377,2938.6399999493733,"",,,,,,,,,4
html-keyboard-response,600,1044478,null,"",null,,,,,,,,
math-period,601,1045782,2477.9100000159815,"",,,,,,,,,5
html-keyboard-response,602,1045885,null,"",null,,,,,,,,
math-period,603,1049817,7764.834999979939,"",,,,,,,,,4
html-keyboard-response,604,1049920,null,"",null,,,,,,,,
math-period,605,1051577,3220.134999952279,"",,,,,,,,,2
html-keyboard-response,606,1051679,null,"",null,,,,,,,,
math-period,607,1053663,3604.6999999671243,"",,,,,,,,,2
html-keyboard-response,608,1053764,null,"",null,,,,,,,,
math-period,609,1055304,2947.15499994345,"",,,,,,,,,5
html-keyboard-response,610,1055407,null,"",null,,,,,,,,
math-period,611,1056168,1437.3299999861047,"",,,,,,,,,2
html-keyboard-response,612,1056272,null,"",null,,,,,,,,
math-period,613,1057679,2724.6699999668635,"",,,,,,,,,1
html-keyboard-response,614,1057781,null,"",null,,,,,,,,
math-period,615,1059305,2958.7700000265613,"",,,,,,,,,5
html-keyboard-response,616,1059408,null,"",null,,,,,,,,
math-period,617,1060048,1228.449999995064,"",,,,,,,,,2
html-keyboard-response,618,1060152,null,"",null,,,,,,,,
math-period,619,1061008,1644.1549999872223,"",,,,,,,,,3
html-keyboard-response,620,1061111,null,"",null,,,,,,,,
math-period,621,1062368,2463.9699999825098,"",,,,,,,,,4
html-keyboard-response,622,1062471,null,"",null,,,,,,,,
math-period,623,1063559,2117.7150000585243,"",,,,,,,,,1
html-keyboard-response,624,1063663,null,"",null,,,,,,,,
math-period,625,1065072,2759.9049999844283,"",,,,,,,,,5
html-keyboard-response,626,1065176,null,"",null,,,,,,,,
math-period,627,1066136,1845.7100000232458,"",,,,,,,,,3
html-keyboard-response,628,1066239,null,"",null,,,,,,,,
math-period,629,1066756,null,"",,,,,,,,,
html-keyboard-response,630,1067759,null,"Recall Period!",null,,,,,,,,
call-function,631,1067760,,"",,,,,,,,,
html-keyboard-response,632,1067866,null,"",null,,,,,,,,
recall-period,633,1069353,7287.9699998302385,"",,,,,,,,,timber
html-keyboard-response,634,1069455,null,"",null,,,,,,,,
recall-period,635,1070616,4279.15499988012,"",,,,,,,,,lamp 
html-keyboard-response,636,1070719,null,"",null,,,,,,,,
recall-period,637,1071592,3315.385000198148,"",,,,,,,,,denim 
html-keyboard-response,638,1071695,null,"",null,,,,,,,,
recall-period,639,1073152,8339.074999908917,"",,,,,,,,,colonel 
html-keyboard-response,640,1073254,null,"",null,,,,,,,,
recall-period,641,1073969,2774.740000080783,"",,,,,,,,,snake
html-keyboard-response,642,1074074,null,"",null,,,,,,,,
recall-period,643,1075744,10284.629999950994,"",,,,,,,,,velvet
html-keyboard-response,644,1075849,null,"",null,,,,,,,,
recall-period,645,1142763,null,"",,,,,,,,,
html-keyboard-response,646,1143269,null,"Time's Up!",null,,,,,,,,
html-keyboard-response,647,1158587,15315.56499999715,"<p> Good job! You responded correctly to 91% of the GREEN squares.</p>
                  <p>Be sure to keep your accuracy above 80%</p>
                  <p>Press any key to continue the experiment. Thank you!</p>",32,,,,,,,,
html-keyboard-response,648,1159529,940.9549999982119,"<div style=""font-size:48px;"">Press any key to begin list 7 of 24 </div>",32,,,,,,,,
html-keyboard-response,649,1162038,null,"<div style=""font-size:60px;"">+</div>",null,,,,,,,,
html-keyboard-response,650,1162544,null,"GANGSTER<img id = ""stim"" ><div class = green_square id = ""topsquare"" ></div><img id = ""stim"" ><div class = green_square  id = ""bottomsquare"" ></div>",null,word_square,response,1,Space,false,,,
html-keyboard-response,651,1164046,null,"GANGSTER",null,word,,,,, 'GANGSTER',,
html-keyboard-response,652,1164439,391.475000011269,"SCHOOL<img id = ""stim"" ><div class = green_square id = ""topsquare"" ></div><img id = ""stim"" ><div class = green_square  id = ""bottomsquare"" ></div>",32,word_square,response,1,Space,true,,,
html-keyboard-response,653,1165941,null,"SCHOOL",null,word,,,,, 'SCHOOL',,
html-keyboard-response,654,1166443,null,"MISSILE<img id = ""stim"" ><div class = red_square id = ""topsquare"" ></div><img id = ""stim"" ><div class = red_square  id = ""bottomsquare"" ></div>",null,word_square,response,0,none,true,,,
html-keyboard-response,655,1167947,null,"MISSILE",null,word,,,,, 'MISSILE',,
html-keyboard-response,656,1168453,null,"FLOWER<img id = ""stim"" ><div class = red_square id = ""topsquare"" ></div><img id = ""stim"" ><div class = red_square  id = ""bottomsquare"" ></div>",null,word_square,response,0,none,true,,,
html-keyboard-response,657,1169958,null,"FLOWER",null,word,,,,, 'FLOWER',,
html-keyboard-response,658,1170361,400.7349999737926,"DAISY<img id = ""stim"" ><div class = green_square id = ""topsquare"" ></div><img id = ""stim"" ><div class = green_square  id = ""bottomsquare"" ></div>",32,word_square,response,1,Space,true,,,
html-keyboard-response,659,1171866,null,"DAISY",null,word,,,,, 'DAISY',,
html-keyboard-response,660,1172370,null,"SURGEON<img id = ""stim"" ><div class = red_square id = ""topsquare"" ></div><img id = ""stim"" ><div class = red_square  id = ""bottomsquare"" ></div>",null,word_square,response,0,none,true,,,
html-keyboard-response,661,1173872,null,"SURGEON",null,word,,,,, 'SURGEON',,
html-keyboard-response,662,1174234,359.88499998347834,"CAPTIVE<img id = ""stim"" ><div class = green_square id = ""topsquare"" ></div><img id = ""stim"" ><div class = green_square  id = ""bottomsquare"" ></div>",32,word_square,response,1,Space,true,,,
html-keyboard-response,663,1175739,null,"CAPTIVE",null,word,,,,, 'CAPTIVE',,
html-keyboard-response,664,1176208,467.3249999759719,"PEDAL<img id = ""stim"" ><div class = green_square id = ""topsquare"" ></div><img id = ""stim"" ><div class = green_square  id = ""bottomsquare"" ></div>",32,word_square,response,1,Space,true,,,
html-keyboard-response,665,1177712,null,"PEDAL",null,word,,,,, 'PEDAL',,
html-keyboard-response,666,1178219,null,"BEEF<img id = ""stim"" ><div class = red_square id = ""topsquare"" ></div><img id = ""stim"" ><div class = red_square  id = ""bottomsquare"" ></div>",null,word_square,response,0,none,true,,,
html-keyboard-response,667,1179722,null,"BEEF",null,word,,,,, 'BEEF',,
html-keyboard-response,668,1180098,375.0749999890104,"SCAPEGOAT<img id = ""stim"" ><div class = green_square id = ""topsquare"" ></div><img id = ""stim"" ><div class = green_square  id = ""bottomsquare"" ></div>",32,word_square,response,1,Space,true,,,
html-keyboard-response,669,1181600,null,"SCAPEGOAT",null,word,,,,, 'SCAPEGOAT',,
html-keyboard-response,670,1182102,null,"TURKEY<img id = ""stim"" ><div class = red_square id = ""topsquare"" ></div><img id = ""stim"" ><div class = red_square  id = ""bottomsquare"" ></div>",null,word_square,response,0,none,true,,,
html-keyboard-response,671,1183605,null,"TURKEY",null,word,,,,, 'TURKEY',,
html-keyboard-response,672,1184109,null,"FARMER<img id = ""stim"" ><div class = red_square id = ""topsquare"" ></div><img id = ""stim"" ><div class = red_square  id = ""bottomsquare"" ></div>",null,word_square,response,0,none,true,,,
html-keyboard-response,673,1185611,null,"FARMER",null,word,,,,, 'FARMER',,
html-keyboard-response,674,1186026,413.21500000776723,"XEROX<img id = ""stim"" ><div class = green_square id = ""topsquare"" ></div><img id = ""stim"" ><div class = green_square  id = ""bottomsquare"" ></div>",32,word_square,response,1,Space,true,,,
html-keyboard-response,675,1187531,null,"XEROX",null,word,,,,, 'XEROX',,
html-keyboard-response,676,1188009,476.64499998791143,"MACHINE<img id = ""stim"" ><div class = green_square id = ""topsquare"" ></div><img id = ""stim"" ><div class = green_square  id = ""bottomsquare"" ></div>",32,word_square,response,1,Space,true,,,
html-keyboard-response,677,1189515,null,"MACHINE",null,word,,,,, 'MACHINE',,
html-keyboard-response,678,1190022,null,"FRIAR<img id = ""stim"" ><div class = red_square id = ""topsquare"" ></div><img id = ""stim"" ><div class = red_square  id = ""bottomsquare"" ></div>",null,word_square,response,0,none,true,,,
html-keyboard-response,679,1191525,null,"FRIAR",null,word,,,,, 'FRIAR',,
html-keyboard-response,680,1192001,474.4700000155717,"SKUNK<img id = ""stim"" ><div class = green_square id = ""topsquare"" ></div><img id = ""stim"" ><div class = green_square  id = ""bottomsquare"" ></div>",32,word_square,response,1,Space,true,,,
html-keyboard-response,681,1193504,null,"SKUNK",null,word,,,,, 'SKUNK',,
html-keyboard-response,682,1194011,null,"GRASS<img id = ""stim"" ><div class = red_square id = ""topsquare"" ></div><img id = ""stim"" ><div class = red_square  id = ""bottomsquare"" ></div>",null,word_square,response,0,none,true,,,
html-keyboard-response,683,1195515,null,"GRASS",null,word,,,,, 'GRASS',,
html-keyboard-response,684,1196022,null,"FROG<img id = ""stim"" ><div class = red_square id = ""topsquare"" ></div><img id = ""stim"" ><div class = red_square  id = ""bottomsquare"" ></div>",null,word_square,response,0,none,true,,,
html-keyboard-response,685,1197525,null,"FROG",null,word,,,,, 'FROG',,
call-function,686,1197526,,"",,,,,,,,,
html-keyboard-response,687,1197632,null,"",null,,,,,,,,
math-period,688,1199216,3094.9949999921955,"",,,,,,,,,3
html-keyboard-response,689,1199319,null,"",null,,,,,,,,
math-period,690,1200449,2160.7899999944493,"",,,,,,,,,4
html-keyboard-response,691,1200551,null,"",null,,,,,,,,
math-period,692,1201881,2577.9550000443123,"",,,,,,,,,1
html-keyboard-response,693,1201984,null,"",null,,,,,,,,
math-period,694,1202801,1557.6400000136346,"",,,,,,,,,3
html-keyboard-response,695,1202902,null,"",null,,,,,,,,
math-period,696,1204522,3156.0199999948964,"",,,,,,,,,5
html-keyboard-response,697,1204624,null,"",null,,,,,,,,
math-period,698,1205825,2343.964999949094,"",,,,,,,,,5
html-keyboard-response,699,1205929,null,"",null,,,,,,,,
math-period,700,1207443,2927.659999986645,"",,,,,,,,,5
html-keyboard-response,701,1207546,null,"",null,,,,,,,,
math-period,702,1208954,2716.755000059493,"",,,,,,,,,1
html-keyboard-response,703,1209056,null,"",null,,,,,,,,
math-period,704,1211242,4289.999999920838,"",,,,,,,,,3
html-keyboard-response,705,1211345,null,"",null,,,,,,,,
math-period,706,1212304,1900.9400000213645,"",,,,,,,,,3
html-keyboard-response,707,1212405,null,"",null,,,,,,,,
math-period,708,1213785,2699.5300000417046,"",,,,,,,,,2
html-keyboard-response,709,1213889,null,"",null,,,,,,,,
math-period,710,1215536,3252.2000001044944,"",,,,,,,,,3
html-keyboard-response,711,1215638,null,"",null,,,,,,,,
math-period,712,1216330,1356.380000070203,"",,,,,,,,,2
html-keyboard-response,713,1216435,null,"",null,,,,,,,,
math-period,714,1218017,3112.1300000231713,"",,,,,,,,,6
html-keyboard-response,715,1218120,null,"",null,,,,,,,,
math-period,716,1221220,6122.949999989942,"",,,,,,,,,2
html-keyboard-response,717,1221323,null,"",null,,,,,,,,
math-period,718,1221531,null,"",,,,,,,,,
html-keyboard-response,719,1222533,null,"Recall Period!",null,,,,,,,,
call-function,720,1222534,,"",,,,,,,,,
html-keyboard-response,721,1222641,null,"",null,,,,,,,,
recall-period,722,1225737,21865.059999749064,"",,,,,,,,,gangster 
html-keyboard-response,723,1225840,null,"",null,,,,,,,,
recall-period,724,1227057,4617.455000116024,"",,,,,,,,,school 
html-keyboard-response,725,1227160,null,"",null,,,,,,,,
recall-period,726,1228153,3115.170000179205,"",,,,,,,,,xerox
html-keyboard-response,727,1228256,null,"",null,,,,,,,,
recall-period,728,1231041,15075.59500017669,"",,,,,,,,,scapegoat
html-keyboard-response,729,1231144,null,"",null,,,,,,,,
recall-period,730,1233450,3942.339999950491,"",,,,,,,,,friar
html-keyboard-response,731,1233552,null,"",null,,,,,,,,
recall-period,732,1234274,3213.61000003526,"",,,,,,,,,turtle 
html-keyboard-response,733,1234379,null,"",null,,,,,,,,
recall-period,734,1245906,55968.09999999823,"",,,,,,,,,beef
html-keyboard-response,735,1246011,null,"",null,,,,,,,,
recall-period,736,1246705,2674.9499998404644,"",,,,,,,,,turkey
html-keyboard-response,737,1246807,null,"",null,,,,,,,,
recall-period,738,1297537,null,"",,,,,,,,,
html-keyboard-response,739,1298044,null,"Time's Up!",null,,,,,,,,
html-keyboard-response,740,1301860,3814.3699999782257,"<p> Good job! You responded correctly to 92% of the GREEN squares.</p>
                  <p>Be sure to keep your accuracy above 80%</p>
                  <p>Press any key to continue the experiment. Thank you!</p>",32,,,,,,,,
html-keyboard-response,741,1302762,900.5449999822304,"<div style=""font-size:48px;"">Press any key to begin list 8 of 24 </div>",32,,,,,,,,
html-keyboard-response,742,1305271,null,"<div style=""font-size:60px;"">+</div>",null,,,,,,,,
html-keyboard-response,743,1305778,null,"ZEBRA<img id = ""stim"" ><div class = green_square id = ""topsquare"" ></div><img id = ""stim"" ><div class = green_square  id = ""bottomsquare"" ></div>",null,word_square,response,1,Space,false,,,
html-keyboard-response,744,1307279,null,"ZEBRA",null,word,,,,, 'ZEBRA',,
html-keyboard-response,745,1307714,433.6100000073202,"HORSE<img id = ""stim"" ><div class = green_square id = ""topsquare"" ></div><img id = ""stim"" ><div class = green_square  id = ""bottomsquare"" ></div>",32,word_square,response,1,Space,true,,,
html-keyboard-response,746,1309219,null,"HORSE",null,word,,,,, 'HORSE',,
html-keyboard-response,747,1309724,null,"TROPHY<img id = ""stim"" ><div class = red_square id = ""topsquare"" ></div><img id = ""stim"" ><div class = red_square  id = ""bottomsquare"" ></div>",null,word_square,response,0,none,true,,,
html-keyboard-response,748,1311228,null,"TROPHY",null,word,,,,, 'TROPHY',,
html-keyboard-response,749,1311730,null,"LONDON<img id = ""stim"" ><div class = red_square id = ""topsquare"" ></div><img id = ""stim"" ><div class = red_square  id = ""bottomsquare"" ></div>",null,word_square,response,0,none,true,,,
html-keyboard-response,750,1313233,null,"LONDON",null,word,,,,, 'LONDON',,
html-keyboard-response,751,1313676,440.679999999702,"STUDENT<img id = ""stim"" ><div class = green_square id = ""topsquare"" ></div><img id = ""stim"" ><div class = green_square  id = ""bottomsquare"" ></div>",32,word_square,response,1,Space,true,,,
html-keyboard-response,752,1315180,null,"STUDENT",null,word,,,,, 'STUDENT',,
html-keyboard-response,753,1315687,null,"COLLEGE<img id = ""stim"" ><div class = red_square id = ""topsquare"" ></div><img id = ""stim"" ><div class = red_square  id = ""bottomsquare"" ></div>",null,word_square,response,0,none,true,,,
html-keyboard-response,754,1317190,null,"COLLEGE",null,word,,,,, 'COLLEGE',,
html-keyboard-response,755,1317692,null,"COBWEB<img id = ""stim"" ><div class = green_square id = ""topsquare"" ></div><img id = ""stim"" ><div class = green_square  id = ""bottomsquare"" ></div>",null,word_square,response,1,Space,false,,,
html-keyboard-response,756,1319196,null,"COBWEB",null,word,,,,, 'COBWEB',,
html-keyboard-response,757,1319703,null,"ATHLETE<img id = ""stim"" ><div class = green_square id = ""topsquare"" ></div><img id = ""stim"" ><div class = green_square  id = ""bottomsquare"" ></div>",null,word_square,response,1,Space,false,,,
html-keyboard-response,758,1321206,null,"ATHLETE",null,word,,,,, 'ATHLETE',,
html-keyboard-response,759,1321708,null,"ROACH<img id = ""stim"" ><div class = red_square id = ""topsquare"" ></div><img id = ""stim"" ><div class = red_square  id = ""bottomsquare"" ></div>",null,word_square,response,0,none,true,,,
html-keyboard-response,760,1323212,null,"ROACH",null,word,,,,, 'ROACH',,
html-keyboard-response,761,1323611,397.6600000169128,"PLANET<img id = ""stim"" ><div class = green_square id = ""topsquare"" ></div><img id = ""stim"" ><div class = green_square  id = ""bottomsquare"" ></div>",32,word_square,response,1,Space,true,,,
html-keyboard-response,762,1325116,null,"PLANET",null,word,,,,, 'PLANET',,
html-keyboard-response,763,1325623,null,"PLAYGROUND<img id = ""stim"" ><div class = red_square id = ""topsquare"" ></div><img id = ""stim"" ><div class = red_square  id = ""bottomsquare"" ></div>",null,word_square,response,0,none,true,,,
html-keyboard-response,764,1327127,null,"PLAYGROUND",null,word,,,,, 'PLAYGROUND',,
html-keyboard-response,765,1327634,null,"CLIPPERS<img id = ""stim"" ><div class = red_square id = ""topsquare"" ></div><img id = ""stim"" ><div class = red_square  id = ""bottomsquare"" ></div>",null,word_square,response,0,none,true,,,
html-keyboard-response,766,1329137,null,"CLIPPERS",null,word,,,,, 'CLIPPERS',,
html-keyboard-response,767,1329540,400.8649999741465,"CRICKET<img id = ""stim"" ><div class = green_square id = ""topsquare"" ></div><img id = ""stim"" ><div class = green_square  id = ""bottomsquare"" ></div>",32,word_square,response,1,Space,true,,,
html-keyboard-response,768,1331043,null,"CRICKET",null,word,,,,, 'CRICKET',,
html-keyboard-response,769,1331548,null,"SLIME<img id = ""stim"" ><div class = green_square id = ""topsquare"" ></div><img id = ""stim"" ><div class = green_square  id = ""bottomsquare"" ></div>",null,word_square,response,1,Space,false,,,
html-keyboard-response,770,1333052,null,"SLIME",null,word,,,,, 'SLIME',,
html-keyboard-response,771,1333559,null,"DIVER<img id = ""stim"" ><div class = red_square id = ""topsquare"" ></div><img id = ""stim"" ><div class = red_square  id = ""bottomsquare"" ></div>",null,word_square,response,0,none,true,,,
html-keyboard-response,772,1335063,null,"DIVER",null,word,,,,, 'DIVER',,
html-keyboard-response,773,1335569,null,"SHRUB<img id = ""stim"" ><div class = green_square id = ""topsquare"" ></div><img id = ""stim"" ><div class = green_square  id = ""bottomsquare"" ></div>",null,word_square,response,1,Space,false,,,
html-keyboard-response,774,1337074,null,"SHRUB",null,word,,,,, 'SHRUB',,
html-keyboard-response,775,1337580,null,"MISTER<img id = ""stim"" ><div class = red_square id = ""topsquare"" ></div><img id = ""stim"" ><div class = red_square  id = ""bottomsquare"" ></div>",null,word_square,response,0,none,true,,,
html-keyboard-response,776,1339084,null,"MISTER",null,word,,,,, 'MISTER',,
html-keyboard-response,777,1339586,null,"FRANCE<img id = ""stim"" ><div class = red_square id = ""topsquare"" ></div><img id = ""stim"" ><div class = red_square  id = ""bottomsquare"" ></div>",null,word_square,response,0,none,true,,,
html-keyboard-response,778,1341089,null,"FRANCE",null,word,,,,, 'FRANCE',,
call-function,779,1341091,,"",,,,,,,,,
html-keyboard-response,780,1341195,null,"",null,,,,,,,,
math-period,781,1342506,2530.9550000238232,"",,,,,,,,,3
html-keyboard-response,782,1342610,null,"",null,,,,,,,,
math-period,783,1343914,2533.2499999785796,"",,,,,,,,,1
html-keyboard-response,784,1344017,null,"",null,,,,,,,,
math-period,785,1345257,2432.295000005979,"",,,,,,,,,3
html-keyboard-response,786,1345362,null,"",null,,,,,,,,
math-period,787,1346522,2237.734999973327,"",,,,,,,,,5
html-keyboard-response,788,1346625,null,"",null,,,,,,,,
math-period,789,1348923,4520.394999941345,"",,,,,,,,,4
html-keyboard-response,790,1349025,null,"",null,,,,,,,,
math-period,791,1349971,1783.7849999777973,"",,,,,,,,,2
html-keyboard-response,792,1350076,null,"",null,,,,,,,,
math-period,793,1350882,1504.4000000343658,"",,,,,,,,,4
html-keyboard-response,794,1350986,null,"",null,,,,,,,,
math-period,795,1352010,1950.0749999424443,"",,,,,,,,,3
html-keyboard-response,796,1352113,null,"",null,,,,,,,,
math-period,797,1353186,2079.235000011977,"",,,,,,,,,1
html-keyboard-response,798,1353288,null,"",null,,,,,,,,
math-period,799,1354572,2482.2049999493174,"",,,,,,,,,1
html-keyboard-response,800,1354675,null,"",null,,,,,,,,
math-period,801,1356052,2661.1400000401773,"",,,,,,,,,1
html-keyboard-response,802,1356156,null,"",null,,,,,,,,
math-period,803,1357298,2161.3500000094064,"",,,,,,,,,4
html-keyboard-response,804,1357404,null,"",null,,,,,,,,
math-period,805,1358978,3048.9099999540485,"",,,,,,,,,6
html-keyboard-response,806,1359084,null,"",null,,,,,,,,
math-period,807,1359938,1560.7800000580028,"",,,,,,,,,3
html-keyboard-response,808,1360041,null,"",null,,,,,,,,
math-period,809,1361388,2617.389999970328,"",,,,,,,,,4
html-keyboard-response,810,1361490,null,"",null,,,,,,,,
math-period,811,1365095,3552.045000018552,"",,,,,,,,,3
html-keyboard-response,812,1366098,null,"Recall Period!",null,,,,,,,,
call-function,813,1366099,,"",,,,,,,,,
html-keyboard-response,814,1366204,null,"",null,,,,,,,,
recall-period,815,1366674,468.8200000091456,"",,,,,,,,,
html-keyboard-response,816,1366776,null,"",null,,,,,,,,
recall-period,817,1368354,4810.080000024755,"",,,,,,,,,zebra
html-keyboard-response,818,1368457,null,"",null,,,,,,,,
recall-period,819,1370450,9807.504999917,"",,,,,,,,,horse
html-keyboard-response,820,1370553,null,"",null,,,,,,,,
recall-period,821,1371835,6158.000000054017,"",,,,,,,,,london 
html-keyboard-response,822,1371937,null,"",null,,,,,,,,
recall-period,823,1373810,12452.26999989245,"",,,,,,,,,clippers
html-keyboard-response,824,1373914,null,"",null,,,,,,,,
recall-period,825,1380660,12524.61499988567,"",,,,,,,,,crickets 
html-keyboard-response,826,1380763,null,"",null,,,,,,,,
recall-period,827,1386946,28310.594999871682,"",,,,,,,,,fog 
html-keyboard-response,828,1387049,null,"",null,,,,,,,,
recall-period,829,1394674,50936.74999999348,"",,,,,,,,,school
html-keyboard-response,830,1394781,null,"",null,,,,,,,,
recall-period,831,1441103,null,"",,,,,,,,,
html-keyboard-response,832,1441607,null,"Time's Up!",null,,,,,,,,
html-keyboard-response,833,1466981,25371.93500000285,"<p> Good job! You responded correctly to 90% of the GREEN squares.</p>
                  <p>Be sure to keep your accuracy above 80%</p>
                  <p>Press any key to continue the experiment. Thank you!</p>",32,,,,,,,,
html-keyboard-response,834,1468516,1533.2449999987148,"<div style=""font-size:48px;"">Press any key to begin list 9 of 24 </div>",32,,,,,,,,
html-keyboard-response,835,1471021,null,"<div style=""font-size:60px;"">+</div>",null,,,,,,,,
html-keyboard-response,836,1471524,null,"DESSERT<img id = ""stim"" ><div class = red_square id = ""topsquare"" ></div><img id = ""stim"" ><div class = red_square  id = ""bottomsquare"" ></div>",null,word_square,response,0,none,true,,,
html-keyboard-response,837,1473026,null,"DESSERT",null,word,,,,, 'DESSERT',,
html-keyboard-response,838,1473532,null,"CLOCK<img id = ""stim"" ><div class = red_square id = ""topsquare"" ></div><img id = ""stim"" ><div class = red_square  id = ""bottomsquare"" ></div>",null,word_square,response,0,none,true,,,
html-keyboard-response,839,1475035,null,"CLOCK",null,word,,,,, 'CLOCK',,
html-keyboard-response,840,1475476,439.63500001700595,"SHAMPOO<img id = ""stim"" ><div class = green_square id = ""topsquare"" ></div><img id = ""stim"" ><div class = green_square  id = ""bottomsquare"" ></div>",32,word_square,response,1,Space,true,,,
html-keyboard-response,841,1476982,null,"SHAMPOO",null,word,,,,, 'SHAMPOO',,
html-keyboard-response,842,1477485,null,"HOOK<img id = ""stim"" ><div class = red_square id = ""topsquare"" ></div><img id = ""stim"" ><div class = red_square  id = ""bottomsquare"" ></div>",null,word_square,response,0,none,true,,,
html-keyboard-response,843,1478989,null,"HOOK",null,word,,,,, 'HOOK',,
html-keyboard-response,844,1479491,null,"SALMON<img id = ""stim"" ><div class = red_square id = ""topsquare"" ></div><img id = ""stim"" ><div class = red_square  id = ""bottomsquare"" ></div>",null,word_square,response,0,none,true,,,
html-keyboard-response,845,1480994,null,"SALMON",null,word,,,,, 'SALMON',,
html-keyboard-response,846,1481496,null,"COCOON<img id = ""stim"" ><div class = green_square id = ""topsquare"" ></div><img id = ""stim"" ><div class = green_square  id = ""bottomsquare"" ></div>",null,word_square,response,1,Space,false,,,
html-keyboard-response,847,1483000,null,"COCOON",null,word,,,,, 'COCOON',,
html-keyboard-response,848,1483506,null,"CREVICE<img id = ""stim"" ><div class = red_square id = ""topsquare"" ></div><img id = ""stim"" ><div class = red_square  id = ""bottomsquare"" ></div>",null,word_square,response,0,none,true,,,
html-keyboard-response,849,1485010,null,"CREVICE",null,word,,,,, 'CREVICE',,
html-keyboard-response,850,1485404,392.0849999994971,"SUPPER<img id = ""stim"" ><div class = green_square id = ""topsquare"" ></div><img id = ""stim"" ><div class = green_square  id = ""bottomsquare"" ></div>",32,word_square,response,1,Space,true,,,
html-keyboard-response,851,1486909,null,"SUPPER",null,word,,,,, 'SUPPER',,
html-keyboard-response,852,1487415,null,"BUTLER<img id = ""stim"" ><div class = red_square id = ""topsquare"" ></div><img id = ""stim"" ><div class = red_square  id = ""bottomsquare"" ></div>",null,word_square,response,0,none,true,,,
html-keyboard-response,853,1488918,null,"BUTLER",null,word,,,,, 'BUTLER',,
html-keyboard-response,854,1489298,378.15999996382743,"BUSH<img id = ""stim"" ><div class = green_square id = ""topsquare"" ></div><img id = ""stim"" ><div class = green_square  id = ""bottomsquare"" ></div>",32,word_square,response,1,Space,true,,,
html-keyboard-response,855,1490803,null,"BUSH",null,word,,,,, 'BUSH',,
html-keyboard-response,856,1491310,null,"WIDOW<img id = ""stim"" ><div class = red_square id = ""topsquare"" ></div><img id = ""stim"" ><div class = red_square  id = ""bottomsquare"" ></div>",null,word_square,response,0,none,true,,,
html-keyboard-response,857,1492814,null,"WIDOW",null,word,,,,, 'WIDOW',,
html-keyboard-response,858,1493309,493.45499998889863,"POISON<img id = ""stim"" ><div class = green_square id = ""topsquare"" ></div><img id = ""stim"" ><div class = green_square  id = ""bottomsquare"" ></div>",32,word_square,response,1,Space,true,,,
html-keyboard-response,859,1494813,null,"POISON",null,word,,,,, 'POISON',,
html-keyboard-response,860,1495315,null,"COUGAR<img id = ""stim"" ><div class = green_square id = ""topsquare"" ></div><img id = ""stim"" ><div class = green_square  id = ""bottomsquare"" ></div>",null,word_square,response,1,Space,false,,,
html-keyboard-response,861,1496819,null,"COUGAR",null,word,,,,, 'COUGAR',,
html-keyboard-response,862,1497194,374.0949999773875,"YOLK<img id = ""stim"" ><div class = green_square id = ""topsquare"" ></div><img id = ""stim"" ><div class = green_square  id = ""bottomsquare"" ></div>",32,word_square,response,1,Space,true,,,
html-keyboard-response,863,1498696,null,"YOLK",null,word,,,,, 'YOLK',,
html-keyboard-response,864,1499202,null,"KLEENEX<img id = ""stim"" ><div class = red_square id = ""topsquare"" ></div><img id = ""stim"" ><div class = red_square  id = ""bottomsquare"" ></div>",null,word_square,response,0,none,true,,,
html-keyboard-response,865,1500707,null,"KLEENEX",null,word,,,,, 'KLEENEX',,
html-keyboard-response,866,1501214,null,"SLACKS<img id = ""stim"" ><div class = red_square id = ""topsquare"" ></div><img id = ""stim"" ><div class = red_square  id = ""bottomsquare"" ></div>",null,word_square,response,0,none,true,,,
html-keyboard-response,867,1502717,null,"SLACKS",null,word,,,,, 'SLACKS',,
html-keyboard-response,868,1503116,396.7749999719672,"SEAL<img id = ""stim"" ><div class = green_square id = ""topsquare"" ></div><img id = ""stim"" ><div class = green_square  id = ""bottomsquare"" ></div>",32,word_square,response,1,Space,true,,,
html-keyboard-response,869,1504621,null,"SEAL",null,word,,,,, 'SEAL',,
html-keyboard-response,870,1505125,null,"POSSUM<img id = ""stim"" ><div class = green_square id = ""topsquare"" ></div><img id = ""stim"" ><div class = green_square  id = ""bottomsquare"" ></div>",null,word_square,response,1,Space,false,,,
html-keyboard-response,871,1506630,null,"POSSUM",null,word,,,,, 'POSSUM',,
call-function,872,1506631,,"",,,,,,,,,
html-keyboard-response,873,1506736,null,"",null,,,,,,,,
math-period,874,1509436,5029.174999974202,"",,,,,,,,,5
html-keyboard-response,875,1509539,null,"",null,,,,,,,,
math-period,876,1510699,2263.695000030566,"",,,,,,,,,2
html-keyboard-response,877,1510803,null,"",null,,,,,,,,
math-period,878,1512003,2358.1750000594184,"",,,,,,,,,1
html-keyboard-response,879,1512106,null,"",null,,,,,,,,
math-period,880,1513283,2278.5900000599213,"",,,,,,,,,4
html-keyboard-response,881,1513389,null,"",null,,,,,,,,
math-period,882,1514100,1377.6999999536201,"",,,,,,,,,3
html-keyboard-response,883,1514206,null,"",null,,,,,,,,
math-period,884,1516077,3651.254999975208,"",,,,,,,,,4
html-keyboard-response,885,1516179,null,"",null,,,,,,,,
math-period,886,1517259,2092.8899999707937,"",,,,,,,,,2
html-keyboard-response,887,1517363,null,"",null,,,,,,,,
math-period,888,1518579,2397.705000010319,"",,,,,,,,,5
html-keyboard-response,889,1518682,null,"",null,,,,,,,,
math-period,890,1520101,2754.109999979846,"",,,,,,,,,4
html-keyboard-response,891,1520205,null,"",null,,,,,,,,
math-period,892,1520973,1450.364999996964,"",,,,,,,,,3
html-keyboard-response,893,1521079,null,"",null,,,,,,,,
math-period,894,1522602,2989.410000096541,"",,,,,,,,,5
html-keyboard-response,895,1522703,null,"",null,,,,,,,,
math-period,896,1523628,1773.3649999718182,"",,,,,,,,,4
html-keyboard-response,897,1523730,null,"",null,,,,,,,,
math-period,898,1524453,1400.6250000093132,"",,,,,,,,,3
html-keyboard-response,899,1524555,null,"",null,,,,,,,,
math-period,900,1525668,2158.344999945257,"",,,,,,,,,3
html-keyboard-response,901,1525773,null,"",null,,,,,,,,
math-period,902,1529020,6251.224999956321,"",,,,,,,,,5
html-keyboard-response,903,1529123,null,"",null,,,,,,,,
math-period,904,1530148,1983.2050000550225,"",,,,,,,,,2
html-keyboard-response,905,1530252,null,"",null,,,,,,,,
math-period,906,1530633,null,"",,,,,,,,,
html-keyboard-response,907,1531640,null,"Recall Period!",null,,,,,,,,
call-function,908,1531641,,"",,,,,,,,,
html-keyboard-response,909,1531747,null,"",null,,,,,,,,
recall-period,910,1536580,14731.685000297148,"",,,,,,,,,dessert 
html-keyboard-response,911,1536683,null,"",null,,,,,,,,
recall-period,912,1538555,6574.939999904018,"",,,,,,,,,kleenex
html-keyboard-response,913,1538658,null,"",null,,,,,,,,
recall-period,914,1545412,38299.22500043176,"",,,,,,,,,butler 
html-keyboard-response,915,1545518,null,"",null,,,,,,,,
recall-period,916,1548244,11834.18499986874,"",,,,,,,,,bush 
html-keyboard-response,917,1548347,null,"",null,,,,,,,,
recall-period,918,1554044,41946.17000001017,"",,,,,,,,,napkin 
html-keyboard-response,919,1554147,null,"",null,,,,,,,,
recall-period,920,1595844,683756.2349997461,"",,,,,,,,,time 
html-keyboard-response,921,1595948,null,"",null,,,,,,,,
recall-period,922,1606647,null,"",,,,,,,,,
html-keyboard-response,923,1607151,null,"Time's Up!",null,,,,,,,,
html-keyboard-response,924,1831248,224094.20500003034,"<p> Good job! You responded correctly to 89% of the GREEN squares.</p>
                  <p>Be sure to keep your accuracy above 80%</p>
                  <p>Press any key to continue the experiment. Thank you!</p>",32,,,,,,,,
html-keyboard-response,925,1831974,724.3799999705516,"<div style=""font-size:48px;"">Press any key to begin list 10 of 24 </div>",32,,,,,,,,
html-keyboard-response,926,1834480,null,"<div style=""font-size:60px;"">+</div>",null,,,,,,,,
html-keyboard-response,927,1834987,null,"PUPIL<img id = ""stim"" ><div class = red_square id = ""topsquare"" ></div><img id = ""stim"" ><div class = red_square  id = ""bottomsquare"" ></div>",null,word_square,response,0,none,true,,,
html-keyboard-response,928,1836489,null,"PUPIL",null,word,,,,, 'PUPIL',,
html-keyboard-response,929,1836992,null,"BODY<img id = ""stim"" ><div class = red_square id = ""topsquare"" ></div><img id = ""stim"" ><div class = red_square  id = ""bottomsquare"" ></div>",null,word_square,response,0,none,true,,,
html-keyboard-response,930,1838496,null,"BODY",null,word,,,,, 'BODY',,
html-keyboard-response,931,1838998,null,"SCRIBBLE<img id = ""stim"" ><div class = green_square id = ""topsquare"" ></div><img id = ""stim"" ><div class = green_square  id = ""bottomsquare"" ></div>",null,word_square,response,1,Space,false,,,
html-keyboard-response,932,1840501,null,"SCRIBBLE",null,word,,,,, 'SCRIBBLE',,
html-keyboard-response,933,1841002,null,"FAUCET<img id = ""stim"" ><div class = red_square id = ""topsquare"" ></div><img id = ""stim"" ><div class = red_square  id = ""bottomsquare"" ></div>",null,word_square,response,0,none,true,,,
html-keyboard-response,934,1842507,null,"FAUCET",null,word,,,,, 'FAUCET',,
html-keyboard-response,935,1843008,null,"JOINT<img id = ""stim"" ><div class = red_square id = ""topsquare"" ></div><img id = ""stim"" ><div class = red_square  id = ""bottomsquare"" ></div>",null,word_square,response,0,none,true,,,
html-keyboard-response,936,1844513,null,"JOINT",null,word,,,,, 'JOINT',,
html-keyboard-response,937,1844856,341.48000000277534,"SAUSAGE<img id = ""stim"" ><div class = green_square id = ""topsquare"" ></div><img id = ""stim"" ><div class = green_square  id = ""bottomsquare"" ></div>",32,word_square,response,1,Space,true,,,
html-keyboard-response,938,1846358,null,"SAUSAGE",null,word,,,,, 'SAUSAGE',,
html-keyboard-response,939,1846865,null,"PICNIC<img id = ""stim"" ><div class = red_square id = ""topsquare"" ></div><img id = ""stim"" ><div class = red_square  id = ""bottomsquare"" ></div>",null,word_square,response,0,none,true,,,
html-keyboard-response,940,1848368,null,"PICNIC",null,word,,,,, 'PICNIC',,
html-keyboard-response,941,1848815,445.6200000131503,"SUBURB<img id = ""stim"" ><div class = green_square id = ""topsquare"" ></div><img id = ""stim"" ><div class = green_square  id = ""bottomsquare"" ></div>",32,word_square,response,1,Space,true,,,
html-keyboard-response,942,1850321,null,"SUBURB",null,word,,,,, 'SUBURB',,
html-keyboard-response,943,1850827,null,"FOSSIL<img id = ""stim"" ><div class = red_square id = ""topsquare"" ></div><img id = ""stim"" ><div class = red_square  id = ""bottomsquare"" ></div>",null,word_square,response,0,none,true,,,
html-keyboard-response,944,1852331,null,"FOSSIL",null,word,,,,, 'FOSSIL',,
html-keyboard-response,945,1852838,null,"KITCHEN<img id = ""stim"" ><div class = green_square id = ""topsquare"" ></div><img id = ""stim"" ><div class = green_square  id = ""bottomsquare"" ></div>",null,word_square,response,1,Space,false,,,
