trial_type,trial_index,time_elapsed,rt,stimulus,key_press,test_part,task,targ_cond,correctKeyCode,correct,word,value,response
pavlovia,0,1090,,"",,,,,,,,,
external-html,1,10837,9540.235000000393,"",,,,,,,,,
html-keyboard-response,2,11975,1129.3449999993754,"Welcome to the experiment. Press any key to begin.",32,,,,,,,,
html-keyboard-response,3,17975,5997.600000000602,"<p>You will see a list of words and colored squares in the following task.<p><p>Press the spacebar whenever you see a red square.<p><p>Do not press a key if the square is green<p><p>Press the spacebar to continue.</p>",32,,,,,,,,
html-keyboard-response,4,33656,15179.354999999305,"<p>Please try to remember as many of the words as you can, and try to think about the meaning of each word as it appears.<p><p>After the detection and encoding task you will be asked to solve some math problems for 24 seconds.<p> Please solve as many problems as you can in the time given. <p>",32,,,,,,,,
html-keyboard-response,5,43431,9272.210000000086,"After solving the math problems, you will be asked to type in as many words <p>from the previous list as you can remember for 75 seconds.<p> If you finish recalling before the 75 seconds are up,<p> just sit tight and try to think of any more words you could have missed. <p><p>We will begin with a brief practice session<p>Press the spacebar to begin the practice.</p>",32,,,,,,,,
html-keyboard-response,6,45935,null,"<div style=""font-size:60px;"">+</div>",null,,,,,,,,
html-keyboard-response,7,46437,null,"HAPPY<img id = ""stim"" ><div class = green_square id = ""topsquare"" ></div><img id = ""stim"" ><div class = green_square  id = ""bottomsquare"" ></div>",null,word_square,prac_response,0,none,true,,,
html-keyboard-response,8,47940,null,"HAPPY",null,word,,,,,HAPPY,,
html-keyboard-response,9,48443,400.0850000002174,"COLD<img id = ""stim"" ><div class = red_square id = ""topsquare"" ></div><img id = ""stim"" ><div class = red_square  id = ""bottomsquare"" ></div>",32,word_square,prac_response,1,Space,true,,,
html-keyboard-response,10,49946,null,"COLD",null,word,,,,,COLD,,
html-keyboard-response,11,50448,340.68999999999505,"HEAVY<img id = ""stim"" ><div class = red_square id = ""topsquare"" ></div><img id = ""stim"" ><div class = red_square  id = ""bottomsquare"" ></div>",32,word_square,prac_response,1,Space,true,,,
html-keyboard-response,12,51951,null,"HEAVY",null,word,,,,,HEAVY,,
html-keyboard-response,13,52454,null,"FUNNY<img id = ""stim"" ><div class = green_square id = ""topsquare"" ></div><img id = ""stim"" ><div class = green_square  id = ""bottomsquare"" ></div>",null,word_square,prac_response,0,none,true,,,
html-keyboard-response,14,53955,null,"FUNNY",null,word,,,,,FUNNY,,
html-keyboard-response,15,54458,467.8750000002765,"SCARY<img id = ""stim"" ><div class = red_square id = ""topsquare"" ></div><img id = ""stim"" ><div class = red_square  id = ""bottomsquare"" ></div>",32,word_square,prac_response,1,Space,true,,,
html-keyboard-response,16,55961,null,"SCARY",null,word,,,,,SCARY,,
html-keyboard-response,17,56463,null,"PEACEFUL<img id = ""stim"" ><div class = red_square id = ""topsquare"" ></div><img id = ""stim"" ><div class = red_square  id = ""bottomsquare"" ></div>",null,word_square,prac_response,1,Space,false,,,
html-keyboard-response,18,57965,null,"PEACEFUL",null,word,,,,,PEACEFUL,,
html-keyboard-response,19,58467,null,"LITTLE<img id = ""stim"" ><div class = green_square id = ""topsquare"" ></div><img id = ""stim"" ><div class = green_square  id = ""bottomsquare"" ></div>",null,word_square,prac_response,0,none,true,,,
html-keyboard-response,20,59969,null,"LITTLE",null,word,,,,,LITTLE,,
html-keyboard-response,21,60472,null,"TIRED<img id = ""stim"" ><div class = green_square id = ""topsquare"" ></div><img id = ""stim"" ><div class = green_square  id = ""bottomsquare"" ></div>",null,word_square,prac_response,0,none,true,,,
html-keyboard-response,22,61973,null,"TIRED",null,word,,,,,TIRED,,
html-keyboard-response,23,62476,null,"ENTERTAINING<img id = ""stim"" ><div class = green_square id = ""topsquare"" ></div><img id = ""stim"" ><div class = green_square  id = ""bottomsquare"" ></div>",null,word_square,prac_response,0,none,true,,,
html-keyboard-response,24,63978,null,"ENTERTAINING",null,word,,,,,ENTERTAINING,,
html-keyboard-response,25,64480,null,"GRATEFUL<img id = ""stim"" ><div class = red_square id = ""topsquare"" ></div><img id = ""stim"" ><div class = red_square  id = ""bottomsquare"" ></div>",null,word_square,prac_response,1,Space,false,,,
html-keyboard-response,26,65983,null,"GRATEFUL",null,word,,,,,GRATEFUL,,
html-keyboard-response,27,66485,null,"LOUD<img id = ""stim"" ><div class = green_square id = ""topsquare"" ></div><img id = ""stim"" ><div class = green_square  id = ""bottomsquare"" ></div>",null,word_square,prac_response,0,none,true,,,
html-keyboard-response,28,67988,null,"LOUD",null,word,,,,,LOUD,,
html-keyboard-response,29,68490,null,"SMART<img id = ""stim"" ><div class = red_square id = ""topsquare"" ></div><img id = ""stim"" ><div class = red_square  id = ""bottomsquare"" ></div>",null,word_square,prac_response,1,Space,false,,,
html-keyboard-response,30,69992,null,"SMART",null,word,,,,,SMART,,
html-keyboard-response,31,70495,440.12000000019907,"SMOOTH<img id = ""stim"" ><div class = red_square id = ""topsquare"" ></div><img id = ""stim"" ><div class = red_square  id = ""bottomsquare"" ></div>",32,word_square,prac_response,1,Space,true,,,
html-keyboard-response,32,71997,null,"SMOOTH",null,word,,,,,SMOOTH,,
html-keyboard-response,33,72499,null,"DISHONEST<img id = ""stim"" ><div class = green_square id = ""topsquare"" ></div><img id = ""stim"" ><div class = green_square  id = ""bottomsquare"" ></div>",null,word_square,prac_response,0,none,true,,,
html-keyboard-response,34,74001,null,"DISHONEST",null,word,,,,,DISHONEST,,
html-keyboard-response,35,74504,null,"WEALTHY<img id = ""stim"" ><div class = red_square id = ""topsquare"" ></div><img id = ""stim"" ><div class = red_square  id = ""bottomsquare"" ></div>",null,word_square,prac_response,1,Space,false,,,
html-keyboard-response,36,76006,null,"WEALTHY",null,word,,,,,WEALTHY,,
html-keyboard-response,37,76508,null,"BEAUTIFUL<img id = ""stim"" ><div class = green_square id = ""topsquare"" ></div><img id = ""stim"" ><div class = green_square  id = ""bottomsquare"" ></div>",null,word_square,prac_response,0,none,true,,,
html-keyboard-response,38,78010,null,"BEAUTIFUL",null,word,,,,,BEAUTIFUL,,
html-keyboard-response,39,78512,null,"DREARY<img id = ""stim"" ><div class = green_square id = ""topsquare"" ></div><img id = ""stim"" ><div class = green_square  id = ""bottomsquare"" ></div>",null,word_square,prac_response,0,none,true,,,
html-keyboard-response,40,80015,null,"DREARY",null,word,,,,,DREARY,,
html-keyboard-response,41,80517,497.2050000005838,"PLAYFUL<img id = ""stim"" ><div class = red_square id = ""topsquare"" ></div><img id = ""stim"" ><div class = red_square  id = ""bottomsquare"" ></div>",32,word_square,prac_response,1,Space,true,,,
html-keyboard-response,42,82019,null,"PLAYFUL",null,word,,,,,PLAYFUL,,
html-keyboard-response,43,87596,5573.534999999538,"<p> Uh oh. You responded correctly on 78% of the red squares.</p>
                  <p>We need you keep your accuracy above 80%</p>
                  <p>We're going to try once more to make sure you understand the task. press any key to continue.</p>",32,,,,,,,,
html-keyboard-response,44,88453,855.8149999999005,"<p>You will see a list of words and colored squares in the following task.<p><p>Press the spacebar whenever you see a red square.<p><p>Do not press a key if the square is green<p><p>Press the spacebar to continue.</p>",32,,,,,,,,
html-keyboard-response,45,90956,null,"<div style=""font-size:60px;"">+</div>",null,,,,,,,,
html-keyboard-response,46,91458,null,"HAPPY<img id = ""stim"" ><div class = green_square id = ""topsquare"" ></div><img id = ""stim"" ><div class = green_square  id = ""bottomsquare"" ></div>",null,word_square,response,0,none,true,,,
html-keyboard-response,47,92960,null,"HAPPY",null,word,,,,,HAPPY,,
html-keyboard-response,48,93345,383.02500000009604,"COLD<img id = ""stim"" ><div class = red_square id = ""topsquare"" ></div><img id = ""stim"" ><div class = red_square  id = ""bottomsquare"" ></div>",32,word_square,response,1,Space,true,,,
html-keyboard-response,49,94848,null,"COLD",null,word,,,,,COLD,,
html-keyboard-response,50,95171,321.0600000002014,"HEAVY<img id = ""stim"" ><div class = red_square id = ""topsquare"" ></div><img id = ""stim"" ><div class = red_square  id = ""bottomsquare"" ></div>",32,word_square,response,1,Space,true,,,
html-keyboard-response,51,96673,null,"HEAVY",null,word,,,,,HEAVY,,
html-keyboard-response,52,97175,null,"FUNNY<img id = ""stim"" ><div class = green_square id = ""topsquare"" ></div><img id = ""stim"" ><div class = green_square  id = ""bottomsquare"" ></div>",null,word_square,response,0,none,true,,,
html-keyboard-response,53,98677,null,"FUNNY",null,word,,,,,FUNNY,,
html-keyboard-response,54,99015,335.5550000005751,"SCARY<img id = ""stim"" ><div class = red_square id = ""topsquare"" ></div><img id = ""stim"" ><div class = red_square  id = ""bottomsquare"" ></div>",32,word_square,response,1,Space,true,,,
html-keyboard-response,55,100517,null,"SCARY",null,word,,,,,SCARY,,
html-keyboard-response,56,100944,424.7199999999866,"PEACEFUL<img id = ""stim"" ><div class = red_square id = ""topsquare"" ></div><img id = ""stim"" ><div class = red_square  id = ""bottomsquare"" ></div>",32,word_square,response,1,Space,true,,,
html-keyboard-response,57,102446,null,"PEACEFUL",null,word,,,,,PEACEFUL,,
html-keyboard-response,58,102948,null,"LITTLE<img id = ""stim"" ><div class = green_square id = ""topsquare"" ></div><img id = ""stim"" ><div class = green_square  id = ""bottomsquare"" ></div>",null,word_square,response,0,none,true,,,
html-keyboard-response,59,104450,null,"LITTLE",null,word,,,,,LITTLE,,
html-keyboard-response,60,104953,null,"TIRED<img id = ""stim"" ><div class = green_square id = ""topsquare"" ></div><img id = ""stim"" ><div class = green_square  id = ""bottomsquare"" ></div>",null,word_square,response,0,none,true,,,
html-keyboard-response,61,106456,null,"TIRED",null,word,,,,,TIRED,,
html-keyboard-response,62,106958,null,"ENTERTAINING<img id = ""stim"" ><div class = green_square id = ""topsquare"" ></div><img id = ""stim"" ><div class = green_square  id = ""bottomsquare"" ></div>",null,word_square,response,0,none,true,,,
html-keyboard-response,63,108461,null,"ENTERTAINING",null,word,,,,,ENTERTAINING,,
html-keyboard-response,64,108822,359.8050000000512,"GRATEFUL<img id = ""stim"" ><div class = red_square id = ""topsquare"" ></div><img id = ""stim"" ><div class = red_square  id = ""bottomsquare"" ></div>",32,word_square,response,1,Space,true,,,
html-keyboard-response,65,110325,null,"GRATEFUL",null,word,,,,,GRATEFUL,,
html-keyboard-response,66,110827,null,"LOUD<img id = ""stim"" ><div class = green_square id = ""topsquare"" ></div><img id = ""stim"" ><div class = green_square  id = ""bottomsquare"" ></div>",null,word_square,response,0,none,true,,,
html-keyboard-response,67,112330,null,"LOUD",null,word,,,,,LOUD,,
html-keyboard-response,68,112680,348.7100000002247,"SMART<img id = ""stim"" ><div class = red_square id = ""topsquare"" ></div><img id = ""stim"" ><div class = red_square  id = ""bottomsquare"" ></div>",32,word_square,response,1,Space,true,,,
html-keyboard-response,69,114183,null,"SMART",null,word,,,,,SMART,,
html-keyboard-response,70,114530,345.6749999995809,"SMOOTH<img id = ""stim"" ><div class = red_square id = ""topsquare"" ></div><img id = ""stim"" ><div class = red_square  id = ""bottomsquare"" ></div>",32,word_square,response,1,Space,true,,,
html-keyboard-response,71,116033,null,"SMOOTH",null,word,,,,,SMOOTH,,
html-keyboard-response,72,116535,null,"DISHONEST<img id = ""stim"" ><div class = green_square id = ""topsquare"" ></div><img id = ""stim"" ><div class = green_square  id = ""bottomsquare"" ></div>",null,word_square,response,0,none,true,,,
html-keyboard-response,73,118037,null,"DISHONEST",null,word,,,,,DISHONEST,,
html-keyboard-response,74,118357,318.54499999918335,"WEALTHY<img id = ""stim"" ><div class = red_square id = ""topsquare"" ></div><img id = ""stim"" ><div class = red_square  id = ""bottomsquare"" ></div>",32,word_square,response,1,Space,true,,,
html-keyboard-response,75,119860,null,"WEALTHY",null,word,,,,,WEALTHY,,
html-keyboard-response,76,120362,null,"BEAUTIFUL<img id = ""stim"" ><div class = green_square id = ""topsquare"" ></div><img id = ""stim"" ><div class = green_square  id = ""bottomsquare"" ></div>",null,word_square,response,0,none,true,,,
html-keyboard-response,77,121865,null,"BEAUTIFUL",null,word,,,,,BEAUTIFUL,,
html-keyboard-response,78,122367,null,"DREARY<img id = ""stim"" ><div class = green_square id = ""topsquare"" ></div><img id = ""stim"" ><div class = green_square  id = ""bottomsquare"" ></div>",null,word_square,response,0,none,true,,,
html-keyboard-response,79,123870,null,"DREARY",null,word,,,,,DREARY,,
html-keyboard-response,80,124189,315.1849999994738,"PLAYFUL<img id = ""stim"" ><div class = red_square id = ""topsquare"" ></div><img id = ""stim"" ><div class = red_square  id = ""bottomsquare"" ></div>",32,word_square,response,1,Space,true,,,
html-keyboard-response,81,125691,null,"PLAYFUL",null,word,,,,,PLAYFUL,,
html-keyboard-response,82,127561,1868.0899999999383,"<p> Good job! You responded correctly to 100% of the red squares.</p>
                  <p>Be sure to keep your accuracy above 80%</p>
                  <p>Press any key to begin the math and recall sections. Thank you!</p>",32,,,,,,,,
call-function,83,127562,,"",,,,,,,,,
html-keyboard-response,84,127665,null,"",null,,,,,,,,
math-period,85,135911,56592.06999999704,"",,,,,,,,,2
html-keyboard-response,86,136014,null,"",null,,,,,,,,
math-period,87,142603,12575.629999998491,"",,,,,,,,,2
html-keyboard-response,88,142706,null,"",null,,,,,,,,
math-period,89,145215,4274.6349999997765,"",,,,,,,,,4
html-keyboard-response,90,145318,null,"",null,,,,,,,,
math-period,91,147727,4372.935000000318,"",,,,,,,,,3
html-keyboard-response,92,147829,null,"",null,,,,,,,,
math-period,93,150046,3890.7900000003574,"",,,,,,,,,5
html-keyboard-response,94,150149,null,"",null,,,,,,,,
math-period,95,151564,null,"",,,,,,,,,
html-keyboard-response,96,152567,null,"Recall Period!",null,,,,,,,,
call-function,97,152567,,"",,,,,,,,,
html-keyboard-response,98,152669,null,"",null,,,,,,,,
recall-period,99,156718,16497.78499999782,"",,,,,,,,,happy
html-keyboard-response,100,156820,null,"",null,,,,,,,,
recall-period,101,157864,4611.289999999892,"",,,,,,,,,healthy
html-keyboard-response,102,157966,null,"",null,,,,,,,,
recall-period,103,158718,2447.1499999981897,"",,,,,,,,,smart
html-keyboard-response,104,158820,null,"",null,,,,,,,,
recall-period,105,159754,3073.234999999724,"",,,,,,,,,smooth
html-keyboard-response,106,159857,null,"",null,,,,,,,,
recall-period,107,160981,5424.919999995764,"",,,,,,,,,little
html-keyboard-response,108,161083,null,"",null,,,,,,,,
recall-period,109,162357,3637.5899999974354,"",,,,,,,,,heavy
html-keyboard-response,110,162460,null,"",null,,,,,,,,
recall-period,111,164904,10088.364999996847,"",,,,,,,,,grateful
html-keyboard-response,112,165007,null,"",null,,,,,,,,
recall-period,113,166811,12174.220000000729,"",,,,,,,,,entertaining
html-keyboard-response,114,166913,null,"",null,,,,,,,,
recall-period,115,168569,4773.84499999971,"",,,,,,,,,funny
html-keyboard-response,116,168672,null,"",null,,,,,,,,
recall-period,117,227569,null,"",,,,,,,,,
html-keyboard-response,118,228072,null,"Time's Up!",null,,,,,,,,
html-keyboard-response,119,243323,15249.504999999772,"<p>We will now begin the experiment!<p><p>Please try to remember all words from each list.<p><p>Press the spacebar whenever you see a red square.<p><p><p><p>Press the spacebar to begin.</p>",32,,,,,,,,
html-keyboard-response,120,246863,3038.0400000003574,"<div style=""font-size:48px;"">Press any key to begin list 1 of 24 </div>",32,,,,,,,,
html-keyboard-response,121,249365,null,"<div style=""font-size:60px;"">+</div>",null,,,,,,,,
html-keyboard-response,122,249868,null,"GHETTO<img id = ""stim"" ><div class = green_square id = ""topsquare"" ></div><img id = ""stim"" ><div class = green_square  id = ""bottomsquare"" ></div>",null,word_square,response,0,none,true,,,
html-keyboard-response,123,251370,null,"GHETTO",null,word,,,,, 'GHETTO',,
html-keyboard-response,124,251827,455.225000000617,"TEAPOT<img id = ""stim"" ><div class = red_square id = ""topsquare"" ></div><img id = ""stim"" ><div class = red_square  id = ""bottomsquare"" ></div>",32,word_square,response,1,Space,true,,,
html-keyboard-response,125,253330,null,"TEAPOT",null,word,,,,, 'TEAPOT',,
html-keyboard-response,126,253832,null,"STOCKING<img id = ""stim"" ><div class = green_square id = ""topsquare"" ></div><img id = ""stim"" ><div class = green_square  id = ""bottomsquare"" ></div>",null,word_square,response,0,none,true,,,
html-keyboard-response,127,255334,null,"STOCKING",null,word,,,,, 'STOCKING',,
html-keyboard-response,128,255617,281.0699999999779,"BROTHER<img id = ""stim"" ><div class = red_square id = ""topsquare"" ></div><img id = ""stim"" ><div class = red_square  id = ""bottomsquare"" ></div>",32,word_square,response,1,Space,true,,,
html-keyboard-response,129,257119,null,"BROTHER",null,word,,,,, 'BROTHER',,
html-keyboard-response,130,257622,null,"CONVICT<img id = ""stim"" ><div class = green_square id = ""topsquare"" ></div><img id = ""stim"" ><div class = green_square  id = ""bottomsquare"" ></div>",null,word_square,response,0,none,true,,,
html-keyboard-response,131,259123,null,"CONVICT",null,word,,,,, 'CONVICT',,
html-keyboard-response,132,259506,380.9450000008219,"CAPTIVE<img id = ""stim"" ><div class = green_square id = ""topsquare"" ></div><img id = ""stim"" ><div class = green_square  id = ""bottomsquare"" ></div>",32,word_square,response,0,none,false,,,
html-keyboard-response,133,261008,null,"CAPTIVE",null,word,,,,, 'CAPTIVE',,
html-keyboard-response,134,261316,305.98499999998603,"LAPEL<img id = ""stim"" ><div class = red_square id = ""topsquare"" ></div><img id = ""stim"" ><div class = red_square  id = ""bottomsquare"" ></div>",32,word_square,response,1,Space,true,,,
html-keyboard-response,135,262818,null,"LAPEL",null,word,,,,, 'LAPEL',,
html-keyboard-response,136,263170,349.61999999993714,"CURTAIN<img id = ""stim"" ><div class = red_square id = ""topsquare"" ></div><img id = ""stim"" ><div class = red_square  id = ""bottomsquare"" ></div>",32,word_square,response,1,Space,true,,,
html-keyboard-response,137,264672,null,"CURTAIN",null,word,,,,, 'CURTAIN',,
html-keyboard-response,138,265088,413.97000000049593,"ROD<img id = ""stim"" ><div class = red_square id = ""topsquare"" ></div><img id = ""stim"" ><div class = red_square  id = ""bottomsquare"" ></div>",32,word_square,response,1,Space,true,,,
html-keyboard-response,139,266591,null,"ROD",null,word,,,,, 'ROD',,
html-keyboard-response,140,267093,null,"JACKET<img id = ""stim"" ><div class = green_square id = ""topsquare"" ></div><img id = ""stim"" ><div class = green_square  id = ""bottomsquare"" ></div>",null,word_square,response,0,none,true,,,
html-keyboard-response,141,268595,null,"JACKET",null,word,,,,, 'JACKET',,
html-keyboard-response,142,269081,483.925000000454,"SWIMMER<img id = ""stim"" ><div class = red_square id = ""topsquare"" ></div><img id = ""stim"" ><div class = red_square  id = ""bottomsquare"" ></div>",32,word_square,response,1,Space,true,,,
html-keyboard-response,143,270584,null,"SWIMMER",null,word,,,,, 'SWIMMER',,
html-keyboard-response,144,270993,407.2700000006007,"SLIDE<img id = ""stim"" ><div class = red_square id = ""topsquare"" ></div><img id = ""stim"" ><div class = red_square  id = ""bottomsquare"" ></div>",32,word_square,response,1,Space,true,,,
html-keyboard-response,145,272496,null,"SLIDE",null,word,,,,, 'SLIDE',,
html-keyboard-response,146,272998,null,"FRANCE<img id = ""stim"" ><div class = green_square id = ""topsquare"" ></div><img id = ""stim"" ><div class = green_square  id = ""bottomsquare"" ></div>",null,word_square,response,0,none,true,,,
html-keyboard-response,147,274500,null,"FRANCE",null,word,,,,, 'FRANCE',,
html-keyboard-response,148,275003,null,"PLAID<img id = ""stim"" ><div class = green_square id = ""topsquare"" ></div><img id = ""stim"" ><div class = green_square  id = ""bottomsquare"" ></div>",null,word_square,response,0,none,true,,,
html-keyboard-response,149,276505,null,"PLAID",null,word,,,,, 'PLAID',,
html-keyboard-response,150,276897,390.1749999995227,"ATHLETE<img id = ""stim"" ><div class = red_square id = ""topsquare"" ></div><img id = ""stim"" ><div class = red_square  id = ""bottomsquare"" ></div>",32,word_square,response,1,Space,true,,,
html-keyboard-response,151,278400,null,"ATHLETE",null,word,,,,, 'ATHLETE',,
html-keyboard-response,152,278902,null,"SIBLING<img id = ""stim"" ><div class = green_square id = ""topsquare"" ></div><img id = ""stim"" ><div class = green_square  id = ""bottomsquare"" ></div>",null,word_square,response,0,none,true,,,
html-keyboard-response,153,280404,null,"SIBLING",null,word,,,,, 'SIBLING',,
html-keyboard-response,154,280906,null,"COUNTRY<img id = ""stim"" ><div class = green_square id = ""topsquare"" ></div><img id = ""stim"" ><div class = green_square  id = ""bottomsquare"" ></div>",null,word_square,response,0,none,true,,,
html-keyboard-response,155,282408,null,"COUNTRY",null,word,,,,, 'COUNTRY',,
html-keyboard-response,156,282793,382.89999999961583,"CASHIER<img id = ""stim"" ><div class = red_square id = ""topsquare"" ></div><img id = ""stim"" ><div class = red_square  id = ""bottomsquare"" ></div>",32,word_square,response,1,Space,true,,,
html-keyboard-response,157,284296,null,"CASHIER",null,word,,,,, 'CASHIER',,
call-function,158,284297,,"",,,,,,,,,
html-keyboard-response,159,284398,null,"",null,,,,,,,,
math-period,160,293087,61253.33000000205,"",,,,,,,,,5
html-keyboard-response,161,293190,null,"",null,,,,,,,,
math-period,162,298892,10847.75999999867,"",,,,,,,,,3
html-keyboard-response,163,298995,null,"",null,,,,,,,,
math-period,164,301120,3821.4299999990617,"",,,,,,,,,3
html-keyboard-response,165,301223,null,"",null,,,,,,,,
math-period,166,303233,3669.374999999476,"",,,,,,,,,4
html-keyboard-response,167,303335,null,"",null,,,,,,,,
math-period,168,305768,4291.175000000221,"",,,,,,,,,4
html-keyboard-response,169,305870,null,"",null,,,,,,,,
math-period,170,308298,2269.4550000005984,"",,,,,,,,,1
html-keyboard-response,171,309300,null,"Recall Period!",null,,,,,,,,
call-function,172,309301,,"",,,,,,,,,
html-keyboard-response,173,309403,null,"",null,,,,,,,,
recall-period,174,313565,22143.835000000836,"",,,,,,,,,country
html-keyboard-response,175,313668,null,"",null,,,,,,,,
recall-period,176,314762,4020.6500000011874,"",,,,,,,,,cashier
html-keyboard-response,177,314865,null,"",null,,,,,,,,
recall-period,178,316473,8039.2349999992875,"",,,,,,,,,ghetto
html-keyboard-response,179,316576,null,"",null,,,,,,,,
recall-period,180,317871,3418.610000000801,"",,,,,,,,,lapel
html-keyboard-response,181,317973,null,"",null,,,,,,,,
recall-period,182,321109,17464.735000001267,"",,,,,,,,,teapot
html-keyboard-response,183,321211,null,"",null,,,,,,,,
recall-period,184,324080,19150.07999999926,"",,,,,,,,,curtain
html-keyboard-response,185,324183,null,"",null,,,,,,,,
recall-period,186,324952,1464.810000000347,"",,,,,,,,,rod
html-keyboard-response,187,325054,null,"",null,,,,,,,,
recall-period,188,327392,13879.95000000333,"",,,,,,,,,brother
html-keyboard-response,189,327496,null,"",null,,,,,,,,
recall-period,190,328973,5563.445000001462,"",,,,,,,,,convict
html-keyboard-response,191,329075,null,"",null,,,,,,,,
recall-period,192,331174,10926.57500000333,"",,,,,,,,,athlete
html-keyboard-response,193,331276,null,"",null,,,,,,,,
recall-period,194,333569,12740.815000000992,"",,,,,,,,,stocking
html-keyboard-response,195,333671,null,"",null,,,,,,,,
recall-period,196,341750,60270.42500000156,"",,,,,,,,,swimmer
html-keyboard-response,197,341852,null,"",null,,,,,,,,
recall-period,198,384304,null,"",,,,,,,,,
html-keyboard-response,199,384807,null,"Time's Up!",null,,,,,,,,
html-keyboard-response,200,417901,33091.68500000035,"<p> Good job! You responded correctly to 97% of the red squares.</p>
                  <p>Be sure to keep your accuracy above 80%</p>
                  <p>Press any key to continue the experiment. Thank you!</p>",32,,,,,,,,
html-keyboard-response,201,419133,1230.439999999362,"<div style=""font-size:48px;"">Press any key to begin list 2 of 24 </div>",32,,,,,,,,
html-keyboard-response,202,421636,null,"<div style=""font-size:60px;"">+</div>",null,,,,,,,,
html-keyboard-response,203,422138,null,"CRIB<img id = ""stim"" ><div class = green_square id = ""topsquare"" ></div><img id = ""stim"" ><div class = green_square  id = ""bottomsquare"" ></div>",null,word_square,response,0,none,true,,,
html-keyboard-response,204,423640,null,"CRIB",null,word,,,,, 'CRIB',,
html-keyboard-response,205,424049,406.1349999992526,"ROCKET<img id = ""stim"" ><div class = red_square id = ""topsquare"" ></div><img id = ""stim"" ><div class = red_square  id = ""bottomsquare"" ></div>",32,word_square,response,1,Space,true,,,
html-keyboard-response,206,425551,null,"ROCKET",null,word,,,,, 'ROCKET',,
html-keyboard-response,207,426053,null,"HIKER<img id = ""stim"" ><div class = green_square id = ""topsquare"" ></div><img id = ""stim"" ><div class = green_square  id = ""bottomsquare"" ></div>",null,word_square,response,0,none,true,,,
html-keyboard-response,208,427555,null,"HIKER",null,word,,,,, 'HIKER',,
html-keyboard-response,209,427921,364.1850000003469,"SUMMIT<img id = ""stim"" ><div class = red_square id = ""topsquare"" ></div><img id = ""stim"" ><div class = red_square  id = ""bottomsquare"" ></div>",32,word_square,response,1,Space,true,,,
html-keyboard-response,210,429424,null,"SUMMIT",null,word,,,,, 'SUMMIT',,
html-keyboard-response,211,429926,null,"ATTIRE<img id = ""stim"" ><div class = green_square id = ""topsquare"" ></div><img id = ""stim"" ><div class = green_square  id = ""bottomsquare"" ></div>",null,word_square,response,0,none,true,,,
html-keyboard-response,212,431429,null,"ATTIRE",null,word,,,,, 'ATTIRE',,
html-keyboard-response,213,431931,null,"JOURNAL<img id = ""stim"" ><div class = green_square id = ""topsquare"" ></div><img id = ""stim"" ><div class = green_square  id = ""bottomsquare"" ></div>",null,word_square,response,0,none,true,,,
html-keyboard-response,214,433433,null,"JOURNAL",null,word,,,,, 'JOURNAL',,
html-keyboard-response,215,433742,306.6449999996694,"BENCH<img id = ""stim"" ><div class = red_square id = ""topsquare"" ></div><img id = ""stim"" ><div class = red_square  id = ""bottomsquare"" ></div>",32,word_square,response,1,Space,true,,,
html-keyboard-response,216,435244,null,"BENCH",null,word,,,,, 'BENCH',,
html-keyboard-response,217,435566,320.4050000003772,"LEMON<img id = ""stim"" ><div class = red_square id = ""topsquare"" ></div><img id = ""stim"" ><div class = red_square  id = ""bottomsquare"" ></div>",32,word_square,response,1,Space,true,,,
html-keyboard-response,218,437069,null,"LEMON",null,word,,,,, 'LEMON',,
html-keyboard-response,219,437399,328.65000000037253,"ISLAND<img id = ""stim"" ><div class = red_square id = ""topsquare"" ></div><img id = ""stim"" ><div class = red_square  id = ""bottomsquare"" ></div>",32,word_square,response,1,Space,true,,,
html-keyboard-response,220,438901,null,"ISLAND",null,word,,,,, 'ISLAND',,
html-keyboard-response,221,439404,null,"CAMEL<img id = ""stim"" ><div class = green_square id = ""topsquare"" ></div><img id = ""stim"" ><div class = green_square  id = ""bottomsquare"" ></div>",null,word_square,response,0,none,true,,,
html-keyboard-response,222,440906,null,"CAMEL",null,word,,,,, 'CAMEL',,
html-keyboard-response,223,441261,352.88500000024214,"STAIRS<img id = ""stim"" ><div class = red_square id = ""topsquare"" ></div><img id = ""stim"" ><div class = red_square  id = ""bottomsquare"" ></div>",32,word_square,response,1,Space,true,,,
html-keyboard-response,224,442763,null,"STAIRS",null,word,,,,, 'STAIRS',,
html-keyboard-response,225,443186,420.63500000041677,"COD<img id = ""stim"" ><div class = red_square id = ""topsquare"" ></div><img id = ""stim"" ><div class = red_square  id = ""bottomsquare"" ></div>",32,word_square,response,1,Space,true,,,
html-keyboard-response,226,444688,null,"COD",null,word,,,,, 'COD',,
html-keyboard-response,227,445190,null,"DAISY<img id = ""stim"" ><div class = green_square id = ""topsquare"" ></div><img id = ""stim"" ><div class = green_square  id = ""bottomsquare"" ></div>",null,word_square,response,0,none,true,,,
html-keyboard-response,228,446693,null,"DAISY",null,word,,,,, 'DAISY',,
html-keyboard-response,229,447195,null,"OZONE<img id = ""stim"" ><div class = green_square id = ""topsquare"" ></div><img id = ""stim"" ><div class = green_square  id = ""bottomsquare"" ></div>",null,word_square,response,0,none,true,,,
html-keyboard-response,230,448697,null,"OZONE",null,word,,,,, 'OZONE',,
html-keyboard-response,231,449037,337.2800000006682,"HAMMER<img id = ""stim"" ><div class = red_square id = ""topsquare"" ></div><img id = ""stim"" ><div class = red_square  id = ""bottomsquare"" ></div>",32,word_square,response,1,Space,true,,,
html-keyboard-response,232,450539,null,"HAMMER",null,word,,,,, 'HAMMER',,
html-keyboard-response,233,451042,null,"BLUEJAY<img id = ""stim"" ><div class = green_square id = ""topsquare"" ></div><img id = ""stim"" ><div class = green_square  id = ""bottomsquare"" ></div>",null,word_square,response,0,none,true,,,
html-keyboard-response,234,452544,null,"BLUEJAY",null,word,,,,, 'BLUEJAY',,
html-keyboard-response,235,452993,446.675000000163,"COUSIN<img id = ""stim"" ><div class = green_square id = ""topsquare"" ></div><img id = ""stim"" ><div class = green_square  id = ""bottomsquare"" ></div>",32,word_square,response,0,none,false,,,
html-keyboard-response,236,454495,null,"COUSIN",null,word,,,,, 'COUSIN',,
html-keyboard-response,237,454837,339.8649999999325,"SUSPECT<img id = ""stim"" ><div class = red_square id = ""topsquare"" ></div><img id = ""stim"" ><div class = red_square  id = ""bottomsquare"" ></div>",32,word_square,response,1,Space,true,,,
html-keyboard-response,238,456339,null,"SUSPECT",null,word,,,,, 'SUSPECT',,
call-function,239,456340,,"",,,,,,,,,
html-keyboard-response,240,456442,null,"",null,,,,,,,,
math-period,241,460358,7185.979999999283,"",,,,,,,,,1
html-keyboard-response,242,460461,null,"",null,,,,,,,,
math-period,243,462652,3470.6649999989895,"",,,,,,,,,5
html-keyboard-response,244,462754,null,"",null,,,,,,,,
math-period,245,464834,3381.7049999997835,"",,,,,,,,,6
html-keyboard-response,246,464936,null,"",null,,,,,,,,
math-period,247,467414,4603.540000000037,"",,,,,,,,,0
html-keyboard-response,248,467516,null,"",null,,,,,,,,
math-period,249,469426,3456.9299999993527,"",,,,,,,,,5
html-keyboard-response,250,469528,null,"",null,,,,,,,,
math-period,251,471060,2733.704999999609,"",,,,,,,,,5
html-keyboard-response,252,471163,null,"",null,,,,,,,,
math-period,253,473160,3556.390000000596,"",,,,,,,,,2
html-keyboard-response,254,473262,null,"",null,,,,,,,,
math-period,255,476132,5289.705000001064,"",,,,,,,,,3
html-keyboard-response,256,476234,null,"",null,,,,,,,,
math-period,257,479999,6410.689999999653,"",,,,,,,,,2
html-keyboard-response,258,480101,null,"",null,,,,,,,,
math-period,259,480345,null,"",,,,,,,,,
html-keyboard-response,260,481347,null,"Recall Period!",null,,,,,,,,
call-function,261,481348,,"",,,,,,,,,
html-keyboard-response,262,481450,null,"",null,,,,,,,,
recall-period,263,484871,13978.249999999302,"",,,,,,,,,crib
html-keyboard-response,264,484973,null,"",null,,,,,,,,
recall-period,265,487454,6510.005000000994,"",,,,,,,,,rocket
html-keyboard-response,266,487556,null,"",null,,,,,,,,
recall-period,267,493447,56685.57499999757,"",,,,,,,,,summit
html-keyboard-response,268,493549,null,"",null,,,,,,,,
recall-period,269,495049,6824.2549999985495,"",,,,,,,,,lemon
html-keyboard-response,270,495151,null,"",null,,,,,,,,
recall-period,271,496385,5078.155000000959,"",,,,,,,,,island
html-keyboard-response,272,496487,null,"",null,,,,,,,,
recall-period,273,500009,25334.165000003995,"",,,,,,,,,blue jay
html-keyboard-response,274,500111,null,"",null,,,,,,,,
recall-period,275,500932,2359.274999998801,"",,,,,,,,,camel
html-keyboard-response,276,501034,null,"",null,,,,,,,,
recall-period,277,504961,24637.99000000098,"",,,,,,,,,hammer
html-keyboard-response,278,505063,null,"",null,,,,,,,,
recall-period,279,506161,3685.7100000023493,"",,,,,,,,,cousin
html-keyboard-response,280,506263,null,"",null,,,,,,,,
recall-period,281,508527,10041.40499999997,"",,,,,,,,,attire
html-keyboard-response,282,508629,null,"",null,,,,,,,,
recall-period,283,556351,null,"",,,,,,,,,
html-keyboard-response,284,556854,null,"Time's Up!",null,,,,,,,,
html-keyboard-response,285,559456,2599.629999999772,"<p> Good job! You responded correctly to 96% of the red squares.</p>
                  <p>Be sure to keep your accuracy above 80%</p>
                  <p>Press any key to continue the experiment. Thank you!</p>",32,,,,,,,,
html-keyboard-response,286,560110,652.3099999994738,"<div style=""font-size:48px;"">Press any key to begin list 3 of 24 </div>",32,,,,,,,,
html-keyboard-response,287,562613,null,"<div style=""font-size:60px;"">+</div>",null,,,,,,,,
html-keyboard-response,288,563115,null,"COSTUME<img id = ""stim"" ><div class = red_square id = ""topsquare"" ></div><img id = ""stim"" ><div class = red_square  id = ""bottomsquare"" ></div>",null,word_square,response,1,Space,false,,,
html-keyboard-response,289,564617,null,"COSTUME",null,word,,,,, 'COSTUME',,
html-keyboard-response,290,565119,null,"DECK<img id = ""stim"" ><div class = green_square id = ""topsquare"" ></div><img id = ""stim"" ><div class = green_square  id = ""bottomsquare"" ></div>",null,word_square,response,0,none,true,,,
html-keyboard-response,291,566621,null,"DECK",null,word,,,,, 'DECK',,
html-keyboard-response,292,567124,null,"TRUCK<img id = ""stim"" ><div class = red_square id = ""topsquare"" ></div><img id = ""stim"" ><div class = red_square  id = ""bottomsquare"" ></div>",null,word_square,response,1,Space,false,,,
html-keyboard-response,293,568626,null,"TRUCK",null,word,,,,, 'TRUCK',,
html-keyboard-response,294,569128,null,"MUSTARD<img id = ""stim"" ><div class = green_square id = ""topsquare"" ></div><img id = ""stim"" ><div class = green_square  id = ""bottomsquare"" ></div>",null,word_square,response,0,none,true,,,
html-keyboard-response,295,570630,null,"MUSTARD",null,word,,,,, 'MUSTARD',,
html-keyboard-response,296,570904,272.074999999837,"BLANKET<img id = ""stim"" ><div class = red_square id = ""topsquare"" ></div><img id = ""stim"" ><div class = red_square  id = ""bottomsquare"" ></div>",32,word_square,response,1,Space,true,,,
html-keyboard-response,297,572406,null,"BLANKET",null,word,,,,, 'BLANKET',,
html-keyboard-response,298,572716,307.8800000003539,"DRESS<img id = ""stim"" ><div class = red_square id = ""topsquare"" ></div><img id = ""stim"" ><div class = red_square  id = ""bottomsquare"" ></div>",32,word_square,response,1,Space,true,,,
html-keyboard-response,299,574218,null,"DRESS",null,word,,,,, 'DRESS',,
html-keyboard-response,300,574721,null,"LACE<img id = ""stim"" ><div class = green_square id = ""topsquare"" ></div><img id = ""stim"" ><div class = green_square  id = ""bottomsquare"" ></div>",null,word_square,response,0,none,true,,,
html-keyboard-response,301,576223,null,"LACE",null,word,,,,, 'LACE',,
html-keyboard-response,302,576726,null,"GLASS<img id = ""stim"" ><div class = green_square id = ""topsquare"" ></div><img id = ""stim"" ><div class = green_square  id = ""bottomsquare"" ></div>",null,word_square,response,0,none,true,,,
html-keyboard-response,303,578228,null,"GLASS",null,word,,,,, 'GLASS',,
html-keyboard-response,304,578730,null,"WINDOW<img id = ""stim"" ><div class = green_square id = ""topsquare"" ></div><img id = ""stim"" ><div class = green_square  id = ""bottomsquare"" ></div>",null,word_square,response,0,none,true,,,
html-keyboard-response,305,580232,null,"WINDOW",null,word,,,,, 'WINDOW',,
html-keyboard-response,306,580512,277.2599999998929,"MERMAID<img id = ""stim"" ><div class = red_square id = ""topsquare"" ></div><img id = ""stim"" ><div class = red_square  id = ""bottomsquare"" ></div>",32,word_square,response,1,Space,true,,,
html-keyboard-response,307,582014,null,"MERMAID",null,word,,,,, 'MERMAID',,
html-keyboard-response,308,582516,null,"STAPLE<img id = ""stim"" ><div class = green_square id = ""topsquare"" ></div><img id = ""stim"" ><div class = green_square  id = ""bottomsquare"" ></div>",null,word_square,response,0,none,true,,,
html-keyboard-response,309,584019,null,"STAPLE",null,word,,,,, 'STAPLE',,
html-keyboard-response,310,584521,null,"SOCKET<img id = ""stim"" ><div class = green_square id = ""topsquare"" ></div><img id = ""stim"" ><div class = green_square  id = ""bottomsquare"" ></div>",null,word_square,response,0,none,true,,,
html-keyboard-response,311,586023,null,"SOCKET",null,word,,,,, 'SOCKET',,
html-keyboard-response,312,586339,313.6249999998836,"RODENT<img id = ""stim"" ><div class = red_square id = ""topsquare"" ></div><img id = ""stim"" ><div class = red_square  id = ""bottomsquare"" ></div>",32,word_square,response,1,Space,true,,,
html-keyboard-response,313,587842,null,"RODENT",null,word,,,,, 'RODENT',,
html-keyboard-response,314,588331,487.24000000033993,"DESSERT<img id = ""stim"" ><div class = red_square id = ""topsquare"" ></div><img id = ""stim"" ><div class = red_square  id = ""bottomsquare"" ></div>",32,word_square,response,1,Space,true,,,
html-keyboard-response,315,589834,null,"DESSERT",null,word,,,,, 'DESSERT',,
html-keyboard-response,316,590336,null,"SUGAR<img id = ""stim"" ><div class = green_square id = ""topsquare"" ></div><img id = ""stim"" ><div class = green_square  id = ""bottomsquare"" ></div>",null,word_square,response,0,none,true,,,
html-keyboard-response,317,591839,null,"SUGAR",null,word,,,,, 'SUGAR',,
html-keyboard-response,318,592204,362.77500000048894,"RIVER<img id = ""stim"" ><div class = red_square id = ""topsquare"" ></div><img id = ""stim"" ><div class = red_square  id = ""bottomsquare"" ></div>",32,word_square,response,1,Space,true,,,
html-keyboard-response,319,593706,null,"RIVER",null,word,,,,, 'RIVER',,
html-keyboard-response,320,594034,326.285000000149,"CRYSTAL<img id = ""stim"" ><div class = red_square id = ""topsquare"" ></div><img id = ""stim"" ><div class = red_square  id = ""bottomsquare"" ></div>",32,word_square,response,1,Space,true,,,
html-keyboard-response,321,595536,null,"CRYSTAL",null,word,,,,, 'CRYSTAL',,
html-keyboard-response,322,596039,null,"MOTEL<img id = ""stim"" ><div class = green_square id = ""topsquare"" ></div><img id = ""stim"" ><div class = green_square  id = ""bottomsquare"" ></div>",null,word_square,response,0,none,true,,,
html-keyboard-response,323,597541,null,"MOTEL",null,word,,,,, 'MOTEL',,
call-function,324,597542,,"",,,,,,,,,
html-keyboard-response,325,597644,null,"",null,,,,,,,,
math-period,326,601462,6888.904999998864,"",,,,,,,,,4
html-keyboard-response,327,601565,null,"",null,,,,,,,,
math-period,328,604377,5196.835000000661,"",,,,,,,,,2
html-keyboard-response,329,604479,null,"",null,,,,,,,,
math-period,330,606082,2863.5099999991944,"",,,,,,,,,3
html-keyboard-response,331,606184,null,"",null,,,,,,,,
math-period,332,608233,3716.5300000007264,"",,,,,,,,,3
html-keyboard-response,333,608335,null,"",null,,,,,,,,
math-period,334,611214,5411.499999999185,"",,,,,,,,,3
html-keyboard-response,335,611317,null,"",null,,,,,,,,
math-period,336,612827,2658.0149999989662,"",,,,,,,,,2
html-keyboard-response,337,612930,null,"",null,,,,,,,,
math-period,338,614401,2550.2049999994924,"",,,,,,,,,3
html-keyboard-response,339,614503,null,"",null,,,,,,,,
math-period,340,616688,3975.8099999999395,"",,,,,,,,,1
html-keyboard-response,341,616790,null,"",null,,,,,,,,
math-period,342,618176,2421.4400000000605,"",,,,,,,,,2
html-keyboard-response,343,618279,null,"",null,,,,,,,,
math-period,344,619809,2677.400000000489,"",,,,,,,,,3
html-keyboard-response,345,619911,null,"",null,,,,,,,,
math-period,346,621382,2494.3049999992363,"",,,,,,,,,3
html-keyboard-response,347,621485,null,"",null,,,,,,,,
math-period,348,621546,null,"",,,,,,,,,
html-keyboard-response,349,622548,null,"Recall Period!",null,,,,,,,,
call-function,350,622549,,"",,,,,,,,,
html-keyboard-response,351,622651,null,"",null,,,,,,,,
recall-period,352,628693,32712.33000000147,"",,,,,,,,,deck
html-keyboard-response,353,628796,null,"",null,,,,,,,,
recall-period,354,630738,9129.065000002855,"",,,,,,,,,truck
html-keyboard-response,355,630840,null,"",null,,,,,,,,
recall-period,356,633149,13435.21500000055,"",,,,,,,,,dessert
html-keyboard-response,357,633252,null,"",null,,,,,,,,
recall-period,358,634163,2643.315000002156,"",,,,,,,,,sugar
html-keyboard-response,359,634265,null,"",null,,,,,,,,
recall-period,360,636093,8895.589999999152,"",,,,,,,,,river
html-keyboard-response,361,636195,null,"",null,,,,,,,,
recall-period,362,637644,5755.675000000163,"",,,,,,,,,crystal
html-keyboard-response,363,637746,null,"",null,,,,,,,,
recall-period,364,641096,17504.450000002165,"",,,,,,,,,dress
html-keyboard-response,365,641199,null,"",null,,,,,,,,
recall-period,366,642498,2930.0399999984074,"",,,,,,,,,lace
html-keyboard-response,367,642601,null,"",null,,,,,,,,
recall-period,368,644477,9068.60000000149,"",,,,,,,,,glass
html-keyboard-response,369,644580,null,"",null,,,,,,,,
recall-period,370,646070,5373.079999998095,"",,,,,,,,,window
html-keyboard-response,371,646172,null,"",null,,,,,,,,
recall-period,372,653711,50002.709999999264,"",,,,,,,,,socket
html-keyboard-response,373,653813,null,"",null,,,,,,,,
recall-period,374,654732,3463.400000004447,"",,,,,,,,,rodent
html-keyboard-response,375,654834,null,"",null,,,,,,,,
recall-period,376,697551,null,"",,,,,,,,,
html-keyboard-response,377,698054,null,"Time's Up!",null,,,,,,,,
html-keyboard-response,378,699427,1371.100000000326,"<p> Good job! You responded correctly to 94% of the red squares.</p>
                  <p>Be sure to keep your accuracy above 80%</p>
                  <p>Press any key to continue the experiment. Thank you!</p>",32,,,,,,,,
html-keyboard-response,379,701114,1684.8600000003353,"<div style=""font-size:48px;"">Press any key to begin list 4 of 24 </div>",32,,,,,,,,
html-keyboard-response,380,703616,null,"<div style=""font-size:60px;"">+</div>",null,,,,,,,,
html-keyboard-response,381,703946,327.4949999995297,"POCKET<img id = ""stim"" ><div class = red_square id = ""topsquare"" ></div><img id = ""stim"" ><div class = red_square  id = ""bottomsquare"" ></div>",32,word_square,response,1,Space,true,,,
html-keyboard-response,382,705448,null,"POCKET",null,word,,,,, 'POCKET',,
html-keyboard-response,383,705950,null,"GREASE<img id = ""stim"" ><div class = green_square id = ""topsquare"" ></div><img id = ""stim"" ><div class = green_square  id = ""bottomsquare"" ></div>",null,word_square,response,0,none,true,,,
html-keyboard-response,384,707452,null,"GREASE",null,word,,,,, 'GREASE',,
html-keyboard-response,385,707955,null,"PLUTO<img id = ""stim"" ><div class = red_square id = ""topsquare"" ></div><img id = ""stim"" ><div class = red_square  id = ""bottomsquare"" ></div>",null,word_square,response,1,Space,false,,,
html-keyboard-response,386,709457,null,"PLUTO",null,word,,,,, 'PLUTO',,
html-keyboard-response,387,709960,null,"POISON<img id = ""stim"" ><div class = green_square id = ""topsquare"" ></div><img id = ""stim"" ><div class = green_square  id = ""bottomsquare"" ></div>",null,word_square,response,0,none,true,,,
html-keyboard-response,388,711462,null,"POISON",null,word,,,,, 'POISON',,
html-keyboard-response,389,711746,282.54000000015367,"FRAME<img id = ""stim"" ><div class = red_square id = ""topsquare"" ></div><img id = ""stim"" ><div class = red_square  id = ""bottomsquare"" ></div>",32,word_square,response,1,Space,true,,,
html-keyboard-response,390,713249,null,"FRAME",null,word,,,,, 'FRAME',,
html-keyboard-response,391,713549,298.6300000002375,"BANKER<img id = ""stim"" ><div class = red_square id = ""topsquare"" ></div><img id = ""stim"" ><div class = red_square  id = ""bottomsquare"" ></div>",32,word_square,response,1,Space,true,,,
html-keyboard-response,392,715052,null,"BANKER",null,word,,,,, 'BANKER',,
html-keyboard-response,393,715554,null,"SCARF<img id = ""stim"" ><div class = green_square id = ""topsquare"" ></div><img id = ""stim"" ><div class = green_square  id = ""bottomsquare"" ></div>",null,word_square,response,0,none,true,,,
html-keyboard-response,394,717057,null,"SCARF",null,word,,,,, 'SCARF',,
html-keyboard-response,395,717559,null,"PUMPKIN<img id = ""stim"" ><div class = green_square id = ""topsquare"" ></div><img id = ""stim"" ><div class = green_square  id = ""bottomsquare"" ></div>",null,word_square,response,0,none,true,,,
html-keyboard-response,396,719062,null,"PUMPKIN",null,word,,,,, 'PUMPKIN',,
html-keyboard-response,397,719564,null,"PORTRAIT<img id = ""stim"" ><div class = green_square id = ""topsquare"" ></div><img id = ""stim"" ><div class = green_square  id = ""bottomsquare"" ></div>",null,word_square,response,0,none,true,,,
html-keyboard-response,398,721067,null,"PORTRAIT",null,word,,,,, 'PORTRAIT',,
html-keyboard-response,399,721368,299.2999999996973,"SCULPTURE<img id = ""stim"" ><div class = red_square id = ""topsquare"" ></div><img id = ""stim"" ><div class = red_square  id = ""bottomsquare"" ></div>",32,word_square,response,1,Space,true,,,
html-keyboard-response,400,722870,null,"SCULPTURE",null,word,,,,, 'SCULPTURE',,
html-keyboard-response,401,723373,null,"DRAWING<img id = ""stim"" ><div class = green_square id = ""topsquare"" ></div><img id = ""stim"" ><div class = green_square  id = ""bottomsquare"" ></div>",null,word_square,response,0,none,true,,,
html-keyboard-response,402,724875,null,"DRAWING",null,word,,,,, 'DRAWING',,
html-keyboard-response,403,725378,null,"BUTCHER<img id = ""stim"" ><div class = green_square id = ""topsquare"" ></div><img id = ""stim"" ><div class = green_square  id = ""bottomsquare"" ></div>",null,word_square,response,0,none,true,,,
html-keyboard-response,404,726880,null,"BUTCHER",null,word,,,,, 'BUTCHER',,
html-keyboard-response,405,727166,283.7300000000978,"SAUSAGE<img id = ""stim"" ><div class = red_square id = ""topsquare"" ></div><img id = ""stim"" ><div class = red_square  id = ""bottomsquare"" ></div>",32,word_square,response,1,Space,true,,,
html-keyboard-response,406,728668,null,"SAUSAGE",null,word,,,,, 'SAUSAGE',,
html-keyboard-response,407,729134,463.9399999997113,"LANDSCAPE<img id = ""stim"" ><div class = red_square id = ""topsquare"" ></div><img id = ""stim"" ><div class = red_square  id = ""bottomsquare"" ></div>",32,word_square,response,1,Space,true,,,
html-keyboard-response,408,730637,null,"LANDSCAPE",null,word,,,,, 'LANDSCAPE',,
html-keyboard-response,409,731139,null,"SUITE<img id = ""stim"" ><div class = green_square id = ""topsquare"" ></div><img id = ""stim"" ><div class = green_square  id = ""bottomsquare"" ></div>",null,word_square,response,0,none,true,,,
html-keyboard-response,410,732642,null,"SUITE",null,word,,,,, 'SUITE',,
html-keyboard-response,411,733013,369.5749999997206,"FREEZER<img id = ""stim"" ><div class = red_square id = ""topsquare"" ></div><img id = ""stim"" ><div class = red_square  id = ""bottomsquare"" ></div>",32,word_square,response,1,Space,true,,,
html-keyboard-response,412,734516,null,"FREEZER",null,word,,,,, 'FREEZER',,
html-keyboard-response,413,734993,475.50000000046566,"LITTER<img id = ""stim"" ><div class = red_square id = ""topsquare"" ></div><img id = ""stim"" ><div class = red_square  id = ""bottomsquare"" ></div>",32,word_square,response,1,Space,true,,,
html-keyboard-response,414,736495,null,"LITTER",null,word,,,,, 'LITTER',,
html-keyboard-response,415,736997,null,"THIEF<img id = ""stim"" ><div class = green_square id = ""topsquare"" ></div><img id = ""stim"" ><div class = green_square  id = ""bottomsquare"" ></div>",null,word_square,response,0,none,true,,,
html-keyboard-response,416,738500,null,"THIEF",null,word,,,,, 'THIEF',,
call-function,417,738501,,"",,,,,,,,,
html-keyboard-response,418,738602,null,"",null,,,,,,,,
math-period,419,744201,35941.474999997416,"",,,,,,,,,2
html-keyboard-response,420,744303,null,"",null,,,,,,,,
math-period,421,746536,3860.284999998752,"",,,,,,,,,2
html-keyboard-response,422,746638,null,"",null,,,,,,,,
math-period,423,749989,6373.95000000007,"",,,,,,,,,5
html-keyboard-response,424,750091,null,"",null,,,,,,,,
math-period,425,752014,3491.6299999994226,"",,,,,,,,,2
html-keyboard-response,426,752116,null,"",null,,,,,,,,
math-period,427,753838,3042.274999999907,"",,,,,,,,,3
html-keyboard-response,428,753940,null,"",null,,,,,,,,
math-period,429,758302,14130.234999998822,"",,,,,,,,,1
html-keyboard-response,430,758405,null,"",null,,,,,,,,
math-period,431,760958,4728.230000000563,"",,,,,,,,,4
html-keyboard-response,432,761060,null,"",null,,,,,,,,
math-period,433,762502,1357.8749999996508,"",,,,,,,,,5
html-keyboard-response,434,763505,null,"Recall Period!",null,,,,,,,,
call-function,435,763506,,"",,,,,,,,,
html-keyboard-response,436,763608,null,"",null,,,,,,,,
recall-period,437,768199,20775.364999999525,"",,,,,,,,,pluto
html-keyboard-response,438,768302,null,"",null,,,,,,,,
recall-period,439,770461,6386.350000000442,"",,,,,,,,,poison
html-keyboard-response,440,770564,null,"",null,,,,,,,,
recall-period,441,771792,4366.020000002813,"",,,,,,,,,pocket
html-keyboard-response,442,771894,null,"",null,,,,,,,,
recall-period,443,774378,8937.935000003898,"",,,,,,,,,scarf
html-keyboard-response,444,774480,null,"",null,,,,,,,,
recall-period,445,776013,6335.520000005956,"",,,,,,,,,pumpkin
html-keyboard-response,446,776116,null,"",null,,,,,,,,
recall-period,447,779110,19178.625000000116,"",,,,,,,,,butcher
html-keyboard-response,448,779213,null,"",null,,,,,,,,
recall-period,449,780559,4959.295000005979,"",,,,,,,,,suasage
html-keyboard-response,450,780662,null,"",null,,,,,,,,
recall-period,451,787256,41350.69499999366,"",,,,,,,,,portait
html-keyboard-response,452,787358,null,"",null,,,,,,,,
recall-period,453,792919,36897.24999998789,"",,,,,,,,,scultpture
html-keyboard-response,454,793022,null,"",null,,,,,,,,
recall-period,455,795795,12974.674999993993,"",,,,,,,,,suite
html-keyboard-response,456,795897,null,"",null,,,,,,,,
recall-period,457,801139,36451.52000000083,"",,,,,,,,,freezer
html-keyboard-response,458,801241,null,"",null,,,,,,,,
recall-period,459,838507,null,"",,,,,,,,,
html-keyboard-response,460,839010,null,"Time's Up!",null,,,,,,,,
html-keyboard-response,461,840667,1653.95999999973,"<p> Good job! You responded correctly to 94% of the red squares.</p>
                  <p>Be sure to keep your accuracy above 80%</p>
                  <p>Press any key to continue the experiment. Thank you!</p>",32,,,,,,,,
html-keyboard-response,462,841681,1010.0600000005215,"<div style=""font-size:48px;"">Press any key to begin list 5 of 24 </div>",32,,,,,,,,
html-keyboard-response,463,844183,null,"<div style=""font-size:60px;"">+</div>",null,,,,,,,,
html-keyboard-response,464,844686,null,"WHISTLE<img id = ""stim"" ><div class = green_square id = ""topsquare"" ></div><img id = ""stim"" ><div class = green_square  id = ""bottomsquare"" ></div>",null,word_square,response,0,none,true,,,
html-keyboard-response,465,846188,null,"WHISTLE",null,word,,,,, 'WHISTLE',,
html-keyboard-response,466,846604,413.2599999993108,"BASEMENT<img id = ""stim"" ><div class = red_square id = ""topsquare"" ></div><img id = ""stim"" ><div class = red_square  id = ""bottomsquare"" ></div>",32,word_square,response,1,Space,true,,,
html-keyboard-response,467,848106,null,"BASEMENT",null,word,,,,, 'BASEMENT',,
html-keyboard-response,468,848608,null,"CELLAR<img id = ""stim"" ><div class = red_square id = ""topsquare"" ></div><img id = ""stim"" ><div class = red_square  id = ""bottomsquare"" ></div>",null,word_square,response,1,Space,false,,,
html-keyboard-response,469,850111,null,"CELLAR",null,word,,,,, 'CELLAR',,
html-keyboard-response,470,850613,null,"YACHT<img id = ""stim"" ><div class = green_square id = ""topsquare"" ></div><img id = ""stim"" ><div class = green_square  id = ""bottomsquare"" ></div>",null,word_square,response,0,none,true,,,
html-keyboard-response,471,852115,null,"YACHT",null,word,,,,, 'YACHT',,
html-keyboard-response,472,852423,305.8500000006752,"TOURIST<img id = ""stim"" ><div class = red_square id = ""topsquare"" ></div><img id = ""stim"" ><div class = red_square  id = ""bottomsquare"" ></div>",32,word_square,response,1,Space,true,,,
html-keyboard-response,473,853926,null,"TOURIST",null,word,,,,, 'TOURIST',,
html-keyboard-response,474,854210,281.46000000007916,"NAPKIN<img id = ""stim"" ><div class = red_square id = ""topsquare"" ></div><img id = ""stim"" ><div class = red_square  id = ""bottomsquare"" ></div>",32,word_square,response,1,Space,true,,,
html-keyboard-response,475,855712,null,"NAPKIN",null,word,,,,, 'NAPKIN',,
html-keyboard-response,476,856215,null,"SHARK<img id = ""stim"" ><div class = green_square id = ""topsquare"" ></div><img id = ""stim"" ><div class = green_square  id = ""bottomsquare"" ></div>",null,word_square,response,0,none,true,,,
html-keyboard-response,477,857717,null,"SHARK",null,word,,,,, 'SHARK',,
html-keyboard-response,478,858219,null,"ROACH<img id = ""stim"" ><div class = green_square id = ""topsquare"" ></div><img id = ""stim"" ><div class = green_square  id = ""bottomsquare"" ></div>",null,word_square,response,0,none,true,,,
html-keyboard-response,479,859721,null,"ROACH",null,word,,,,, 'ROACH',,
html-keyboard-response,480,860100,376.5749999983236,"TIMBER<img id = ""stim"" ><div class = red_square id = ""topsquare"" ></div><img id = ""stim"" ><div class = red_square  id = ""bottomsquare"" ></div>",32,word_square,response,1,Space,true,,,
html-keyboard-response,481,861602,null,"TIMBER",null,word,,,,, 'TIMBER',,
html-keyboard-response,482,862104,null,"TEACHER<img id = ""stim"" ><div class = green_square id = ""topsquare"" ></div><img id = ""stim"" ><div class = green_square  id = ""bottomsquare"" ></div>",null,word_square,response,0,none,true,,,
html-keyboard-response,483,863607,null,"TEACHER",null,word,,,,, 'TEACHER',,
html-keyboard-response,484,863910,300.83499999996275,"LETTUCE<img id = ""stim"" ><div class = red_square id = ""topsquare"" ></div><img id = ""stim"" ><div class = red_square  id = ""bottomsquare"" ></div>",32,word_square,response,1,Space,true,,,
html-keyboard-response,485,865412,null,"LETTUCE",null,word,,,,, 'LETTUCE',,
html-keyboard-response,486,865914,null,"FRAGRANCE<img id = ""stim"" ><div class = green_square id = ""topsquare"" ></div><img id = ""stim"" ><div class = green_square  id = ""bottomsquare"" ></div>",null,word_square,response,0,none,true,,,
html-keyboard-response,487,867417,null,"FRAGRANCE",null,word,,,,, 'FRAGRANCE',,
html-keyboard-response,488,867920,null,"OINTMENT<img id = ""stim"" ><div class = green_square id = ""topsquare"" ></div><img id = ""stim"" ><div class = green_square  id = ""bottomsquare"" ></div>",null,word_square,response,0,none,true,,,
html-keyboard-response,489,869422,null,"OINTMENT",null,word,,,,, 'OINTMENT',,
html-keyboard-response,490,869722,298.3300000014715,"HANDCUFFS<img id = ""stim"" ><div class = red_square id = ""topsquare"" ></div><img id = ""stim"" ><div class = red_square  id = ""bottomsquare"" ></div>",32,word_square,response,1,Space,true,,,
html-keyboard-response,491,871224,null,"HANDCUFFS",null,word,,,,, 'HANDCUFFS',,
html-keyboard-response,492,871726,null,"WINGS<img id = ""stim"" ><div class = green_square id = ""topsquare"" ></div><img id = ""stim"" ><div class = green_square  id = ""bottomsquare"" ></div>",null,word_square,response,0,none,true,,,
html-keyboard-response,493,873229,null,"WINGS",null,word,,,,, 'WINGS',,
html-keyboard-response,494,873731,null,"PUPIL<img id = ""stim"" ><div class = green_square id = ""topsquare"" ></div><img id = ""stim"" ><div class = green_square  id = ""bottomsquare"" ></div>",null,word_square,response,0,none,true,,,
html-keyboard-response,495,875233,null,"PUPIL",null,word,,,,, 'PUPIL',,
html-keyboard-response,496,875544,307.9950000010431,"TURNIP<img id = ""stim"" ><div class = red_square id = ""topsquare"" ></div><img id = ""stim"" ><div class = red_square  id = ""bottomsquare"" ></div>",32,word_square,response,1,Space,true,,,
html-keyboard-response,497,877046,null,"TURNIP",null,word,,,,, 'TURNIP',,
html-keyboard-response,498,877354,306.3249999996042,"FLOWER<img id = ""stim"" ><div class = red_square id = ""topsquare"" ></div><img id = ""stim"" ><div class = red_square  id = ""bottomsquare"" ></div>",32,word_square,response,1,Space,true,,,
html-keyboard-response,499,878856,null,"FLOWER",null,word,,,,, 'FLOWER',,
call-function,500,878858,,"",,,,,,,,,
html-keyboard-response,501,878959,null,"",null,,,,,,,,
math-period,502,881857,5358.494999998715,"",,,,,,,,,2
html-keyboard-response,503,881960,null,"",null,,,,,,,,
math-period,504,883385,2441.535000001779,"",,,,,,,,,3
html-keyboard-response,505,883487,null,"",null,,,,,,,,
math-period,506,885260,3088.264999998384,"",,,,,,,,,1
html-keyboard-response,507,885363,null,"",null,,,,,,,,
math-period,508,887388,3616.5349999991013,"",,,,,,,,,1
html-keyboard-response,509,887490,null,"",null,,,,,,,,
math-period,510,889100,2822.4600000012433,"",,,,,,,,,2
html-keyboard-response,511,889203,null,"",null,,,,,,,,
math-period,512,890810,2826.699999999604,"",,,,,,,,,3
html-keyboard-response,513,890912,null,"",null,,,,,,,,
math-period,514,893912,5589.499999998137,"",,,,,,,,,2
html-keyboard-response,515,894015,null,"",null,,,,,,,,
math-period,516,895652,2850.119999999064,"",,,,,,,,,2
html-keyboard-response,517,895755,null,"",null,,,,,,,,
math-period,518,898431,4896.819999999949,"",,,,,,,,,5
html-keyboard-response,519,898533,null,"",null,,,,,,,,
math-period,520,900052,2574.34500000102,"",,,,,,,,,4
html-keyboard-response,521,900155,null,"",null,,,,,,,,
math-period,522,901617,2519.9250000005122,"",,,,,,,,,5
html-keyboard-response,523,901720,null,"",null,,,,,,,,
math-period,524,902862,null,"",,,,,,,,,
html-keyboard-response,525,903864,null,"Recall Period!",null,,,,,,,,
call-function,526,903865,,"",,,,,,,,,
html-keyboard-response,527,903967,null,"",null,,,,,,,,
recall-period,528,910434,51942.9949999993,"",,,,,,,,,handcuffs
html-keyboard-response,529,910537,null,"",null,,,,,,,,
recall-period,530,912273,5252.02000000549,"",,,,,,,,,wings
html-keyboard-response,531,912375,null,"",null,,,,,,,,
recall-period,532,913897,4673.960000002175,"",,,,,,,,,pupil
html-keyboard-response,533,914000,null,"",null,,,,,,,,
recall-period,534,916765,17802.30500000657,"",,,,,,,,,basement
html-keyboard-response,535,916869,null,"",null,,,,,,,,
recall-period,536,919357,10690.66500000935,"",,,,,,,,,cellar
html-keyboard-response,537,919459,null,"",null,,,,,,,,
recall-period,538,922692,20654.0449999955,"",,,,,,,,,roach
html-keyboard-response,539,922794,null,"",null,,,,,,,,
recall-period,540,923999,4329.169999997015,"",,,,,,,,,shark
html-keyboard-response,541,924102,null,"",null,,,,,,,,
recall-period,542,932109,57247.92499999993,"",,,,,,,,,lettuce
html-keyboard-response,543,932212,null,"",null,,,,,,,,
recall-period,544,978867,null,"",,,,,,,,,
html-keyboard-response,545,979369,null,"Time's Up!",null,,,,,,,,
html-keyboard-response,546,980679,1306.8700000003446,"<p> Good job! You responded correctly to 94% of the red squares.</p>
                  <p>Be sure to keep your accuracy above 80%</p>
                  <p>Press any key to continue the experiment. Thank you!</p>",32,,,,,,,,
html-keyboard-response,547,981358,677.7300000012619,"<div style=""font-size:48px;"">Press any key to begin list 6 of 24 </div>",32,,,,,,,,
html-keyboard-response,548,983861,null,"<div style=""font-size:60px;"">+</div>",null,,,,,,,,
html-keyboard-response,549,984363,null,"BUREAU<img id = ""stim"" ><div class = green_square id = ""topsquare"" ></div><img id = ""stim"" ><div class = green_square  id = ""bottomsquare"" ></div>",null,word_square,response,0,none,true,,,
html-keyboard-response,550,985865,null,"BUREAU",null,word,,,,, 'BUREAU',,
html-keyboard-response,551,986182,314.60500000137836,"SKUNK<img id = ""stim"" ><div class = red_square id = ""topsquare"" ></div><img id = ""stim"" ><div class = red_square  id = ""bottomsquare"" ></div>",32,word_square,response,1,Space,true,,,
html-keyboard-response,552,987684,null,"SKUNK",null,word,,,,, 'SKUNK',,
html-keyboard-response,553,988001,314.2950000001583,"MAPLE<img id = ""stim"" ><div class = red_square id = ""topsquare"" ></div><img id = ""stim"" ><div class = red_square  id = ""bottomsquare"" ></div>",32,word_square,response,1,Space,true,,,
html-keyboard-response,554,989503,null,"MAPLE",null,word,,,,, 'MAPLE',,
html-keyboard-response,555,990005,null,"LUMBER<img id = ""stim"" ><div class = green_square id = ""topsquare"" ></div><img id = ""stim"" ><div class = green_square  id = ""bottomsquare"" ></div>",null,word_square,response,0,none,true,,,
html-keyboard-response,556,991508,null,"LUMBER",null,word,,,,, 'LUMBER',,
html-keyboard-response,557,991883,373.17500000062864,"VILLAIN<img id = ""stim"" ><div class = red_square id = ""topsquare"" ></div><img id = ""stim"" ><div class = red_square  id = ""bottomsquare"" ></div>",32,word_square,response,1,Space,true,,,
html-keyboard-response,558,993385,null,"VILLAIN",null,word,,,,, 'VILLAIN',,
html-keyboard-response,559,993747,359.57000000053085,"BACKBONE<img id = ""stim"" ><div class = red_square id = ""topsquare"" ></div><img id = ""stim"" ><div class = red_square  id = ""bottomsquare"" ></div>",32,word_square,response,1,Space,true,,,
html-keyboard-response,560,995249,null,"BACKBONE",null,word,,,,, 'BACKBONE',,
html-keyboard-response,561,995752,null,"COBBLER<img id = ""stim"" ><div class = green_square id = ""topsquare"" ></div><img id = ""stim"" ><div class = green_square  id = ""bottomsquare"" ></div>",null,word_square,response,0,none,true,,,
html-keyboard-response,562,997254,null,"COBBLER",null,word,,,,, 'COBBLER',,
html-keyboard-response,563,997757,null,"RIFLE<img id = ""stim"" ><div class = green_square id = ""topsquare"" ></div><img id = ""stim"" ><div class = green_square  id = ""bottomsquare"" ></div>",null,word_square,response,0,none,true,,,
html-keyboard-response,564,999260,null,"RIFLE",null,word,,,,, 'RIFLE',,
html-keyboard-response,565,999522,260.2200000002049,"PISTOL<img id = ""stim"" ><div class = red_square id = ""topsquare"" ></div><img id = ""stim"" ><div class = red_square  id = ""bottomsquare"" ></div>",32,word_square,response,1,Space,true,,,
html-keyboard-response,566,1001025,null,"PISTOL",null,word,,,,, 'PISTOL',,
html-keyboard-response,567,1001527,null,"MAILMAN<img id = ""stim"" ><div class = green_square id = ""topsquare"" ></div><img id = ""stim"" ><div class = green_square  id = ""bottomsquare"" ></div>",null,word_square,response,0,none,true,,,
html-keyboard-response,568,1003030,null,"MAILMAN",null,word,,,,, 'MAILMAN',,
html-keyboard-response,569,1003321,288.9750000012573,"SEAL<img id = ""stim"" ><div class = red_square id = ""topsquare"" ></div><img id = ""stim"" ><div class = red_square  id = ""bottomsquare"" ></div>",32,word_square,response,1,Space,true,,,
html-keyboard-response,570,1004824,null,"SEAL",null,word,,,,, 'SEAL',,
html-keyboard-response,571,1005327,null,"CIGAR<img id = ""stim"" ><div class = green_square id = ""topsquare"" ></div><img id = ""stim"" ><div class = green_square  id = ""bottomsquare"" ></div>",null,word_square,response,0,none,true,,,
html-keyboard-response,572,1006829,null,"CIGAR",null,word,,,,, 'CIGAR',,
html-keyboard-response,573,1007331,null,"JOKER<img id = ""stim"" ><div class = green_square id = ""topsquare"" ></div><img id = ""stim"" ><div class = green_square  id = ""bottomsquare"" ></div>",null,word_square,response,0,none,true,,,
html-keyboard-response,574,1008834,null,"JOKER",null,word,,,,, 'JOKER',,
html-keyboard-response,575,1009174,337.9499999991385,"HONEY<img id = ""stim"" ><div class = red_square id = ""topsquare"" ></div><img id = ""stim"" ><div class = red_square  id = ""bottomsquare"" ></div>",32,word_square,response,1,Space,true,,,
html-keyboard-response,576,1010676,null,"HONEY",null,word,,,,, 'HONEY',,
html-keyboard-response,577,1011179,null,"COLESLAW<img id = ""stim"" ><div class = green_square id = ""topsquare"" ></div><img id = ""stim"" ><div class = green_square  id = ""bottomsquare"" ></div>",null,word_square,response,0,none,true,,,
html-keyboard-response,578,1012681,null,"COLESLAW",null,word,,,,, 'COLESLAW',,
html-keyboard-response,579,1013184,null,"FOLDER<img id = ""stim"" ><div class = green_square id = ""topsquare"" ></div><img id = ""stim"" ><div class = green_square  id = ""bottomsquare"" ></div>",null,word_square,response,0,none,true,,,
html-keyboard-response,580,1014686,null,"FOLDER",null,word,,,,, 'FOLDER',,
html-keyboard-response,581,1015050,361.54499999969266,"DWARF<img id = ""stim"" ><div class = red_square id = ""topsquare"" ></div><img id = ""stim"" ><div class = red_square  id = ""bottomsquare"" ></div>",32,word_square,response,1,Space,true,,,
html-keyboard-response,582,1016553,null,"DWARF",null,word,,,,, 'DWARF',,
html-keyboard-response,583,1017056,null,"RACKET<img id = ""stim"" ><div class = red_square id = ""topsquare"" ></div><img id = ""stim"" ><div class = red_square  id = ""bottomsquare"" ></div>",null,word_square,response,1,Space,false,,,
html-keyboard-response,584,1018559,null,"RACKET",null,word,,,,, 'RACKET',,
call-function,585,1018560,,"",,,,,,,,,
html-keyboard-response,586,1018662,null,"",null,,,,,,,,
math-period,587,1022646,12614.864999999641,"",,,,,,,,,4
html-keyboard-response,588,1022748,null,"",null,,,,,,,,
math-period,589,1024087,2294.3699999994133,"",,,,,,,,,3
html-keyboard-response,590,1024189,null,"",null,,,,,,,,
math-period,591,1025664,2590.2999999998137,"",,,,,,,,,2
html-keyboard-response,592,1025767,null,"",null,,,,,,,,
math-period,593,1027186,2426.9399999974994,"",,,,,,,,,3
html-keyboard-response,594,1027288,null,"",null,,,,,,,,
math-period,595,1028759,2526.479999998701,"",,,,,,,,,3
html-keyboard-response,596,1028862,null,"",null,,,,,,,,
math-period,597,1030352,2552.954999999143,"",,,,,,,,,1
html-keyboard-response,598,1030455,null,"",null,,,,,,,,
math-period,599,1033088,4888.725000000792,"",,,,,,,,,2
html-keyboard-response,600,1033190,null,"",null,,,,,,,,
math-period,601,1035385,3927.934999997844,"",,,,,,,,,1
html-keyboard-response,602,1035488,null,"",null,,,,,,,,
math-period,603,1037410,3387.515000000363,"",,,,,,,,,3
html-keyboard-response,604,1037512,null,"",null,,,,,,,,
math-period,605,1039532,3631.589999999036,"",,,,,,,,,2
html-keyboard-response,606,1039635,null,"",null,,,,,,,,
math-period,607,1042066,4398.419999999576,"",,,,,,,,,4
html-keyboard-response,608,1042168,null,"",null,,,,,,,,
math-period,609,1042563,null,"",,,,,,,,,
html-keyboard-response,610,1043565,null,"Recall Period!",null,,,,,,,,
call-function,611,1043566,,"",,,,,,,,,
html-keyboard-response,612,1043668,null,"",null,,,,,,,,
recall-period,613,1047957,20572.75999999931,"",,,,,,,,,dwarf
html-keyboard-response,614,1048060,null,"",null,,,,,,,,
recall-period,615,1051327,16890.505000002682,"",,,,,,,,,honey
html-keyboard-response,616,1051430,null,"",null,,,,,,,,
recall-period,617,1053657,8686.009999996284,"",,,,,,,,,coleslaw
html-keyboard-response,618,1053760,null,"",null,,,,,,,,
recall-period,619,1056433,14419.375000001863,"",,,,,,,,,lumber
html-keyboard-response,620,1056536,null,"",null,,,,,,,,
recall-period,621,1058478,8189.354999998817,"",,,,,,,,,villan
html-keyboard-response,622,1058580,null,"",null,,,,,,,,
recall-period,623,1063016,16658.559999996796,"",,,,,,,,,skunk
html-keyboard-response,624,1063119,null,"",null,,,,,,,,
recall-period,625,1064212,2844.750000001397,"",,,,,,,,,seal
html-keyboard-response,626,1064314,null,"",null,,,,,,,,
recall-period,627,1068688,21848.10499999649,"",,,,,,,,,mailman
html-keyboard-response,628,1068790,null,"",null,,,,,,,,
recall-period,629,1072284,24082.83999999822,"",,,,,,,,,cobbler
html-keyboard-response,630,1072387,null,"",null,,,,,,,,
recall-period,631,1083127,50119.8050000011,"",,,,,,,,,bureau
html-keyboard-response,632,1083229,null,"",null,,,,,,,,
recall-period,633,1118568,null,"",,,,,,,,,
html-keyboard-response,634,1119070,null,"Time's Up!",null,,,,,,,,
html-keyboard-response,635,1120556,1483.1699999994598,"<p> Good job! You responded correctly to 94% of the red squares.</p>
                  <p>Be sure to keep your accuracy above 80%</p>
                  <p>Press any key to continue the experiment. Thank you!</p>",32,,,,,,,,
html-keyboard-response,636,1121215,657.2299999988172,"<div style=""font-size:48px;"">Press any key to begin list 7 of 24 </div>",32,,,,,,,,
html-keyboard-response,637,1123718,null,"<div style=""font-size:60px;"">+</div>",null,,,,,,,,
html-keyboard-response,638,1124177,457.2299999999814,"GALLON<img id = ""stim"" ><div class = red_square id = ""topsquare"" ></div><img id = ""stim"" ><div class = red_square  id = ""bottomsquare"" ></div>",32,word_square,response,1,Space,true,,,
html-keyboard-response,639,1125679,null,"GALLON",null,word,,,,, 'GALLON',,
html-keyboard-response,640,1126182,null,"TAVERN<img id = ""stim"" ><div class = green_square id = ""topsquare"" ></div><img id = ""stim"" ><div class = green_square  id = ""bottomsquare"" ></div>",null,word_square,response,0,none,true,,,
html-keyboard-response,641,1127684,null,"TAVERN",null,word,,,,, 'TAVERN',,
html-keyboard-response,642,1128187,null,"APPLE<img id = ""stim"" ><div class = green_square id = ""topsquare"" ></div><img id = ""stim"" ><div class = green_square  id = ""bottomsquare"" ></div>",null,word_square,response,0,none,true,,,
html-keyboard-response,643,1129689,null,"APPLE",null,word,,,,, 'APPLE',,
html-keyboard-response,644,1129964,272.74500000011176,"ORANGE<img id = ""stim"" ><div class = red_square id = ""topsquare"" ></div><img id = ""stim"" ><div class = red_square  id = ""bottomsquare"" ></div>",32,word_square,response,1,Space,true,,,
html-keyboard-response,645,1131466,null,"ORANGE",null,word,,,,, 'ORANGE',,
html-keyboard-response,646,1131969,null,"MONGOOSE<img id = ""stim"" ><div class = green_square id = ""topsquare"" ></div><img id = ""stim"" ><div class = green_square  id = ""bottomsquare"" ></div>",null,word_square,response,0,none,true,,,
html-keyboard-response,647,1133471,null,"MONGOOSE",null,word,,,,, 'MONGOOSE',,
html-keyboard-response,648,1133973,null,"HORSE<img id = ""stim"" ><div class = green_square id = ""topsquare"" ></div><img id = ""stim"" ><div class = green_square  id = ""bottomsquare"" ></div>",null,word_square,response,0,none,true,,,
html-keyboard-response,649,1135476,null,"HORSE",null,word,,,,, 'HORSE',,
html-keyboard-response,650,1135753,275.5600000000559,"DONKEY<img id = ""stim"" ><div class = red_square id = ""topsquare"" ></div><img id = ""stim"" ><div class = red_square  id = ""bottomsquare"" ></div>",32,word_square,response,1,Space,true,,,
html-keyboard-response,651,1137256,null,"DONKEY",null,word,,,,, 'DONKEY',,
html-keyboard-response,652,1137578,319.77499999990687,"BRACES<img id = ""stim"" ><div class = red_square id = ""topsquare"" ></div><img id = ""stim"" ><div class = red_square  id = ""bottomsquare"" ></div>",32,word_square,response,1,Space,true,,,
html-keyboard-response,653,1139083,null,"BRACES",null,word,,,,, 'BRACES',,
html-keyboard-response,654,1139586,null,"BEAVER<img id = ""stim"" ><div class = green_square id = ""topsquare"" ></div><img id = ""stim"" ><div class = green_square  id = ""bottomsquare"" ></div>",null,word_square,response,0,none,true,,,
html-keyboard-response,655,1141088,null,"BEAVER",null,word,,,,, 'BEAVER',,
html-keyboard-response,656,1141480,389.7100000011269,"COOK<img id = ""stim"" ><div class = red_square id = ""topsquare"" ></div><img id = ""stim"" ><div class = red_square  id = ""bottomsquare"" ></div>",32,word_square,response,1,Space,true,,,
html-keyboard-response,657,1142982,null,"COOK",null,word,,,,, 'COOK',,
html-keyboard-response,658,1143485,null,"ELK<img id = ""stim"" ><div class = green_square id = ""topsquare"" ></div><img id = ""stim"" ><div class = green_square  id = ""bottomsquare"" ></div>",null,word_square,response,0,none,true,,,
html-keyboard-response,659,1144987,null,"ELK",null,word,,,,, 'ELK',,
html-keyboard-response,660,1145364,375.0700000000652,"COOKBOOK<img id = ""stim"" ><div class = red_square id = ""topsquare"" ></div><img id = ""stim"" ><div class = red_square  id = ""bottomsquare"" ></div>",32,word_square,response,1,Space,true,,,
html-keyboard-response,661,1146866,null,"COOKBOOK",null,word,,,,, 'COOKBOOK',,
html-keyboard-response,662,1147369,null,"HIGHWAY<img id = ""stim"" ><div class = red_square id = ""topsquare"" ></div><img id = ""stim"" ><div class = red_square  id = ""bottomsquare"" ></div>",null,word_square,response,1,Space,false,,,
html-keyboard-response,663,1148871,null,"HIGHWAY",null,word,,,,, 'HIGHWAY',,
html-keyboard-response,664,1149374,null,"SALAD<img id = ""stim"" ><div class = green_square id = ""topsquare"" ></div><img id = ""stim"" ><div class = green_square  id = ""bottomsquare"" ></div>",null,word_square,response,0,none,true,,,
html-keyboard-response,665,1150876,null,"SALAD",null,word,,,,, 'SALAD',,
html-keyboard-response,666,1151161,283.00499999918975,"LETTER<img id = ""stim"" ><div class = red_square id = ""topsquare"" ></div><img id = ""stim"" ><div class = red_square  id = ""bottomsquare"" ></div>",32,word_square,response,1,Space,true,,,
html-keyboard-response,667,1152663,null,"LETTER",null,word,,,,, 'LETTER',,
html-keyboard-response,668,1152921,255.71499999938533,"LOBBY<img id = ""stim"" ><div class = red_square id = ""topsquare"" ></div><img id = ""stim"" ><div class = red_square  id = ""bottomsquare"" ></div>",32,word_square,response,1,Space,true,,,
html-keyboard-response,669,1154424,null,"LOBBY",null,word,,,,, 'LOBBY',,
html-keyboard-response,670,1154926,null,"PASTRY<img id = ""stim"" ><div class = green_square id = ""topsquare"" ></div><img id = ""stim"" ><div class = green_square  id = ""bottomsquare"" ></div>",null,word_square,response,0,none,true,,,
html-keyboard-response,671,1156428,null,"PASTRY",null,word,,,,, 'PASTRY',,
html-keyboard-response,672,1156931,null,"JOINT<img id = ""stim"" ><div class = green_square id = ""topsquare"" ></div><img id = ""stim"" ><div class = green_square  id = ""bottomsquare"" ></div>",null,word_square,response,0,none,true,,,
html-keyboard-response,673,1158433,null,"JOINT",null,word,,,,, 'JOINT',,
call-function,674,1158434,,"",,,,,,,,,
html-keyboard-response,675,1158536,null,"",null,,,,,,,,
math-period,676,1160653,3893.4199999985285,"",,,,,,,,,3
html-keyboard-response,677,1160756,null,"",null,,,,,,,,
math-period,678,1162969,4082.5449999996927,"",,,,,,,,,4
html-keyboard-response,679,1163072,null,"",null,,,,,,,,
math-period,680,1164370,2231.309999997262,"",,,,,,,,,2
html-keyboard-response,681,1164472,null,"",null,,,,,,,,
math-period,682,1165920,2524.910000001779,"",,,,,,,,,4
html-keyboard-response,683,1166023,null,"",null,,,,,,,,
math-period,684,1167645,2902.005000000121,"",,,,,,,,,4
html-keyboard-response,685,1167748,null,"",null,,,,,,,,
math-period,686,1169599,3292.8100000007544,"",,,,,,,,,1
html-keyboard-response,687,1169701,null,"",null,,,,,,,,
math-period,688,1170975,2131.5649999994785,"",,,,,,,,,2
html-keyboard-response,689,1171077,null,"",null,,,,,,,,
math-period,690,1173430,4123.524999999441,"",,,,,,,,,4
html-keyboard-response,691,1173533,null,"",null,,,,,,,,
math-period,692,1174935,2463.684999998659,"",,,,,,,,,4
html-keyboard-response,693,1175038,null,"",null,,,,,,,,
math-period,694,1177420,4417.090000001015,"",,,,,,,,,5
html-keyboard-response,695,1177523,null,"",null,,,,,,,,
math-period,696,1178916,2433.110000001965,"",,,,,,,,,3
html-keyboard-response,697,1179019,null,"",null,,,,,,,,
math-period,698,1180552,2715.045000000857,"",,,,,,,,,3
html-keyboard-response,699,1180654,null,"",null,,,,,,,,
math-period,700,1182371,3000.19000000041,"",,,,,,,,,1
html-keyboard-response,701,1182474,null,"",null,,,,,,,,
math-period,702,1182477,null,"",,,,,,,,,
html-keyboard-response,703,1183480,null,"Recall Period!",null,,,,,,,,
call-function,704,1183481,,"",,,,,,,,,
html-keyboard-response,705,1183583,null,"",null,,,,,,,,
recall-period,706,1188312,19937.155000001192,"",,,,,,,,,cook
html-keyboard-response,707,1188414,null,"",null,,,,,,,,
recall-period,708,1190397,7505.470000002766,"",,,,,,,,,cookbook
html-keyboard-response,709,1190500,null,"",null,,,,,,,,
recall-period,710,1193468,10268.425000003306,"",,,,,,,,,beaver
html-keyboard-response,711,1193571,null,"",null,,,,,,,,
recall-period,712,1194615,3529.4600000015926,"",,,,,,,,,braces
html-keyboard-response,713,1194718,null,"",null,,,,,,,,
recall-period,714,1198318,19368.750000005355,"",,,,,,,,,apple
html-keyboard-response,715,1198420,null,"",null,,,,,,,,
recall-period,716,1199466,3870.3799999994226,"",,,,,,,,,orange
html-keyboard-response,717,1199569,null,"",null,,,,,,,,
recall-period,718,1204978,23568.90499999863,"",,,,,,,,,salad
html-keyboard-response,719,1205080,null,"",null,,,,,,,,
recall-period,720,1208509,18137.390000001527,"",,,,,,,,,horse
html-keyboard-response,721,1208612,null,"",null,,,,,,,,
recall-period,722,1209665,3805.5300000018906,"",,,,,,,,,donkey
html-keyboard-response,723,1209767,null,"",null,,,,,,,,
recall-period,724,1211032,5531.190000005765,"",,,,,,,,,mongoose
html-keyboard-response,725,1211134,null,"",null,,,,,,,,
recall-period,726,1258482,null,"",,,,,,,,,
html-keyboard-response,727,1258985,null,"Time's Up!",null,,,,,,,,
html-keyboard-response,728,1260422,1434.664999998873,"<p> Good job! You responded correctly to 94% of the red squares.</p>
                  <p>Be sure to keep your accuracy above 80%</p>
                  <p>Press any key to continue the experiment. Thank you!</p>",32,,,,,,,,
html-keyboard-response,729,1261292,867.3550000002142,"<div style=""font-size:48px;"">Press any key to begin list 8 of 24 </div>",32,,,,,,,,
html-keyboard-response,730,1263794,null,"<div style=""font-size:60px;"">+</div>",null,,,,,,,,
html-keyboard-response,731,1264060,263.42000000108965,"MONKEY<img id = ""stim"" ><div class = red_square id = ""topsquare"" ></div><img id = ""stim"" ><div class = red_square  id = ""bottomsquare"" ></div>",32,word_square,response,1,Space,true,,,
html-keyboard-response,732,1265562,null,"MONKEY",null,word,,,,, 'MONKEY',,
html-keyboard-response,733,1266065,null,"SHORTCAKE<img id = ""stim"" ><div class = green_square id = ""topsquare"" ></div><img id = ""stim"" ><div class = green_square  id = ""bottomsquare"" ></div>",null,word_square,response,0,none,true,,,
html-keyboard-response,734,1267568,null,"SHORTCAKE",null,word,,,,, 'SHORTCAKE',,
html-keyboard-response,735,1268070,null,"MAILBOX<img id = ""stim"" ><div class = green_square id = ""topsquare"" ></div><img id = ""stim"" ><div class = green_square  id = ""bottomsquare"" ></div>",null,word_square,response,0,none,true,,,
html-keyboard-response,736,1269572,null,"MAILBOX",null,word,,,,, 'MAILBOX',,
html-keyboard-response,737,1270034,459.41499999933876,"SERGEANT<img id = ""stim"" ><div class = red_square id = ""topsquare"" ></div><img id = ""stim"" ><div class = red_square  id = ""bottomsquare"" ></div>",32,word_square,response,1,Space,true,,,
html-keyboard-response,738,1271536,null,"SERGEANT",null,word,,,,, 'SERGEANT',,
html-keyboard-response,739,1271894,355.8599999996368,"ASIA<img id = ""stim"" ><div class = green_square id = ""topsquare"" ></div><img id = ""stim"" ><div class = green_square  id = ""bottomsquare"" ></div>",32,word_square,response,0,none,false,,,
html-keyboard-response,740,1273397,null,"ASIA",null,word,,,,, 'ASIA',,
html-keyboard-response,741,1273899,null,"CROSS<img id = ""stim"" ><div class = green_square id = ""topsquare"" ></div><img id = ""stim"" ><div class = green_square  id = ""bottomsquare"" ></div>",null,word_square,response,0,none,true,,,
html-keyboard-response,742,1275401,null,"CROSS",null,word,,,,, 'CROSS',,
html-keyboard-response,743,1275705,301.0250000008382,"CHAPEL<img id = ""stim"" ><div class = red_square id = ""topsquare"" ></div><img id = ""stim"" ><div class = red_square  id = ""bottomsquare"" ></div>",32,word_square,response,1,Space,true,,,
html-keyboard-response,744,1277207,null,"CHAPEL",null,word,,,,, 'CHAPEL',,
html-keyboard-response,745,1277709,null,"SALESMAN<img id = ""stim"" ><div class = red_square id = ""topsquare"" ></div><img id = ""stim"" ><div class = red_square  id = ""bottomsquare"" ></div>",null,word_square,response,1,Space,false,,,
html-keyboard-response,746,1279211,null,"SALESMAN",null,word,,,,, 'SALESMAN',,
html-keyboard-response,747,1279713,null,"ATOM<img id = ""stim"" ><div class = green_square id = ""topsquare"" ></div><img id = ""stim"" ><div class = green_square  id = ""bottomsquare"" ></div>",null,word_square,response,0,none,true,,,
html-keyboard-response,748,1281216,null,"ATOM",null,word,,,,, 'ATOM',,
html-keyboard-response,749,1281494,275.3000000009779,"ROBIN<img id = ""stim"" ><div class = red_square id = ""topsquare"" ></div><img id = ""stim"" ><div class = red_square  id = ""bottomsquare"" ></div>",32,word_square,response,1,Space,true,,,
html-keyboard-response,750,1282996,null,"ROBIN",null,word,,,,, 'ROBIN',,
html-keyboard-response,751,1283499,null,"CORAL<img id = ""stim"" ><div class = green_square id = ""topsquare"" ></div><img id = ""stim"" ><div class = green_square  id = ""bottomsquare"" ></div>",null,word_square,response,0,none,true,,,
html-keyboard-response,752,1285001,null,"CORAL",null,word,,,,, 'CORAL',,
html-keyboard-response,753,1285320,316.2150000007823,"WAX<img id = ""stim"" ><div class = red_square id = ""topsquare"" ></div><img id = ""stim"" ><div class = red_square  id = ""bottomsquare"" ></div>",32,word_square,response,1,Space,true,,,
html-keyboard-response,754,1286822,null,"WAX",null,word,,,,, 'WAX',,
html-keyboard-response,755,1287130,305.714999998454,"WALNUT<img id = ""stim"" ><div class = red_square id = ""topsquare"" ></div><img id = ""stim"" ><div class = red_square  id = ""bottomsquare"" ></div>",32,word_square,response,1,Space,true,,,
html-keyboard-response,756,1288633,null,"WALNUT",null,word,,,,, 'WALNUT',,
html-keyboard-response,757,1289135,null,"DAUGHTER<img id = ""stim"" ><div class = green_square id = ""topsquare"" ></div><img id = ""stim"" ><div class = green_square  id = ""bottomsquare"" ></div>",null,word_square,response,0,none,true,,,
html-keyboard-response,758,1290637,null,"DAUGHTER",null,word,,,,, 'DAUGHTER',,
html-keyboard-response,759,1290927,287.32499999925494,"APRON<img id = ""stim"" ><div class = red_square id = ""topsquare"" ></div><img id = ""stim"" ><div class = red_square  id = ""bottomsquare"" ></div>",32,word_square,response,1,Space,true,,,
html-keyboard-response,760,1292429,null,"APRON",null,word,,,,, 'APRON',,
html-keyboard-response,761,1292744,312.86000000010245,"PLAQUE<img id = ""stim"" ><div class = red_square id = ""topsquare"" ></div><img id = ""stim"" ><div class = red_square  id = ""bottomsquare"" ></div>",32,word_square,response,1,Space,true,,,
html-keyboard-response,762,1294247,null,"PLAQUE",null,word,,,,, 'PLAQUE',,
html-keyboard-response,763,1294749,null,"TOASTER<img id = ""stim"" ><div class = green_square id = ""topsquare"" ></div><img id = ""stim"" ><div class = green_square  id = ""bottomsquare"" ></div>",null,word_square,response,0,none,true,,,
html-keyboard-response,764,1296252,null,"TOASTER",null,word,,,,, 'TOASTER',,
html-keyboard-response,765,1296755,null,"KITCHEN<img id = ""stim"" ><div class = green_square id = ""topsquare"" ></div><img id = ""stim"" ><div class = green_square  id = ""bottomsquare"" ></div>",null,word_square,response,0,none,true,,,
html-keyboard-response,766,1298257,null,"KITCHEN",null,word,,,,, 'KITCHEN',,
call-function,767,1298258,,"",,,,,,,,,
html-keyboard-response,768,1298360,null,"",null,,,,,,,,
math-period,769,1300922,4650.709999999963,"",,,,,,,,,5
html-keyboard-response,770,1301024,null,"",null,,,,,,,,
math-period,771,1302544,2593.899999999674,"",,,,,,,,,6
html-keyboard-response,772,1302646,null,"",null,,,,,,,,
math-period,773,1304178,2584.6499999987427,"",,,,,,,,,5
html-keyboard-response,774,1304281,null,"",null,,,,,,,,
math-period,775,1305779,2495.924999999348,"",,,,,,,,,6
html-keyboard-response,776,1305882,null,"",null,,,,,,,,
math-period,777,1307654,3108.2050000003073,"",,,,,,,,,2
html-keyboard-response,778,1307756,null,"",null,,,,,,,,
math-period,779,1309326,2678.19000000041,"",,,,,,,,,6
html-keyboard-response,780,1309429,null,"",null,,,,,,,,
math-period,781,1311053,2852.0449999996927,"",,,,,,,,,4
html-keyboard-response,782,1311156,null,"",null,,,,,,,,
math-period,783,1312470,2265.954999999143,"",,,,,,,,,4
html-keyboard-response,784,1312572,null,"",null,,,,,,,,
math-period,785,1314742,3893.0049999996554,"",,,,,,,,,1
html-keyboard-response,786,1314845,null,"",null,,,,,,,,
math-period,787,1317075,3991.759999999078,"",,,,,,,,,1
html-keyboard-response,788,1317178,null,"",null,,,,,,,,
math-period,789,1322259,4969.899999999907,"",,,,,,,,,3
html-keyboard-response,790,1323262,null,"Recall Period!",null,,,,,,,,
call-function,791,1323263,,"",,,,,,,,,
html-keyboard-response,792,1323365,null,"",null,,,,,,,,
recall-period,793,1331530,35761.18999999785,"",,,,,,,,,asia
html-keyboard-response,794,1331633,null,"",null,,,,,,,,
recall-period,795,1332647,3490.7800000021234,"",,,,,,,,,cross
html-keyboard-response,796,1332750,null,"",null,,,,,,,,
recall-period,797,1334120,4046.370000003837,"",,,,,,,,,chapel
html-keyboard-response,798,1334223,null,"",null,,,,,,,,
recall-period,799,1338361,16678.380000001052,"",,,,,,,,,wax
html-keyboard-response,800,1338463,null,"",null,,,,,,,,
recall-period,801,1340232,5434.025000007357,"",,,,,,,,,walnut
html-keyboard-response,802,1340334,null,"",null,,,,,,,,
recall-period,803,1350695,135112.35499999044,"",,,,,,,,,toaster
html-keyboard-response,804,1350798,null,"",null,,,,,,,,
recall-period,805,1352418,6776.459999999264,"",,,,,,,,,kitchen
html-keyboard-response,806,1352520,null,"",null,,,,,,,,
recall-period,807,1398266,null,"",,,,,,,,,
html-keyboard-response,808,1398769,null,"Time's Up!",null,,,,,,,,
html-keyboard-response,809,1405100,6328.9199999999255,"<p> Good job! You responded correctly to 94% of the red squares.</p>
                  <p>Be sure to keep your accuracy above 80%</p>
                  <p>Press any key to continue the experiment. Thank you!</p>",32,,,,,,,,
html-keyboard-response,810,1406003,901.0449999987613,"<div style=""font-size:48px;"">Press any key to begin list 9 of 24 </div>",32,,,,,,,,
html-keyboard-response,811,1408506,null,"<div style=""font-size:60px;"">+</div>",null,,,,,,,,
html-keyboard-response,812,1409009,null,"COWBOY<img id = ""stim"" ><div class = green_square id = ""topsquare"" ></div><img id = ""stim"" ><div class = green_square  id = ""bottomsquare"" ></div>",null,word_square,response,0,none,true,,,
html-keyboard-response,813,1410511,null,"COWBOY",null,word,,,,, 'COWBOY',,
html-keyboard-response,814,1411014,null,"SEASHORE<img id = ""stim"" ><div class = green_square id = ""topsquare"" ></div><img id = ""stim"" ><div class = green_square  id = ""bottomsquare"" ></div>",null,word_square,response,0,none,true,,,
html-keyboard-response,815,1412516,null,"SEASHORE",null,word,,,,, 'SEASHORE',,
html-keyboard-response,816,1412864,345.179999998305,"CANDY<img id = ""stim"" ><div class = red_square id = ""topsquare"" ></div><img id = ""stim"" ><div class = red_square  id = ""bottomsquare"" ></div>",32,word_square,response,1,Space,true,,,
html-keyboard-response,817,1414366,null,"CANDY",null,word,,,,, 'CANDY',,
html-keyboard-response,818,1414869,null,"STUDENT<img id = ""stim"" ><div class = green_square id = ""topsquare"" ></div><img id = ""stim"" ><div class = green_square  id = ""bottomsquare"" ></div>",null,word_square,response,0,none,true,,,
html-keyboard-response,819,1416372,null,"STUDENT",null,word,,,,, 'STUDENT',,
html-keyboard-response,820,1416874,null,"GERM<img id = ""stim"" ><div class = green_square id = ""topsquare"" ></div><img id = ""stim"" ><div class = green_square  id = ""bottomsquare"" ></div>",null,word_square,response,0,none,true,,,
html-keyboard-response,821,1418377,null,"GERM",null,word,,,,, 'GERM',,
html-keyboard-response,822,1418706,327.0050000010524,"SHOVEL<img id = ""stim"" ><div class = red_square id = ""topsquare"" ></div><img id = ""stim"" ><div class = red_square  id = ""bottomsquare"" ></div>",32,word_square,response,1,Space,true,,,
html-keyboard-response,823,1420208,null,"SHOVEL",null,word,,,,, 'SHOVEL',,
html-keyboard-response,824,1420631,421.01499999989755,"GIRAFFE<img id = ""stim"" ><div class = red_square id = ""topsquare"" ></div><img id = ""stim"" ><div class = red_square  id = ""bottomsquare"" ></div>",32,word_square,response,1,Space,true,,,
html-keyboard-response,825,1422134,null,"GIRAFFE",null,word,,,,, 'GIRAFFE',,
html-keyboard-response,826,1422486,349.2000000006519,"BAKER<img id = ""stim"" ><div class = red_square id = ""topsquare"" ></div><img id = ""stim"" ><div class = red_square  id = ""bottomsquare"" ></div>",32,word_square,response,1,Space,true,,,
html-keyboard-response,827,1423988,null,"BAKER",null,word,,,,, 'BAKER',,
html-keyboard-response,828,1424490,null,"SKILLET<img id = ""stim"" ><div class = green_square id = ""topsquare"" ></div><img id = ""stim"" ><div class = green_square  id = ""bottomsquare"" ></div>",null,word_square,response,0,none,true,,,
html-keyboard-response,829,1425992,null,"SKILLET",null,word,,,,, 'SKILLET',,
html-keyboard-response,830,1426495,null,"YOLK<img id = ""stim"" ><div class = green_square id = ""topsquare"" ></div><img id = ""stim"" ><div class = green_square  id = ""bottomsquare"" ></div>",null,word_square,response,0,none,true,,,
html-keyboard-response,831,1427997,null,"YOLK",null,word,,,,, 'YOLK',,
html-keyboard-response,832,1428407,407.7799999995623,"MARSH<img id = ""stim"" ><div class = red_square id = ""topsquare"" ></div><img id = ""stim"" ><div class = red_square  id = ""bottomsquare"" ></div>",32,word_square,response,1,Space,true,,,
html-keyboard-response,833,1429910,null,"MARSH",null,word,,,,, 'MARSH',,
html-keyboard-response,834,1430412,null,"VILLAGE<img id = ""stim"" ><div class = green_square id = ""topsquare"" ></div><img id = ""stim"" ><div class = green_square  id = ""bottomsquare"" ></div>",null,word_square,response,0,none,true,,,
html-keyboard-response,835,1431915,null,"VILLAGE",null,word,,,,, 'VILLAGE',,
html-keyboard-response,836,1432238,321.24000000115484,"WRENCH<img id = ""stim"" ><div class = red_square id = ""topsquare"" ></div><img id = ""stim"" ><div class = red_square  id = ""bottomsquare"" ></div>",32,word_square,response,1,Space,true,,,
html-keyboard-response,837,1433741,null,"WRENCH",null,word,,,,, 'WRENCH',,
html-keyboard-response,838,1434243,null,"BOX<img id = ""stim"" ><div class = green_square id = ""topsquare"" ></div><img id = ""stim"" ><div class = green_square  id = ""bottomsquare"" ></div>",null,word_square,response,0,none,true,,,
html-keyboard-response,839,1435746,null,"BOX",null,word,,,,, 'BOX',,
html-keyboard-response,840,1436045,296.5699999986682,"STAMP<img id = ""stim"" ><div class = red_square id = ""topsquare"" ></div><img id = ""stim"" ><div class = red_square  id = ""bottomsquare"" ></div>",32,word_square,response,1,Space,true,,,
html-keyboard-response,841,1437547,null,"STAMP",null,word,,,,, 'STAMP',,
html-keyboard-response,842,1438033,483.0349999992177,"REPTILE<img id = ""stim"" ><div class = red_square id = ""topsquare"" ></div><img id = ""stim"" ><div class = red_square  id = ""bottomsquare"" ></div>",32,word_square,response,1,Space,true,,,
html-keyboard-response,843,1439535,null,"REPTILE",null,word,,,,, 'REPTILE',,
html-keyboard-response,844,1440037,null,"WAIST<img id = ""stim"" ><div class = green_square id = ""topsquare"" ></div><img id = ""stim"" ><div class = green_square  id = ""bottomsquare"" ></div>",null,word_square,response,0,none,true,,,
html-keyboard-response,845,1441540,null,"WAIST",null,word,,,,, 'WAIST',,
html-keyboard-response,846,1441987,444.56999999959953,"MAMMAL<img id = ""stim"" ><div class = red_square id = ""topsquare"" ></div><img id = ""stim"" ><div class = red_square  id = ""bottomsquare"" ></div>",32,word_square,response,1,Space,true,,,
html-keyboard-response,847,1443489,null,"MAMMAL",null,word,,,,, 'MAMMAL',,
call-function,848,1443490,,"",,,,,,,,,
html-keyboard-response,849,1443592,null,"",null,,,,,,,,
math-period,850,1446173,4653.304999998072,"",,,,,,,,,1
html-keyboard-response,851,1446276,null,"",null,,,,,,,,
math-period,852,1452276,11707.435000002151,"",,,,,,,,,6
html-keyboard-response,853,1452379,null,"",null,,,,,,,,
math-period,854,1454726,4224.80999999959,"",,,,,,,,,3
html-keyboard-response,855,1454829,null,"",null,,,,,,,,
math-period,856,1457522,4965.22499999986,"",,,,,,,,,2
html-keyboard-response,857,1457624,null,"",null,,,,,,,,
math-period,858,1459307,2986.140000000829,"",,,,,,,,,5
html-keyboard-response,859,1459409,null,"",null,,,,,,,,
math-period,860,1460971,2752.0650000008754,"",,,,,,,,,3
html-keyboard-response,861,1461073,null,"",null,,,,,,,,
math-period,862,1466936,22832.80500000133,"",,,,,,,,,3
html-keyboard-response,863,1467039,null,"",null,,,,,,,,
math-period,864,1467492,null,"",,,,,,,,,
html-keyboard-response,865,1468494,null,"Recall Period!",null,,,,,,,,
call-function,866,1468496,,"",,,,,,,,,
html-keyboard-response,867,1468597,null,"",null,,,,,,,,
recall-period,868,1471510,14450.834999996703,"",,,,,,,,,wrench
html-keyboard-response,869,1471613,null,"",null,,,,,,,,
recall-period,870,1478333,25500.23499999987,"",,,,,,,,,chef
html-keyboard-response,871,1478436,null,"",null,,,,,,,,
recall-period,872,1479662,5712.124999994179,"",,,,,,,,,skillet
html-keyboard-response,873,1479764,null,"",null,,,,,,,,
recall-period,874,1480974,3803.935000000056,"",,,,,,,,,yolk
html-keyboard-response,875,1481077,null,"",null,,,,,,,,
recall-period,876,1482342,3454.7900000014342,"",,,,,,,,,marsh
html-keyboard-response,877,1482445,null,"",null,,,,,,,,
recall-period,878,1485273,14518.084999999497,"",,,,,,,,,cowboy
html-keyboard-response,879,1485375,null,"",null,,,,,,,,
recall-period,880,1486937,6750.669999992708,"",,,,,,,,,seashore
html-keyboard-response,881,1487040,null,"",null,,,,,,,,
recall-period,882,1495929,39502.44999999576,"",,,,,,,,,germ
html-keyboard-response,883,1496032,null,"",null,,,,,,,,
recall-period,884,1497294,3818.9650000017136,"",,,,,,,,,shovel
html-keyboard-response,885,1497397,null,"",null,,,,,,,,
recall-period,886,1498704,3037.770000001183,"",,,,,,,,,waist
html-keyboard-response,887,1498807,null,"",null,,,,,,,,
recall-period,888,1509985,81806.03000000422,"",,,,,,,,,student
html-keyboard-response,889,1510088,null,"",null,,,,,,,,
recall-period,890,1510876,2200.320000001462,"",,,,,,,,,candy
html-keyboard-response,891,1510978,null,"",null,,,,,,,,
recall-period,892,1543497,null,"",,,,,,,,,
html-keyboard-response,893,1544000,null,"Time's Up!",null,,,,,,,,
html-keyboard-response,894,1544625,622.3650000011548,"<p> Good job! You responded correctly to 94% of the red squares.</p>
                  <p>Be sure to keep your accuracy above 80%</p>
                  <p>Press any key to continue the experiment. Thank you!</p>",32,,,,,,,,
html-keyboard-response,895,1545309,682.0100000002421,"<div style=""font-size:48px;"">Press any key to begin list 10 of 24 </div>",32,,,,,,,,
html-keyboard-response,896,1547812,null,"<div style=""font-size:60px;"">+</div>",null,,,,,,,,
html-keyboard-response,897,1548315,null,"KNAPSACK<img id = ""stim"" ><div class = green_square id = ""topsquare"" ></div><img id = ""stim"" ><div class = green_square  id = ""bottomsquare"" ></div>",null,word_square,response,0,none,true,,,
html-keyboard-response,898,1549817,null,"KNAPSACK",null,word,,,,, 'KNAPSACK',,
html-keyboard-response,899,1550320,null,"SEAFOOD<img id = ""stim"" ><div class = green_square id = ""topsquare"" ></div><img id = ""stim"" ><div class = green_square  id = ""bottomsquare"" ></div>",null,word_square,response,0,none,true,,,
html-keyboard-response,900,1551823,null,"SEAFOOD",null,word,,,,, 'SEAFOOD',,
html-keyboard-response,901,1552144,318.7200000011362,"GUARD<img id = ""stim"" ><div class = red_square id = ""topsquare"" ></div><img id = ""stim"" ><div class = red_square  id = ""bottomsquare"" ></div>",32,word_square,response,1,Space,true,,,
html-keyboard-response,902,1553647,null,"GUARD",null,word,,,,, 'GUARD',,
html-keyboard-response,903,1554149,null,"SPACE<img id = ""stim"" ><div class = green_square id = ""topsquare"" ></div><img id = ""stim"" ><div class = green_square  id = ""bottomsquare"" ></div>",null,word_square,response,0,none,true,,,
html-keyboard-response,904,1555652,null,"SPACE",null,word,,,,, 'SPACE',,
html-keyboard-response,905,1556154,null,"CLOUD<img id = ""stim"" ><div class = green_square id = ""topsquare"" ></div><img id = ""stim"" ><div class = green_square  id = ""bottomsquare"" ></div>",null,word_square,response,0,none,true,,,
html-keyboard-response,906,1557657,null,"CLOUD",null,word,,,,, 'CLOUD',,
html-keyboard-response,907,1557958,298.7649999996647,"POLICE<img id = ""stim"" ><div class = red_square id = ""topsquare"" ></div><img id = ""stim"" ><div class = red_square  id = ""bottomsquare"" ></div>",32,word_square,response,1,Space,true,,,
html-keyboard-response,908,1559460,null,"POLICE",null,word,,,,, 'POLICE',,
html-keyboard-response,909,1559773,310.650000001071,"MONSTER<img id = ""stim"" ><div class = red_square id = ""topsquare"" ></div><img id = ""stim"" ><div class = red_square  id = ""bottomsquare"" ></div>",32,word_square,response,1,Space,true,,,
html-keyboard-response,910,1561276,null,"MONSTER",null,word,,,,, 'MONSTER',,
html-keyboard-response,911,1561626,347.80999999912456,"SALT<img id = ""stim"" ><div class = red_square id = ""topsquare"" ></div><img id = ""stim"" ><div class = red_square  id = ""bottomsquare"" ></div>",32,word_square,response,1,Space,true,,,
html-keyboard-response,912,1563128,null,"SALT",null,word,,,,, 'SALT',,
html-keyboard-response,913,1563630,null,"GARLIC<img id = ""stim"" ><div class = green_square id = ""topsquare"" ></div><img id = ""stim"" ><div class = green_square  id = ""bottomsquare"" ></div>",null,word_square,response,0,none,true,,,
html-keyboard-response,914,1565133,null,"GARLIC",null,word,,,,, 'GARLIC',,
html-keyboard-response,915,1565638,null,"ZEBRA<img id = ""stim"" ><div class = green_square id = ""topsquare"" ></div><img id = ""stim"" ><div class = green_square  id = ""bottomsquare"" ></div>",null,word_square,response,0,none,true,,,
html-keyboard-response,916,1567141,null,"ZEBRA",null,word,,,,, 'ZEBRA',,
html-keyboard-response,917,1567484,340.739999999525,"LAMP<img id = ""stim"" ><div class = red_square id = ""topsquare"" ></div><img id = ""stim"" ><div class = red_square  id = ""bottomsquare"" ></div>",32,word_square,response,1,Space,true,,,
html-keyboard-response,918,1568987,null,"LAMP",null,word,,,,, 'LAMP',,
html-keyboard-response,919,1569489,null,"FLASHLIGHT<img id = ""stim"" ><div class = green_square id = ""topsquare"" ></div><img id = ""stim"" ><div class = green_square  id = ""bottomsquare"" ></div>",null,word_square,response,0,none,true,,,
html-keyboard-response,920,1570991,null,"FLASHLIGHT",null,word,,,,, 'FLASHLIGHT',,
html-keyboard-response,921,1571426,432.15000000060536,"CAPE<img id = ""stim"" ><div class = red_square id = ""topsquare"" ></div><img id = ""stim"" ><div class = red_square  id = ""bottomsquare"" ></div>",32,word_square,response,1,Space,true,,,
html-keyboard-response,922,1572928,null,"CAPE",null,word,,,,, 'CAPE',,
html-keyboard-response,923,1573432,null,"RAILROAD<img id = ""stim"" ><div class = green_square id = ""topsquare"" ></div><img id = ""stim"" ><div class = green_square  id = ""bottomsquare"" ></div>",null,word_square,response,0,none,true,,,
