trial_type,trial_index,time_elapsed,rt,stimulus,key_press,test_part,task,targ_cond,correctKeyCode,correct,word,value,response
pavlovia,0,1545,,"",,,,,,,,,
external-html,1,269582,267773.4600000003,"",,,,,,,,,
html-keyboard-response,2,271350,1761.2799999987474,"Welcome to the experiment. Press any key to begin.",32,,,,,,,,
html-keyboard-response,3,281675,10323.039999999339,"<p>You will see a list of words and colored squares in the following task.<p><p>Press the spacebar whenever you see a red square.<p><p>Do not press a key if the square is green<p><p>Press the spacebar to continue.</p>",32,,,,,,,,
html-keyboard-response,4,298318,16140.629999998084,"<p>Please try to remember as many of the words as you can, and try to think about the meaning of each word as it appears.<p><p>After the detection and encoding task you will be asked to solve some math problems for 24 seconds.<p> Please solve as many problems as you can in the time given. <p>",32,,,,,,,,
html-keyboard-response,5,339078,40253.7599999996,"After solving the math problems, you will be asked to type in as many words <p>from the previous list as you can remember for 75 seconds.<p> If you finish recalling before the 75 seconds are up,<p> just sit tight and try to think of any more words you could have missed. <p><p>We will begin with a brief practice session<p>Press the spacebar to begin the practice.</p>",32,,,,,,,,
html-keyboard-response,6,341584,null,"<div style=""font-size:60px;"">+</div>",null,,,,,,,,
html-keyboard-response,7,342087,null,"HAPPY<img id = ""stim"" ><div class = green_square id = ""topsquare"" ></div><img id = ""stim"" ><div class = green_square  id = ""bottomsquare"" ></div>",null,word_square,prac_response,0,none,true,,,
html-keyboard-response,8,343590,null,"HAPPY",null,word,,,,,HAPPY,,
html-keyboard-response,9,344097,null,"COLD<img id = ""stim"" ><div class = red_square id = ""topsquare"" ></div><img id = ""stim"" ><div class = red_square  id = ""bottomsquare"" ></div>",null,word_square,prac_response,1,Space,false,,,
html-keyboard-response,10,345600,null,"COLD",null,word,,,,,COLD,,
html-keyboard-response,11,346107,null,"HEAVY<img id = ""stim"" ><div class = red_square id = ""topsquare"" ></div><img id = ""stim"" ><div class = red_square  id = ""bottomsquare"" ></div>",null,word_square,prac_response,1,Space,false,,,
html-keyboard-response,12,347612,null,"HEAVY",null,word,,,,,HEAVY,,
html-keyboard-response,13,348119,null,"FUNNY<img id = ""stim"" ><div class = green_square id = ""topsquare"" ></div><img id = ""stim"" ><div class = green_square  id = ""bottomsquare"" ></div>",null,word_square,prac_response,0,none,true,,,
html-keyboard-response,14,349624,null,"FUNNY",null,word,,,,,FUNNY,,
html-keyboard-response,15,350129,null,"SCARY<img id = ""stim"" ><div class = red_square id = ""topsquare"" ></div><img id = ""stim"" ><div class = red_square  id = ""bottomsquare"" ></div>",null,word_square,prac_response,1,Space,false,,,
html-keyboard-response,16,351634,null,"SCARY",null,word,,,,,SCARY,,
html-keyboard-response,17,352142,null,"PEACEFUL<img id = ""stim"" ><div class = red_square id = ""topsquare"" ></div><img id = ""stim"" ><div class = red_square  id = ""bottomsquare"" ></div>",null,word_square,prac_response,1,Space,false,,,
html-keyboard-response,18,353647,null,"PEACEFUL",null,word,,,,,PEACEFUL,,
html-keyboard-response,19,354152,null,"LITTLE<img id = ""stim"" ><div class = green_square id = ""topsquare"" ></div><img id = ""stim"" ><div class = green_square  id = ""bottomsquare"" ></div>",null,word_square,prac_response,0,none,true,,,
html-keyboard-response,20,355659,null,"LITTLE",null,word,,,,,LITTLE,,
html-keyboard-response,21,356166,null,"TIRED<img id = ""stim"" ><div class = green_square id = ""topsquare"" ></div><img id = ""stim"" ><div class = green_square  id = ""bottomsquare"" ></div>",null,word_square,prac_response,0,none,true,,,
html-keyboard-response,22,357669,null,"TIRED",null,word,,,,,TIRED,,
html-keyboard-response,23,358177,null,"ENTERTAINING<img id = ""stim"" ><div class = green_square id = ""topsquare"" ></div><img id = ""stim"" ><div class = green_square  id = ""bottomsquare"" ></div>",null,word_square,prac_response,0,none,true,,,
html-keyboard-response,24,359681,null,"ENTERTAINING",null,word,,,,,ENTERTAINING,,
html-keyboard-response,25,360185,null,"GRATEFUL<img id = ""stim"" ><div class = red_square id = ""topsquare"" ></div><img id = ""stim"" ><div class = red_square  id = ""bottomsquare"" ></div>",null,word_square,prac_response,1,Space,false,,,
html-keyboard-response,26,361691,null,"GRATEFUL",null,word,,,,,GRATEFUL,,
html-keyboard-response,27,362195,332.15999999811174,"LOUD<img id = ""stim"" ><div class = green_square id = ""topsquare"" ></div><img id = ""stim"" ><div class = green_square  id = ""bottomsquare"" ></div>",32,word_square,prac_response,0,none,true,,,
html-keyboard-response,28,363700,null,"LOUD",null,word,,,,,LOUD,,
html-keyboard-response,29,364202,null,"SMART<img id = ""stim"" ><div class = red_square id = ""topsquare"" ></div><img id = ""stim"" ><div class = red_square  id = ""bottomsquare"" ></div>",null,word_square,prac_response,1,Space,false,,,
html-keyboard-response,30,365709,null,"SMART",null,word,,,,,SMART,,
html-keyboard-response,31,366212,null,"SMOOTH<img id = ""stim"" ><div class = red_square id = ""topsquare"" ></div><img id = ""stim"" ><div class = red_square  id = ""bottomsquare"" ></div>",null,word_square,prac_response,1,Space,false,,,
html-keyboard-response,32,367719,null,"SMOOTH",null,word,,,,,SMOOTH,,
html-keyboard-response,33,368224,417.83000000217,"DISHONEST<img id = ""stim"" ><div class = green_square id = ""topsquare"" ></div><img id = ""stim"" ><div class = green_square  id = ""bottomsquare"" ></div>",32,word_square,prac_response,0,none,true,,,
html-keyboard-response,34,369726,null,"DISHONEST",null,word,,,,,DISHONEST,,
html-keyboard-response,35,370230,null,"WEALTHY<img id = ""stim"" ><div class = red_square id = ""topsquare"" ></div><img id = ""stim"" ><div class = red_square  id = ""bottomsquare"" ></div>",null,word_square,prac_response,1,Space,false,,,
html-keyboard-response,36,371735,null,"WEALTHY",null,word,,,,,WEALTHY,,
html-keyboard-response,37,372239,371.7550000001211,"BEAUTIFUL<img id = ""stim"" ><div class = green_square id = ""topsquare"" ></div><img id = ""stim"" ><div class = green_square  id = ""bottomsquare"" ></div>",32,word_square,prac_response,0,none,true,,,
html-keyboard-response,38,373741,null,"BEAUTIFUL",null,word,,,,,BEAUTIFUL,,
html-keyboard-response,39,374248,null,"DREARY<img id = ""stim"" ><div class = green_square id = ""topsquare"" ></div><img id = ""stim"" ><div class = green_square  id = ""bottomsquare"" ></div>",null,word_square,prac_response,0,none,true,,,
html-keyboard-response,40,375751,null,"DREARY",null,word,,,,,DREARY,,
html-keyboard-response,41,376258,null,"PLAYFUL<img id = ""stim"" ><div class = red_square id = ""topsquare"" ></div><img id = ""stim"" ><div class = red_square  id = ""bottomsquare"" ></div>",null,word_square,prac_response,1,Space,false,,,
html-keyboard-response,42,377763,null,"PLAYFUL",null,word,,,,,PLAYFUL,,
html-keyboard-response,43,386087,8320.21999999776,"<p> Uh oh. You responded correctly on 50% of the red squares.</p>
                  <p>We need you keep your accuracy above 80%</p>
                  <p>We're going to try once more to make sure you understand the task. press any key to continue.</p>",32,,,,,,,,
html-keyboard-response,44,400805,14717.160000000149,"<p>You will see a list of words and colored squares in the following task.<p><p>Press the spacebar whenever you see a red square.<p><p>Do not press a key if the square is green<p><p>Press the spacebar to continue.</p>",32,,,,,,,,
html-keyboard-response,45,403317,null,"<div style=""font-size:60px;"">+</div>",null,,,,,,,,
html-keyboard-response,46,403825,null,"HAPPY<img id = ""stim"" ><div class = green_square id = ""topsquare"" ></div><img id = ""stim"" ><div class = green_square  id = ""bottomsquare"" ></div>",null,word_square,response,0,none,true,,,
html-keyboard-response,47,405327,null,"HAPPY",null,word,,,,,HAPPY,,
html-keyboard-response,48,405830,null,"COLD<img id = ""stim"" ><div class = red_square id = ""topsquare"" ></div><img id = ""stim"" ><div class = red_square  id = ""bottomsquare"" ></div>",null,word_square,response,1,Space,false,,,
html-keyboard-response,49,407333,null,"COLD",null,word,,,,,COLD,,
html-keyboard-response,50,407840,null,"HEAVY<img id = ""stim"" ><div class = red_square id = ""topsquare"" ></div><img id = ""stim"" ><div class = red_square  id = ""bottomsquare"" ></div>",null,word_square,response,1,Space,false,,,
html-keyboard-response,51,409343,null,"HEAVY",null,word,,,,,HEAVY,,
html-keyboard-response,52,409850,null,"FUNNY<img id = ""stim"" ><div class = green_square id = ""topsquare"" ></div><img id = ""stim"" ><div class = green_square  id = ""bottomsquare"" ></div>",null,word_square,response,0,none,true,,,
html-keyboard-response,53,411352,null,"FUNNY",null,word,,,,,FUNNY,,
html-keyboard-response,54,411663,309.1050000002724,"SCARY<img id = ""stim"" ><div class = red_square id = ""topsquare"" ></div><img id = ""stim"" ><div class = red_square  id = ""bottomsquare"" ></div>",32,word_square,response,1,Space,true,,,
html-keyboard-response,55,413165,null,"SCARY",null,word,,,,,SCARY,,
html-keyboard-response,56,413671,null,"PEACEFUL<img id = ""stim"" ><div class = red_square id = ""topsquare"" ></div><img id = ""stim"" ><div class = red_square  id = ""bottomsquare"" ></div>",null,word_square,response,1,Space,false,,,
html-keyboard-response,57,415178,null,"PEACEFUL",null,word,,,,,PEACEFUL,,
html-keyboard-response,58,415682,null,"LITTLE<img id = ""stim"" ><div class = green_square id = ""topsquare"" ></div><img id = ""stim"" ><div class = green_square  id = ""bottomsquare"" ></div>",null,word_square,response,0,none,true,,,
html-keyboard-response,59,417189,null,"LITTLE",null,word,,,,,LITTLE,,
html-keyboard-response,60,417696,null,"TIRED<img id = ""stim"" ><div class = green_square id = ""topsquare"" ></div><img id = ""stim"" ><div class = green_square  id = ""bottomsquare"" ></div>",null,word_square,response,0,none,true,,,
html-keyboard-response,61,419203,null,"TIRED",null,word,,,,,TIRED,,
html-keyboard-response,62,419711,null,"ENTERTAINING<img id = ""stim"" ><div class = green_square id = ""topsquare"" ></div><img id = ""stim"" ><div class = green_square  id = ""bottomsquare"" ></div>",null,word_square,response,0,none,true,,,
html-keyboard-response,63,421218,null,"ENTERTAINING",null,word,,,,,ENTERTAINING,,
html-keyboard-response,64,421608,387.4699999978766,"GRATEFUL<img id = ""stim"" ><div class = red_square id = ""topsquare"" ></div><img id = ""stim"" ><div class = red_square  id = ""bottomsquare"" ></div>",32,word_square,response,1,Space,true,,,
html-keyboard-response,65,423115,null,"GRATEFUL",null,word,,,,,GRATEFUL,,
html-keyboard-response,66,423622,null,"LOUD<img id = ""stim"" ><div class = green_square id = ""topsquare"" ></div><img id = ""stim"" ><div class = green_square  id = ""bottomsquare"" ></div>",null,word_square,response,0,none,true,,,
html-keyboard-response,67,425129,null,"LOUD",null,word,,,,,LOUD,,
html-keyboard-response,68,425539,409.18999999848893,"SMART<img id = ""stim"" ><div class = red_square id = ""topsquare"" ></div><img id = ""stim"" ><div class = red_square  id = ""bottomsquare"" ></div>",32,word_square,response,1,Space,true,,,
html-keyboard-response,69,427046,null,"SMART",null,word,,,,,SMART,,
html-keyboard-response,70,427535,486.28499999904307,"SMOOTH<img id = ""stim"" ><div class = red_square id = ""topsquare"" ></div><img id = ""stim"" ><div class = red_square  id = ""bottomsquare"" ></div>",32,word_square,response,1,Space,true,,,
html-keyboard-response,71,429042,null,"SMOOTH",null,word,,,,,SMOOTH,,
html-keyboard-response,72,429549,null,"DISHONEST<img id = ""stim"" ><div class = green_square id = ""topsquare"" ></div><img id = ""stim"" ><div class = green_square  id = ""bottomsquare"" ></div>",null,word_square,response,0,none,true,,,
html-keyboard-response,73,431057,null,"DISHONEST",null,word,,,,,DISHONEST,,
html-keyboard-response,74,431460,401.7299999977695,"WEALTHY<img id = ""stim"" ><div class = red_square id = ""topsquare"" ></div><img id = ""stim"" ><div class = red_square  id = ""bottomsquare"" ></div>",32,word_square,response,1,Space,true,,,
html-keyboard-response,75,432967,null,"WEALTHY",null,word,,,,,WEALTHY,,
html-keyboard-response,76,433475,null,"BEAUTIFUL<img id = ""stim"" ><div class = green_square id = ""topsquare"" ></div><img id = ""stim"" ><div class = green_square  id = ""bottomsquare"" ></div>",null,word_square,response,0,none,true,,,
html-keyboard-response,77,434982,null,"BEAUTIFUL",null,word,,,,,BEAUTIFUL,,
html-keyboard-response,78,435488,null,"DREARY<img id = ""stim"" ><div class = green_square id = ""topsquare"" ></div><img id = ""stim"" ><div class = green_square  id = ""bottomsquare"" ></div>",null,word_square,response,0,none,true,,,
html-keyboard-response,79,436995,null,"DREARY",null,word,,,,,DREARY,,
html-keyboard-response,80,437351,348.0349999991013,"PLAYFUL<img id = ""stim"" ><div class = red_square id = ""topsquare"" ></div><img id = ""stim"" ><div class = red_square  id = ""bottomsquare"" ></div>",32,word_square,response,1,Space,true,,,
html-keyboard-response,81,438860,null,"PLAYFUL",null,word,,,,,PLAYFUL,,
html-keyboard-response,82,444286,5424.490000001271,"<p> Good job! You responded correctly to 83% of the red squares.</p>
                  <p>Be sure to keep your accuracy above 80%</p>
                  <p>Press any key to begin the math and recall sections. Thank you!</p>",32,,,,,,,,
call-function,83,444287,,"",,,,,,,,,
html-keyboard-response,84,444390,null,"",null,,,,,,,,
math-period,85,446868,3699.545000003127,"",,,,,,,,,2
html-keyboard-response,86,446972,null,"",null,,,,,,,,
math-period,87,448934,3565.4249999969616,"",,,,,,,,,4
html-keyboard-response,88,449038,null,"",null,,,,,,,,
math-period,89,450759,3173.4350000005797,"",,,,,,,,,0
html-keyboard-response,90,450863,null,"",null,,,,,,,,
math-period,91,452426,2904.915000002715,"",,,,,,,,,5
html-keyboard-response,92,452530,null,"",null,,,,,,,,
math-period,93,454096,2928.270000000426,"",,,,,,,,,3
html-keyboard-response,94,454199,null,"",null,,,,,,,,
math-period,95,455026,1508.3000000014435,"",,,,,,,,,2
html-keyboard-response,96,455130,null,"",null,,,,,,,,
math-period,97,456071,1718.4500000039116,"",,,,,,,,,3
html-keyboard-response,98,456176,null,"",null,,,,,,,,
math-period,99,457320,2129.755000001751,"",,,,,,,,,2
html-keyboard-response,100,457423,null,"",null,,,,,,,,
math-period,101,458492,1938.7699999969918,"",,,,,,,,,4
html-keyboard-response,102,458595,null,"",null,,,,,,,,
math-period,103,459753,2151.2149999981048,"",,,,,,,,,2
html-keyboard-response,104,459856,null,"",null,,,,,,,,
math-period,105,461642,3422.7799999971176,"",,,,,,,,,3
html-keyboard-response,106,461745,null,"",null,,,,,,,,
math-period,107,462940,2265.109999996668,"",,,,,,,,,5
html-keyboard-response,108,463043,null,"",null,,,,,,,,
math-period,109,464548,2827.015000002575,"",,,,,,,,,1
html-keyboard-response,110,464651,null,"",null,,,,,,,,
math-period,111,465868,2272.5250000003143,"",,,,,,,,,5
html-keyboard-response,112,465971,null,"",null,,,,,,,,
math-period,113,467403,2711.0500000054017,"",,,,,,,,,2
html-keyboard-response,114,467506,null,"",null,,,,,,,,
math-period,115,468294,null,"",,,,,,,,,
html-keyboard-response,116,469298,null,"Recall Period!",null,,,,,,,,
call-function,117,469300,,"",,,,,,,,,
html-keyboard-response,118,469404,null,"",null,,,,,,,,
recall-period,119,473927,35211.525000002526,"",,,,,,,,,beautiful
html-keyboard-response,120,474030,null,"",null,,,,,,,,
recall-period,121,475865,6539.925000000978,"",,,,,,,,,dreary
html-keyboard-response,122,475969,null,"",null,,,,,,,,
recall-period,123,478928,25045.545000004466,"",,,,,,,,,entertaining
html-keyboard-response,124,479032,null,"",null,,,,,,,,
recall-period,125,482406,27564.29000000574,"",,,,,,,,,cold
html-keyboard-response,126,482510,null,"",null,,,,,,,,
recall-period,127,483617,3179.2699999971082,"",,,,,,,,,heavy
html-keyboard-response,128,483721,null,"",null,,,,,,,,
recall-period,129,487533,23055.289999985776,"",,,,,,,,,scared
html-keyboard-response,130,487635,null,"",null,,,,,,,,
recall-period,131,489933,15408.755000003614,"",,,,,,,,,dishonest
html-keyboard-response,132,490036,null,"",null,,,,,,,,
recall-period,133,495104,27490.43999999779,"",,,,,,,,,smile
html-keyboard-response,134,495207,null,"",null,,,,,,,,
recall-period,135,509514,96616.3899999957,"",,,,,,,,,little
html-keyboard-response,136,509617,null,"",null,,,,,,,,
recall-period,137,526183,95337.1199999929,"",,,,,,,,,happy
html-keyboard-response,138,526286,null,"",null,,,,,,,,
recall-period,139,527698,6496.165000011562,"",,,,,,,,,grateful
html-keyboard-response,140,527801,null,"",null,,,,,,,,
recall-period,141,532397,24555.769999999204,"",,,,,,,,,funny
html-keyboard-response,142,532499,null,"",null,,,,,,,,
recall-period,143,544307,null,"",,,,,,,,,
html-keyboard-response,144,544815,null,"Time's Up!",null,,,,,,,,
html-keyboard-response,145,554401,9584.240000000107,"<p>We will now begin the experiment!<p><p>Please try to remember all words from each list.<p><p>Press the spacebar whenever you see a red square.<p><p><p><p>Press the spacebar to begin.</p>",32,,,,,,,,
html-keyboard-response,146,557712,2806.529999998049,"<div style=""font-size:48px;"">Press any key to begin list 1 of 24 </div>",32,,,,,,,,
html-keyboard-response,147,560220,null,"<div style=""font-size:60px;"">+</div>",null,,,,,,,,
html-keyboard-response,148,560726,null,"SHELTER<img id = ""stim"" ><div class = green_square id = ""topsquare"" ></div><img id = ""stim"" ><div class = green_square  id = ""bottomsquare"" ></div>",null,word_square,response,0,none,true,,,
html-keyboard-response,149,562229,null,"SHELTER",null,word,,,,, 'SHELTER',,
html-keyboard-response,150,562736,null,"DORM<img id = ""stim"" ><div class = red_square id = ""topsquare"" ></div><img id = ""stim"" ><div class = red_square  id = ""bottomsquare"" ></div>",null,word_square,response,1,Space,false,,,
html-keyboard-response,151,564238,null,"DORM",null,word,,,,, 'DORM',,
html-keyboard-response,152,564746,null,"TURKEY<img id = ""stim"" ><div class = green_square id = ""topsquare"" ></div><img id = ""stim"" ><div class = green_square  id = ""bottomsquare"" ></div>",null,word_square,response,0,none,true,,,
html-keyboard-response,153,566248,null,"TURKEY",null,word,,,,, 'TURKEY',,
html-keyboard-response,154,566755,null,"EGYPT<img id = ""stim"" ><div class = green_square id = ""topsquare"" ></div><img id = ""stim"" ><div class = green_square  id = ""bottomsquare"" ></div>",null,word_square,response,0,none,true,,,
html-keyboard-response,155,568260,null,"EGYPT",null,word,,,,, 'EGYPT',,
html-keyboard-response,156,568686,424.9249999993481,"CROOK<img id = ""stim"" ><div class = red_square id = ""topsquare"" ></div><img id = ""stim"" ><div class = red_square  id = ""bottomsquare"" ></div>",32,word_square,response,1,Space,true,,,
html-keyboard-response,157,570193,null,"CROOK",null,word,,,,, 'CROOK',,
html-keyboard-response,158,570668,472.86499999975786,"PEOPLE<img id = ""stim"" ><div class = red_square id = ""topsquare"" ></div><img id = ""stim"" ><div class = red_square  id = ""bottomsquare"" ></div>",32,word_square,response,1,Space,true,,,
html-keyboard-response,159,572172,null,"PEOPLE",null,word,,,,, 'PEOPLE',,
html-keyboard-response,160,572675,null,"SPARROW<img id = ""stim"" ><div class = green_square id = ""topsquare"" ></div><img id = ""stim"" ><div class = green_square  id = ""bottomsquare"" ></div>",null,word_square,response,0,none,true,,,
html-keyboard-response,161,574182,null,"SPARROW",null,word,,,,, 'SPARROW',,
html-keyboard-response,162,574575,391.1350000016391,"QUARTER<img id = ""stim"" ><div class = red_square id = ""topsquare"" ></div><img id = ""stim"" ><div class = red_square  id = ""bottomsquare"" ></div>",32,word_square,response,1,Space,true,,,
html-keyboard-response,163,576082,null,"QUARTER",null,word,,,,, 'QUARTER',,
html-keyboard-response,164,576590,null,"MONEY<img id = ""stim"" ><div class = green_square id = ""topsquare"" ></div><img id = ""stim"" ><div class = green_square  id = ""bottomsquare"" ></div>",null,word_square,response,0,none,true,,,
html-keyboard-response,165,578097,null,"MONEY",null,word,,,,, 'MONEY',,
html-keyboard-response,166,578603,null,"COBRA<img id = ""stim"" ><div class = green_square id = ""topsquare"" ></div><img id = ""stim"" ><div class = green_square  id = ""bottomsquare"" ></div>",null,word_square,response,0,none,true,,,
html-keyboard-response,167,580109,null,"COBRA",null,word,,,,, 'COBRA',,
html-keyboard-response,168,580617,null,"YARD<img id = ""stim"" ><div class = red_square id = ""topsquare"" ></div><img id = ""stim"" ><div class = red_square  id = ""bottomsquare"" ></div>",null,word_square,response,1,Space,false,,,
html-keyboard-response,169,582124,null,"YARD",null,word,,,,, 'YARD',,
html-keyboard-response,170,582631,null,"VESSEL<img id = ""stim"" ><div class = green_square id = ""topsquare"" ></div><img id = ""stim"" ><div class = green_square  id = ""bottomsquare"" ></div>",null,word_square,response,0,none,true,,,
html-keyboard-response,171,584138,null,"VESSEL",null,word,,,,, 'VESSEL',,
html-keyboard-response,172,584645,null,"POISON<img id = ""stim"" ><div class = green_square id = ""topsquare"" ></div><img id = ""stim"" ><div class = green_square  id = ""bottomsquare"" ></div>",null,word_square,response,0,none,true,,,
html-keyboard-response,173,586149,null,"POISON",null,word,,,,, 'POISON',,
html-keyboard-response,174,586657,null,"TREAT<img id = ""stim"" ><div class = red_square id = ""topsquare"" ></div><img id = ""stim"" ><div class = red_square  id = ""bottomsquare"" ></div>",null,word_square,response,1,Space,false,,,
html-keyboard-response,175,588164,null,"TREAT",null,word,,,,, 'TREAT',,
html-keyboard-response,176,588671,null,"BRIEFCASE<img id = ""stim"" ><div class = red_square id = ""topsquare"" ></div><img id = ""stim"" ><div class = red_square  id = ""bottomsquare"" ></div>",null,word_square,response,1,Space,false,,,
html-keyboard-response,177,590179,null,"BRIEFCASE",null,word,,,,, 'BRIEFCASE',,
html-keyboard-response,178,590683,null,"CARTON<img id = ""stim"" ><div class = red_square id = ""topsquare"" ></div><img id = ""stim"" ><div class = red_square  id = ""bottomsquare"" ></div>",null,word_square,response,1,Space,false,,,
html-keyboard-response,179,592185,null,"CARTON",null,word,,,,, 'CARTON',,
html-keyboard-response,180,592693,null,"TART<img id = ""stim"" ><div class = green_square id = ""topsquare"" ></div><img id = ""stim"" ><div class = green_square  id = ""bottomsquare"" ></div>",null,word_square,response,0,none,true,,,
html-keyboard-response,181,594200,null,"TART",null,word,,,,, 'TART',,
html-keyboard-response,182,594682,479.794999999227,"FOSSIL<img id = ""stim"" ><div class = red_square id = ""topsquare"" ></div><img id = ""stim"" ><div class = red_square  id = ""bottomsquare"" ></div>",32,word_square,response,1,Space,true,,,
html-keyboard-response,183,596185,null,"FOSSIL",null,word,,,,, 'FOSSIL',,
call-function,184,596187,,"",,,,,,,,,
html-keyboard-response,185,596289,null,"",null,,,,,,,,
math-period,186,598434,3194.519999997341,"",,,,,,,,,3
html-keyboard-response,187,598537,null,"",null,,,,,,,,
math-period,188,599475,1762.9850000011502,"",,,,,,,,,2
html-keyboard-response,189,599579,null,"",null,,,,,,,,
math-period,190,601127,2940.994999997085,"",,,,,,,,,6
html-keyboard-response,191,601229,null,"",null,,,,,,,,
math-period,192,602381,2160.570000003674,"",,,,,,,,,5
html-keyboard-response,193,602484,null,"",null,,,,,,,,
math-period,194,603442,1794.5699999982025,"",,,,,,,,,3
html-keyboard-response,195,603545,null,"",null,,,,,,,,
math-period,196,604856,2437.9399999998277,"",,,,,,,,,5
html-keyboard-response,197,604962,null,"",null,,,,,,,,
math-period,198,606055,2038.170000003418,"",,,,,,,,,5
html-keyboard-response,199,606157,null,"",null,,,,,,,,
math-period,200,607202,1905.3649999951012,"",,,,,,,,,5
html-keyboard-response,201,607304,null,"",null,,,,,,,,
math-period,202,608235,1729.4599999984493,"",,,,,,,,,3
html-keyboard-response,203,608338,null,"",null,,,,,,,,
math-period,204,609292,1763.9600000038045,"",,,,,,,,,5
html-keyboard-response,205,609395,null,"",null,,,,,,,,
math-period,206,612420,5908.944999995641,"",,,,,,,,,1
html-keyboard-response,207,612523,null,"",null,,,,,,,,
math-period,208,613625,2075.9650000035763,"",,,,,,,,,4
html-keyboard-response,209,613727,null,"",null,,,,,,,,
math-period,210,615117,2644.644999996759,"",,,,,,,,,1
html-keyboard-response,211,615220,null,"",null,,,,,,,,
math-period,212,616219,1924.1849999960978,"",,,,,,,,,5
html-keyboard-response,213,616323,null,"",null,,,,,,,,
math-period,214,617637,2479.3200000023935,"",,,,,,,,,4
html-keyboard-response,215,617740,null,"",null,,,,,,,,
math-period,216,618763,1924.7849999992177,"",,,,,,,,,5
html-keyboard-response,217,618866,null,"",null,,,,,,,,
math-period,218,620189,null,"",,,,,,,,,
html-keyboard-response,219,621196,null,"Recall Period!",null,,,,,,,,
call-function,220,621197,,"",,,,,,,,,
html-keyboard-response,221,621299,null,"",null,,,,,,,,
recall-period,222,624339,14371.94500001031,"",,,,,,,,,cobra
html-keyboard-response,223,624442,null,"",null,,,,,,,,
recall-period,224,626505,10174.379999992438,"",,,,,,,,,poison
html-keyboard-response,225,626607,null,"",null,,,,,,,,
recall-period,226,629480,24471.279999975697,"",,,,,,,,,briefcase
html-keyboard-response,227,629584,null,"",null,,,,,,,,
recall-period,228,652546,170076.27499997127,"",,,,,,,,,yard
html-keyboard-response,229,652650,null,"",null,,,,,,,,
recall-period,230,653873,4693.355000006966,"",,,,,,,,,crook
html-keyboard-response,231,653977,null,"",null,,,,,,,,
recall-period,232,668603,97807.81000000262,"",,,,,,,,,turkey
html-keyboard-response,233,668707,null,"",null,,,,,,,,
recall-period,234,696202,null,"",,,,,,,,,
html-keyboard-response,235,696708,null,"Time's Up!",null,,,,,,,,
html-keyboard-response,236,699549,2839.6849999988917,"<p> Uh oh. You responded correctly on 78% of the red squares.</p>
                  <p>We need you keep your accuracy above 80%</p>
                  <p>Press any key to continue the experiment. Thank you!</p>",32,,,,,,,,
html-keyboard-response,237,703364,3813.075000001816,"<div style=""font-size:48px;"">Press any key to begin list 2 of 24 </div>",32,,,,,,,,
html-keyboard-response,238,705875,null,"<div style=""font-size:60px;"">+</div>",null,,,,,,,,
html-keyboard-response,239,706382,null,"PARENT<img id = ""stim"" ><div class = green_square id = ""topsquare"" ></div><img id = ""stim"" ><div class = green_square  id = ""bottomsquare"" ></div>",null,word_square,response,0,none,true,,,
html-keyboard-response,240,707885,null,"PARENT",null,word,,,,, 'PARENT',,
html-keyboard-response,241,708304,417.90000000037253,"KEEPER<img id = ""stim"" ><div class = red_square id = ""topsquare"" ></div><img id = ""stim"" ><div class = red_square  id = ""bottomsquare"" ></div>",32,word_square,response,1,Space,true,,,
html-keyboard-response,242,709810,null,"KEEPER",null,word,,,,, 'KEEPER',,
html-keyboard-response,243,710317,null,"GODDESS<img id = ""stim"" ><div class = green_square id = ""topsquare"" ></div><img id = ""stim"" ><div class = green_square  id = ""bottomsquare"" ></div>",null,word_square,response,0,none,true,,,
html-keyboard-response,244,711820,null,"GODDESS",null,word,,,,, 'GODDESS',,
html-keyboard-response,245,712327,null,"DANCER<img id = ""stim"" ><div class = green_square id = ""topsquare"" ></div><img id = ""stim"" ><div class = green_square  id = ""bottomsquare"" ></div>",null,word_square,response,0,none,true,,,
html-keyboard-response,246,713832,null,"DANCER",null,word,,,,, 'DANCER',,
html-keyboard-response,247,714340,null,"FACE<img id = ""stim"" ><div class = red_square id = ""topsquare"" ></div><img id = ""stim"" ><div class = red_square  id = ""bottomsquare"" ></div>",null,word_square,response,1,Space,false,,,
html-keyboard-response,248,715842,null,"FACE",null,word,,,,, 'FACE',,
html-keyboard-response,249,716346,null,"LADY<img id = ""stim"" ><div class = red_square id = ""topsquare"" ></div><img id = ""stim"" ><div class = red_square  id = ""bottomsquare"" ></div>",null,word_square,response,1,Space,false,,,
html-keyboard-response,250,717853,null,"LADY",null,word,,,,, 'LADY',,
html-keyboard-response,251,718361,null,"MISTER<img id = ""stim"" ><div class = green_square id = ""topsquare"" ></div><img id = ""stim"" ><div class = green_square  id = ""bottomsquare"" ></div>",null,word_square,response,0,none,true,,,
html-keyboard-response,252,719868,null,"MISTER",null,word,,,,, 'MISTER',,
html-keyboard-response,253,720277,407.76000000187196,"HERO<img id = ""stim"" ><div class = red_square id = ""topsquare"" ></div><img id = ""stim"" ><div class = red_square  id = ""bottomsquare"" ></div>",32,word_square,response,1,Space,true,,,
html-keyboard-response,254,721784,null,"HERO",null,word,,,,, 'HERO',,
html-keyboard-response,255,722292,null,"SUPPER<img id = ""stim"" ><div class = green_square id = ""topsquare"" ></div><img id = ""stim"" ><div class = green_square  id = ""bottomsquare"" ></div>",null,word_square,response,0,none,true,,,
html-keyboard-response,256,723799,null,"SUPPER",null,word,,,,, 'SUPPER',,
html-keyboard-response,257,724307,null,"PRIEST<img id = ""stim"" ><div class = green_square id = ""topsquare"" ></div><img id = ""stim"" ><div class = green_square  id = ""bottomsquare"" ></div>",null,word_square,response,0,none,true,,,
html-keyboard-response,258,725812,null,"PRIEST",null,word,,,,, 'PRIEST',,
html-keyboard-response,259,726156,341.9549999998417,"PADDLE<img id = ""stim"" ><div class = red_square id = ""topsquare"" ></div><img id = ""stim"" ><div class = red_square  id = ""bottomsquare"" ></div>",32,word_square,response,1,Space,true,,,
html-keyboard-response,260,727663,null,"PADDLE",null,word,,,,, 'PADDLE',,
html-keyboard-response,261,728165,null,"VICTIM<img id = ""stim"" ><div class = green_square id = ""topsquare"" ></div><img id = ""stim"" ><div class = green_square  id = ""bottomsquare"" ></div>",null,word_square,response,0,none,true,,,
html-keyboard-response,262,729672,null,"VICTIM",null,word,,,,, 'VICTIM',,
html-keyboard-response,263,730179,null,"RUG<img id = ""stim"" ><div class = green_square id = ""topsquare"" ></div><img id = ""stim"" ><div class = green_square  id = ""bottomsquare"" ></div>",null,word_square,response,0,none,true,,,
html-keyboard-response,264,731685,null,"RUG",null,word,,,,, 'RUG',,
html-keyboard-response,265,732130,442.7799999974668,"COFFIN<img id = ""stim"" ><div class = red_square id = ""topsquare"" ></div><img id = ""stim"" ><div class = red_square  id = ""bottomsquare"" ></div>",32,word_square,response,1,Space,true,,,
html-keyboard-response,266,733635,null,"COFFIN",null,word,,,,, 'COFFIN',,
html-keyboard-response,267,734143,null,"ALMOND<img id = ""stim"" ><div class = red_square id = ""topsquare"" ></div><img id = ""stim"" ><div class = red_square  id = ""bottomsquare"" ></div>",null,word_square,response,1,Space,false,,,
html-keyboard-response,268,735650,null,"ALMOND",null,word,,,,, 'ALMOND',,
html-keyboard-response,269,736157,null,"ACTOR<img id = ""stim"" ><div class = red_square id = ""topsquare"" ></div><img id = ""stim"" ><div class = red_square  id = ""bottomsquare"" ></div>",null,word_square,response,1,Space,false,,,
html-keyboard-response,270,737664,null,"ACTOR",null,word,,,,, 'ACTOR',,
html-keyboard-response,271,738172,null,"JUGGLER<img id = ""stim"" ><div class = green_square id = ""topsquare"" ></div><img id = ""stim"" ><div class = green_square  id = ""bottomsquare"" ></div>",null,word_square,response,0,none,true,,,
html-keyboard-response,272,739679,null,"JUGGLER",null,word,,,,, 'JUGGLER',,
html-keyboard-response,273,740184,null,"DUNGEON<img id = ""stim"" ><div class = red_square id = ""topsquare"" ></div><img id = ""stim"" ><div class = red_square  id = ""bottomsquare"" ></div>",null,word_square,response,1,Space,false,,,
html-keyboard-response,274,741691,null,"DUNGEON",null,word,,,,, 'DUNGEON',,
call-function,275,741693,,"",,,,,,,,,
html-keyboard-response,276,741800,null,"",null,,,,,,,,
math-period,277,743557,3331.47000000102,"",,,,,,,,,3
html-keyboard-response,278,743661,null,"",null,,,,,,,,
math-period,279,744628,1806.619999995688,"",,,,,,,,,3
html-keyboard-response,280,744731,null,"",null,,,,,,,,
math-period,281,745501,1402.91000000434,"",,,,,,,,,3
html-keyboard-response,282,745607,null,"",null,,,,,,,,
math-period,283,746289,1243.2399999997579,"",,,,,,,,,3
html-keyboard-response,284,746393,null,"",null,,,,,,,,
math-period,285,746984,1043.1250000039581,"",,,,,,,,,3
html-keyboard-response,286,747088,null,"",null,,,,,,,,
math-period,287,748134,2011.9500000000698,"",,,,,,,,,5
html-keyboard-response,288,748238,null,"",null,,,,,,,,
math-period,289,749232,1857.704999998561,"",,,,,,,,,5
html-keyboard-response,290,749339,null,"",null,,,,,,,,
math-period,291,750337,1837.2100000014761,"",,,,,,,,,2
html-keyboard-response,292,750441,null,"",null,,,,,,,,
math-period,293,751470,1933.1100000017323,"",,,,,,,,,5
html-keyboard-response,294,751573,null,"",null,,,,,,,,
math-period,295,753370,3394.260000001057,"",,,,,,,,,0
html-keyboard-response,296,753474,null,"",null,,,,,,,,
math-period,297,754480,1877.2200000020675,"",,,,,,,,,2
html-keyboard-response,298,754583,null,"",null,,,,,,,,
math-period,299,755525,1739.5500000020256,"",,,,,,,,,3
html-keyboard-response,300,755629,null,"",null,,,,,,,,
math-period,301,756598,1845.3900000022259,"",,,,,,,,,4
html-keyboard-response,302,756700,null,"",null,,,,,,,,
math-period,303,757977,2418.3400000039255,"",,,,,,,,,4
html-keyboard-response,304,758080,null,"",null,,,,,,,,
math-period,305,759333,2293.4449999993667,"",,,,,,,,,4
html-keyboard-response,306,759436,null,"",null,,,,,,,,
math-period,307,760383,1769.6150000010384,"",,,,,,,,,2
html-keyboard-response,308,760487,null,"",null,,,,,,,,
math-period,309,761525,1929.0899999977555,"",,,,,,,,,4
html-keyboard-response,310,761629,null,"",null,,,,,,,,
math-period,311,762725,2031.0449999959674,"",,,,,,,,,5
html-keyboard-response,312,762828,null,"",null,,,,,,,,
math-period,313,764226,2641.3150000008754,"",,,,,,,,,3
html-keyboard-response,314,764330,null,"",null,,,,,,,,
math-period,315,765504,2228.960000000312,"",,,,,,,,,5
html-keyboard-response,316,765607,null,"",null,,,,,,,,
math-period,317,765696,null,"",,,,,,,,,
html-keyboard-response,318,766704,null,"Recall Period!",null,,,,,,,,
call-function,319,766705,,"",,,,,,,,,
html-keyboard-response,320,766812,null,"",null,,,,,,,,
recall-period,321,768957,12935.374999993248,"",,,,,,,,,juggler
html-keyboard-response,322,769060,null,"",null,,,,,,,,
recall-period,323,770004,3794.9049999990966,"",,,,,,,,,mister
html-keyboard-response,324,770106,null,"",null,,,,,,,,
recall-period,325,770980,2341.329999999376,"",,,,,,,,,lady
html-keyboard-response,326,771084,null,"",null,,,,,,,,
recall-period,327,771960,2516.644999999902,"",,,,,,,,,face
html-keyboard-response,328,772064,null,"",null,,,,,,,,
recall-period,329,778452,41864.794999990496,"",,,,,,,,,dancer
html-keyboard-response,330,778556,null,"",null,,,,,,,,
recall-period,331,819733,324020.3550000038,"",,,,,,,,,crook
html-keyboard-response,332,819837,null,"",null,,,,,,,,
recall-period,333,826793,46336.13999998837,"",,,,,,,,,mother
html-keyboard-response,334,826895,null,"",null,,,,,,,,
recall-period,335,841708,null,"",,,,,,,,,
html-keyboard-response,336,842216,null,"Time's Up!",null,,,,,,,,
html-keyboard-response,337,860056,17838.27999999991,"<p> Uh oh. You responded correctly on 76% of the red squares.</p>
                  <p>We need you keep your accuracy above 80%</p>
                  <p>Press any key to continue the experiment. Thank you!</p>",32,,,,,,,,
html-keyboard-response,338,863698,3639.9449999990175,"<div style=""font-size:48px;"">Press any key to begin list 3 of 24 </div>",32,,,,,,,,
html-keyboard-response,339,866208,null,"<div style=""font-size:60px;"">+</div>",null,,,,,,,,
html-keyboard-response,340,866715,null,"UNCLE<img id = ""stim"" ><div class = red_square id = ""topsquare"" ></div><img id = ""stim"" ><div class = red_square  id = ""bottomsquare"" ></div>",null,word_square,response,1,Space,false,,,
html-keyboard-response,341,868218,null,"UNCLE",null,word,,,,, 'UNCLE',,
html-keyboard-response,342,868725,null,"PAIL<img id = ""stim"" ><div class = green_square id = ""topsquare"" ></div><img id = ""stim"" ><div class = green_square  id = ""bottomsquare"" ></div>",null,word_square,response,0,none,true,,,
html-keyboard-response,343,870227,null,"PAIL",null,word,,,,, 'PAIL',,
html-keyboard-response,344,870562,332.4549999998417,"STREAM<img id = ""stim"" ><div class = red_square id = ""topsquare"" ></div><img id = ""stim"" ><div class = red_square  id = ""bottomsquare"" ></div>",32,word_square,response,1,Space,true,,,
html-keyboard-response,345,872068,null,"STREAM",null,word,,,,, 'STREAM',,
html-keyboard-response,346,872463,393.6199999988312,"OUTFIT<img id = ""stim"" ><div class = red_square id = ""topsquare"" ></div><img id = ""stim"" ><div class = red_square  id = ""bottomsquare"" ></div>",32,word_square,response,1,Space,true,,,
html-keyboard-response,347,873968,null,"OUTFIT",null,word,,,,, 'OUTFIT',,
html-keyboard-response,348,874475,null,"SOLDIER<img id = ""stim"" ><div class = green_square id = ""topsquare"" ></div><img id = ""stim"" ><div class = green_square  id = ""bottomsquare"" ></div>",null,word_square,response,0,none,true,,,
html-keyboard-response,349,875977,null,"SOLDIER",null,word,,,,, 'SOLDIER',,
html-keyboard-response,350,876485,null,"LUMBER<img id = ""stim"" ><div class = green_square id = ""topsquare"" ></div><img id = ""stim"" ><div class = green_square  id = ""bottomsquare"" ></div>",null,word_square,response,0,none,true,,,
html-keyboard-response,351,877992,null,"LUMBER",null,word,,,,, 'LUMBER',,
html-keyboard-response,352,878499,null,"LACE<img id = ""stim"" ><div class = red_square id = ""topsquare"" ></div><img id = ""stim"" ><div class = red_square  id = ""bottomsquare"" ></div>",null,word_square,response,1,Space,false,,,
html-keyboard-response,353,880007,null,"LACE",null,word,,,,, 'LACE',,
html-keyboard-response,354,880510,null,"COUSIN<img id = ""stim"" ><div class = green_square id = ""topsquare"" ></div><img id = ""stim"" ><div class = green_square  id = ""bottomsquare"" ></div>",null,word_square,response,0,none,true,,,
html-keyboard-response,355,882018,null,"COUSIN",null,word,,,,, 'COUSIN',,
html-keyboard-response,356,882349,329.11999999848194,"CAPE<img id = ""stim"" ><div class = red_square id = ""topsquare"" ></div><img id = ""stim"" ><div class = red_square  id = ""bottomsquare"" ></div>",32,word_square,response,1,Space,true,,,
html-keyboard-response,357,883852,null,"CAPE",null,word,,,,, 'CAPE',,
html-keyboard-response,358,884242,388.27999999921303,"JUNGLE<img id = ""stim"" ><div class = red_square id = ""topsquare"" ></div><img id = ""stim"" ><div class = red_square  id = ""bottomsquare"" ></div>",32,word_square,response,1,Space,true,,,
html-keyboard-response,359,885749,null,"JUNGLE",null,word,,,,, 'JUNGLE',,
html-keyboard-response,360,886254,null,"LION<img id = ""stim"" ><div class = green_square id = ""topsquare"" ></div><img id = ""stim"" ><div class = green_square  id = ""bottomsquare"" ></div>",null,word_square,response,0,none,true,,,
html-keyboard-response,361,887760,null,"LION",null,word,,,,, 'LION',,
html-keyboard-response,362,888079,317.8699999989476,"CHEST<img id = ""stim"" ><div class = red_square id = ""topsquare"" ></div><img id = ""stim"" ><div class = red_square  id = ""bottomsquare"" ></div>",32,word_square,response,1,Space,true,,,
html-keyboard-response,363,889586,null,"CHEST",null,word,,,,, 'CHEST',,
html-keyboard-response,364,889931,342.67499999981374,"SALMON<img id = ""stim"" ><div class = red_square id = ""topsquare"" ></div><img id = ""stim"" ><div class = red_square  id = ""bottomsquare"" ></div>",32,word_square,response,1,Space,true,,,
html-keyboard-response,365,891435,null,"SALMON",null,word,,,,, 'SALMON',,
html-keyboard-response,366,891943,null,"CRAB<img id = ""stim"" ><div class = green_square id = ""topsquare"" ></div><img id = ""stim"" ><div class = green_square  id = ""bottomsquare"" ></div>",null,word_square,response,0,none,true,,,
html-keyboard-response,367,893450,null,"CRAB",null,word,,,,, 'CRAB',,
html-keyboard-response,368,893956,null,"FROG<img id = ""stim"" ><div class = green_square id = ""topsquare"" ></div><img id = ""stim"" ><div class = green_square  id = ""bottomsquare"" ></div>",null,word_square,response,0,none,true,,,
html-keyboard-response,369,895460,null,"FROG",null,word,,,,, 'FROG',,
html-keyboard-response,370,895967,null,"SHAMPOO<img id = ""stim"" ><div class = green_square id = ""topsquare"" ></div><img id = ""stim"" ><div class = green_square  id = ""bottomsquare"" ></div>",null,word_square,response,0,none,true,,,
html-keyboard-response,371,897473,null,"SHAMPOO",null,word,,,,, 'SHAMPOO',,
html-keyboard-response,372,897793,317.3949999982724,"HAMMER<img id = ""stim"" ><div class = red_square id = ""topsquare"" ></div><img id = ""stim"" ><div class = red_square  id = ""bottomsquare"" ></div>",32,word_square,response,1,Space,true,,,
html-keyboard-response,373,899299,null,"HAMMER",null,word,,,,, 'HAMMER',,
html-keyboard-response,374,899806,null,"HAND<img id = ""stim"" ><div class = green_square id = ""topsquare"" ></div><img id = ""stim"" ><div class = green_square  id = ""bottomsquare"" ></div>",null,word_square,response,0,none,true,,,
html-keyboard-response,375,901313,null,"HAND",null,word,,,,, 'HAND',,
call-function,376,901315,,"",,,,,,,,,
html-keyboard-response,377,901420,null,"",null,,,,,,,,
math-period,378,902541,2053.584999994142,"",,,,,,,,,2
html-keyboard-response,379,902643,null,"",null,,,,,,,,
math-period,380,903780,2114.6799999987707,"",,,,,,,,,5
html-keyboard-response,381,903884,null,"",null,,,,,,,,
math-period,382,904994,2082.9050000029383,"",,,,,,,,,5
html-keyboard-response,383,905097,null,"",null,,,,,,,,
math-period,384,906527,2700.6849999960978,"",,,,,,,,,1
html-keyboard-response,385,906630,null,"",null,,,,,,,,
math-period,386,907714,2001.5650000022724,"",,,,,,,,,4
html-keyboard-response,387,907817,null,"",null,,,,,,,,
math-period,388,908830,1880.7549999982584,"",,,,,,,,,3
html-keyboard-response,389,908934,null,"",null,,,,,,,,
math-period,390,910296,2564.215000002063,"",,,,,,,,,1
html-keyboard-response,391,910399,null,"",null,,,,,,,,
math-period,392,911700,2454.480000003823,"",,,,,,,,,2
html-keyboard-response,393,911803,null,"",null,,,,,,,,
math-period,394,913472,3160.0049999977928,"",,,,,,,,,1
html-keyboard-response,395,913577,null,"",null,,,,,,,,
math-period,396,914629,1962.6349999997765,"",,,,,,,,,3
html-keyboard-response,397,914732,null,"",null,,,,,,,,
math-period,398,915543,1461.2299999973038,"",,,,,,,,,2
html-keyboard-response,399,915646,null,"",null,,,,,,,,
math-period,400,917192,2879.4849999976577,"",,,,,,,,,0
html-keyboard-response,401,917296,null,"",null,,,,,,,,
math-period,402,918503,2255.935000000987,"",,,,,,,,,1
html-keyboard-response,403,918606,null,"",null,,,,,,,,
math-period,404,919622,1890.854999997886,"",,,,,,,,,5
html-keyboard-response,405,919726,null,"",null,,,,,,,,
math-period,406,921409,3188.9249999986496,"",,,,,,,,,2
html-keyboard-response,407,921512,null,"",null,,,,,,,,
math-period,408,922601,1978.2699999994365,"",,,,,,,,,5
html-keyboard-response,409,922703,null,"",null,,,,,,,,
math-period,410,924384,3189.0549999987707,"",,,,,,,,,1
html-keyboard-response,411,924490,null,"",null,,,,,,,,
math-period,412,925321,null,"",,,,,,,,,
html-keyboard-response,413,926324,null,"Recall Period!",null,,,,,,,,
call-function,414,926325,,"",,,,,,,,,
html-keyboard-response,415,926433,null,"",null,,,,,,,,
recall-period,416,928138,7645.92499999702,"",,,,,,,,,lumber
html-keyboard-response,417,928241,null,"",null,,,,,,,,
recall-period,418,929089,2594.4499999935506,"",,,,,,,,,hand
html-keyboard-response,419,929193,null,"",null,,,,,,,,
recall-period,420,930696,6256.670000009937,"",,,,,,,,,hammer
html-keyboard-response,421,930799,null,"",null,,,,,,,,
recall-period,422,1001332,null,"",,,,,,,,,
html-keyboard-response,423,1001840,null,"Time's Up!",null,,,,,,,,
html-keyboard-response,424,1047308,45464.445000001346,"<p> Uh oh. You responded correctly on 79% of the red squares.</p>
                  <p>We need you keep your accuracy above 80%</p>
                  <p>Press any key to continue the experiment. Thank you!</p>",32,,,,,,,,
html-keyboard-response,425,1050417,3107.544999998994,"<div style=""font-size:48px;"">Press any key to begin list 4 of 24 </div>",32,,,,,,,,
html-keyboard-response,426,1052928,null,"<div style=""font-size:60px;"">+</div>",null,,,,,,,,
html-keyboard-response,427,1053435,null,"BOULDER<img id = ""stim"" ><div class = red_square id = ""topsquare"" ></div><img id = ""stim"" ><div class = red_square  id = ""bottomsquare"" ></div>",null,word_square,response,1,Space,false,,,
html-keyboard-response,428,1054938,null,"BOULDER",null,word,,,,, 'BOULDER',,
html-keyboard-response,429,1055446,null,"QUAIL<img id = ""stim"" ><div class = green_square id = ""topsquare"" ></div><img id = ""stim"" ><div class = green_square  id = ""bottomsquare"" ></div>",null,word_square,response,0,none,true,,,
html-keyboard-response,430,1056949,null,"QUAIL",null,word,,,,, 'QUAIL',,
html-keyboard-response,431,1057406,454.8450000002049,"CASHIER<img id = ""stim"" ><div class = red_square id = ""topsquare"" ></div><img id = ""stim"" ><div class = red_square  id = ""bottomsquare"" ></div>",32,word_square,response,1,Space,true,,,
html-keyboard-response,432,1058913,null,"CASHIER",null,word,,,,, 'CASHIER',,
html-keyboard-response,433,1059347,431.23500000010245,"PORPOISE<img id = ""stim"" ><div class = red_square id = ""topsquare"" ></div><img id = ""stim"" ><div class = red_square  id = ""bottomsquare"" ></div>",32,word_square,response,1,Space,true,,,
html-keyboard-response,434,1060854,null,"PORPOISE",null,word,,,,, 'PORPOISE',,
html-keyboard-response,435,1061361,null,"DRILL<img id = ""stim"" ><div class = green_square id = ""topsquare"" ></div><img id = ""stim"" ><div class = green_square  id = ""bottomsquare"" ></div>",null,word_square,response,0,none,true,,,
html-keyboard-response,436,1062867,null,"DRILL",null,word,,,,, 'DRILL',,
html-keyboard-response,437,1063370,null,"SUMMIT<img id = ""stim"" ><div class = green_square id = ""topsquare"" ></div><img id = ""stim"" ><div class = green_square  id = ""bottomsquare"" ></div>",null,word_square,response,0,none,true,,,
html-keyboard-response,438,1064872,null,"SUMMIT",null,word,,,,, 'SUMMIT',,
html-keyboard-response,439,1065296,422.2300000002142,"SHOVEL<img id = ""stim"" ><div class = red_square id = ""topsquare"" ></div><img id = ""stim"" ><div class = red_square  id = ""bottomsquare"" ></div>",32,word_square,response,1,Space,true,,,
html-keyboard-response,440,1066799,null,"SHOVEL",null,word,,,,, 'SHOVEL',,
html-keyboard-response,441,1067307,null,"ULCER<img id = ""stim"" ><div class = green_square id = ""topsquare"" ></div><img id = ""stim"" ><div class = green_square  id = ""bottomsquare"" ></div>",null,word_square,response,0,none,true,,,
html-keyboard-response,442,1068814,null,"ULCER",null,word,,,,, 'ULCER',,
html-keyboard-response,443,1069131,315.04499999945983,"BELLY<img id = ""stim"" ><div class = red_square id = ""topsquare"" ></div><img id = ""stim"" ><div class = red_square  id = ""bottomsquare"" ></div>",32,word_square,response,1,Space,true,,,
html-keyboard-response,444,1070638,null,"BELLY",null,word,,,,, 'BELLY',,
html-keyboard-response,445,1071145,null,"BAKER<img id = ""stim"" ><div class = red_square id = ""topsquare"" ></div><img id = ""stim"" ><div class = red_square  id = ""bottomsquare"" ></div>",null,word_square,response,1,Space,false,,,
html-keyboard-response,446,1072653,null,"BAKER",null,word,,,,, 'BAKER',,
html-keyboard-response,447,1073154,null,"WAGON<img id = ""stim"" ><div class = green_square id = ""topsquare"" ></div><img id = ""stim"" ><div class = green_square  id = ""bottomsquare"" ></div>",null,word_square,response,0,none,true,,,
html-keyboard-response,448,1074662,null,"WAGON",null,word,,,,, 'WAGON',,
html-keyboard-response,449,1074968,304.490000002319,"ELK<img id = ""stim"" ><div class = red_square id = ""topsquare"" ></div><img id = ""stim"" ><div class = red_square  id = ""bottomsquare"" ></div>",32,word_square,response,1,Space,true,,,
html-keyboard-response,450,1076475,null,"ELK",null,word,,,,, 'ELK',,
html-keyboard-response,451,1076925,448.39499999932013,"BUGGY<img id = ""stim"" ><div class = red_square id = ""topsquare"" ></div><img id = ""stim"" ><div class = red_square  id = ""bottomsquare"" ></div>",32,word_square,response,1,Space,true,,,
html-keyboard-response,452,1078432,null,"BUGGY",null,word,,,,, 'BUGGY',,
html-keyboard-response,453,1078939,null,"CABLE<img id = ""stim"" ><div class = green_square id = ""topsquare"" ></div><img id = ""stim"" ><div class = green_square  id = ""bottomsquare"" ></div>",null,word_square,response,0,none,true,,,
html-keyboard-response,454,1080444,null,"CABLE",null,word,,,,, 'CABLE',,
html-keyboard-response,455,1080951,null,"CORAL<img id = ""stim"" ><div class = green_square id = ""topsquare"" ></div><img id = ""stim"" ><div class = green_square  id = ""bottomsquare"" ></div>",null,word_square,response,0,none,true,,,
html-keyboard-response,456,1082455,null,"CORAL",null,word,,,,, 'CORAL',,
html-keyboard-response,457,1082962,null,"CARRIAGE<img id = ""stim"" ><div class = green_square id = ""topsquare"" ></div><img id = ""stim"" ><div class = green_square  id = ""bottomsquare"" ></div>",null,word_square,response,0,none,true,,,
html-keyboard-response,458,1084467,null,"CARRIAGE",null,word,,,,, 'CARRIAGE',,
html-keyboard-response,459,1084769,300.349999997532,"VENUS<img id = ""stim"" ><div class = red_square id = ""topsquare"" ></div><img id = ""stim"" ><div class = red_square  id = ""bottomsquare"" ></div>",32,word_square,response,1,Space,true,,,
html-keyboard-response,460,1086273,null,"VENUS",null,word,,,,, 'VENUS',,
html-keyboard-response,461,1086778,null,"MARS<img id = ""stim"" ><div class = green_square id = ""topsquare"" ></div><img id = ""stim"" ><div class = green_square  id = ""bottomsquare"" ></div>",null,word_square,response,0,none,true,,,
html-keyboard-response,462,1088285,null,"MARS",null,word,,,,, 'MARS',,
call-function,463,1088287,,"",,,,,,,,,
html-keyboard-response,464,1088391,null,"",null,,,,,,,,
math-period,465,1089801,2597.2949999957345,"",,,,,,,,,4
html-keyboard-response,466,1089903,null,"",null,,,,,,,,
math-period,467,1091600,3223.6399999998976,"",,,,,,,,,1
html-keyboard-response,468,1091703,null,"",null,,,,,,,,
math-period,469,1092855,2118.7499999979045,"",,,,,,,,,3
html-keyboard-response,470,1092958,null,"",null,,,,,,,,
math-period,471,1093996,1919.000000001397,"",,,,,,,,,4
html-keyboard-response,472,1094100,null,"",null,,,,,,,,
math-period,473,1095381,2412.149999999907,"",,,,,,,,,4
html-keyboard-response,474,1095485,null,"",null,,,,,,,,
math-period,475,1096451,1781.5100000007078,"",,,,,,,,,3
html-keyboard-response,476,1096554,null,"",null,,,,,,,,
math-period,477,1097516,1789.8300000014715,"",,,,,,,,,4
html-keyboard-response,478,1097620,null,"",null,,,,,,,,
math-period,479,1098927,2458.7150000003166,"",,,,,,,,,6
html-keyboard-response,480,1099029,null,"",null,,,,,,,,
math-period,481,1100000,1806.1699999999255,"",,,,,,,,,3
html-keyboard-response,482,1100105,null,"",null,,,,,,,,
math-period,483,1100973,1604.8100000005215,"",,,,,,,,,3
html-keyboard-response,484,1101076,null,"",null,,,,,,,,
math-period,485,1102089,1899.9500000029802,"",,,,,,,,,1
html-keyboard-response,486,1102192,null,"",null,,,,,,,,
math-period,487,1104474,4402.790000000037,"",,,,,,,,,2
html-keyboard-response,488,1104577,null,"",null,,,,,,,,
math-period,489,1105868,2466.1449999986216,"",,,,,,,,,3
html-keyboard-response,490,1105971,null,"",null,,,,,,,,
math-period,491,1107152,2214.335000000894,"",,,,,,,,,5
html-keyboard-response,492,1107256,null,"",null,,,,,,,,
math-period,493,1108864,3055.2600000011735,"",,,,,,,,,4
html-keyboard-response,494,1108968,null,"",null,,,,,,,,
math-period,495,1110047,2044.6950000040233,"",,,,,,,,,5
html-keyboard-response,496,1110150,null,"",null,,,,,,,,
math-period,497,1111098,1786.6999999966938,"",,,,,,,,,3
html-keyboard-response,498,1111204,null,"",null,,,,,,,,
math-period,499,1112293,null,"",,,,,,,,,
html-keyboard-response,500,1113299,null,"Recall Period!",null,,,,,,,,
call-function,501,1113300,,"",,,,,,,,,
html-keyboard-response,502,1113403,null,"",null,,,,,,,,
recall-period,503,1115712,14136.914999991655,"",,,,,,,,,boulder
html-keyboard-response,504,1115814,null,"",null,,,,,,,,
recall-period,505,1117603,9426.605000010924,"",,,,,,,,,quail
html-keyboard-response,506,1117706,null,"",null,,,,,,,,
recall-period,507,1120701,21909.449999980163,"",,,,,,,,,venus
html-keyboard-response,508,1120805,null,"",null,,,,,,,,
recall-period,509,1121816,2805.5399999942165,"",,,,,,,,,mars
html-keyboard-response,510,1121919,null,"",null,,,,,,,,
recall-period,511,1124444,7925.574999993667,"",,,,,,,,,elk
html-keyboard-response,512,1124547,null,"",null,,,,,,,,
recall-period,513,1148472,186488.7300000016,"",,,,,,,,,soldier
html-keyboard-response,514,1148576,null,"",null,,,,,,,,
recall-period,515,1188307,null,"",,,,,,,,,
html-keyboard-response,516,1188813,null,"Time's Up!",null,,,,,,,,
html-keyboard-response,517,1192771,3955.9599999992643,"<p> Good job! You responded correctly to 81% of the red squares.</p>
                  <p>Be sure to keep your accuracy above 80%</p>
                  <p>Press any key to continue the experiment. Thank you!</p>",32,,,,,,,,
html-keyboard-response,518,1194000,1227.484999999404,"<div style=""font-size:48px;"">Press any key to begin list 5 of 24 </div>",32,,,,,,,,
html-keyboard-response,519,1196511,null,"<div style=""font-size:60px;"">+</div>",null,,,,,,,,
html-keyboard-response,520,1197017,null,"BANQUET<img id = ""stim"" ><div class = green_square id = ""topsquare"" ></div><img id = ""stim"" ><div class = green_square  id = ""bottomsquare"" ></div>",null,word_square,response,0,none,true,,,
html-keyboard-response,521,1198519,null,"BANQUET",null,word,,,,, 'BANQUET',,
html-keyboard-response,522,1198945,424.14500000094995,"MEAT<img id = ""stim"" ><div class = red_square id = ""topsquare"" ></div><img id = ""stim"" ><div class = red_square  id = ""bottomsquare"" ></div>",32,word_square,response,1,Space,true,,,
html-keyboard-response,523,1200452,null,"MEAT",null,word,,,,, 'MEAT',,
html-keyboard-response,524,1200866,411.6199999989476,"PLIERS<img id = ""stim"" ><div class = red_square id = ""topsquare"" ></div><img id = ""stim"" ><div class = red_square  id = ""bottomsquare"" ></div>",32,word_square,response,1,Space,true,,,
html-keyboard-response,525,1202373,null,"PLIERS",null,word,,,,, 'PLIERS',,
html-keyboard-response,526,1202879,null,"PERMIT<img id = ""stim"" ><div class = green_square id = ""topsquare"" ></div><img id = ""stim"" ><div class = green_square  id = ""bottomsquare"" ></div>",null,word_square,response,0,none,true,,,
html-keyboard-response,527,1204383,null,"PERMIT",null,word,,,,, 'PERMIT',,
html-keyboard-response,528,1204873,488.249999998603,"HANDCUFFS<img id = ""stim"" ><div class = red_square id = ""topsquare"" ></div><img id = ""stim"" ><div class = red_square  id = ""bottomsquare"" ></div>",32,word_square,response,1,Space,true,,,
html-keyboard-response,529,1206377,null,"HANDCUFFS",null,word,,,,, 'HANDCUFFS',,
html-keyboard-response,530,1206883,null,"SNEAKER<img id = ""stim"" ><div class = green_square id = ""topsquare"" ></div><img id = ""stim"" ><div class = green_square  id = ""bottomsquare"" ></div>",null,word_square,response,0,none,true,,,
html-keyboard-response,531,1208390,null,"SNEAKER",null,word,,,,, 'SNEAKER',,
html-keyboard-response,532,1208898,null,"IGLOO<img id = ""stim"" ><div class = green_square id = ""topsquare"" ></div><img id = ""stim"" ><div class = green_square  id = ""bottomsquare"" ></div>",null,word_square,response,0,none,true,,,
html-keyboard-response,533,1210405,null,"IGLOO",null,word,,,,, 'IGLOO',,
html-keyboard-response,534,1210907,null,"KLEENEX<img id = ""stim"" ><div class = red_square id = ""topsquare"" ></div><img id = ""stim"" ><div class = red_square  id = ""bottomsquare"" ></div>",null,word_square,response,1,Space,false,,,
html-keyboard-response,535,1212414,null,"KLEENEX",null,word,,,,, 'KLEENEX',,
html-keyboard-response,536,1212916,null,"STICKER<img id = ""stim"" ><div class = green_square id = ""topsquare"" ></div><img id = ""stim"" ><div class = green_square  id = ""bottomsquare"" ></div>",null,word_square,response,0,none,true,,,
html-keyboard-response,537,1214419,null,"STICKER",null,word,,,,, 'STICKER',,
html-keyboard-response,538,1214723,302.08499999926426,"TILE<img id = ""stim"" ><div class = red_square id = ""topsquare"" ></div><img id = ""stim"" ><div class = red_square  id = ""bottomsquare"" ></div>",32,word_square,response,1,Space,true,,,
html-keyboard-response,539,1216230,null,"TILE",null,word,,,,, 'TILE',,
html-keyboard-response,540,1216738,null,"DWARF<img id = ""stim"" ><div class = green_square id = ""topsquare"" ></div><img id = ""stim"" ><div class = green_square  id = ""bottomsquare"" ></div>",null,word_square,response,0,none,true,,,
html-keyboard-response,541,1218241,null,"DWARF",null,word,,,,, 'DWARF',,
html-keyboard-response,542,1218748,null,"TEACHER<img id = ""stim"" ><div class = green_square id = ""topsquare"" ></div><img id = ""stim"" ><div class = green_square  id = ""bottomsquare"" ></div>",null,word_square,response,0,none,true,,,
html-keyboard-response,543,1220254,null,"TEACHER",null,word,,,,, 'TEACHER',,
html-keyboard-response,544,1220723,467.88499999814667,"CHIPMUNK<img id = ""stim"" ><div class = red_square id = ""topsquare"" ></div><img id = ""stim"" ><div class = red_square  id = ""bottomsquare"" ></div>",32,word_square,response,1,Space,true,,,
html-keyboard-response,545,1222230,null,"CHIPMUNK",null,word,,,,, 'CHIPMUNK',,
html-keyboard-response,546,1222678,445.79499999945983,"POSSUM<img id = ""stim"" ><div class = red_square id = ""topsquare"" ></div><img id = ""stim"" ><div class = red_square  id = ""bottomsquare"" ></div>",32,word_square,response,1,Space,true,,,
html-keyboard-response,547,1224185,null,"POSSUM",null,word,,,,, 'POSSUM',,
html-keyboard-response,548,1224693,null,"STAMP<img id = ""stim"" ><div class = green_square id = ""topsquare"" ></div><img id = ""stim"" ><div class = green_square  id = ""bottomsquare"" ></div>",null,word_square,response,0,none,true,,,
html-keyboard-response,549,1226199,null,"STAMP",null,word,,,,, 'STAMP',,
html-keyboard-response,550,1226706,null,"GROUND<img id = ""stim"" ><div class = green_square id = ""topsquare"" ></div><img id = ""stim"" ><div class = green_square  id = ""bottomsquare"" ></div>",null,word_square,response,0,none,true,,,
html-keyboard-response,551,1228213,null,"GROUND",null,word,,,,, 'GROUND',,
html-keyboard-response,552,1228716,null,"KETTLE<img id = ""stim"" ><div class = red_square id = ""topsquare"" ></div><img id = ""stim"" ><div class = red_square  id = ""bottomsquare"" ></div>",null,word_square,response,1,Space,false,,,
html-keyboard-response,553,1230219,null,"KETTLE",null,word,,,,, 'KETTLE',,
html-keyboard-response,554,1230659,438.4250000002794,"DESSERT<img id = ""stim"" ><div class = red_square id = ""topsquare"" ></div><img id = ""stim"" ><div class = red_square  id = ""bottomsquare"" ></div>",32,word_square,response,1,Space,true,,,
html-keyboard-response,555,1232164,null,"DESSERT",null,word,,,,, 'DESSERT',,
call-function,556,1232166,,"",,,,,,,,,
html-keyboard-response,557,1232272,null,"",null,,,,,,,,
math-period,558,1233623,2472.7199999981094,"",,,,,,,,,5
html-keyboard-response,559,1233727,null,"",null,,,,,,,,
math-period,560,1234777,1908.715000001248,"",,,,,,,,,2
html-keyboard-response,561,1234881,null,"",null,,,,,,,,
math-period,562,1236196,2464.539999997476,"",,,,,,,,,1
html-keyboard-response,563,1236301,null,"",null,,,,,,,,
math-period,564,1237459,2135.8250000013504,"",,,,,,,,,3
html-keyboard-response,565,1237563,null,"",null,,,,,,,,
math-period,566,1238798,2307.760000003269,"",,,,,,,,,2
html-keyboard-response,567,1238900,null,"",null,,,,,,,,
math-period,568,1240124,2279.3700000001118,"",,,,,,,,,4
html-keyboard-response,569,1240227,null,"",null,,,,,,,,
math-period,570,1242016,3435.9500000029802,"",,,,,,,,,3
html-keyboard-response,571,1242119,null,"",null,,,,,,,,
math-period,572,1244247,4152.645000001881,"",,,,,,,,,2
html-keyboard-response,573,1244351,null,"",null,,,,,,,,
math-period,574,1245682,2509.3949999974575,"",,,,,,,,,6
html-keyboard-response,575,1245785,null,"",null,,,,,,,,
math-period,576,1247211,2708.3350000027567,"",,,,,,,,,3
html-keyboard-response,577,1247317,null,"",null,,,,,,,,
math-period,578,1248479,2208.350000000559,"",,,,,,,,,4
html-keyboard-response,579,1248583,null,"",null,,,,,,,,
math-period,580,1250182,3055.0899999979883,"",,,,,,,,,6
html-keyboard-response,581,1250286,null,"",null,,,,,,,,
math-period,582,1251330,1950.539999997709,"",,,,,,,,,5
html-keyboard-response,583,1251434,null,"",null,,,,,,,,
math-period,584,1252429,1881.04000000027,"",,,,,,,,,5
html-keyboard-response,585,1252533,null,"",null,,,,,,,,
math-period,586,1253420,1647.4749999979977,"",,,,,,,,,5
html-keyboard-response,587,1253524,null,"",null,,,,,,,,
math-period,588,1254629,2073.9600000013597,"",,,,,,,,,1
html-keyboard-response,589,1254733,null,"",null,,,,,,,,
math-period,590,1256128,2622.1350000011735,"",,,,,,,,,4
html-keyboard-response,591,1256234,null,"",null,,,,,,,,
math-period,592,1256237,null,"",,,,,,,,,
html-keyboard-response,593,1257245,null,"Recall Period!",null,,,,,,,,
call-function,594,1257246,,"",,,,,,,,,
html-keyboard-response,595,1257353,null,"",null,,,,,,,,
recall-period,596,1259452,11962.859999992652,"",,,,,,,,,teacher
html-keyboard-response,597,1259555,null,"",null,,,,,,,,
recall-period,598,1260660,4687.515000009676,"",,,,,,,,,kettle
html-keyboard-response,599,1260764,null,"",null,,,,,,,,
recall-period,600,1262175,6841.755000012228,"",,,,,,,,,dessert
html-keyboard-response,601,1262280,null,"",null,,,,,,,,
recall-period,602,1264272,11842.284999994328,"",,,,,,,,,sneaker
html-keyboard-response,603,1264375,null,"",null,,,,,,,,
recall-period,604,1267434,18337.77499998524,"",,,,,,,,,dwarf
html-keyboard-response,605,1267537,null,"",null,,,,,,,,
recall-period,606,1268936,5236.259999994421,"",,,,,,,,,igloo
html-keyboard-response,607,1269040,null,"",null,,,,,,,,
recall-period,608,1270467,6332.984999994282,"",,,,,,,,,banquet
html-keyboard-response,609,1270570,null,"",null,,,,,,,,
recall-period,610,1271276,2255.6550000074785,"",,,,,,,,,meat
html-keyboard-response,611,1271379,null,"",null,,,,,,,,
recall-period,612,1273209,7793.465000006137,"",,,,,,,,,tile
html-keyboard-response,613,1273313,null,"",null,,,,,,,,
recall-period,614,1274320,3596.219999998808,"",,,,,,,,,ground
html-keyboard-response,615,1274425,null,"",null,,,,,,,,
recall-period,616,1332254,null,"",,,,,,,,,
html-keyboard-response,617,1332761,null,"Time's Up!",null,,,,,,,,
html-keyboard-response,618,1334761,1997.0649999994785,"<p> Good job! You responded correctly to 82% of the red squares.</p>
                  <p>Be sure to keep your accuracy above 80%</p>
                  <p>Press any key to continue the experiment. Thank you!</p>",32,,,,,,,,
html-keyboard-response,619,1339121,4358.96000000136,"<div style=""font-size:48px;"">Press any key to begin list 6 of 24 </div>",32,,,,,,,,
html-keyboard-response,620,1341632,null,"<div style=""font-size:60px;"">+</div>",null,,,,,,,,
html-keyboard-response,621,1342140,null,"LUGGAGE<img id = ""stim"" ><div class = green_square id = ""topsquare"" ></div><img id = ""stim"" ><div class = green_square  id = ""bottomsquare"" ></div>",null,word_square,response,0,none,true,,,
html-keyboard-response,622,1343643,null,"LUGGAGE",null,word,,,,, 'LUGGAGE',,
html-keyboard-response,623,1344146,null,"SNACK<img id = ""stim"" ><div class = red_square id = ""topsquare"" ></div><img id = ""stim"" ><div class = red_square  id = ""bottomsquare"" ></div>",null,word_square,response,1,Space,false,,,
html-keyboard-response,624,1345649,null,"SNACK",null,word,,,,, 'SNACK',,
html-keyboard-response,625,1346146,494.8899999980349,"BISCUIT<img id = ""stim"" ><div class = red_square id = ""topsquare"" ></div><img id = ""stim"" ><div class = red_square  id = ""bottomsquare"" ></div>",32,word_square,response,1,Space,true,,,
html-keyboard-response,626,1347649,null,"BISCUIT",null,word,,,,, 'BISCUIT',,
html-keyboard-response,627,1348156,null,"SHIRT<img id = ""stim"" ><div class = green_square id = ""topsquare"" ></div><img id = ""stim"" ><div class = green_square  id = ""bottomsquare"" ></div>",null,word_square,response,0,none,true,,,
html-keyboard-response,628,1349658,null,"SHIRT",null,word,,,,, 'SHIRT',,
html-keyboard-response,629,1350162,null,"AIRPORT<img id = ""stim"" ><div class = red_square id = ""topsquare"" ></div><img id = ""stim"" ><div class = red_square  id = ""bottomsquare"" ></div>",null,word_square,response,1,Space,false,,,
html-keyboard-response,630,1351667,null,"AIRPORT",null,word,,,,, 'AIRPORT',,
html-keyboard-response,631,1352174,null,"BANK<img id = ""stim"" ><div class = green_square id = ""topsquare"" ></div><img id = ""stim"" ><div class = green_square  id = ""bottomsquare"" ></div>",null,word_square,response,0,none,true,,,
html-keyboard-response,632,1353678,null,"BANK",null,word,,,,, 'BANK',,
html-keyboard-response,633,1354181,null,"CREATURE<img id = ""stim"" ><div class = green_square id = ""topsquare"" ></div><img id = ""stim"" ><div class = green_square  id = ""bottomsquare"" ></div>",null,word_square,response,0,none,true,,,
html-keyboard-response,634,1355689,null,"CREATURE",null,word,,,,, 'CREATURE',,
html-keyboard-response,635,1356135,444.7199999995064,"HEEL<img id = ""stim"" ><div class = red_square id = ""topsquare"" ></div><img id = ""stim"" ><div class = red_square  id = ""bottomsquare"" ></div>",32,word_square,response,1,Space,true,,,
html-keyboard-response,636,1357643,null,"HEEL",null,word,,,,, 'HEEL',,
html-keyboard-response,637,1358150,null,"SOCKET<img id = ""stim"" ><div class = green_square id = ""topsquare"" ></div><img id = ""stim"" ><div class = green_square  id = ""bottomsquare"" ></div>",null,word_square,response,0,none,true,,,
html-keyboard-response,638,1359653,null,"SOCKET",null,word,,,,, 'SOCKET',,
html-keyboard-response,639,1360063,408.089999997057,"DOLPHIN<img id = ""stim"" ><div class = red_square id = ""topsquare"" ></div><img id = ""stim"" ><div class = red_square  id = ""bottomsquare"" ></div>",32,word_square,response,1,Space,true,,,
html-keyboard-response,640,1361571,null,"DOLPHIN",null,word,,,,, 'DOLPHIN',,
html-keyboard-response,641,1362078,null,"DRIVEWAY<img id = ""stim"" ><div class = green_square id = ""topsquare"" ></div><img id = ""stim"" ><div class = green_square  id = ""bottomsquare"" ></div>",null,word_square,response,0,none,true,,,
html-keyboard-response,642,1363584,null,"DRIVEWAY",null,word,,,,, 'DRIVEWAY',,
html-keyboard-response,643,1364093,null,"BULLET<img id = ""stim"" ><div class = green_square id = ""topsquare"" ></div><img id = ""stim"" ><div class = green_square  id = ""bottomsquare"" ></div>",null,word_square,response,0,none,true,,,
html-keyboard-response,644,1365600,null,"BULLET",null,word,,,,, 'BULLET',,
html-keyboard-response,645,1365998,396.10999999777414,"RIBBON<img id = ""stim"" ><div class = red_square id = ""topsquare"" ></div><img id = ""stim"" ><div class = red_square  id = ""bottomsquare"" ></div>",32,word_square,response,1,Space,true,,,
html-keyboard-response,646,1367503,null,"RIBBON",null,word,,,,, 'RIBBON',,
html-keyboard-response,647,1368010,null,"STONE<img id = ""stim"" ><div class = red_square id = ""topsquare"" ></div><img id = ""stim"" ><div class = red_square  id = ""bottomsquare"" ></div>",null,word_square,response,1,Space,false,,,
html-keyboard-response,648,1369513,null,"STONE",null,word,,,,, 'STONE',,
html-keyboard-response,649,1370020,null,"PEBBLE<img id = ""stim"" ><div class = green_square id = ""topsquare"" ></div><img id = ""stim"" ><div class = green_square  id = ""bottomsquare"" ></div>",null,word_square,response,0,none,true,,,
html-keyboard-response,650,1371528,null,"PEBBLE",null,word,,,,, 'PEBBLE',,
html-keyboard-response,651,1372035,null,"PRISON<img id = ""stim"" ><div class = green_square id = ""topsquare"" ></div><img id = ""stim"" ><div class = green_square  id = ""bottomsquare"" ></div>",null,word_square,response,0,none,true,,,
html-keyboard-response,652,1373540,null,"PRISON",null,word,,,,, 'PRISON',,
html-keyboard-response,653,1373936,393.76000000257045,"GLASSES<img id = ""stim"" ><div class = red_square id = ""topsquare"" ></div><img id = ""stim"" ><div class = red_square  id = ""bottomsquare"" ></div>",32,word_square,response,1,Space,true,,,
html-keyboard-response,654,1375443,null,"GLASSES",null,word,,,,, 'GLASSES',,
html-keyboard-response,655,1375950,null,"DAD<img id = ""stim"" ><div class = red_square id = ""topsquare"" ></div><img id = ""stim"" ><div class = red_square  id = ""bottomsquare"" ></div>",null,word_square,response,1,Space,false,,,
html-keyboard-response,656,1377457,null,"DAD",null,word,,,,, 'DAD',,
call-function,657,1377458,,"",,,,,,,,,
html-keyboard-response,658,1377564,null,"",null,,,,,,,,
math-period,659,1378771,2245.6649999984074,"",,,,,,,,,4
html-keyboard-response,660,1378875,null,"",null,,,,,,,,
math-period,661,1379901,1929.2050000003073,"",,,,,,,,,6
html-keyboard-response,662,1380004,null,"",null,,,,,,,,
math-period,663,1381116,2055.6399999987334,"",,,,,,,,,3
html-keyboard-response,664,1381219,null,"",null,,,,,,,,
math-period,665,1383163,6505.594999998808,"",,,,,,,,,4
html-keyboard-response,666,1383267,null,"",null,,,,,,,,
math-period,667,1384485,2305.439999999944,"",,,,,,,,,3
html-keyboard-response,668,1384589,null,"",null,,,,,,,,
math-period,669,1385745,2199.5400000014342,"",,,,,,,,,1
html-keyboard-response,670,1385848,null,"",null,,,,,,,,
math-period,671,1387338,2811.144999999553,"",,,,,,,,,1
html-keyboard-response,672,1387441,null,"",null,,,,,,,,
math-period,673,1389829,7933.614999994403,"",,,,,,,,,2
html-keyboard-response,674,1389933,null,"",null,,,,,,,,
math-period,675,1391121,2250.059999998426,"",,,,,,,,,2
html-keyboard-response,676,1391225,null,"",null,,,,,,,,
math-period,677,1393258,3884.785000001779,"",,,,,,,,,3
html-keyboard-response,678,1393362,null,"",null,,,,,,,,
math-period,679,1394387,1902.1249999967404,"",,,,,,,,,4
html-keyboard-response,680,1394491,null,"",null,,,,,,,,
math-period,681,1395716,2304.625000004191,"",,,,,,,,,6
html-keyboard-response,682,1395820,null,"",null,,,,,,,,
math-period,683,1397735,3607.915000000503,"",,,,,,,,,0
html-keyboard-response,684,1397838,null,"",null,,,,,,,,
math-period,685,1398511,670.7599999972153,"",,,,,,,,,
html-keyboard-response,686,1398614,null,"",null,,,,,,,,
math-period,687,1399587,1793.9400000034366,"",,,,,,,,,0
html-keyboard-response,688,1399691,null,"",null,,,,,,,,
math-period,689,1401462,1734.4900000025518,"",,,,,,,,,3
html-keyboard-response,690,1402465,null,"Recall Period!",null,,,,,,,,
call-function,691,1402466,,"",,,,,,,,,
html-keyboard-response,692,1402573,null,"",null,,,,,,,,
recall-period,693,1404852,14456.060000000754,"",,,,,,,,,airport
html-keyboard-response,694,1404956,null,"",null,,,,,,,,
recall-period,695,1408241,21283.230000005104,"",,,,,,,,,luggage
html-keyboard-response,696,1408344,null,"",null,,,,,,,,
recall-period,697,1410721,13912.749999989057,"",,,,,,,,,biscuit
html-keyboard-response,698,1410824,null,"",null,,,,,,,,
recall-period,699,1411990,3465.305000009248,"",,,,,,,,,snack
html-keyboard-response,700,1412093,null,"",null,,,,,,,,
recall-period,701,1414706,10951.265000003623,"",,,,,,,,,bank
html-keyboard-response,702,1414812,null,"",null,,,,,,,,
recall-period,703,1419938,31892.22999999416,"",,,,,,,,,prison
html-keyboard-response,704,1420042,null,"",null,,,,,,,,
recall-period,705,1421180,3428.4949999966193,"",,,,,,,,,dad
html-keyboard-response,706,1421283,null,"",null,,,,,,,,
recall-period,707,1430970,79018.15999999526,"",,,,,,,,,driveway
html-keyboard-response,708,1431074,null,"",null,,,,,,,,
recall-period,709,1436525,49736.42499998445,"",,,,,,,,,pebble
html-keyboard-response,710,1436628,null,"",null,,,,,,,,
recall-period,711,1477474,null,"",,,,,,,,,
html-keyboard-response,712,1477978,null,"Time's Up!",null,,,,,,,,
html-keyboard-response,713,1480488,2508.494999998249,"<p> Good job! You responded correctly to 82% of the red squares.</p>
                  <p>Be sure to keep your accuracy above 80%</p>
                  <p>Press any key to continue the experiment. Thank you!</p>",32,,,,,,,,
html-keyboard-response,714,1486971,6481.829999996815,"<div style=""font-size:48px;"">Press any key to begin list 7 of 24 </div>",32,,,,,,,,
html-keyboard-response,715,1489483,null,"<div style=""font-size:60px;"">+</div>",null,,,,,,,,
html-keyboard-response,716,1489985,500.56000000052154,"CELLAR<img id = ""stim"" ><div class = red_square id = ""topsquare"" ></div><img id = ""stim"" ><div class = red_square  id = ""bottomsquare"" ></div>",32,word_square,response,1,Space,true,,,
html-keyboard-response,717,1491490,null,"CELLAR",null,word,,,,, 'CELLAR',,
html-keyboard-response,718,1491998,null,"GRAPE<img id = ""stim"" ><div class = green_square id = ""topsquare"" ></div><img id = ""stim"" ><div class = green_square  id = ""bottomsquare"" ></div>",null,word_square,response,0,none,true,,,
html-keyboard-response,719,1493501,null,"GRAPE",null,word,,,,, 'GRAPE',,
html-keyboard-response,720,1494008,null,"RUBY<img id = ""stim"" ><div class = green_square id = ""topsquare"" ></div><img id = ""stim"" ><div class = green_square  id = ""bottomsquare"" ></div>",null,word_square,response,0,none,true,,,
html-keyboard-response,721,1495512,null,"RUBY",null,word,,,,, 'RUBY',,
html-keyboard-response,722,1495989,475.16999999806285,"CONVENT<img id = ""stim"" ><div class = red_square id = ""topsquare"" ></div><img id = ""stim"" ><div class = red_square  id = ""bottomsquare"" ></div>",32,word_square,response,1,Space,true,,,
html-keyboard-response,723,1497496,null,"CONVENT",null,word,,,,, 'CONVENT',,
html-keyboard-response,724,1498001,null,"HAMMOCK<img id = ""stim"" ><div class = green_square id = ""topsquare"" ></div><img id = ""stim"" ><div class = green_square  id = ""bottomsquare"" ></div>",null,word_square,response,0,none,true,,,
html-keyboard-response,725,1499506,null,"HAMMOCK",null,word,,,,, 'HAMMOCK',,
html-keyboard-response,726,1500013,null,"PONY<img id = ""stim"" ><div class = red_square id = ""topsquare"" ></div><img id = ""stim"" ><div class = red_square  id = ""bottomsquare"" ></div>",null,word_square,response,1,Space,false,,,
html-keyboard-response,727,1501517,null,"PONY",null,word,,,,, 'PONY',,
html-keyboard-response,728,1502024,null,"SHOULDER<img id = ""stim"" ><div class = red_square id = ""topsquare"" ></div><img id = ""stim"" ><div class = red_square  id = ""bottomsquare"" ></div>",null,word_square,response,1,Space,false,,,
html-keyboard-response,729,1503527,null,"SHOULDER",null,word,,,,, 'SHOULDER',,
html-keyboard-response,730,1504028,null,"COCOON<img id = ""stim"" ><div class = green_square id = ""topsquare"" ></div><img id = ""stim"" ><div class = green_square  id = ""bottomsquare"" ></div>",null,word_square,response,0,none,true,,,
html-keyboard-response,731,1505533,null,"COCOON",null,word,,,,, 'COCOON',,
html-keyboard-response,732,1505982,446.929999998305,"SNAKE<img id = ""stim"" ><div class = red_square id = ""topsquare"" ></div><img id = ""stim"" ><div class = red_square  id = ""bottomsquare"" ></div>",32,word_square,response,1,Space,true,,,
html-keyboard-response,733,1507488,null,"SNAKE",null,word,,,,, 'SNAKE',,
html-keyboard-response,734,1507995,null,"RATTLE<img id = ""stim"" ><div class = green_square id = ""topsquare"" ></div><img id = ""stim"" ><div class = green_square  id = ""bottomsquare"" ></div>",null,word_square,response,0,none,true,,,
html-keyboard-response,735,1509502,null,"RATTLE",null,word,,,,, 'RATTLE',,
html-keyboard-response,736,1510010,null,"RABBIT<img id = ""stim"" ><div class = red_square id = ""topsquare"" ></div><img id = ""stim"" ><div class = red_square  id = ""bottomsquare"" ></div>",null,word_square,response,1,Space,false,,,
html-keyboard-response,737,1511517,null,"RABBIT",null,word,,,,, 'RABBIT',,
html-keyboard-response,738,1512025,null,"GREASE<img id = ""stim"" ><div class = red_square id = ""topsquare"" ></div><img id = ""stim"" ><div class = red_square  id = ""bottomsquare"" ></div>",null,word_square,response,1,Space,false,,,
html-keyboard-response,739,1513528,null,"GREASE",null,word,,,,, 'GREASE',,
html-keyboard-response,740,1514032,null,"EUROPE<img id = ""stim"" ><div class = green_square id = ""topsquare"" ></div><img id = ""stim"" ><div class = green_square  id = ""bottomsquare"" ></div>",null,word_square,response,0,none,true,,,
html-keyboard-response,741,1515534,null,"EUROPE",null,word,,,,, 'EUROPE',,
html-keyboard-response,742,1516042,null,"GIRL<img id = ""stim"" ><div class = green_square id = ""topsquare"" ></div><img id = ""stim"" ><div class = green_square  id = ""bottomsquare"" ></div>",null,word_square,response,0,none,true,,,
html-keyboard-response,743,1517547,null,"GIRL",null,word,,,,, 'GIRL',,
html-keyboard-response,744,1517938,389.3400000014808,"SODA<img id = ""stim"" ><div class = red_square id = ""topsquare"" ></div><img id = ""stim"" ><div class = red_square  id = ""bottomsquare"" ></div>",32,word_square,response,1,Space,true,,,
html-keyboard-response,745,1519446,null,"SODA",null,word,,,,, 'SODA',,
html-keyboard-response,746,1519855,407.5300000004936,"ANCHOR<img id = ""stim"" ><div class = red_square id = ""topsquare"" ></div><img id = ""stim"" ><div class = red_square  id = ""bottomsquare"" ></div>",32,word_square,response,1,Space,true,,,
html-keyboard-response,747,1521358,null,"ANCHOR",null,word,,,,, 'ANCHOR',,
html-keyboard-response,748,1521863,null,"CARROT<img id = ""stim"" ><div class = green_square id = ""topsquare"" ></div><img id = ""stim"" ><div class = green_square  id = ""bottomsquare"" ></div>",null,word_square,response,0,none,true,,,
html-keyboard-response,749,1523371,null,"CARROT",null,word,,,,, 'CARROT',,
html-keyboard-response,750,1523878,null,"PIRATE<img id = ""stim"" ><div class = green_square id = ""topsquare"" ></div><img id = ""stim"" ><div class = green_square  id = ""bottomsquare"" ></div>",null,word_square,response,0,none,true,,,
html-keyboard-response,751,1525386,null,"PIRATE",null,word,,,,, 'PIRATE',,
call-function,752,1525387,,"",,,,,,,,,
html-keyboard-response,753,1525491,null,"",null,,,,,,,,
math-period,754,1527130,3034.429999999702,"",,,,,,,,,4
html-keyboard-response,755,1527233,null,"",null,,,,,,,,
math-period,756,1528182,1732.3400000024121,"",,,,,,,,,2
html-keyboard-response,757,1528287,null,"",null,,,,,,,,
math-period,758,1529354,1968.064999997383,"",,,,,,,,,3
html-keyboard-response,759,1529457,null,"",null,,,,,,,,
math-period,760,1530512,1980.7400000027847,"",,,,,,,,,5
html-keyboard-response,761,1530616,null,"",null,,,,,,,,
math-period,762,1531909,2445.835000002291,"",,,,,,,,,5
html-keyboard-response,763,1532012,null,"",null,,,,,,,,
math-period,764,1533020,1870.9449999986682,"",,,,,,,,,5
html-keyboard-response,765,1533124,null,"",null,,,,,,,,
math-period,766,1534657,2877.794999996666,"",,,,,,,,,3
html-keyboard-response,767,1534762,null,"",null,,,,,,,,
math-period,768,1536414,3132.375000001164,"",,,,,,,,,1
html-keyboard-response,769,1536517,null,"",null,,,,,,,,
math-period,770,1537660,2111.6550000004936,"",,,,,,,,,4
html-keyboard-response,771,1537764,null,"",null,,,,,,,,
math-period,772,1538693,1732.5100000014063,"",,,,,,,,,3
html-keyboard-response,773,1538797,null,"",null,,,,,,,,
math-period,774,1539789,1847.094999997411,"",,,,,,,,,4
html-keyboard-response,775,1539892,null,"",null,,,,,,,,
math-period,776,1541137,2325.0549999976065,"",,,,,,,,,1
html-keyboard-response,777,1541241,null,"",null,,,,,,,,
math-period,778,1542992,3314.0749999983236,"",,,,,,,,,2
html-keyboard-response,779,1543096,null,"",null,,,,,,,,
math-period,780,1544188,2032.134999997681,"",,,,,,,,,4
html-keyboard-response,781,1544292,null,"",null,,,,,,,,
math-period,782,1545699,2676.424999997951,"",,,,,,,,,2
html-keyboard-response,783,1545806,null,"",null,,,,,,,,
math-period,784,1547002,2241.4749999952037,"",,,,,,,,,4
html-keyboard-response,785,1547105,null,"",null,,,,,,,,
math-period,786,1548089,1818.8949999965262,"",,,,,,,,,3
html-keyboard-response,787,1548193,null,"",null,,,,,,,,
math-period,788,1549393,null,"",,,,,,,,,
html-keyboard-response,789,1550398,null,"Recall Period!",null,,,,,,,,
call-function,790,1550399,,"",,,,,,,,,
html-keyboard-response,791,1550504,null,"",null,,,,,,,,
recall-period,792,1556134,36409.309999991674,"",,,,,,,,,rattle
html-keyboard-response,793,1556238,null,"",null,,,,,,,,
recall-period,794,1557269,4312.8650000002235,"",,,,,,,,,rabbit
html-keyboard-response,795,1557373,null,"",null,,,,,,,,
recall-period,796,1558761,6241.585000003921,"",,,,,,,,,carrot
html-keyboard-response,797,1558864,null,"",null,,,,,,,,
recall-period,798,1560136,4324.860000000335,"",,,,,,,,,ruby
html-keyboard-response,799,1560238,null,"",null,,,,,,,,
recall-period,800,1561318,4798.460000006016,"",,,,,,,,,cellar
html-keyboard-response,801,1561421,null,"",null,,,,,,,,
recall-period,802,1562614,4939.609999990091,"",,,,,,,,,convent
html-keyboard-response,803,1562717,null,"",null,,,,,,,,
recall-period,804,1564280,6235.05499998969,"",,,,,,,,,europe
html-keyboard-response,805,1564382,null,"",null,,,,,,,,
recall-period,806,1565235,2310.4649999989197,"",,,,,,,,,girl
html-keyboard-response,807,1565339,null,"",null,,,,,,,,
recall-period,808,1567630,13070.13499999512,"",,,,,,,,,cellar
html-keyboard-response,809,1567733,null,"",null,,,,,,,,
recall-period,810,1568916,4227.790000011912,"",,,,,,,,,grape
html-keyboard-response,811,1569020,null,"",null,,,,,,,,
recall-period,812,1577026,115547.48499997123,"",,,,,,,,,cocoon
html-keyboard-response,813,1577130,null,"",null,,,,,,,,
recall-period,814,1580969,23310.300000008894,"",,,,,,,,,anchor
html-keyboard-response,815,1581074,null,"",null,,,,,,,,
recall-period,816,1589376,61018.239999989746,"",,,,,,,,,hammock
html-keyboard-response,817,1589479,null,"",null,,,,,,,,
recall-period,818,1625405,null,"",,,,,,,,,
html-keyboard-response,819,1625913,null,"Time's Up!",null,,,,,,,,
html-keyboard-response,820,1627350,1435.3300000003073,"<p> Good job! You responded correctly to 81% of the red squares.</p>
                  <p>Be sure to keep your accuracy above 80%</p>
                  <p>Press any key to continue the experiment. Thank you!</p>",32,,,,,,,,
html-keyboard-response,821,1628948,1596.7349999991711,"<div style=""font-size:48px;"">Press any key to begin list 8 of 24 </div>",32,,,,,,,,
html-keyboard-response,822,1631459,null,"<div style=""font-size:60px;"">+</div>",null,,,,,,,,
html-keyboard-response,823,1631967,null,"BRUNETTE<img id = ""stim"" ><div class = red_square id = ""topsquare"" ></div><img id = ""stim"" ><div class = red_square  id = ""bottomsquare"" ></div>",null,word_square,response,1,Space,false,,,
html-keyboard-response,824,1633469,null,"BRUNETTE",null,word,,,,, 'BRUNETTE',,
html-keyboard-response,825,1633976,null,"BRIDE<img id = ""stim"" ><div class = green_square id = ""topsquare"" ></div><img id = ""stim"" ><div class = green_square  id = ""bottomsquare"" ></div>",null,word_square,response,0,none,true,,,
html-keyboard-response,826,1635480,null,"BRIDE",null,word,,,,, 'BRIDE',,
html-keyboard-response,827,1635987,null,"GRASS<img id = ""stim"" ><div class = green_square id = ""topsquare"" ></div><img id = ""stim"" ><div class = green_square  id = ""bottomsquare"" ></div>",null,word_square,response,0,none,true,,,
html-keyboard-response,828,1637492,null,"GRASS",null,word,,,,, 'GRASS',,
html-keyboard-response,829,1637978,484.18500000122003,"LIST<img id = ""stim"" ><div class = red_square id = ""topsquare"" ></div><img id = ""stim"" ><div class = red_square  id = ""bottomsquare"" ></div>",32,word_square,response,1,Space,true,,,
html-keyboard-response,830,1639485,null,"LIST",null,word,,,,, 'LIST',,
html-keyboard-response,831,1639990,null,"RULER<img id = ""stim"" ><div class = green_square id = ""topsquare"" ></div><img id = ""stim"" ><div class = green_square  id = ""bottomsquare"" ></div>",null,word_square,response,0,none,true,,,
html-keyboard-response,832,1641497,null,"RULER",null,word,,,,, 'RULER',,
html-keyboard-response,833,1641943,444.02000000257976,"NEPHEW<img id = ""stim"" ><div class = red_square id = ""topsquare"" ></div><img id = ""stim"" ><div class = red_square  id = ""bottomsquare"" ></div>",32,word_square,response,1,Space,true,,,
html-keyboard-response,834,1643448,null,"NEPHEW",null,word,,,,, 'NEPHEW',,
html-keyboard-response,835,1643955,null,"APPLE<img id = ""stim"" ><div class = red_square id = ""topsquare"" ></div><img id = ""stim"" ><div class = red_square  id = ""bottomsquare"" ></div>",null,word_square,response,1,Space,false,,,
html-keyboard-response,836,1645460,null,"APPLE",null,word,,,,, 'APPLE',,
html-keyboard-response,837,1645967,null,"INMATE<img id = ""stim"" ><div class = green_square id = ""topsquare"" ></div><img id = ""stim"" ><div class = green_square  id = ""bottomsquare"" ></div>",null,word_square,response,0,none,true,,,
html-keyboard-response,838,1647472,null,"INMATE",null,word,,,,, 'INMATE',,
html-keyboard-response,839,1647829,354.3649999992922,"PECAN<img id = ""stim"" ><div class = red_square id = ""topsquare"" ></div><img id = ""stim"" ><div class = red_square  id = ""bottomsquare"" ></div>",32,word_square,response,1,Space,true,,,
html-keyboard-response,840,1649336,null,"PECAN",null,word,,,,, 'PECAN',,
html-keyboard-response,841,1649843,null,"BANDAGE<img id = ""stim"" ><div class = green_square id = ""topsquare"" ></div><img id = ""stim"" ><div class = green_square  id = ""bottomsquare"" ></div>",null,word_square,response,0,none,true,,,
html-keyboard-response,842,1651348,null,"BANDAGE",null,word,,,,, 'BANDAGE',,
html-keyboard-response,843,1651855,null,"HATCHET<img id = ""stim"" ><div class = red_square id = ""topsquare"" ></div><img id = ""stim"" ><div class = red_square  id = ""bottomsquare"" ></div>",null,word_square,response,1,Space,false,,,
html-keyboard-response,844,1653363,null,"HATCHET",null,word,,,,, 'HATCHET',,
html-keyboard-response,845,1653833,468.010000000475,"BUTCHER<img id = ""stim"" ><div class = red_square id = ""topsquare"" ></div><img id = ""stim"" ><div class = red_square  id = ""bottomsquare"" ></div>",32,word_square,response,1,Space,true,,,
html-keyboard-response,846,1655341,null,"BUTCHER",null,word,,,,, 'BUTCHER',,
html-keyboard-response,847,1655848,null,"THRONE<img id = ""stim"" ><div class = green_square id = ""topsquare"" ></div><img id = ""stim"" ><div class = green_square  id = ""bottomsquare"" ></div>",null,word_square,response,0,none,true,,,
html-keyboard-response,848,1657355,null,"THRONE",null,word,,,,, 'THRONE',,
html-keyboard-response,849,1657863,null,"PALACE<img id = ""stim"" ><div class = green_square id = ""topsquare"" ></div><img id = ""stim"" ><div class = green_square  id = ""bottomsquare"" ></div>",null,word_square,response,0,none,true,,,
html-keyboard-response,850,1659370,null,"PALACE",null,word,,,,, 'PALACE',,
html-keyboard-response,851,1659877,null,"PIGMENT<img id = ""stim"" ><div class = red_square id = ""topsquare"" ></div><img id = ""stim"" ><div class = red_square  id = ""bottomsquare"" ></div>",null,word_square,response,1,Space,false,,,
html-keyboard-response,852,1661381,null,"PIGMENT",null,word,,,,, 'PIGMENT',,
html-keyboard-response,853,1661860,477.13999999919906,"SCULPTURE<img id = ""stim"" ><div class = red_square id = ""topsquare"" ></div><img id = ""stim"" ><div class = red_square  id = ""bottomsquare"" ></div>",32,word_square,response,1,Space,true,,,
html-keyboard-response,854,1663364,null,"SCULPTURE",null,word,,,,, 'SCULPTURE',,
html-keyboard-response,855,1663871,null,"WRIST<img id = ""stim"" ><div class = green_square id = ""topsquare"" ></div><img id = ""stim"" ><div class = green_square  id = ""bottomsquare"" ></div>",null,word_square,response,0,none,true,,,
html-keyboard-response,856,1665378,null,"WRIST",null,word,,,,, 'WRIST',,
html-keyboard-response,857,1665881,null,"PEANUT<img id = ""stim"" ><div class = green_square id = ""topsquare"" ></div><img id = ""stim"" ><div class = green_square  id = ""bottomsquare"" ></div>",null,word_square,response,0,none,true,,,
html-keyboard-response,858,1667388,null,"PEANUT",null,word,,,,, 'PEANUT',,
call-function,859,1667390,,"",,,,,,,,,
html-keyboard-response,860,1667497,null,"",null,,,,,,,,
math-period,861,1669076,2959.719999998808,"",,,,,,,,,1
html-keyboard-response,862,1669177,null,"",null,,,,,,,,
math-period,863,1670057,1625.2700000039767,"",,,,,,,,,3
html-keyboard-response,864,1670161,null,"",null,,,,,,,,
math-period,865,1671402,2310.409999994561,"",,,,,,,,,5
html-keyboard-response,866,1671504,null,"",null,,,,,,,,
math-period,867,1672978,2789.540000001667,"",,,,,,,,,2
html-keyboard-response,868,1673082,null,"",null,,,,,,,,
math-period,869,1674421,2568.5650000050664,"",,,,,,,,,2
html-keyboard-response,870,1674524,null,"",null,,,,,,,,
math-period,871,1676413,3578.119999998482,"",,,,,,,,,0
html-keyboard-response,872,1676517,null,"",null,,,,,,,,
math-period,873,1677793,2440.4099999994505,"",,,,,,,,,5
html-keyboard-response,874,1677897,null,"",null,,,,,,,,
math-period,875,1678890,1865.2250000012573,"",,,,,,,,,1
html-keyboard-response,876,1678995,null,"",null,,,,,,,,
math-period,877,1680144,2166.7299999971874,"",,,,,,,,,5
html-keyboard-response,878,1680248,null,"",null,,,,,,,,
math-period,879,1681463,2276.5400000023656,"",,,,,,,,,1
html-keyboard-response,880,1681567,null,"",null,,,,,,,,
math-period,881,1682602,1919.8299999986775,"",,,,,,,,,3
html-keyboard-response,882,1682705,null,"",null,,,,,,,,
math-period,883,1683918,2305.484999996843,"",,,,,,,,,6
html-keyboard-response,884,1684022,null,"",null,,,,,,,,
math-period,885,1685331,2463.3549999999814,"",,,,,,,,,3
html-keyboard-response,886,1685434,null,"",null,,,,,,,,
math-period,887,1686512,2032.8400000000838,"",,,,,,,,,5
html-keyboard-response,888,1686615,null,"",null,,,,,,,,
math-period,889,1687643,1920.3250000064727,"",,,,,,,,,4
html-keyboard-response,890,1687747,null,"",null,,,,,,,,
math-period,891,1688786,1927.89500000095,"",,,,,,,,,2
html-keyboard-response,892,1688893,null,"",null,,,,,,,,
math-period,893,1689813,1687.8900000012945,"",,,,,,,,,2
html-keyboard-response,894,1689916,null,"",null,,,,,,,,
math-period,895,1691088,2232.4449999979697,"",,,,,,,,,4
html-keyboard-response,896,1691193,null,"",null,,,,,,,,
math-period,897,1691391,null,"",,,,,,,,,
html-keyboard-response,898,1692396,null,"Recall Period!",null,,,,,,,,
call-function,899,1692398,,"",,,,,,,,,
html-keyboard-response,900,1692505,null,"",null,,,,,,,,
recall-period,901,1695135,13085.175000011921,"",,,,,,,,,bride
html-keyboard-response,902,1695239,null,"",null,,,,,,,,
recall-period,903,1696899,8908.339999999152,"",,,,,,,,,brunette
html-keyboard-response,904,1697003,null,"",null,,,,,,,,
recall-period,905,1700555,22293.70000000228,"",,,,,,,,,bandaid
html-keyboard-response,906,1700659,null,"",null,,,,,,,,
recall-period,907,1702561,9079.800000003306,"",,,,,,,,,nephew
html-keyboard-response,908,1702665,null,"",null,,,,,,,,
recall-period,909,1704266,8962.67500000936,"",,,,,,,,,grass
html-keyboard-response,910,1704370,null,"",null,,,,,,,,
recall-period,911,1705908,6798.11999999173,"",,,,,,,,,palace
html-keyboard-response,912,1706012,null,"",null,,,,,,,,
recall-period,913,1711448,34629.03000000701,"",,,,,,,,,list
html-keyboard-response,914,1711550,null,"",null,,,,,,,,
recall-period,915,1712576,4063.8050000125077,"",,,,,,,,,ruler
html-keyboard-response,916,1712680,null,"",null,,,,,,,,
recall-period,917,1728359,110111.77500000154,"",,,,,,,,,hatchet
html-keyboard-response,918,1728463,null,"",null,,,,,,,,
recall-period,919,1767401,null,"",,,,,,,,,
html-keyboard-response,920,1767905,null,"Time's Up!",null,,,,,,,,
html-keyboard-response,921,1772202,4294.60499999905,"<p> Good job! You responded correctly to 81% of the red squares.</p>
                  <p>Be sure to keep your accuracy above 80%</p>
                  <p>Press any key to continue the experiment. Thank you!</p>",32,,,,,,,,
html-keyboard-response,922,1776684,4480.145000001416,"<div style=""font-size:48px;"">Press any key to begin list 9 of 24 </div>",32,,,,,,,,
html-keyboard-response,923,1779186,null,"<div style=""font-size:60px;"">+</div>",null,,,,,,,,
html-keyboard-response,924,1779689,500.93499999982305,"LIZARD<img id = ""stim"" ><div class = red_square id = ""topsquare"" ></div><img id = ""stim"" ><div class = red_square  id = ""bottomsquare"" ></div>",32,word_square,response,1,Space,true,,,
html-keyboard-response,925,1781191,null,"LIZARD",null,word,,,,, 'LIZARD',,
html-keyboard-response,926,1781687,494.12500000116415,"BUTLER<img id = ""stim"" ><div class = red_square id = ""topsquare"" ></div><img id = ""stim"" ><div class = red_square  id = ""bottomsquare"" ></div>",32,word_square,response,1,Space,true,,,
html-keyboard-response,927,1783192,null,"BUTLER",null,word,,,,, 'BUTLER',,
html-keyboard-response,928,1783699,null,"SUITCASE<img id = ""stim"" ><div class = green_square id = ""topsquare"" ></div><img id = ""stim"" ><div class = green_square  id = ""bottomsquare"" ></div>",null,word_square,response,0,none,true,,,
html-keyboard-response,929,1785203,null,"SUITCASE",null,word,,,,, 'SUITCASE',,
html-keyboard-response,930,1785710,null,"JEEP<img id = ""stim"" ><div class = green_square id = ""topsquare"" ></div><img id = ""stim"" ><div class = green_square  id = ""bottomsquare"" ></div>",null,word_square,response,0,none,true,,,
html-keyboard-response,931,1787213,null,"JEEP",null,word,,,,, 'JEEP',,
html-keyboard-response,932,1787715,null,"FRIES<img id = ""stim"" ><div class = red_square id = ""topsquare"" ></div><img id = ""stim"" ><div class = red_square  id = ""bottomsquare"" ></div>",null,word_square,response,1,Space,false,,,
html-keyboard-response,933,1789220,null,"FRIES",null,word,,,,, 'FRIES',,
html-keyboard-response,934,1789727,null,"LANDSCAPE<img id = ""stim"" ><div class = green_square id = ""topsquare"" ></div><img id = ""stim"" ><div class = green_square  id = ""bottomsquare"" ></div>",null,word_square,response,0,none,true,,,
html-keyboard-response,935,1791232,null,"LANDSCAPE",null,word,,,,, 'LANDSCAPE',,
html-keyboard-response,936,1791740,null,"FUNGUS<img id = ""stim"" ><div class = green_square id = ""topsquare"" ></div><img id = ""stim"" ><div class = green_square  id = ""bottomsquare"" ></div>",null,word_square,response,0,none,true,,,
html-keyboard-response,937,1793241,null,"FUNGUS",null,word,,,,, 'FUNGUS',,
html-keyboard-response,938,1793705,462.4499999990221,"MILDEW<img id = ""stim"" ><div class = red_square id = ""topsquare"" ></div><img id = ""stim"" ><div class = red_square  id = ""bottomsquare"" ></div>",32,word_square,response,1,Space,true,,,
html-keyboard-response,939,1795213,null,"MILDEW",null,word,,,,, 'MILDEW',,
html-keyboard-response,940,1795720,null,"NURSE<img id = ""stim"" ><div class = green_square id = ""topsquare"" ></div><img id = ""stim"" ><div class = green_square  id = ""bottomsquare"" ></div>",null,word_square,response,0,none,true,,,
html-keyboard-response,941,1797223,null,"NURSE",null,word,,,,, 'NURSE',,
html-keyboard-response,942,1797731,null,"STRANGER<img id = ""stim"" ><div class = green_square id = ""topsquare"" ></div><img id = ""stim"" ><div class = green_square  id = ""bottomsquare"" ></div>",null,word_square,response,0,none,true,,,
html-keyboard-response,943,1799236,null,"STRANGER",null,word,,,,, 'STRANGER',,
html-keyboard-response,944,1799741,null,"ANGEL<img id = ""stim"" ><div class = red_square id = ""topsquare"" ></div><img id = ""stim"" ><div class = red_square  id = ""bottomsquare"" ></div>",null,word_square,response,1,Space,false,,,
html-keyboard-response,945,1801248,null,"ANGEL",null,word,,,,, 'ANGEL',,
html-keyboard-response,946,1801753,null,"TOURIST<img id = ""stim"" ><div class = red_square id = ""topsquare"" ></div><img id = ""stim"" ><div class = red_square  id = ""bottomsquare"" ></div>",null,word_square,response,1,Space,false,,,
html-keyboard-response,947,1803260,null,"TOURIST",null,word,,,,, 'TOURIST',,
html-keyboard-response,948,1803765,null,"SLIDE<img id = ""stim"" ><div class = green_square id = ""topsquare"" ></div><img id = ""stim"" ><div class = green_square  id = ""bottomsquare"" ></div>",null,word_square,response,0,none,true,,,
html-keyboard-response,949,1805272,null,"SLIDE",null,word,,,,, 'SLIDE',,
html-keyboard-response,950,1805739,465.08499999996275,"MASK<img id = ""stim"" ><div class = red_square id = ""topsquare"" ></div><img id = ""stim"" ><div class = red_square  id = ""bottomsquare"" ></div>",32,word_square,response,1,Space,true,,,
html-keyboard-response,951,1807242,null,"MASK",null,word,,,,, 'MASK',,
html-keyboard-response,952,1807749,null,"CLIFF<img id = ""stim"" ><div class = green_square id = ""topsquare"" ></div><img id = ""stim"" ><div class = green_square  id = ""bottomsquare"" ></div>",null,word_square,response,0,none,true,,,
html-keyboard-response,953,1809255,null,"CLIFF",null,word,,,,, 'CLIFF',,
html-keyboard-response,954,1809762,null,"SHERIFF<img id = ""stim"" ><div class = red_square id = ""topsquare"" ></div><img id = ""stim"" ><div class = red_square  id = ""bottomsquare"" ></div>",null,word_square,response,1,Space,false,,,
html-keyboard-response,955,1811269,null,"SHERIFF",null,word,,,,, 'SHERIFF',,
html-keyboard-response,956,1811775,null,"RAFT<img id = ""stim"" ><div class = green_square id = ""topsquare"" ></div><img id = ""stim"" ><div class = green_square  id = ""bottomsquare"" ></div>",null,word_square,response,0,none,true,,,
html-keyboard-response,957,1813279,null,"RAFT",null,word,,,,, 'RAFT',,
html-keyboard-response,958,1813762,481.00999999954365,"BLACKBOARD<img id = ""stim"" ><div class = red_square id = ""topsquare"" ></div><img id = ""stim"" ><div class = red_square  id = ""bottomsquare"" ></div>",32,word_square,response,1,Space,true,,,
html-keyboard-response,959,1815266,null,"BLACKBOARD",null,word,,,,, 'BLACKBOARD',,
call-function,960,1815268,,"",,,,,,,,,
html-keyboard-response,961,1815375,null,"",null,,,,,,,,
math-period,962,1816715,2230.1449999976903,"",,,,,,,,,3
html-keyboard-response,963,1816818,null,"",null,,,,,,,,
math-period,964,1817814,1846.0449999948032,"",,,,,,,,,4
html-keyboard-response,965,1817917,null,"",null,,,,,,,,
math-period,966,1819103,2242.420000002254,"",,,,,,,,,6
html-keyboard-response,967,1819207,null,"",null,,,,,,,,
math-period,968,1820552,2532.8950000004843,"",,,,,,,,,1
html-keyboard-response,969,1820655,null,"",null,,,,,,,,
math-period,970,1821944,2407.155000004219,"",,,,,,,,,1
html-keyboard-response,971,1822047,null,"",null,,,,,,,,
math-period,972,1823370,2526.9800000025425,"",,,,,,,,,1
html-keyboard-response,973,1823474,null,"",null,,,,,,,,
math-period,974,1824756,2367.024999999907,"",,,,,,,,,2
html-keyboard-response,975,1824859,null,"",null,,,,,,,,
math-period,976,1826134,2372.0150000010617,"",,,,,,,,,4
html-keyboard-response,977,1826238,null,"",null,,,,,,,,
math-period,978,1827134,1665.7149999993853,"",,,,,,,,,3
html-keyboard-response,979,1827237,null,"",null,,,,,,,,
math-period,980,1828201,1776.9499999959953,"",,,,,,,,,4
html-keyboard-response,981,1828305,null,"",null,,,,,,,,
math-period,982,1829613,2446.98000000068,"",,,,,,,,,6
html-keyboard-response,983,1829717,null,"",null,,,,,,,,
math-period,984,1830844,2038.8099999979604,"",,,,,,,,,4
html-keyboard-response,985,1830947,null,"",null,,,,,,,,
math-period,986,1832064,2101.840000002878,"",,,,,,,,,5
html-keyboard-response,987,1832167,null,"",null,,,,,,,,
math-period,988,1833031,1573.4449999982025,"",,,,,,,,,2
