trial_type,trial_index,time_elapsed,rt,stimulus,key_press,test_part,task,targ_cond,correctKeyCode,correct,word,value,response
pavlovia,0,938,,"",,,,,,,,,
external-html,1,209925,208839.09000002313,"",,,,,,,,,
html-keyboard-response,2,295817,85888.64999997895,"Welcome to the experiment. Press any key to begin.",32,,,,,,,,
html-keyboard-response,3,300595,4775.969999958761,"<p>You will see a list of words and colored squares in the following task.<p><p>Press the spacebar whenever you see a GREEN square.<p><p>Do not press a key if the square is RED<p><p>Press the spacebar to continue.</p>",32,,,,,,,,
html-keyboard-response,4,322056,20958.159999980126,"<p>Please try to remember as many of the words as you can, and try to think about the meaning of each word as it appears.<p><p>After the detection and encoding task you will be asked to solve some math problems for 24 seconds.<p> Please solve as many problems as you can in the time given. <p>",37,,,,,,,,
html-keyboard-response,5,331611,9052.415000041947,"After solving the math problems, you will be asked to type in as many words <p>from the previous list as you can remember for 75 seconds.<p> If you finish recalling before the 75 seconds are up,<p> just sit tight and try to think of any more words you could have missed. <p><p>We will begin with a brief practice session<p>Press the spacebar to begin the practice.</p>",16,,,,,,,,
html-keyboard-response,6,334122,null,"<div style=""font-size:60px;"">+</div>",null,,,,,,,,
html-keyboard-response,7,334632,null,"HAPPY<img id = ""stim"" ><div class = red_square id = ""topsquare"" ></div><img id = ""stim"" ><div class = red_square  id = ""bottomsquare"" ></div>",null,word_square,prac_response,0,none,true,,,
html-keyboard-response,8,336134,null,"HAPPY",null,word,,,,,HAPPY,,
html-keyboard-response,9,336642,null,"COLD<img id = ""stim"" ><div class = green_square id = ""topsquare"" ></div><img id = ""stim"" ><div class = green_square  id = ""bottomsquare"" ></div>",null,word_square,prac_response,1,Space,false,,,
html-keyboard-response,10,338145,null,"COLD",null,word,,,,,COLD,,
html-keyboard-response,11,338648,314.7350000217557,"HEAVY<img id = ""stim"" ><div class = green_square id = ""topsquare"" ></div><img id = ""stim"" ><div class = green_square  id = ""bottomsquare"" ></div>",32,word_square,prac_response,1,Space,true,,,
html-keyboard-response,12,340152,null,"HEAVY",null,word,,,,,HEAVY,,
html-keyboard-response,13,340659,null,"FUNNY<img id = ""stim"" ><div class = red_square id = ""topsquare"" ></div><img id = ""stim"" ><div class = red_square  id = ""bottomsquare"" ></div>",null,word_square,prac_response,0,none,true,,,
html-keyboard-response,14,342162,null,"FUNNY",null,word,,,,,FUNNY,,
html-keyboard-response,15,342668,null,"SCARY<img id = ""stim"" ><div class = green_square id = ""topsquare"" ></div><img id = ""stim"" ><div class = green_square  id = ""bottomsquare"" ></div>",null,word_square,prac_response,1,Space,false,,,
html-keyboard-response,16,344170,null,"SCARY",null,word,,,,,SCARY,,
html-keyboard-response,17,344674,null,"PEACEFUL<img id = ""stim"" ><div class = green_square id = ""topsquare"" ></div><img id = ""stim"" ><div class = green_square  id = ""bottomsquare"" ></div>",null,word_square,prac_response,1,Space,false,,,
html-keyboard-response,18,346176,null,"PEACEFUL",null,word,,,,,PEACEFUL,,
html-keyboard-response,19,346680,null,"LITTLE<img id = ""stim"" ><div class = red_square id = ""topsquare"" ></div><img id = ""stim"" ><div class = red_square  id = ""bottomsquare"" ></div>",null,word_square,prac_response,0,none,true,,,
html-keyboard-response,20,348182,null,"LITTLE",null,word,,,,,LITTLE,,
html-keyboard-response,21,348688,null,"TIRED<img id = ""stim"" ><div class = red_square id = ""topsquare"" ></div><img id = ""stim"" ><div class = red_square  id = ""bottomsquare"" ></div>",null,word_square,prac_response,0,none,true,,,
html-keyboard-response,22,350191,null,"TIRED",null,word,,,,,TIRED,,
html-keyboard-response,23,350695,null,"ENTERTAINING<img id = ""stim"" ><div class = red_square id = ""topsquare"" ></div><img id = ""stim"" ><div class = red_square  id = ""bottomsquare"" ></div>",null,word_square,prac_response,0,none,true,,,
html-keyboard-response,24,352200,null,"ENTERTAINING",null,word,,,,,ENTERTAINING,,
html-keyboard-response,25,352705,null,"GRATEFUL<img id = ""stim"" ><div class = green_square id = ""topsquare"" ></div><img id = ""stim"" ><div class = green_square  id = ""bottomsquare"" ></div>",null,word_square,prac_response,1,Space,false,,,
html-keyboard-response,26,354207,null,"GRATEFUL",null,word,,,,,GRATEFUL,,
html-keyboard-response,27,354713,null,"LOUD<img id = ""stim"" ><div class = red_square id = ""topsquare"" ></div><img id = ""stim"" ><div class = red_square  id = ""bottomsquare"" ></div>",null,word_square,prac_response,0,none,true,,,
html-keyboard-response,28,356216,null,"LOUD",null,word,,,,,LOUD,,
html-keyboard-response,29,356722,408.69000001112,"SMART<img id = ""stim"" ><div class = green_square id = ""topsquare"" ></div><img id = ""stim"" ><div class = green_square  id = ""bottomsquare"" ></div>",32,word_square,prac_response,1,Space,true,,,
html-keyboard-response,30,358224,null,"SMART",null,word,,,,,SMART,,
html-keyboard-response,31,358730,484.9299999768846,"SMOOTH<img id = ""stim"" ><div class = green_square id = ""topsquare"" ></div><img id = ""stim"" ><div class = green_square  id = ""bottomsquare"" ></div>",32,word_square,prac_response,1,Space,true,,,
html-keyboard-response,32,360234,null,"SMOOTH",null,word,,,,,SMOOTH,,
html-keyboard-response,33,360741,null,"DISHONEST<img id = ""stim"" ><div class = red_square id = ""topsquare"" ></div><img id = ""stim"" ><div class = red_square  id = ""bottomsquare"" ></div>",null,word_square,prac_response,0,none,true,,,
html-keyboard-response,34,362244,null,"DISHONEST",null,word,,,,,DISHONEST,,
html-keyboard-response,35,362749,379.1450000135228,"WEALTHY<img id = ""stim"" ><div class = green_square id = ""topsquare"" ></div><img id = ""stim"" ><div class = green_square  id = ""bottomsquare"" ></div>",32,word_square,prac_response,1,Space,true,,,
html-keyboard-response,36,364250,null,"WEALTHY",null,word,,,,,WEALTHY,,
html-keyboard-response,37,364754,null,"BEAUTIFUL<img id = ""stim"" ><div class = red_square id = ""topsquare"" ></div><img id = ""stim"" ><div class = red_square  id = ""bottomsquare"" ></div>",null,word_square,prac_response,0,none,true,,,
html-keyboard-response,38,366261,null,"BEAUTIFUL",null,word,,,,,BEAUTIFUL,,
html-keyboard-response,39,366763,283.86500000488013,"DREARY<img id = ""stim"" ><div class = red_square id = ""topsquare"" ></div><img id = ""stim"" ><div class = red_square  id = ""bottomsquare"" ></div>",32,word_square,prac_response,0,none,true,,,
html-keyboard-response,40,368270,null,"DREARY",null,word,,,,,DREARY,,
html-keyboard-response,41,368775,null,"PLAYFUL<img id = ""stim"" ><div class = green_square id = ""topsquare"" ></div><img id = ""stim"" ><div class = green_square  id = ""bottomsquare"" ></div>",null,word_square,prac_response,1,Space,false,,,
html-keyboard-response,42,370277,null,"PLAYFUL",null,word,,,,,PLAYFUL,,
html-keyboard-response,43,384787,14506.909999996424,"<p> Uh oh. You responded correctly on 72% of the GREEN squares.</p>
                  <p>We need you keep your accuracy above 80%</p>
                  <p>We're going to try once more to make sure you understand the task. press any key to continue.</p>",32,,,,,,,,
html-keyboard-response,44,385705,916.3699999917299,"<p>You will see a list of words and colored squares in the following task.<p><p>Press the spacebar whenever you see a GREEN square.<p><p>Do not press a key if the square is RED<p><p>Press the spacebar to continue.</p>",32,,,,,,,,
html-keyboard-response,45,388216,null,"<div style=""font-size:60px;"">+</div>",null,,,,,,,,
html-keyboard-response,46,388721,null,"HAPPY<img id = ""stim"" ><div class = red_square id = ""topsquare"" ></div><img id = ""stim"" ><div class = red_square  id = ""bottomsquare"" ></div>",null,word_square,response,0,none,true,,,
html-keyboard-response,47,390224,null,"HAPPY",null,word,,,,,HAPPY,,
html-keyboard-response,48,390632,405.7850000099279,"COLD<img id = ""stim"" ><div class = green_square id = ""topsquare"" ></div><img id = ""stim"" ><div class = green_square  id = ""bottomsquare"" ></div>",32,word_square,response,1,Space,true,,,
html-keyboard-response,49,392138,null,"COLD",null,word,,,,,COLD,,
html-keyboard-response,50,392584,443.58000002102926,"HEAVY<img id = ""stim"" ><div class = green_square id = ""topsquare"" ></div><img id = ""stim"" ><div class = green_square  id = ""bottomsquare"" ></div>",32,word_square,response,1,Space,true,,,
html-keyboard-response,51,394091,null,"HEAVY",null,word,,,,,HEAVY,,
html-keyboard-response,52,394597,null,"FUNNY<img id = ""stim"" ><div class = red_square id = ""topsquare"" ></div><img id = ""stim"" ><div class = red_square  id = ""bottomsquare"" ></div>",null,word_square,response,0,none,true,,,
html-keyboard-response,53,396104,null,"FUNNY",null,word,,,,,FUNNY,,
html-keyboard-response,54,396607,null,"SCARY<img id = ""stim"" ><div class = green_square id = ""topsquare"" ></div><img id = ""stim"" ><div class = green_square  id = ""bottomsquare"" ></div>",null,word_square,response,1,Space,false,,,
html-keyboard-response,55,398113,null,"SCARY",null,word,,,,,SCARY,,
html-keyboard-response,56,398616,null,"PEACEFUL<img id = ""stim"" ><div class = green_square id = ""topsquare"" ></div><img id = ""stim"" ><div class = green_square  id = ""bottomsquare"" ></div>",null,word_square,response,1,Space,false,,,
html-keyboard-response,57,400123,null,"PEACEFUL",null,word,,,,,PEACEFUL,,
html-keyboard-response,58,400625,null,"LITTLE<img id = ""stim"" ><div class = red_square id = ""topsquare"" ></div><img id = ""stim"" ><div class = red_square  id = ""bottomsquare"" ></div>",null,word_square,response,0,none,true,,,
html-keyboard-response,59,402131,null,"LITTLE",null,word,,,,,LITTLE,,
html-keyboard-response,60,402634,null,"TIRED<img id = ""stim"" ><div class = red_square id = ""topsquare"" ></div><img id = ""stim"" ><div class = red_square  id = ""bottomsquare"" ></div>",null,word_square,response,0,none,true,,,
html-keyboard-response,61,404141,null,"TIRED",null,word,,,,,TIRED,,
html-keyboard-response,62,404644,null,"ENTERTAINING<img id = ""stim"" ><div class = red_square id = ""topsquare"" ></div><img id = ""stim"" ><div class = red_square  id = ""bottomsquare"" ></div>",null,word_square,response,0,none,true,,,
html-keyboard-response,63,406151,null,"ENTERTAINING",null,word,,,,,ENTERTAINING,,
html-keyboard-response,64,406654,null,"GRATEFUL<img id = ""stim"" ><div class = green_square id = ""topsquare"" ></div><img id = ""stim"" ><div class = green_square  id = ""bottomsquare"" ></div>",null,word_square,response,1,Space,false,,,
html-keyboard-response,65,408156,null,"GRATEFUL",null,word,,,,,GRATEFUL,,
html-keyboard-response,66,408662,null,"LOUD<img id = ""stim"" ><div class = red_square id = ""topsquare"" ></div><img id = ""stim"" ><div class = red_square  id = ""bottomsquare"" ></div>",null,word_square,response,0,none,true,,,
html-keyboard-response,67,410166,null,"LOUD",null,word,,,,,LOUD,,
html-keyboard-response,68,410613,444.71499999053776,"SMART<img id = ""stim"" ><div class = green_square id = ""topsquare"" ></div><img id = ""stim"" ><div class = green_square  id = ""bottomsquare"" ></div>",32,word_square,response,1,Space,true,,,
html-keyboard-response,69,412115,null,"SMART",null,word,,,,,SMART,,
html-keyboard-response,70,412537,420.0150000397116,"SMOOTH<img id = ""stim"" ><div class = green_square id = ""topsquare"" ></div><img id = ""stim"" ><div class = green_square  id = ""bottomsquare"" ></div>",32,word_square,response,1,Space,true,,,
html-keyboard-response,71,414045,null,"SMOOTH",null,word,,,,,SMOOTH,,
html-keyboard-response,72,414547,null,"DISHONEST<img id = ""stim"" ><div class = red_square id = ""topsquare"" ></div><img id = ""stim"" ><div class = red_square  id = ""bottomsquare"" ></div>",null,word_square,response,0,none,true,,,
html-keyboard-response,73,416054,null,"DISHONEST",null,word,,,,,DISHONEST,,
html-keyboard-response,74,416561,null,"WEALTHY<img id = ""stim"" ><div class = green_square id = ""topsquare"" ></div><img id = ""stim"" ><div class = green_square  id = ""bottomsquare"" ></div>",null,word_square,response,1,Space,false,,,
html-keyboard-response,75,418063,null,"WEALTHY",null,word,,,,,WEALTHY,,
html-keyboard-response,76,418570,null,"BEAUTIFUL<img id = ""stim"" ><div class = red_square id = ""topsquare"" ></div><img id = ""stim"" ><div class = red_square  id = ""bottomsquare"" ></div>",null,word_square,response,0,none,true,,,
html-keyboard-response,77,420072,null,"BEAUTIFUL",null,word,,,,,BEAUTIFUL,,
html-keyboard-response,78,420579,null,"DREARY<img id = ""stim"" ><div class = red_square id = ""topsquare"" ></div><img id = ""stim"" ><div class = red_square  id = ""bottomsquare"" ></div>",null,word_square,response,0,none,true,,,
html-keyboard-response,79,422082,null,"DREARY",null,word,,,,,DREARY,,
html-keyboard-response,80,422492,407.1600000024773,"PLAYFUL<img id = ""stim"" ><div class = green_square id = ""topsquare"" ></div><img id = ""stim"" ><div class = green_square  id = ""bottomsquare"" ></div>",32,word_square,response,1,Space,true,,,
html-keyboard-response,81,423994,null,"PLAYFUL",null,word,,,,,PLAYFUL,,
html-keyboard-response,82,427629,3632.3199999751523,"<p> Uh oh. You responded correctly on 78% of the GREEN squares.</p>
                  <p>We need you keep your accuracy above 80%</p>
                  <p>Press any key to begin the math and recall sections. Thank you!</p>",32,,,,,,,,
call-function,83,427631,,"",,,,,,,,,
html-keyboard-response,84,427734,null,"",null,,,,,,,,
math-period,85,435744,15422.779999964405,"",,,,,,,,,1
html-keyboard-response,86,435847,null,"",null,,,,,,,,
math-period,87,438714,5553.2550000352785,"",,,,,,,,,2
html-keyboard-response,88,438817,null,"",null,,,,,,,,
math-period,89,440263,2767.8949999972247,"",,,,,,,,,2
html-keyboard-response,90,440367,null,"",null,,,,,,,,
math-period,91,442787,4706.009999965318,"",,,,,,,,,2
html-keyboard-response,92,442891,null,"",null,,,,,,,,
math-period,93,444929,3766.5600000764243,"",,,,,,,,,2
html-keyboard-response,94,445033,null,"",null,,,,,,,,
math-period,95,446562,2873.2299999683164,"",,,,,,,,,3
html-keyboard-response,96,446665,null,"",null,,,,,,,,
math-period,97,448798,4078.349999967031,"",,,,,,,,,1
html-keyboard-response,98,448901,null,"",null,,,,,,,,
math-period,99,451633,null,"",,,,,,,,,
html-keyboard-response,100,452636,null,"Recall Period!",null,,,,,,,,
call-function,101,452637,,"",,,,,,,,,
html-keyboard-response,102,452744,null,"",null,,,,,,,,
recall-period,103,458913,33526.8849999411,"",,,,,,,,,happy
html-keyboard-response,104,459016,null,"",null,,,,,,,,
recall-period,105,482895,185945.92000014381,"",,,,,,,,,happy
html-keyboard-response,106,482999,null,"",null,,,,,,,,
recall-period,107,487921,41767.1299999929,"",,,,,,,,,delightful
html-keyboard-response,108,488024,null,"",null,,,,,,,,
recall-period,109,497667,55661.82999999728,"",,,,,,,,,tired
html-keyboard-response,110,497770,null,"",null,,,,,,,,
recall-period,111,503945,47771.8599998625,"",,,,,,,,,greatful
html-keyboard-response,112,504048,null,"",null,,,,,,,,
recall-period,113,513520,89317.36500014085,"",,,,,,,,,peaceful
html-keyboard-response,114,513623,null,"",null,,,,,,,,
recall-period,115,526252,63974.83000002103,"",,,,,,,,,scary
html-keyboard-response,116,526356,null,"",null,,,,,,,,
recall-period,117,527643,null,"",,,,,,,,,
html-keyboard-response,118,528150,null,"Time's Up!",null,,,,,,,,
html-keyboard-response,119,535408,7256.549999990966,"<p>We will now begin the experiment!<p><p>Please try to remember all words from each list.<p><p>Press the spacebar whenever you see a GREEN square.<p><p><p><p>Press the spacebar to begin.</p>",32,,,,,,,,
html-keyboard-response,120,541631,5720.715000003111,"<div style=""font-size:48px;"">Press any key to begin list 1 of 24 </div>",32,,,,,,,,
html-keyboard-response,121,544135,null,"<div style=""font-size:60px;"">+</div>",null,,,,,,,,
html-keyboard-response,122,544638,null,"FRIES<img id = ""stim"" ><div class = red_square id = ""topsquare"" ></div><img id = ""stim"" ><div class = red_square  id = ""bottomsquare"" ></div>",null,word_square,response,0,none,true,,,
html-keyboard-response,123,546140,null,"FRIES",null,word,,,,, 'FRIES',,
html-keyboard-response,124,546643,501.2550000101328,"CREATURE<img id = ""stim"" ><div class = green_square id = ""topsquare"" ></div><img id = ""stim"" ><div class = green_square  id = ""bottomsquare"" ></div>",32,word_square,response,1,Space,true,,,
html-keyboard-response,125,548145,null,"CREATURE",null,word,,,,, 'CREATURE',,
html-keyboard-response,126,548653,null,"CRADLE<img id = ""stim"" ><div class = red_square id = ""topsquare"" ></div><img id = ""stim"" ><div class = red_square  id = ""bottomsquare"" ></div>",null,word_square,response,0,none,true,,,
html-keyboard-response,127,550155,null,"CRADLE",null,word,,,,, 'CRADLE',,
html-keyboard-response,128,550662,null,"SCRIBBLE<img id = ""stim"" ><div class = green_square id = ""topsquare"" ></div><img id = ""stim"" ><div class = green_square  id = ""bottomsquare"" ></div>",null,word_square,response,1,Space,false,,,
html-keyboard-response,129,552165,null,"SCRIBBLE",null,word,,,,, 'SCRIBBLE',,
html-keyboard-response,130,552547,380.44999999692664,"CLOTHES<img id = ""stim"" ><div class = green_square id = ""topsquare"" ></div><img id = ""stim"" ><div class = green_square  id = ""bottomsquare"" ></div>",32,word_square,response,1,Space,true,,,
html-keyboard-response,131,554054,null,"CLOTHES",null,word,,,,, 'CLOTHES',,
html-keyboard-response,132,554360,304.02999999932945,"SEAFOOD<img id = ""stim"" ><div class = green_square id = ""topsquare"" ></div><img id = ""stim"" ><div class = green_square  id = ""bottomsquare"" ></div>",32,word_square,response,1,Space,true,,,
html-keyboard-response,133,555867,null,"SEAFOOD",null,word,,,,, 'SEAFOOD',,
html-keyboard-response,134,556170,300.71000003954396,"DIAMOND<img id = ""stim"" ><div class = green_square id = ""topsquare"" ></div><img id = ""stim"" ><div class = green_square  id = ""bottomsquare"" ></div>",32,word_square,response,1,Space,true,,,
html-keyboard-response,135,557677,null,"DIAMOND",null,word,,,,, 'DIAMOND',,
html-keyboard-response,136,557994,316.02000002749264,"SNACK<img id = ""stim"" ><div class = red_square id = ""topsquare"" ></div><img id = ""stim"" ><div class = red_square  id = ""bottomsquare"" ></div>",32,word_square,response,0,none,false,,,
html-keyboard-response,137,559501,null,"SNACK",null,word,,,,, 'SNACK',,
html-keyboard-response,138,559914,411.5100000053644,"BISON<img id = ""stim"" ><div class = green_square id = ""topsquare"" ></div><img id = ""stim"" ><div class = green_square  id = ""bottomsquare"" ></div>",32,word_square,response,1,Space,true,,,
html-keyboard-response,139,561421,null,"BISON",null,word,,,,, 'BISON',,
html-keyboard-response,140,561925,null,"PADDING<img id = ""stim"" ><div class = red_square id = ""topsquare"" ></div><img id = ""stim"" ><div class = red_square  id = ""bottomsquare"" ></div>",null,word_square,response,0,none,true,,,
html-keyboard-response,141,563432,null,"PADDING",null,word,,,,, 'PADDING',,
html-keyboard-response,142,563938,null,"RUG<img id = ""stim"" ><div class = red_square id = ""topsquare"" ></div><img id = ""stim"" ><div class = red_square  id = ""bottomsquare"" ></div>",null,word_square,response,0,none,true,,,
html-keyboard-response,143,565446,null,"RUG",null,word,,,,, 'RUG',,
html-keyboard-response,144,565845,398.0600000359118,"PIRATE<img id = ""stim"" ><div class = green_square id = ""topsquare"" ></div><img id = ""stim"" ><div class = green_square  id = ""bottomsquare"" ></div>",32,word_square,response,1,Space,true,,,
html-keyboard-response,145,567353,null,"PIRATE",null,word,,,,, 'PIRATE',,
html-keyboard-response,146,567860,null,"NIGHTGOWN<img id = ""stim"" ><div class = red_square id = ""topsquare"" ></div><img id = ""stim"" ><div class = red_square  id = ""bottomsquare"" ></div>",null,word_square,response,0,none,true,,,
html-keyboard-response,147,569367,null,"NIGHTGOWN",null,word,,,,, 'NIGHTGOWN',,
html-keyboard-response,148,569874,null,"SHOULDER<img id = ""stim"" ><div class = red_square id = ""topsquare"" ></div><img id = ""stim"" ><div class = red_square  id = ""bottomsquare"" ></div>",null,word_square,response,0,none,true,,,
html-keyboard-response,149,571378,null,"SHOULDER",null,word,,,,, 'SHOULDER',,
html-keyboard-response,150,571667,287.9349999711849,"NEPHEW<img id = ""stim"" ><div class = green_square id = ""topsquare"" ></div><img id = ""stim"" ><div class = green_square  id = ""bottomsquare"" ></div>",32,word_square,response,1,Space,true,,,
html-keyboard-response,151,573174,null,"NEPHEW",null,word,,,,, 'NEPHEW',,
html-keyboard-response,152,573682,null,"WAITER<img id = ""stim"" ><div class = red_square id = ""topsquare"" ></div><img id = ""stim"" ><div class = red_square  id = ""bottomsquare"" ></div>",null,word_square,response,0,none,true,,,
html-keyboard-response,153,575186,null,"WAITER",null,word,,,,, 'WAITER',,
html-keyboard-response,154,575689,null,"SUGAR<img id = ""stim"" ><div class = red_square id = ""topsquare"" ></div><img id = ""stim"" ><div class = red_square  id = ""bottomsquare"" ></div>",null,word_square,response,0,none,true,,,
html-keyboard-response,155,577196,null,"SUGAR",null,word,,,,, 'SUGAR',,
html-keyboard-response,156,577703,null,"JAPAN<img id = ""stim"" ><div class = green_square id = ""topsquare"" ></div><img id = ""stim"" ><div class = green_square  id = ""bottomsquare"" ></div>",null,word_square,response,1,Space,false,,,
html-keyboard-response,157,579205,null,"JAPAN",null,word,,,,, 'JAPAN',,
call-function,158,579207,,"",,,,,,,,,
html-keyboard-response,159,579313,null,"",null,,,,,,,,
math-period,160,582155,5021.810000005644,"",,,,,,,,,1
html-keyboard-response,161,582259,null,"",null,,,,,,,,
math-period,162,584925,5211.209999979474,"",,,,,,,,,5
html-keyboard-response,163,585028,null,"",null,,,,,,,,
math-period,164,587311,4430.109999957494,"",,,,,,,,,5
html-keyboard-response,165,587415,null,"",null,,,,,,,,
math-period,166,589262,3582.0450000464916,"",,,,,,,,,2
html-keyboard-response,167,589366,null,"",null,,,,,,,,
math-period,168,590551,2212.0250000734814,"",,,,,,,,,2
html-keyboard-response,169,590655,null,"",null,,,,,,,,
math-period,170,592497,3467.4649999360554,"",,,,,,,,,4
html-keyboard-response,171,592602,null,"",null,,,,,,,,
math-period,172,594204,3040.7300000078976,"",,,,,,,,,2
html-keyboard-response,173,594307,null,"",null,,,,,,,,
math-period,174,597178,5504.9850000068545,"",,,,,,,,,6
html-keyboard-response,175,597281,null,"",null,,,,,,,,
math-period,176,599082,3383.215000038035,"",,,,,,,,,2
html-keyboard-response,177,599185,null,"",null,,,,,,,,
math-period,178,601967,5354.639999975916,"",,,,,,,,,0
html-keyboard-response,179,602071,null,"",null,,,,,,,,
math-period,180,603212,null,"",,,,,,,,,
html-keyboard-response,181,604216,null,"Recall Period!",null,,,,,,,,
call-function,182,604218,,"",,,,,,,,,
html-keyboard-response,183,604319,null,"",null,,,,,,,,
recall-period,184,615103,123463.93500029808,"",,,,,,,,,waitor
html-keyboard-response,185,615207,null,"",null,,,,,,,,
recall-period,186,618024,12595.93000006862,"",,,,,,,,,sugar
html-keyboard-response,187,618128,null,"",null,,,,,,,,
recall-period,188,619608,5450.915000052191,"",,,,,,,,,japan
html-keyboard-response,189,619712,null,"",null,,,,,,,,
recall-period,190,671289,51575.439999985974,"",,,,,,,,,
html-keyboard-response,191,671391,null,"",null,,,,,,,,
recall-period,192,680126,null,"",,,,,,,,,
html-keyboard-response,193,680632,null,"Time's Up!",null,,,,,,,,
html-keyboard-response,194,685025,4390.669999993406,"<p> Good job! You responded correctly to 81% of the GREEN squares.</p>
                  <p>Be sure to keep your accuracy above 80%</p>
                  <p>Press any key to continue the experiment. Thank you!</p>",32,,,,,,,,
html-keyboard-response,195,686121,1093.6099999817088,"<div style=""font-size:48px;"">Press any key to begin list 2 of 24 </div>",32,,,,,,,,
html-keyboard-response,196,688631,null,"<div style=""font-size:60px;"">+</div>",null,,,,,,,,
html-keyboard-response,197,689138,null,"FIST<img id = ""stim"" ><div class = red_square id = ""topsquare"" ></div><img id = ""stim"" ><div class = red_square  id = ""bottomsquare"" ></div>",null,word_square,response,0,none,true,,,
html-keyboard-response,198,690640,null,"FIST",null,word,,,,, 'FIST',,
html-keyboard-response,199,691143,null,"KNAPSACK<img id = ""stim"" ><div class = green_square id = ""topsquare"" ></div><img id = ""stim"" ><div class = green_square  id = ""bottomsquare"" ></div>",null,word_square,response,1,Space,false,,,
html-keyboard-response,200,692646,null,"KNAPSACK",null,word,,,,, 'KNAPSACK',,
html-keyboard-response,201,693148,null,"MATCH<img id = ""stim"" ><div class = red_square id = ""topsquare"" ></div><img id = ""stim"" ><div class = red_square  id = ""bottomsquare"" ></div>",null,word_square,response,0,none,true,,,
html-keyboard-response,202,694651,null,"MATCH",null,word,,,,, 'MATCH',,
html-keyboard-response,203,695159,null,"FOREHEAD<img id = ""stim"" ><div class = green_square id = ""topsquare"" ></div><img id = ""stim"" ><div class = green_square  id = ""bottomsquare"" ></div>",null,word_square,response,1,Space,false,,,
html-keyboard-response,204,696660,null,"FOREHEAD",null,word,,,,, 'FOREHEAD',,
html-keyboard-response,205,697025,362.4899999704212,"BUTLER<img id = ""stim"" ><div class = green_square id = ""topsquare"" ></div><img id = ""stim"" ><div class = green_square  id = ""bottomsquare"" ></div>",32,word_square,response,1,Space,true,,,
html-keyboard-response,206,698532,null,"BUTLER",null,word,,,,, 'BUTLER',,
html-keyboard-response,207,699037,null,"SOCKET<img id = ""stim"" ><div class = green_square id = ""topsquare"" ></div><img id = ""stim"" ><div class = green_square  id = ""bottomsquare"" ></div>",null,word_square,response,1,Space,false,,,
html-keyboard-response,208,700544,null,"SOCKET",null,word,,,,, 'SOCKET',,
html-keyboard-response,209,701049,null,"WAIST<img id = ""stim"" ><div class = green_square id = ""topsquare"" ></div><img id = ""stim"" ><div class = green_square  id = ""bottomsquare"" ></div>",null,word_square,response,1,Space,false,,,
html-keyboard-response,210,702556,null,"WAIST",null,word,,,,, 'WAIST',,
html-keyboard-response,211,703063,null,"SALT<img id = ""stim"" ><div class = red_square id = ""topsquare"" ></div><img id = ""stim"" ><div class = red_square  id = ""bottomsquare"" ></div>",null,word_square,response,0,none,true,,,
html-keyboard-response,212,704567,null,"SALT",null,word,,,,, 'SALT',,
html-keyboard-response,213,704962,392.8450000239536,"ONION<img id = ""stim"" ><div class = green_square id = ""topsquare"" ></div><img id = ""stim"" ><div class = green_square  id = ""bottomsquare"" ></div>",32,word_square,response,1,Space,true,,,
html-keyboard-response,214,706469,null,"ONION",null,word,,,,, 'ONION',,
html-keyboard-response,215,706976,null,"BABY<img id = ""stim"" ><div class = red_square id = ""topsquare"" ></div><img id = ""stim"" ><div class = red_square  id = ""bottomsquare"" ></div>",null,word_square,response,0,none,true,,,
html-keyboard-response,216,708483,null,"BABY",null,word,,,,, 'BABY',,
html-keyboard-response,217,708986,null,"PLAZA<img id = ""stim"" ><div class = red_square id = ""topsquare"" ></div><img id = ""stim"" ><div class = red_square  id = ""bottomsquare"" ></div>",null,word_square,response,0,none,true,,,
html-keyboard-response,218,710494,null,"PLAZA",null,word,,,,, 'PLAZA',,
html-keyboard-response,219,710896,400.3499999525957,"MARKET<img id = ""stim"" ><div class = green_square id = ""topsquare"" ></div><img id = ""stim"" ><div class = green_square  id = ""bottomsquare"" ></div>",32,word_square,response,1,Space,true,,,
html-keyboard-response,220,712403,null,"MARKET",null,word,,,,, 'MARKET',,
html-keyboard-response,221,712907,null,"LAMP<img id = ""stim"" ><div class = red_square id = ""topsquare"" ></div><img id = ""stim"" ><div class = red_square  id = ""bottomsquare"" ></div>",null,word_square,response,0,none,true,,,
html-keyboard-response,222,714414,null,"LAMP",null,word,,,,, 'LAMP',,
html-keyboard-response,223,714917,null,"INFANT<img id = ""stim"" ><div class = red_square id = ""topsquare"" ></div><img id = ""stim"" ><div class = red_square  id = ""bottomsquare"" ></div>",null,word_square,response,0,none,true,,,
html-keyboard-response,224,716424,null,"INFANT",null,word,,,,, 'INFANT',,
html-keyboard-response,225,716927,null,"TRACTOR<img id = ""stim"" ><div class = green_square id = ""topsquare"" ></div><img id = ""stim"" ><div class = green_square  id = ""bottomsquare"" ></div>",null,word_square,response,1,Space,false,,,
html-keyboard-response,226,718434,null,"TRACTOR",null,word,,,,, 'TRACTOR',,
html-keyboard-response,227,718941,null,"FARMER<img id = ""stim"" ><div class = red_square id = ""topsquare"" ></div><img id = ""stim"" ><div class = red_square  id = ""bottomsquare"" ></div>",null,word_square,response,0,none,true,,,
html-keyboard-response,228,720444,null,"FARMER",null,word,,,,, 'FARMER',,
html-keyboard-response,229,720947,null,"PENCIL<img id = ""stim"" ><div class = red_square id = ""topsquare"" ></div><img id = ""stim"" ><div class = red_square  id = ""bottomsquare"" ></div>",null,word_square,response,0,none,true,,,
html-keyboard-response,230,722451,null,"PENCIL",null,word,,,,, 'PENCIL',,
html-keyboard-response,231,722957,null,"COTTAGE<img id = ""stim"" ><div class = green_square id = ""topsquare"" ></div><img id = ""stim"" ><div class = green_square  id = ""bottomsquare"" ></div>",null,word_square,response,1,Space,false,,,
html-keyboard-response,232,724464,null,"COTTAGE",null,word,,,,, 'COTTAGE',,
call-function,233,724466,,"",,,,,,,,,
html-keyboard-response,234,724569,null,"",null,,,,,,,,
math-period,235,727481,5530.1500000059605,"",,,,,,,,,1
html-keyboard-response,236,727585,null,"",null,,,,,,,,
math-period,237,729117,2951.0049999225885,"",,,,,,,,,5
html-keyboard-response,238,729220,null,"",null,,,,,,,,
math-period,239,731498,4448.199999984354,"",,,,,,,,,2
html-keyboard-response,240,731602,null,"",null,,,,,,,,
math-period,241,732875,2421.920000051614,"",,,,,,,,,2
html-keyboard-response,242,732979,null,"",null,,,,,,,,
math-period,243,734417,2763.980000047013,"",,,,,,,,,5
html-keyboard-response,244,734521,null,"",null,,,,,,,,
math-period,245,738732,8280.59999999823,"",,,,,,,,,3
html-keyboard-response,246,738835,null,"",null,,,,,,,,
math-period,247,743624,9429.999999993015,"",,,,,,,,,2
html-keyboard-response,248,743727,null,"",null,,,,,,,,
math-period,249,745243,2664.959999965504,"",,,,,,,,,2
html-keyboard-response,250,745346,null,"",null,,,,,,,,
math-period,251,747204,3584.110000054352,"",,,,,,,,,4
html-keyboard-response,252,747309,null,"",null,,,,,,,,
math-period,253,748472,null,"",,,,,,,,,
html-keyboard-response,254,749475,null,"Recall Period!",null,,,,,,,,
call-function,255,749476,,"",,,,,,,,,
html-keyboard-response,256,749581,null,"",null,,,,,,,,
recall-period,257,754588,35769.06000007875,"",,,,,,,,,tractor
html-keyboard-response,258,754692,null,"",null,,,,,,,,
recall-period,259,756232,7646.654999873135,"",,,,,,,,,farmer
html-keyboard-response,260,756335,null,"",null,,,,,,,,
recall-period,261,757636,5476.26500017941,"",,,,,,,,,pencil
html-keyboard-response,262,757740,null,"",null,,,,,,,,
recall-period,263,759261,7849.244999932125,"",,,,,,,,,market
html-keyboard-response,264,759364,null,"",null,,,,,,,,
recall-period,265,761714,10411.900000006426,"",,,,,,,,,baby
html-keyboard-response,266,761817,null,"",null,,,,,,,,
recall-period,267,769361,41869.9299999862,"",,,,,,,,,sugar
html-keyboard-response,268,769465,null,"",null,,,,,,,,
recall-period,269,824538,null,"",,,,,,,,,
html-keyboard-response,270,825046,null,"Time's Up!",null,,,,,,,,
html-keyboard-response,271,844395,19346.929999999702,"<p> Uh oh. You responded correctly on 76% of the GREEN squares.</p>
                  <p>We need you keep your accuracy above 80%</p>
                  <p>Press any key to continue the experiment. Thank you!</p>",32,,,,,,,,
html-keyboard-response,272,846490,2092.6849999814294,"<div style=""font-size:48px;"">Press any key to begin list 3 of 24 </div>",32,,,,,,,,
html-keyboard-response,273,848993,null,"<div style=""font-size:60px;"">+</div>",null,,,,,,,,
html-keyboard-response,274,849500,null,"TURTLE<img id = ""stim"" ><div class = green_square id = ""topsquare"" ></div><img id = ""stim"" ><div class = green_square  id = ""bottomsquare"" ></div>",null,word_square,response,1,Space,false,,,
html-keyboard-response,275,851003,null,"TURTLE",null,word,,,,, 'TURTLE',,
html-keyboard-response,276,851509,null,"KITCHEN<img id = ""stim"" ><div class = red_square id = ""topsquare"" ></div><img id = ""stim"" ><div class = red_square  id = ""bottomsquare"" ></div>",null,word_square,response,0,none,true,,,
html-keyboard-response,277,853011,null,"KITCHEN",null,word,,,,, 'KITCHEN',,
html-keyboard-response,278,853516,null,"PAINTING<img id = ""stim"" ><div class = green_square id = ""topsquare"" ></div><img id = ""stim"" ><div class = green_square  id = ""bottomsquare"" ></div>",null,word_square,response,1,Space,false,,,
html-keyboard-response,279,855018,null,"PAINTING",null,word,,,,, 'PAINTING',,
html-keyboard-response,280,855524,null,"PLANET<img id = ""stim"" ><div class = red_square id = ""topsquare"" ></div><img id = ""stim"" ><div class = red_square  id = ""bottomsquare"" ></div>",null,word_square,response,0,none,true,,,
html-keyboard-response,281,857027,null,"PLANET",null,word,,,,, 'PLANET',,
html-keyboard-response,282,857532,null,"ATOM<img id = ""stim"" ><div class = red_square id = ""topsquare"" ></div><img id = ""stim"" ><div class = red_square  id = ""bottomsquare"" ></div>",null,word_square,response,0,none,true,,,
html-keyboard-response,283,859035,null,"ATOM",null,word,,,,, 'ATOM',,
html-keyboard-response,284,859539,null,"PASSAGE<img id = ""stim"" ><div class = red_square id = ""topsquare"" ></div><img id = ""stim"" ><div class = red_square  id = ""bottomsquare"" ></div>",null,word_square,response,0,none,true,,,
html-keyboard-response,285,861040,null,"PASSAGE",null,word,,,,, 'PASSAGE',,
html-keyboard-response,286,861545,null,"GRAVEL<img id = ""stim"" ><div class = red_square id = ""topsquare"" ></div><img id = ""stim"" ><div class = red_square  id = ""bottomsquare"" ></div>",null,word_square,response,0,none,true,,,
html-keyboard-response,287,863048,null,"GRAVEL",null,word,,,,, 'GRAVEL',,
html-keyboard-response,288,863554,null,"PRIEST<img id = ""stim"" ><div class = green_square id = ""topsquare"" ></div><img id = ""stim"" ><div class = green_square  id = ""bottomsquare"" ></div>",null,word_square,response,1,Space,false,,,
html-keyboard-response,289,865057,null,"PRIEST",null,word,,,,, 'PRIEST',,
html-keyboard-response,290,865560,null,"HUSBAND<img id = ""stim"" ><div class = red_square id = ""topsquare"" ></div><img id = ""stim"" ><div class = red_square  id = ""bottomsquare"" ></div>",null,word_square,response,0,none,true,,,
html-keyboard-response,291,867062,null,"HUSBAND",null,word,,,,, 'HUSBAND',,
html-keyboard-response,292,867567,null,"CHARCOAL<img id = ""stim"" ><div class = green_square id = ""topsquare"" ></div><img id = ""stim"" ><div class = green_square  id = ""bottomsquare"" ></div>",null,word_square,response,1,Space,false,,,
html-keyboard-response,293,869069,null,"CHARCOAL",null,word,,,,, 'CHARCOAL',,
html-keyboard-response,294,869575,null,"PASTRY<img id = ""stim"" ><div class = green_square id = ""topsquare"" ></div><img id = ""stim"" ><div class = green_square  id = ""bottomsquare"" ></div>",null,word_square,response,1,Space,false,,,
html-keyboard-response,295,871077,null,"PASTRY",null,word,,,,, 'PASTRY',,
html-keyboard-response,296,871584,null,"CHIPMUNK<img id = ""stim"" ><div class = red_square id = ""topsquare"" ></div><img id = ""stim"" ><div class = red_square  id = ""bottomsquare"" ></div>",null,word_square,response,0,none,true,,,
html-keyboard-response,297,873087,null,"CHIPMUNK",null,word,,,,, 'CHIPMUNK',,
html-keyboard-response,298,873595,null,"BEAST<img id = ""stim"" ><div class = green_square id = ""topsquare"" ></div><img id = ""stim"" ><div class = green_square  id = ""bottomsquare"" ></div>",null,word_square,response,1,Space,false,,,
html-keyboard-response,299,875097,null,"BEAST",null,word,,,,, 'BEAST',,
html-keyboard-response,300,875602,null,"FEATHER<img id = ""stim"" ><div class = green_square id = ""topsquare"" ></div><img id = ""stim"" ><div class = green_square  id = ""bottomsquare"" ></div>",null,word_square,response,1,Space,false,,,
html-keyboard-response,301,877104,null,"FEATHER",null,word,,,,, 'FEATHER',,
html-keyboard-response,302,877607,null,"PARTY<img id = ""stim"" ><div class = red_square id = ""topsquare"" ></div><img id = ""stim"" ><div class = red_square  id = ""bottomsquare"" ></div>",null,word_square,response,0,none,true,,,
html-keyboard-response,303,879112,null,"PARTY",null,word,,,,, 'PARTY',,
html-keyboard-response,304,879615,null,"ZEBRA<img id = ""stim"" ><div class = green_square id = ""topsquare"" ></div><img id = ""stim"" ><div class = green_square  id = ""bottomsquare"" ></div>",null,word_square,response,1,Space,false,,,
html-keyboard-response,305,881120,null,"ZEBRA",null,word,,,,, 'ZEBRA',,
html-keyboard-response,306,881626,null,"SPOUSE<img id = ""stim"" ><div class = green_square id = ""topsquare"" ></div><img id = ""stim"" ><div class = green_square  id = ""bottomsquare"" ></div>",null,word_square,response,1,Space,false,,,
html-keyboard-response,307,883129,null,"SPOUSE",null,word,,,,, 'SPOUSE',,
html-keyboard-response,308,883634,null,"WOMAN<img id = ""stim"" ><div class = red_square id = ""topsquare"" ></div><img id = ""stim"" ><div class = red_square  id = ""bottomsquare"" ></div>",null,word_square,response,0,none,true,,,
html-keyboard-response,309,885136,null,"WOMAN",null,word,,,,, 'WOMAN',,
call-function,310,885138,,"",,,,,,,,,
html-keyboard-response,311,885239,null,"",null,,,,,,,,
math-period,312,887589,4323.394999955781,"",,,,,,,,,3
html-keyboard-response,313,887693,null,"",null,,,,,,,,
math-period,314,889595,3608.7549999938346,"",,,,,,,,,4
html-keyboard-response,315,889698,null,"",null,,,,,,,,
math-period,316,891003,2419.030000048224,"",,,,,,,,,2
html-keyboard-response,317,891107,null,"",null,,,,,,,,
math-period,318,894731,7080.04000002984,"",,,,,,,,,1
html-keyboard-response,319,894835,null,"",null,,,,,,,,
math-period,320,896779,3720.7100000814535,"",,,,,,,,,1
html-keyboard-response,321,896883,null,"",null,,,,,,,,
math-period,322,898744,3570.099999953527,"",,,,,,,,,5
html-keyboard-response,323,898846,null,"",null,,,,,,,,
math-period,324,900378,2933.6200000252575,"",,,,,,,,,3
html-keyboard-response,325,900481,null,"",null,,,,,,,,
math-period,326,903785,6411.334999953397,"",,,,,,,,,2
html-keyboard-response,327,903887,null,"",null,,,,,,,,
math-period,328,906442,4971.324999991339,"",,,,,,,,,5
html-keyboard-response,329,906546,null,"",null,,,,,,,,
math-period,330,908467,3704.6149999951012,"",,,,,,,,,5
html-keyboard-response,331,908570,null,"",null,,,,,,,,
math-period,332,909144,null,"",,,,,,,,,
html-keyboard-response,333,910148,null,"Recall Period!",null,,,,,,,,
call-function,334,910149,,"",,,,,,,,,
html-keyboard-response,335,910252,null,"",null,,,,,,,,
recall-period,336,918001,49244.94000012055,"",,,,,,,,,kitchen
html-keyboard-response,337,918105,null,"",null,,,,,,,,
recall-period,338,919504,6911.510000063572,"",,,,,,,,,planet
html-keyboard-response,339,919607,null,"",null,,,,,,,,
recall-period,340,920511,2952.7000000234693,"",,,,,,,,,atom
html-keyboard-response,341,920615,null,"",null,,,,,,,,
recall-period,342,927074,33909.10999989137,"",,,,,,,,,parent
html-keyboard-response,343,927178,null,"",null,,,,,,,,
recall-period,344,934360,66563.76999994973,"",,,,,,,,,charcoal
html-keyboard-response,345,934464,null,"",null,,,,,,,,
recall-period,346,935831,7982.090000004973,"",,,,,,,,,feather
html-keyboard-response,347,935933,null,"",null,,,,,,,,
recall-period,348,946298,83717.87000022596,"",,,,,,,,,chipmunk
html-keyboard-response,349,946401,null,"",null,,,,,,,,
recall-period,350,950737,23056.110000121407,"",,,,,,,,,zebra
html-keyboard-response,351,950840,null,"",null,,,,,,,,
recall-period,352,964984,82870.56999991182,"",,,,,,,,,flood
html-keyboard-response,353,965088,null,"",null,,,,,,,,
recall-period,354,965937,3146.7600000905804,"",,,,,,,,,water
html-keyboard-response,355,966041,null,"",null,,,,,,,,
recall-period,356,966994,3068.9400000846945,"",,,,,,,,,pool
html-keyboard-response,357,967097,null,"",null,,,,,,,,
recall-period,358,985154,null,"",,,,,,,,,
html-keyboard-response,359,985661,null,"Time's Up!",null,,,,,,,,
html-keyboard-response,360,990148,4484.849999949802,"<p> Uh oh. You responded correctly on 69% of the GREEN squares.</p>
                  <p>We need you keep your accuracy above 80%</p>
                  <p>Press any key to continue the experiment. Thank you!</p>",32,,,,,,,,
html-keyboard-response,361,991562,1411.6599999833852,"<div style=""font-size:48px;"">Press any key to begin list 4 of 24 </div>",32,,,,,,,,
html-keyboard-response,362,994069,null,"<div style=""font-size:60px;"">+</div>",null,,,,,,,,
html-keyboard-response,363,994577,null,"STOVE<img id = ""stim"" ><div class = green_square id = ""topsquare"" ></div><img id = ""stim"" ><div class = green_square  id = ""bottomsquare"" ></div>",null,word_square,response,1,Space,false,,,
html-keyboard-response,364,996080,null,"STOVE",null,word,,,,, 'STOVE',,
html-keyboard-response,365,996587,null,"PANTHER<img id = ""stim"" ><div class = red_square id = ""topsquare"" ></div><img id = ""stim"" ><div class = red_square  id = ""bottomsquare"" ></div>",null,word_square,response,0,none,true,,,
html-keyboard-response,366,998089,null,"PANTHER",null,word,,,,, 'PANTHER',,
html-keyboard-response,367,998591,null,"SHINGLE<img id = ""stim"" ><div class = green_square id = ""topsquare"" ></div><img id = ""stim"" ><div class = green_square  id = ""bottomsquare"" ></div>",null,word_square,response,1,Space,false,,,
html-keyboard-response,368,1000094,null,"SHINGLE",null,word,,,,, 'SHINGLE',,
html-keyboard-response,369,1000601,null,"UNCLE<img id = ""stim"" ><div class = red_square id = ""topsquare"" ></div><img id = ""stim"" ><div class = red_square  id = ""bottomsquare"" ></div>",null,word_square,response,0,none,true,,,
html-keyboard-response,370,1002103,null,"UNCLE",null,word,,,,, 'UNCLE',,
html-keyboard-response,371,1002606,null,"COUSIN<img id = ""stim"" ><div class = red_square id = ""topsquare"" ></div><img id = ""stim"" ><div class = red_square  id = ""bottomsquare"" ></div>",null,word_square,response,0,none,true,,,
html-keyboard-response,372,1004113,null,"COUSIN",null,word,,,,, 'COUSIN',,
html-keyboard-response,373,1004617,null,"POSSUM<img id = ""stim"" ><div class = red_square id = ""topsquare"" ></div><img id = ""stim"" ><div class = red_square  id = ""bottomsquare"" ></div>",null,word_square,response,0,none,true,,,
html-keyboard-response,374,1006119,null,"POSSUM",null,word,,,,, 'POSSUM',,
html-keyboard-response,375,1006625,null,"VILLAGE<img id = ""stim"" ><div class = red_square id = ""topsquare"" ></div><img id = ""stim"" ><div class = red_square  id = ""bottomsquare"" ></div>",null,word_square,response,0,none,true,,,
html-keyboard-response,376,1008127,null,"VILLAGE",null,word,,,,, 'VILLAGE',,
html-keyboard-response,377,1008630,null,"SNOB<img id = ""stim"" ><div class = green_square id = ""topsquare"" ></div><img id = ""stim"" ><div class = green_square  id = ""bottomsquare"" ></div>",null,word_square,response,1,Space,false,,,
html-keyboard-response,378,1010132,null,"SNOB",null,word,,,,, 'SNOB',,
html-keyboard-response,379,1010636,null,"LIST<img id = ""stim"" ><div class = red_square id = ""topsquare"" ></div><img id = ""stim"" ><div class = red_square  id = ""bottomsquare"" ></div>",null,word_square,response,0,none,true,,,
html-keyboard-response,380,1012138,null,"LIST",null,word,,,,, 'LIST',,
html-keyboard-response,381,1012643,null,"DRIVER<img id = ""stim"" ><div class = green_square id = ""topsquare"" ></div><img id = ""stim"" ><div class = green_square  id = ""bottomsquare"" ></div>",null,word_square,response,1,Space,false,,,
html-keyboard-response,382,1014145,null,"DRIVER",null,word,,,,, 'DRIVER',,
html-keyboard-response,383,1014649,null,"DOCTOR<img id = ""stim"" ><div class = green_square id = ""topsquare"" ></div><img id = ""stim"" ><div class = green_square  id = ""bottomsquare"" ></div>",null,word_square,response,1,Space,false,,,
html-keyboard-response,384,1016156,null,"DOCTOR",null,word,,,,, 'DOCTOR',,
html-keyboard-response,385,1016661,null,"REPTILE<img id = ""stim"" ><div class = red_square id = ""topsquare"" ></div><img id = ""stim"" ><div class = red_square  id = ""bottomsquare"" ></div>",null,word_square,response,0,none,true,,,
html-keyboard-response,386,1018165,null,"REPTILE",null,word,,,,, 'REPTILE',,
html-keyboard-response,387,1018669,null,"POPCORN<img id = ""stim"" ><div class = green_square id = ""topsquare"" ></div><img id = ""stim"" ><div class = green_square  id = ""bottomsquare"" ></div>",null,word_square,response,1,Space,false,,,
html-keyboard-response,388,1020176,null,"POPCORN",null,word,,,,, 'POPCORN',,
html-keyboard-response,389,1020682,null,"COFFIN<img id = ""stim"" ><div class = green_square id = ""topsquare"" ></div><img id = ""stim"" ><div class = green_square  id = ""bottomsquare"" ></div>",null,word_square,response,1,Space,false,,,
html-keyboard-response,390,1022184,null,"COFFIN",null,word,,,,, 'COFFIN',,
html-keyboard-response,391,1022689,null,"CREVICE<img id = ""stim"" ><div class = red_square id = ""topsquare"" ></div><img id = ""stim"" ><div class = red_square  id = ""bottomsquare"" ></div>",null,word_square,response,0,none,true,,,
html-keyboard-response,392,1024193,null,"CREVICE",null,word,,,,, 'CREVICE',,
html-keyboard-response,393,1024695,null,"PEANUT<img id = ""stim"" ><div class = green_square id = ""topsquare"" ></div><img id = ""stim"" ><div class = green_square  id = ""bottomsquare"" ></div>",null,word_square,response,1,Space,false,,,
html-keyboard-response,394,1026202,null,"PEANUT",null,word,,,,, 'PEANUT',,
html-keyboard-response,395,1026709,null,"SIDING<img id = ""stim"" ><div class = green_square id = ""topsquare"" ></div><img id = ""stim"" ><div class = green_square  id = ""bottomsquare"" ></div>",null,word_square,response,1,Space,false,,,
html-keyboard-response,396,1028212,null,"SIDING",null,word,,,,, 'SIDING',,
html-keyboard-response,397,1028715,null,"ITEM<img id = ""stim"" ><div class = red_square id = ""topsquare"" ></div><img id = ""stim"" ><div class = red_square  id = ""bottomsquare"" ></div>",null,word_square,response,0,none,true,,,
html-keyboard-response,398,1030221,null,"ITEM",null,word,,,,, 'ITEM',,
call-function,399,1030222,,"",,,,,,,,,
html-keyboard-response,400,1030327,null,"",null,,,,,,,,
math-period,401,1032900,4551.6700000735,"",,,,,,,,,2
html-keyboard-response,402,1033004,null,"",null,,,,,,,,
math-period,403,1034716,4809.570000041276,"",,,,,,,,,32
html-keyboard-response,404,1034820,null,"",null,,,,,,,,
math-period,405,1036921,4052.724999957718,"",,,,,,,,,6
html-keyboard-response,406,1037024,null,"",null,,,,,,,,
math-period,407,1038344,2534.5800000359304,"",,,,,,,,,4
html-keyboard-response,408,1038448,null,"",null,,,,,,,,
math-period,409,1039856,2684.354999975767,"",,,,,,,,,6
html-keyboard-response,410,1039958,null,"",null,,,,,,,,
math-period,411,1042197,4366.364999907091,"",,,,,,,,,2
html-keyboard-response,412,1042300,null,"",null,,,,,,,,
math-period,413,1044362,3984.01500005275,"",,,,,,,,,4
html-keyboard-response,414,1044466,null,"",null,,,,,,,,
math-period,415,1046346,3608.39000006672,"",,,,,,,,,4
html-keyboard-response,416,1046450,null,"",null,,,,,,,,
math-period,417,1048124,3242.3750000307336,"",,,,,,,,,5
html-keyboard-response,418,1048226,null,"",null,,,,,,,,
math-period,419,1049910,3158.765000058338,"",,,,,,,,,4
html-keyboard-response,420,1050014,null,"",null,,,,,,,,
math-period,421,1054226,4127.595000027213,"",,,,,,,,,0
html-keyboard-response,422,1055233,null,"Recall Period!",null,,,,,,,,
call-function,423,1055234,,"",,,,,,,,,
html-keyboard-response,424,1055337,null,"",null,,,,,,,,
recall-period,425,1059549,27886.91000023391,"",,,,,,,,,crevice
html-keyboard-response,426,1059652,null,"",null,,,,,,,,
recall-period,427,1062634,29537.030000064988,"",,,,,,,,,peanut butter
html-keyboard-response,428,1062737,null,"",null,,,,,,,,
recall-period,429,1069735,61182.709999673534,"",,,,,,,,,reptile
html-keyboard-response,430,1069838,null,"",null,,,,,,,,
recall-period,431,1071219,6509.229999850504,"",,,,,,,,,doctor
html-keyboard-response,432,1071323,null,"",null,,,,,,,,
recall-period,433,1077122,20745.555000088643,"",,,,,,,,,oven
html-keyboard-response,434,1077225,null,"",null,,,,,,,,
recall-period,435,1078222,3704.73499991931,"",,,,,,,,,stove
html-keyboard-response,436,1078326,null,"",null,,,,,,,,
recall-period,437,1087189,117466.43999963999,"",,,,,,,,,village
html-keyboard-response,438,1087292,null,"",null,,,,,,,,
recall-period,439,1088705,5596.274999785237,"",,,,,,,,,driver
html-keyboard-response,440,1088809,null,"",null,,,,,,,,
recall-period,441,1130240,null,"",,,,,,,,,
html-keyboard-response,442,1130743,null,"Time's Up!",null,,,,,,,,
html-keyboard-response,443,1133863,3117.8950000321493,"<p> Uh oh. You responded correctly on 66% of the GREEN squares.</p>
                  <p>We need you keep your accuracy above 80%</p>
                  <p>Press any key to continue the experiment. Thank you!</p>",32,,,,,,,,
html-keyboard-response,444,1134617,752.2650000173599,"<div style=""font-size:48px;"">Press any key to begin list 5 of 24 </div>",32,,,,,,,,
html-keyboard-response,445,1137127,null,"<div style=""font-size:60px;"">+</div>",null,,,,,,,,
html-keyboard-response,446,1137635,null,"CHAPEL<img id = ""stim"" ><div class = red_square id = ""topsquare"" ></div><img id = ""stim"" ><div class = red_square  id = ""bottomsquare"" ></div>",null,word_square,response,0,none,true,,,
html-keyboard-response,447,1139138,null,"CHAPEL",null,word,,,,, 'CHAPEL',,
html-keyboard-response,448,1139642,null,"CANAL<img id = ""stim"" ><div class = red_square id = ""topsquare"" ></div><img id = ""stim"" ><div class = red_square  id = ""bottomsquare"" ></div>",null,word_square,response,0,none,true,,,
html-keyboard-response,449,1141145,null,"CANAL",null,word,,,,, 'CANAL',,
html-keyboard-response,450,1141565,417.89499996230006,"FUNGUS<img id = ""stim"" ><div class = green_square id = ""topsquare"" ></div><img id = ""stim"" ><div class = green_square  id = ""bottomsquare"" ></div>",32,word_square,response,1,Space,true,,,
html-keyboard-response,451,1143067,null,"FUNGUS",null,word,,,,, 'FUNGUS',,
html-keyboard-response,452,1143572,null,"SHEPHERD<img id = ""stim"" ><div class = red_square id = ""topsquare"" ></div><img id = ""stim"" ><div class = red_square  id = ""bottomsquare"" ></div>",null,word_square,response,0,none,true,,,
html-keyboard-response,453,1145076,null,"SHEPHERD",null,word,,,,, 'SHEPHERD',,
html-keyboard-response,454,1145582,null,"CAFE<img id = ""stim"" ><div class = red_square id = ""topsquare"" ></div><img id = ""stim"" ><div class = red_square  id = ""bottomsquare"" ></div>",null,word_square,response,0,none,true,,,
html-keyboard-response,455,1147089,null,"CAFE",null,word,,,,, 'CAFE',,
html-keyboard-response,456,1147595,null,"PEOPLE<img id = ""stim"" ><div class = green_square id = ""topsquare"" ></div><img id = ""stim"" ><div class = green_square  id = ""bottomsquare"" ></div>",null,word_square,response,1,Space,false,,,
html-keyboard-response,457,1149099,null,"PEOPLE",null,word,,,,, 'PEOPLE',,
html-keyboard-response,458,1149602,null,"FOSSIL<img id = ""stim"" ><div class = red_square id = ""topsquare"" ></div><img id = ""stim"" ><div class = red_square  id = ""bottomsquare"" ></div>",null,word_square,response,0,none,true,,,
html-keyboard-response,459,1151104,null,"FOSSIL",null,word,,,,, 'FOSSIL',,
html-keyboard-response,460,1151609,null,"BUGLE<img id = ""stim"" ><div class = red_square id = ""topsquare"" ></div><img id = ""stim"" ><div class = red_square  id = ""bottomsquare"" ></div>",null,word_square,response,0,none,true,,,
html-keyboard-response,461,1153116,null,"BUGLE",null,word,,,,, 'BUGLE',,
html-keyboard-response,462,1153621,null,"LUGGAGE<img id = ""stim"" ><div class = green_square id = ""topsquare"" ></div><img id = ""stim"" ><div class = green_square  id = ""bottomsquare"" ></div>",null,word_square,response,1,Space,false,,,
html-keyboard-response,463,1155128,null,"LUGGAGE",null,word,,,,, 'LUGGAGE',,
html-keyboard-response,464,1155636,null,"COOKBOOK<img id = ""stim"" ><div class = green_square id = ""topsquare"" ></div><img id = ""stim"" ><div class = green_square  id = ""bottomsquare"" ></div>",null,word_square,response,1,Space,false,,,
html-keyboard-response,465,1157143,null,"COOKBOOK",null,word,,,,, 'COOKBOOK',,
html-keyboard-response,466,1157650,null,"FREEWAY<img id = ""stim"" ><div class = green_square id = ""topsquare"" ></div><img id = ""stim"" ><div class = green_square  id = ""bottomsquare"" ></div>",null,word_square,response,1,Space,false,,,
html-keyboard-response,467,1159158,null,"FREEWAY",null,word,,,,, 'FREEWAY',,
html-keyboard-response,468,1159665,null,"SARDINE<img id = ""stim"" ><div class = red_square id = ""topsquare"" ></div><img id = ""stim"" ><div class = red_square  id = ""bottomsquare"" ></div>",null,word_square,response,0,none,true,,,
html-keyboard-response,469,1161172,null,"SARDINE",null,word,,,,, 'SARDINE',,
html-keyboard-response,470,1161680,null,"CHISEL<img id = ""stim"" ><div class = green_square id = ""topsquare"" ></div><img id = ""stim"" ><div class = green_square  id = ""bottomsquare"" ></div>",null,word_square,response,1,Space,false,,,
html-keyboard-response,471,1163187,null,"CHISEL",null,word,,,,, 'CHISEL',,
html-keyboard-response,472,1163689,null,"POWDER<img id = ""stim"" ><div class = green_square id = ""topsquare"" ></div><img id = ""stim"" ><div class = green_square  id = ""bottomsquare"" ></div>",null,word_square,response,1,Space,false,,,
html-keyboard-response,473,1165196,null,"POWDER",null,word,,,,, 'POWDER',,
html-keyboard-response,474,1165703,null,"TWEEZERS<img id = ""stim"" ><div class = red_square id = ""topsquare"" ></div><img id = ""stim"" ><div class = red_square  id = ""bottomsquare"" ></div>",null,word_square,response,0,none,true,,,
html-keyboard-response,475,1167211,null,"TWEEZERS",null,word,,,,, 'TWEEZERS',,
html-keyboard-response,476,1167605,392.69499998772517,"FRIEND<img id = ""stim"" ><div class = green_square id = ""topsquare"" ></div><img id = ""stim"" ><div class = green_square  id = ""bottomsquare"" ></div>",32,word_square,response,1,Space,true,,,
html-keyboard-response,477,1169113,null,"FRIEND",null,word,,,,, 'FRIEND',,
html-keyboard-response,478,1169620,null,"SALAD<img id = ""stim"" ><div class = red_square id = ""topsquare"" ></div><img id = ""stim"" ><div class = red_square  id = ""bottomsquare"" ></div>",null,word_square,response,0,none,true,,,
html-keyboard-response,479,1171127,null,"SALAD",null,word,,,,, 'SALAD',,
html-keyboard-response,480,1171477,347.5899999612011,"STAPLE<img id = ""stim"" ><div class = green_square id = ""topsquare"" ></div><img id = ""stim"" ><div class = green_square  id = ""bottomsquare"" ></div>",32,word_square,response,1,Space,true,,,
html-keyboard-response,481,1172984,null,"STAPLE",null,word,,,,, 'STAPLE',,
call-function,482,1172986,,"",,,,,,,,,
html-keyboard-response,483,1173089,null,"",null,,,,,,,,
math-period,484,1176416,11739.839999994729,"",,,,,,,,,5
html-keyboard-response,485,1176520,null,"",null,,,,,,,,
math-period,486,1178070,2935.139999957755,"",,,,,,,,,5
html-keyboard-response,487,1178174,null,"",null,,,,,,,,
math-period,488,1179976,3448.3900000341237,"",,,,,,,,,4
html-keyboard-response,489,1180079,null,"",null,,,,,,,,
math-period,490,1183042,12138.010000053328,"",,,,,,,,,2
html-keyboard-response,491,1183146,null,"",null,,,,,,,,
math-period,492,1184980,3555.0299999886192,"",,,,,,,,,1
html-keyboard-response,493,1185083,null,"",null,,,,,,,,
math-period,494,1187083,6491.199999814853,"",,,,,,,,,4
html-keyboard-response,495,1187187,null,"",null,,,,,,,,
math-period,496,1188570,2599.950000003446,"",,,,,,,,,5
html-keyboard-response,497,1188674,null,"",null,,,,,,,,
math-period,498,1190183,2836.944999988191,"",,,,,,,,,4
html-keyboard-response,499,1190287,null,"",null,,,,,,,,
math-period,500,1191915,3100.0050000147894,"",,,,,,,,,2
html-keyboard-response,501,1192018,null,"",null,,,,,,,,
math-period,502,1193318,2432.204999960959,"",,,,,,,,,3
html-keyboard-response,503,1193422,null,"",null,,,,,,,,
math-period,504,1196174,5337.714999972377,"",,,,,,,,,2
html-keyboard-response,505,1196277,null,"",null,,,,,,,,
math-period,506,1196992,null,"",,,,,,,,,
html-keyboard-response,507,1197996,null,"Recall Period!",null,,,,,,,,
call-function,508,1197997,,"",,,,,,,,,
html-keyboard-response,509,1198101,null,"",null,,,,,,,,
recall-period,510,1199145,1041.434999962803,"",,,,,,,,,
html-keyboard-response,511,1199249,null,"",null,,,,,,,,
recall-period,512,1211677,89475.35000019707,"",,,,,,,,,sephard
html-keyboard-response,513,1211781,null,"",null,,,,,,,,
recall-period,514,1213680,9762.685000081547,"",,,,,,,,,fungus
html-keyboard-response,515,1213784,null,"",null,,,,,,,,
recall-period,516,1217258,24409.705000114627,"",,,,,,,,,cookbook
html-keyboard-response,517,1217362,null,"",null,,,,,,,,
recall-period,518,1225014,61845.920000225306,"",,,,,,,,,suitcase
html-keyboard-response,519,1225117,null,"",null,,,,,,,,
recall-period,520,1228287,20948.690000048373,"",,,,,,,,,fossil
html-keyboard-response,521,1228390,null,"",null,,,,,,,,
recall-period,522,1232429,18763.614999887068,"",,,,,,,,,cafe
html-keyboard-response,523,1232532,null,"",null,,,,,,,,
recall-period,524,1273003,null,"",,,,,,,,,
html-keyboard-response,525,1273511,null,"Time's Up!",null,,,,,,,,
html-keyboard-response,526,1343699,70185.95000001369,"<p> Uh oh. You responded correctly on 66% of the GREEN squares.</p>
                  <p>We need you keep your accuracy above 80%</p>
                  <p>Press any key to continue the experiment. Thank you!</p>",32,,,,,,,,
html-keyboard-response,527,1344603,902.0949999685399,"<div style=""font-size:48px;"">Press any key to begin list 6 of 24 </div>",32,,,,,,,,
html-keyboard-response,528,1347108,null,"<div style=""font-size:60px;"">+</div>",null,,,,,,,,
html-keyboard-response,529,1347614,null,"LUNCH<img id = ""stim"" ><div class = red_square id = ""topsquare"" ></div><img id = ""stim"" ><div class = red_square  id = ""bottomsquare"" ></div>",null,word_square,response,0,none,true,,,
html-keyboard-response,530,1349116,null,"LUNCH",null,word,,,,, 'LUNCH',,
html-keyboard-response,531,1349622,null,"DINER<img id = ""stim"" ><div class = red_square id = ""topsquare"" ></div><img id = ""stim"" ><div class = red_square  id = ""bottomsquare"" ></div>",null,word_square,response,0,none,true,,,
html-keyboard-response,532,1351124,null,"DINER",null,word,,,,, 'DINER',,
html-keyboard-response,533,1351632,null,"COOK<img id = ""stim"" ><div class = green_square id = ""topsquare"" ></div><img id = ""stim"" ><div class = green_square  id = ""bottomsquare"" ></div>",null,word_square,response,1,Space,false,,,
html-keyboard-response,534,1353134,null,"COOK",null,word,,,,, 'COOK',,
html-keyboard-response,535,1353641,null,"PUMPKIN<img id = ""stim"" ><div class = red_square id = ""topsquare"" ></div><img id = ""stim"" ><div class = red_square  id = ""bottomsquare"" ></div>",null,word_square,response,0,none,true,,,
html-keyboard-response,536,1355143,null,"PUMPKIN",null,word,,,,, 'PUMPKIN',,
html-keyboard-response,537,1355647,null,"SQUIRREL<img id = ""stim"" ><div class = red_square id = ""topsquare"" ></div><img id = ""stim"" ><div class = red_square  id = ""bottomsquare"" ></div>",null,word_square,response,0,none,true,,,
html-keyboard-response,538,1357150,null,"SQUIRREL",null,word,,,,, 'SQUIRREL',,
html-keyboard-response,539,1357516,363.82500000763685,"GLASS<img id = ""stim"" ><div class = green_square id = ""topsquare"" ></div><img id = ""stim"" ><div class = green_square  id = ""bottomsquare"" ></div>",32,word_square,response,1,Space,true,,,
html-keyboard-response,540,1359020,null,"GLASS",null,word,,,,, 'GLASS',,
html-keyboard-response,541,1359523,null,"BEAVER<img id = ""stim"" ><div class = red_square id = ""topsquare"" ></div><img id = ""stim"" ><div class = red_square  id = ""bottomsquare"" ></div>",null,word_square,response,0,none,true,,,
html-keyboard-response,542,1361025,null,"BEAVER",null,word,,,,, 'BEAVER',,
html-keyboard-response,543,1361532,null,"BAKER<img id = ""stim"" ><div class = red_square id = ""topsquare"" ></div><img id = ""stim"" ><div class = red_square  id = ""bottomsquare"" ></div>",null,word_square,response,0,none,true,,,
html-keyboard-response,544,1363039,null,"BAKER",null,word,,,,, 'BAKER',,
html-keyboard-response,545,1363448,407.20499999588355,"ORGAN<img id = ""stim"" ><div class = green_square id = ""topsquare"" ></div><img id = ""stim"" ><div class = green_square  id = ""bottomsquare"" ></div>",32,word_square,response,1,Space,true,,,
html-keyboard-response,546,1364956,null,"ORGAN",null,word,,,,, 'ORGAN',,
html-keyboard-response,547,1365345,386.9999999878928,"SIRLOIN<img id = ""stim"" ><div class = green_square id = ""topsquare"" ></div><img id = ""stim"" ><div class = green_square  id = ""bottomsquare"" ></div>",32,word_square,response,1,Space,true,,,
html-keyboard-response,548,1366852,null,"SIRLOIN",null,word,,,,, 'SIRLOIN',,
html-keyboard-response,549,1367235,381.88499998068437,"PIGMENT<img id = ""stim"" ><div class = green_square id = ""topsquare"" ></div><img id = ""stim"" ><div class = green_square  id = ""bottomsquare"" ></div>",32,word_square,response,1,Space,true,,,
html-keyboard-response,550,1368742,null,"PIGMENT",null,word,,,,, 'PIGMENT',,
html-keyboard-response,551,1369250,null,"BUNNY<img id = ""stim"" ><div class = red_square id = ""topsquare"" ></div><img id = ""stim"" ><div class = red_square  id = ""bottomsquare"" ></div>",null,word_square,response,0,none,true,,,
html-keyboard-response,552,1370757,null,"BUNNY",null,word,,,,, 'BUNNY',,
html-keyboard-response,553,1371265,null,"SCOUT<img id = ""stim"" ><div class = green_square id = ""topsquare"" ></div><img id = ""stim"" ><div class = green_square  id = ""bottomsquare"" ></div>",null,word_square,response,1,Space,false,,,
html-keyboard-response,554,1372772,null,"SCOUT",null,word,,,,, 'SCOUT',,
html-keyboard-response,555,1373121,346.3150000316091,"CATCHER<img id = ""stim"" ><div class = green_square id = ""topsquare"" ></div><img id = ""stim"" ><div class = green_square  id = ""bottomsquare"" ></div>",32,word_square,response,1,Space,true,,,
html-keyboard-response,556,1374626,null,"CATCHER",null,word,,,,, 'CATCHER',,
html-keyboard-response,557,1375134,null,"TREASURE<img id = ""stim"" ><div class = red_square id = ""topsquare"" ></div><img id = ""stim"" ><div class = red_square  id = ""bottomsquare"" ></div>",null,word_square,response,0,none,true,,,
html-keyboard-response,558,1376637,null,"TREASURE",null,word,,,,, 'TREASURE',,
html-keyboard-response,559,1377142,null,"LIPSTICK<img id = ""stim"" ><div class = green_square id = ""topsquare"" ></div><img id = ""stim"" ><div class = green_square  id = ""bottomsquare"" ></div>",null,word_square,response,1,Space,false,,,
html-keyboard-response,560,1378647,null,"LIPSTICK",null,word,,,,, 'LIPSTICK',,
html-keyboard-response,561,1379153,null,"PUPPY<img id = ""stim"" ><div class = red_square id = ""topsquare"" ></div><img id = ""stim"" ><div class = red_square  id = ""bottomsquare"" ></div>",null,word_square,response,0,none,true,,,
html-keyboard-response,562,1380655,null,"PUPPY",null,word,,,,, 'PUPPY',,
html-keyboard-response,563,1381161,null,"SCALLOP<img id = ""stim"" ><div class = green_square id = ""topsquare"" ></div><img id = ""stim"" ><div class = green_square  id = ""bottomsquare"" ></div>",null,word_square,response,1,Space,false,,,
html-keyboard-response,564,1382664,null,"SCALLOP",null,word,,,,, 'SCALLOP',,
call-function,565,1382665,,"",,,,,,,,,
html-keyboard-response,566,1382767,null,"",null,,,,,,,,
math-period,567,1385162,4568.845000001602,"",,,,,,,,,4
html-keyboard-response,568,1385265,null,"",null,,,,,,,,
math-period,569,1386781,2882.190000033006,"",,,,,,,,,1
html-keyboard-response,570,1386885,null,"",null,,,,,,,,
math-period,571,1388316,2761.480000044685,"",,,,,,,,,4
html-keyboard-response,572,1388420,null,"",null,,,,,,,,
math-period,573,1390452,3931.510000023991,"",,,,,,,,,2
html-keyboard-response,574,1390556,null,"",null,,,,,,,,
math-period,575,1392592,3858.445000019856,"",,,,,,,,,2
html-keyboard-response,576,1392695,null,"",null,,,,,,,,
math-period,577,1394567,3550.7999999681488,"",,,,,,,,,1
html-keyboard-response,578,1394670,null,"",null,,,,,,,,
math-period,579,1395706,1924.2250000825152,"",,,,,,,,,2
html-keyboard-response,580,1395810,null,"",null,,,,,,,,
math-period,581,1396907,2089.240000001155,"",,,,,,,,,3
html-keyboard-response,582,1397011,null,"",null,,,,,,,,
math-period,583,1398164,2205.069999967236,"",,,,,,,,,3
html-keyboard-response,584,1398268,null,"",null,,,,,,,,
math-period,585,1399982,3257.430000056047,"",,,,,,,,,5
html-keyboard-response,586,1400085,null,"",null,,,,,,,,
math-period,587,1402145,3977.3399999248795,"",,,,,,,,,4
html-keyboard-response,588,1402249,null,"",null,,,,,,,,
math-period,589,1403701,2749.2600000696257,"",,,,,,,,,4
html-keyboard-response,590,1403804,null,"",null,,,,,,,,
math-period,591,1405400,3061.9650000007823,"",,,,,,,,,2
html-keyboard-response,592,1405504,null,"",null,,,,,,,,
math-period,593,1406671,null,"",,,,,,,,,
html-keyboard-response,594,1407674,null,"Recall Period!",null,,,,,,,,
call-function,595,1407676,,"",,,,,,,,,
html-keyboard-response,596,1407778,null,"",null,,,,,,,,
recall-period,597,1410923,10875.204999989364,"",,,,,,,,,pig
html-keyboard-response,598,1411027,null,"",null,,,,,,,,
recall-period,599,1412089,4259.7800000803545,"",,,,,,,,,puppy
html-keyboard-response,600,1412192,null,"",null,,,,,,,,
recall-period,601,1415205,25054.10999979358,"",,,,,,,,,treasure box
html-keyboard-response,602,1415307,null,"",null,,,,,,,,
recall-period,603,1421144,32786.21999989264,"",,,,,,,,,organ
html-keyboard-response,604,1421248,null,"",null,,,,,,,,
recall-period,605,1423875,15190.079999854788,"",,,,,,,,,pigment
html-keyboard-response,606,1423978,null,"",null,,,,,,,,
recall-period,607,1429210,27934.65500010643,"",,,,,,,,,lunch
html-keyboard-response,608,1429313,null,"",null,,,,,,,,
recall-period,609,1430503,5480.7999998447485,"",,,,,,,,,dinner
html-keyboard-response,610,1430607,null,"",null,,,,,,,,
recall-period,611,1431403,2146.6150000924245,"",,,,,,,,,cook
html-keyboard-response,612,1431507,null,"",null,,,,,,,,
recall-period,613,1483316,null,"",,,,,,,,,
html-keyboard-response,614,1484320,null,"Time's Up!",null,,,,,,,,
html-keyboard-response,615,1488721,4398.549999983516,"<p> Uh oh. You responded correctly on 67% of the GREEN squares.</p>
                  <p>We need you keep your accuracy above 80%</p>
                  <p>Press any key to continue the experiment. Thank you!</p>",32,,,,,,,,
html-keyboard-response,616,1489517,793.5600000200793,"<div style=""font-size:48px;"">Press any key to begin list 7 of 24 </div>",32,,,,,,,,
html-keyboard-response,617,1492025,null,"<div style=""font-size:60px;"">+</div>",null,,,,,,,,
html-keyboard-response,618,1492504,476.5800000168383,"SNAKE<img id = ""stim"" ><div class = green_square id = ""topsquare"" ></div><img id = ""stim"" ><div class = green_square  id = ""bottomsquare"" ></div>",32,word_square,response,1,Space,true,,,
html-keyboard-response,619,1494007,null,"SNAKE",null,word,,,,, 'SNAKE',,
html-keyboard-response,620,1494400,390.32000000588596,"LIZARD<img id = ""stim"" ><div class = green_square id = ""topsquare"" ></div><img id = ""stim"" ><div class = green_square  id = ""bottomsquare"" ></div>",32,word_square,response,1,Space,true,,,
html-keyboard-response,621,1495907,null,"LIZARD",null,word,,,,, 'LIZARD',,
html-keyboard-response,622,1496415,null,"BRAKE<img id = ""stim"" ><div class = red_square id = ""topsquare"" ></div><img id = ""stim"" ><div class = red_square  id = ""bottomsquare"" ></div>",null,word_square,response,0,none,true,,,
html-keyboard-response,623,1497923,null,"BRAKE",null,word,,,,, 'BRAKE',,
html-keyboard-response,624,1498387,461.99500001966953,"WOLF<img id = ""stim"" ><div class = green_square id = ""topsquare"" ></div><img id = ""stim"" ><div class = green_square  id = ""bottomsquare"" ></div>",32,word_square,response,1,Space,true,,,
html-keyboard-response,625,1499894,null,"WOLF",null,word,,,,, 'WOLF',,
html-keyboard-response,626,1500399,null,"BIBLE<img id = ""stim"" ><div class = green_square id = ""topsquare"" ></div><img id = ""stim"" ><div class = green_square  id = ""bottomsquare"" ></div>",null,word_square,response,1,Space,false,,,
html-keyboard-response,627,1501906,null,"BIBLE",null,word,,,,, 'BIBLE',,
html-keyboard-response,628,1502412,null,"LETTUCE<img id = ""stim"" ><div class = red_square id = ""topsquare"" ></div><img id = ""stim"" ><div class = red_square  id = ""bottomsquare"" ></div>",null,word_square,response,0,none,true,,,
html-keyboard-response,629,1503920,null,"LETTUCE",null,word,,,,, 'LETTUCE',,
html-keyboard-response,630,1504185,262.9200000083074,"TURKEY<img id = ""stim"" ><div class = green_square id = ""topsquare"" ></div><img id = ""stim"" ><div class = green_square  id = ""bottomsquare"" ></div>",32,word_square,response,1,Space,true,,,
html-keyboard-response,631,1505692,null,"TURKEY",null,word,,,,, 'TURKEY',,
html-keyboard-response,632,1505990,295.82500003743917,"SCOTCH<img id = ""stim"" ><div class = green_square id = ""topsquare"" ></div><img id = ""stim"" ><div class = green_square  id = ""bottomsquare"" ></div>",32,word_square,response,1,Space,true,,,
html-keyboard-response,633,1507497,null,"SCOTCH",null,word,,,,, 'SCOTCH',,
html-keyboard-response,634,1508005,null,"LEMON<img id = ""stim"" ><div class = red_square id = ""topsquare"" ></div><img id = ""stim"" ><div class = red_square  id = ""bottomsquare"" ></div>",null,word_square,response,0,none,true,,,
html-keyboard-response,635,1509510,null,"LEMON",null,word,,,,, 'LEMON',,
html-keyboard-response,636,1510017,null,"ISLAND<img id = ""stim"" ><div class = red_square id = ""topsquare"" ></div><img id = ""stim"" ><div class = red_square  id = ""bottomsquare"" ></div>",null,word_square,response,0,none,true,,,
html-keyboard-response,637,1511519,null,"ISLAND",null,word,,,,, 'ISLAND',,
html-keyboard-response,638,1512024,null,"SCARECROW<img id = ""stim"" ><div class = red_square id = ""topsquare"" ></div><img id = ""stim"" ><div class = red_square  id = ""bottomsquare"" ></div>",null,word_square,response,0,none,true,,,
html-keyboard-response,639,1513527,null,"SCARECROW",null,word,,,,, 'SCARECROW',,
html-keyboard-response,640,1513896,367.01499996706843,"BARLEY<img id = ""stim"" ><div class = green_square id = ""topsquare"" ></div><img id = ""stim"" ><div class = green_square  id = ""bottomsquare"" ></div>",32,word_square,response,1,Space,true,,,
html-keyboard-response,641,1515404,null,"BARLEY",null,word,,,,, 'BARLEY',,
html-keyboard-response,642,1515909,null,"BLOCKADE<img id = ""stim"" ><div class = red_square id = ""topsquare"" ></div><img id = ""stim"" ><div class = red_square  id = ""bottomsquare"" ></div>",null,word_square,response,0,none,true,,,
html-keyboard-response,643,1517412,null,"BLOCKADE",null,word,,,,, 'BLOCKADE',,
html-keyboard-response,644,1517914,null,"PEDAL<img id = ""stim"" ><div class = red_square id = ""topsquare"" ></div><img id = ""stim"" ><div class = red_square  id = ""bottomsquare"" ></div>",null,word_square,response,0,none,true,,,
html-keyboard-response,645,1519422,null,"PEDAL",null,word,,,,, 'PEDAL',,
html-keyboard-response,646,1519908,483.4649999975227,"COBWEB<img id = ""stim"" ><div class = green_square id = ""topsquare"" ></div><img id = ""stim"" ><div class = green_square  id = ""bottomsquare"" ></div>",32,word_square,response,1,Space,true,,,
html-keyboard-response,647,1521412,null,"COBWEB",null,word,,,,, 'COBWEB',,
html-keyboard-response,648,1521920,null,"CONCRETE<img id = ""stim"" ><div class = red_square id = ""topsquare"" ></div><img id = ""stim"" ><div class = red_square  id = ""bottomsquare"" ></div>",null,word_square,response,0,none,true,,,
html-keyboard-response,649,1523427,null,"CONCRETE",null,word,,,,, 'CONCRETE',,
html-keyboard-response,650,1523870,440.95000001834705,"GODDESS<img id = ""stim"" ><div class = green_square id = ""topsquare"" ></div><img id = ""stim"" ><div class = green_square  id = ""bottomsquare"" ></div>",32,word_square,response,1,Space,true,,,
html-keyboard-response,651,1525376,null,"GODDESS",null,word,,,,, 'GODDESS',,
html-keyboard-response,652,1525883,null,"OFFICE<img id = ""stim"" ><div class = red_square id = ""topsquare"" ></div><img id = ""stim"" ><div class = red_square  id = ""bottomsquare"" ></div>",null,word_square,response,0,none,true,,,
html-keyboard-response,653,1527390,null,"OFFICE",null,word,,,,, 'OFFICE',,
call-function,654,1527392,,"",,,,,,,,,
html-keyboard-response,655,1527495,null,"",null,,,,,,,,
math-period,656,1532351,9431.214999931399,"",,,,,,,,,3
html-keyboard-response,657,1532454,null,"",null,,,,,,,,
math-period,658,1534399,3799.294999917038,"",,,,,,,,,4
html-keyboard-response,659,1534502,null,"",null,,,,,,,,
math-period,660,1536590,4039.175000099931,"",,,,,,,,,4
html-keyboard-response,661,1536694,null,"",null,,,,,,,,
math-period,662,1538555,3628.5449999850243,"",,,,,,,,,2
html-keyboard-response,663,1538658,null,"",null,,,,,,,,
math-period,664,1540425,3482.380000059493,"",,,,,,,,,1
html-keyboard-response,665,1540533,null,"",null,,,,,,,,
math-period,666,1541844,2568.7400000169873,"",,,,,,,,,2
html-keyboard-response,667,1541951,null,"",null,,,,,,,,
math-period,668,1543620,3206.709999940358,"",,,,,,,,,4
html-keyboard-response,669,1543724,null,"",null,,,,,,,,
math-period,670,1545160,2663.6799999978393,"",,,,,,,,,2
html-keyboard-response,671,1545264,null,"",null,,,,,,,,
math-period,672,1547973,9777.28500001831,"",,,,,,,,,2
html-keyboard-response,673,1548075,null,"",null,,,,,,,,
math-period,674,1549547,2757.6000000699423,"",,,,,,,,,5
html-keyboard-response,675,1549651,null,"",null,,,,,,,,
math-period,676,1550974,2523.909999988973,"",,,,,,,,,2
html-keyboard-response,677,1551078,null,"",null,,,,,,,,
math-period,678,1551398,null,"",,,,,,,,,
html-keyboard-response,679,1552402,null,"Recall Period!",null,,,,,,,,
call-function,680,1552403,,"",,,,,,,,,
html-keyboard-response,681,1552505,null,"",null,,,,,,,,
recall-period,682,1556462,26218.449999811128,"",,,,,,,,,goddess
html-keyboard-response,683,1556566,null,"",null,,,,,,,,
recall-period,684,1558511,10517.33500015689,"",,,,,,,,,concrete
html-keyboard-response,685,1558614,null,"",null,,,,,,,,
recall-period,686,1567267,50181.97500013048,"",,,,,,,,,snake
html-keyboard-response,687,1567371,null,"",null,,,,,,,,
recall-period,688,1575759,40131.02999993134,"",,,,,,,,,wolf
html-keyboard-response,689,1575863,null,"",null,,,,,,,,
recall-period,690,1628111,null,"",,,,,,,,,
html-keyboard-response,691,1629078,null,"Time's Up!",null,,,,,,,,
html-keyboard-response,692,1677992,48911.510000005364,"<p> Uh oh. You responded correctly on 71% of the GREEN squares.</p>
                  <p>We need you keep your accuracy above 80%</p>
                  <p>Press any key to continue the experiment. Thank you!</p>",32,,,,,,,,
html-keyboard-response,693,1678906,912.4149999697693,"<div style=""font-size:48px;"">Press any key to begin list 8 of 24 </div>",32,,,,,,,,
html-keyboard-response,694,1681414,null,"<div style=""font-size:60px;"">+</div>",null,,,,,,,,
html-keyboard-response,695,1681768,351.1300000245683,"SNAIL<img id = ""stim"" ><div class = green_square id = ""topsquare"" ></div><img id = ""stim"" ><div class = green_square  id = ""bottomsquare"" ></div>",32,word_square,response,1,Space,true,,,
html-keyboard-response,696,1683270,null,"SNAIL",null,word,,,,, 'SNAIL',,
html-keyboard-response,697,1683647,375.69499999517575,"SLUG<img id = ""stim"" ><div class = green_square id = ""topsquare"" ></div><img id = ""stim"" ><div class = green_square  id = ""bottomsquare"" ></div>",32,word_square,response,1,Space,true,,,
html-keyboard-response,698,1685154,null,"SLUG",null,word,,,,, 'SLUG',,
html-keyboard-response,699,1685587,430.79000001307577,"PICKLE<img id = ""stim"" ><div class = red_square id = ""topsquare"" ></div><img id = ""stim"" ><div class = red_square  id = ""bottomsquare"" ></div>",32,word_square,response,0,none,false,,,
html-keyboard-response,700,1687095,null,"PICKLE",null,word,,,,, 'PICKLE',,
html-keyboard-response,701,1687471,373.9950000308454,"RIVER<img id = ""stim"" ><div class = green_square id = ""topsquare"" ></div><img id = ""stim"" ><div class = green_square  id = ""bottomsquare"" ></div>",32,word_square,response,1,Space,true,,,
html-keyboard-response,702,1688978,null,"RIVER",null,word,,,,, 'RIVER',,
html-keyboard-response,703,1689317,336.5549999871291,"CAMEL<img id = ""stim"" ><div class = green_square id = ""topsquare"" ></div><img id = ""stim"" ><div class = green_square  id = ""bottomsquare"" ></div>",32,word_square,response,1,Space,true,,,
html-keyboard-response,704,1690821,null,"CAMEL",null,word,,,,, 'CAMEL',,
html-keyboard-response,705,1691326,null,"OATMEAL<img id = ""stim"" ><div class = red_square id = ""topsquare"" ></div><img id = ""stim"" ><div class = red_square  id = ""bottomsquare"" ></div>",null,word_square,response,0,none,true,,,
html-keyboard-response,706,1692830,null,"OATMEAL",null,word,,,,, 'OATMEAL',,
html-keyboard-response,707,1693299,467.85499999532476,"TREAT<img id = ""stim"" ><div class = green_square id = ""topsquare"" ></div><img id = ""stim"" ><div class = green_square  id = ""bottomsquare"" ></div>",32,word_square,response,1,Space,true,,,
html-keyboard-response,708,1694804,null,"TREAT",null,word,,,,, 'TREAT',,
html-keyboard-response,709,1695222,415.6000000075437,"TART<img id = ""stim"" ><div class = green_square id = ""topsquare"" ></div><img id = ""stim"" ><div class = green_square  id = ""bottomsquare"" ></div>",32,word_square,response,1,Space,true,,,
html-keyboard-response,710,1696725,null,"TART",null,word,,,,, 'TART',,
html-keyboard-response,711,1697228,null,"BLUEPRINT<img id = ""stim"" ><div class = red_square id = ""topsquare"" ></div><img id = ""stim"" ><div class = red_square  id = ""bottomsquare"" ></div>",null,word_square,response,0,none,true,,,
html-keyboard-response,712,1698730,null,"BLUEPRINT",null,word,,,,, 'BLUEPRINT',,
html-keyboard-response,713,1699235,null,"STRANGER<img id = ""stim"" ><div class = red_square id = ""topsquare"" ></div><img id = ""stim"" ><div class = red_square  id = ""bottomsquare"" ></div>",null,word_square,response,0,none,true,,,
html-keyboard-response,714,1700739,null,"STRANGER",null,word,,,,, 'STRANGER',,
html-keyboard-response,715,1701244,null,"CARTON<img id = ""stim"" ><div class = red_square id = ""topsquare"" ></div><img id = ""stim"" ><div class = red_square  id = ""bottomsquare"" ></div>",null,word_square,response,0,none,true,,,
html-keyboard-response,716,1702752,null,"CARTON",null,word,,,,, 'CARTON',,
html-keyboard-response,717,1703195,441.4000000106171,"CANYON<img id = ""stim"" ><div class = green_square id = ""topsquare"" ></div><img id = ""stim"" ><div class = green_square  id = ""bottomsquare"" ></div>",32,word_square,response,1,Space,true,,,
html-keyboard-response,718,1704703,null,"CANYON",null,word,,,,, 'CANYON',,
html-keyboard-response,719,1705207,null,"PRINCESS<img id = ""stim"" ><div class = red_square id = ""topsquare"" ></div><img id = ""stim"" ><div class = red_square  id = ""bottomsquare"" ></div>",null,word_square,response,0,none,true,,,
html-keyboard-response,720,1706710,null,"PRINCESS",null,word,,,,, 'PRINCESS',,
html-keyboard-response,721,1707216,null,"MARINE<img id = ""stim"" ><div class = red_square id = ""topsquare"" ></div><img id = ""stim"" ><div class = red_square  id = ""bottomsquare"" ></div>",null,word_square,response,0,none,true,,,
html-keyboard-response,722,1708723,null,"MARINE",null,word,,,,, 'MARINE',,
html-keyboard-response,723,1709228,null,"CIGAR<img id = ""stim"" ><div class = green_square id = ""topsquare"" ></div><img id = ""stim"" ><div class = green_square  id = ""bottomsquare"" ></div>",null,word_square,response,1,Space,false,,,
html-keyboard-response,724,1710735,null,"CIGAR",null,word,,,,, 'CIGAR',,
html-keyboard-response,725,1711243,null,"SPONGE<img id = ""stim"" ><div class = red_square id = ""topsquare"" ></div><img id = ""stim"" ><div class = red_square  id = ""bottomsquare"" ></div>",null,word_square,response,0,none,true,,,
html-keyboard-response,726,1712745,null,"SPONGE",null,word,,,,, 'SPONGE',,
html-keyboard-response,727,1713250,null,"STREAM<img id = ""stim"" ><div class = green_square id = ""topsquare"" ></div><img id = ""stim"" ><div class = green_square  id = ""bottomsquare"" ></div>",null,word_square,response,1,Space,false,,,
html-keyboard-response,728,1714754,null,"STREAM",null,word,,,,, 'STREAM',,
html-keyboard-response,729,1715262,null,"LITTER<img id = ""stim"" ><div class = red_square id = ""topsquare"" ></div><img id = ""stim"" ><div class = red_square  id = ""bottomsquare"" ></div>",null,word_square,response,0,none,true,,,
html-keyboard-response,730,1716768,null,"LITTER",null,word,,,,, 'LITTER',,
call-function,731,1716769,,"",,,,,,,,,
html-keyboard-response,732,1716874,null,"",null,,,,,,,,
math-period,733,1719186,4423.86500001885,"",,,,,,,,,4
html-keyboard-response,734,1719290,null,"",null,,,,,,,,
math-period,735,1721083,3467.174999997951,"",,,,,,,,,4
html-keyboard-response,736,1721187,null,"",null,,,,,,,,
math-period,737,1722404,2287.03000000678,"",,,,,,,,,1
html-keyboard-response,738,1722508,null,"",null,,,,,,,,
math-period,739,1724013,2821.4699999662116,"",,,,,,,,,5
html-keyboard-response,740,1724116,null,"",null,,,,,,,,
math-period,741,1725481,2633.6499999742955,"",,,,,,,,,4
html-keyboard-response,742,1725584,null,"",null,,,,,,,,
math-period,743,1726970,2594.0500000142492,"",,,,,,,,,2
html-keyboard-response,744,1727073,null,"",null,,,,,,,,
math-period,745,1728907,3537.8900000359863,"",,,,,,,,,4
html-keyboard-response,746,1729010,null,"",null,,,,,,,,
math-period,747,1730494,2862.3899999656714,"",,,,,,,,,5
html-keyboard-response,748,1730597,null,"",null,,,,,,,,
math-period,749,1732073,2829.4950000126846,"",,,,,,,,,4
html-keyboard-response,750,1732177,null,"",null,,,,,,,,
math-period,751,1733484,2506.725000042934,"",,,,,,,,,3
html-keyboard-response,752,1733587,null,"",null,,,,,,,,
math-period,753,1738260,9164.905000012368,"",,,,,,,,,0
html-keyboard-response,754,1738364,null,"",null,,,,,,,,
math-period,755,1739803,2768.7850000802428,"",,,,,,,,,1
html-keyboard-response,756,1739907,null,"",null,,,,,,,,
math-period,757,1740775,null,"",,,,,,,,,
html-keyboard-response,758,1741779,null,"Recall Period!",null,,,,,,,,
call-function,759,1741780,,"",,,,,,,,,
html-keyboard-response,760,1741883,null,"",null,,,,,,,,
recall-period,761,1744246,16508.62999993842,"",,,,,,,,,princess
html-keyboard-response,762,1744349,null,"",null,,,,,,,,
recall-period,763,1746261,11421.770000015385,"",,,,,,,,,stream
html-keyboard-response,764,1746365,null,"",null,,,,,,,,
recall-period,765,1750662,23860.445000056643,"",,,,,,,,,camel
html-keyboard-response,766,1750767,null,"",null,,,,,,,,
recall-period,767,1752083,6748.1099999859,"",,,,,,,,,oatmeal
html-keyboard-response,768,1752187,null,"",null,,,,,,,,
recall-period,769,1753254,3623.1700000935234,"",,,,,,,,,tart
html-keyboard-response,770,1753356,null,"",null,,,,,,,,
recall-period,771,1755600,8408.824999874923,"",,,,,,,,,snail
html-keyboard-response,772,1755703,null,"",null,,,,,,,,
recall-period,773,1756569,2931.405000097584,"",,,,,,,,,slug
html-keyboard-response,774,1756673,null,"",null,,,,,,,,
recall-period,775,1817359,null,"",,,,,,,,,
html-keyboard-response,776,1818284,null,"Time's Up!",null,,,,,,,,
html-keyboard-response,777,1841328,23042.56999999052,"<p> Uh oh. You responded correctly on 72% of the GREEN squares.</p>
                  <p>We need you keep your accuracy above 80%</p>
                  <p>Press any key to continue the experiment. Thank you!</p>",32,,,,,,,,
html-keyboard-response,778,1842250,920.0950000085868,"<div style=""font-size:48px;"">Press any key to begin list 9 of 24 </div>",32,,,,,,,,
html-keyboard-response,779,1844755,null,"<div style=""font-size:60px;"">+</div>",null,,,,,,,,
html-keyboard-response,780,1845257,499.94500004686415,"GAVEL<img id = ""stim"" ><div class = red_square id = ""topsquare"" ></div><img id = ""stim"" ><div class = red_square  id = ""bottomsquare"" ></div>",32,word_square,response,0,none,false,,,
html-keyboard-response,781,1846761,null,"GAVEL",null,word,,,,, 'GAVEL',,
html-keyboard-response,782,1847266,null,"EARRING<img id = ""stim"" ><div class = red_square id = ""topsquare"" ></div><img id = ""stim"" ><div class = red_square  id = ""bottomsquare"" ></div>",null,word_square,response,0,none,true,,,
html-keyboard-response,783,1848769,null,"EARRING",null,word,,,,, 'EARRING',,
html-keyboard-response,784,1849140,368.91999997897074,"DENTIST<img id = ""stim"" ><div class = green_square id = ""topsquare"" ></div><img id = ""stim"" ><div class = green_square  id = ""bottomsquare"" ></div>",32,word_square,response,1,Space,true,,,
html-keyboard-response,785,1850647,null,"DENTIST",null,word,,,,, 'DENTIST',,
html-keyboard-response,786,1851150,null,"SKUNK<img id = ""stim"" ><div class = red_square id = ""topsquare"" ></div><img id = ""stim"" ><div class = red_square  id = ""bottomsquare"" ></div>",null,word_square,response,0,none,true,,,
html-keyboard-response,787,1852657,null,"SKUNK",null,word,,,,, 'SKUNK',,
html-keyboard-response,788,1853004,345.38999997312203,"PORPOISE<img id = ""stim"" ><div class = green_square id = ""topsquare"" ></div><img id = ""stim"" ><div class = green_square  id = ""bottomsquare"" ></div>",32,word_square,response,1,Space,true,,,
html-keyboard-response,789,1854512,null,"PORPOISE",null,word,,,,, 'PORPOISE',,
html-keyboard-response,790,1855015,null,"DRAGON<img id = ""stim"" ><div class = red_square id = ""topsquare"" ></div><img id = ""stim"" ><div class = red_square  id = ""bottomsquare"" ></div>",null,word_square,response,0,none,true,,,
html-keyboard-response,791,1856523,null,"DRAGON",null,word,,,,, 'DRAGON',,
html-keyboard-response,792,1856828,302.8749999939464,"SHIRT<img id = ""stim"" ><div class = red_square id = ""topsquare"" ></div><img id = ""stim"" ><div class = red_square  id = ""bottomsquare"" ></div>",32,word_square,response,0,none,false,,,
html-keyboard-response,793,1858332,null,"SHIRT",null,word,,,,, 'SHIRT',,
html-keyboard-response,794,1858742,407.94999996433035,"NURSE<img id = ""stim"" ><div class = green_square id = ""topsquare"" ></div><img id = ""stim"" ><div class = green_square  id = ""bottomsquare"" ></div>",32,word_square,response,1,Space,true,,,
html-keyboard-response,795,1860249,null,"NURSE",null,word,,,,, 'NURSE',,
html-keyboard-response,796,1860756,null,"TRUMPET<img id = ""stim"" ><div class = red_square id = ""topsquare"" ></div><img id = ""stim"" ><div class = red_square  id = ""bottomsquare"" ></div>",null,word_square,response,0,none,true,,,
html-keyboard-response,797,1862258,null,"TRUMPET",null,word,,,,, 'TRUMPET',,
html-keyboard-response,798,1862605,344.11000000545755,"CARPET<img id = ""stim"" ><div class = green_square id = ""topsquare"" ></div><img id = ""stim"" ><div class = green_square  id = ""bottomsquare"" ></div>",32,word_square,response,1,Space,true,,,
html-keyboard-response,799,1864112,null,"CARPET",null,word,,,,, 'CARPET',,
html-keyboard-response,800,1864617,null,"TRIBE<img id = ""stim"" ><div class = red_square id = ""topsquare"" ></div><img id = ""stim"" ><div class = red_square  id = ""bottomsquare"" ></div>",null,word_square,response,0,none,true,,,
html-keyboard-response,801,1866123,null,"TRIBE",null,word,,,,, 'TRIBE',,
html-keyboard-response,802,1866628,null,"STAKE<img id = ""stim"" ><div class = red_square id = ""topsquare"" ></div><img id = ""stim"" ><div class = red_square  id = ""bottomsquare"" ></div>",null,word_square,response,0,none,true,,,
html-keyboard-response,803,1868135,null,"STAKE",null,word,,,,, 'STAKE',,
html-keyboard-response,804,1868622,484.8150000325404,"LAPEL<img id = ""stim"" ><div class = green_square id = ""topsquare"" ></div><img id = ""stim"" ><div class = green_square  id = ""bottomsquare"" ></div>",32,word_square,response,1,Space,true,,,
html-keyboard-response,805,1870125,null,"LAPEL",null,word,,,,, 'LAPEL',,
html-keyboard-response,806,1870493,365.6499999924563,"CLOUD<img id = ""stim"" ><div class = green_square id = ""topsquare"" ></div><img id = ""stim"" ><div class = green_square  id = ""bottomsquare"" ></div>",32,word_square,response,1,Space,true,,,
html-keyboard-response,807,1872000,null,"CLOUD",null,word,,,,, 'CLOUD',,
html-keyboard-response,808,1872507,null,"VICTIM<img id = ""stim"" ><div class = red_square id = ""topsquare"" ></div><img id = ""stim"" ><div class = red_square  id = ""bottomsquare"" ></div>",null,word_square,response,0,none,true,,,
html-keyboard-response,809,1874010,null,"VICTIM",null,word,,,,, 'VICTIM',,
html-keyboard-response,810,1874341,329.28999996511266,"HEDGE<img id = ""stim"" ><div class = green_square id = ""topsquare"" ></div><img id = ""stim"" ><div class = green_square  id = ""bottomsquare"" ></div>",32,word_square,response,1,Space,true,,,
html-keyboard-response,811,1875844,null,"HEDGE",null,word,,,,, 'HEDGE',,
html-keyboard-response,812,1876176,329.72999999765307,"LUMBER<img id = ""stim"" ><div class = green_square id = ""topsquare"" ></div><img id = ""stim"" ><div class = green_square  id = ""bottomsquare"" ></div>",32,word_square,response,1,Space,true,,,
html-keyboard-response,813,1877680,null,"LUMBER",null,word,,,,, 'LUMBER',,
html-keyboard-response,814,1877947,265.34499996341765,"CABLE<img id = ""stim"" ><div class = green_square id = ""topsquare"" ></div><img id = ""stim"" ><div class = green_square  id = ""bottomsquare"" ></div>",32,word_square,response,1,Space,true,,,
html-keyboard-response,815,1879450,null,"CABLE",null,word,,,,, 'CABLE',,
call-function,816,1879452,,"",,,,,,,,,
html-keyboard-response,817,1879557,null,"",null,,,,,,,,
math-period,818,1881588,3884.0349999954924,"",,,,,,,,,4
html-keyboard-response,819,1881691,null,"",null,,,,,,,,
math-period,820,1882895,2291.6499999701045,"",,,,,,,,,1
html-keyboard-response,821,1882999,null,"",null,,,,,,,,
math-period,822,1884680,3297.7350000292063,"",,,,,,,,,4
html-keyboard-response,823,1884784,null,"",null,,,,,,,,
math-period,824,1886013,2313.1899999571033,"",,,,,,,,,3
html-keyboard-response,825,1886116,null,"",null,,,,,,,,
math-period,826,1888287,4154.595000029076,"",,,,,,,,,0
html-keyboard-response,827,1888391,null,"",null,,,,,,,,
math-period,828,1889735,2566.2250000750646,"",,,,,,,,,1
html-keyboard-response,829,1889839,null,"",null,,,,,,,,
math-period,830,1893293,6799.5649999938905,"",,,,,,,,,2
html-keyboard-response,831,1893396,null,"",null,,,,,,,,
math-period,832,1895769,4624.619999958668,"",,,,,,,,,2
html-keyboard-response,833,1895873,null,"",null,,,,,,,,
math-period,834,1897258,2634.589999972377,"",,,,,,,,,1
html-keyboard-response,835,1897362,null,"",null,,,,,,,,
math-period,836,1899373,3942.0149999205023,"",,,,,,,,,6
html-keyboard-response,837,1899477,null,"",null,,,,,,,,
math-period,838,1900473,1927.3549999925308,"",,,,,,,,,6
html-keyboard-response,839,1900577,null,"",null,,,,,,,,
math-period,840,1903458,null,"",,,,,,,,,
html-keyboard-response,841,1904461,null,"Recall Period!",null,,,,,,,,
call-function,842,1904462,,"",,,,,,,,,
html-keyboard-response,843,1904565,null,"",null,,,,,,,,
recall-period,844,1924371,134814.32500021765,"",,,,,,,,,carpet
html-keyboard-response,845,1924475,null,"",null,,,,,,,,
recall-period,846,1935581,65018.15500005614,"",,,,,,,,,ghost
html-keyboard-response,847,1935685,null,"",null,,,,,,,,
recall-period,848,1979468,null,"",,,,,,,,,
html-keyboard-response,849,1979976,null,"Time's Up!",null,,,,,,,,
html-keyboard-response,850,2008077,28098.41500001494,"<p> Uh oh. You responded correctly on 74% of the GREEN squares.</p>
                  <p>We need you keep your accuracy above 80%</p>
                  <p>Press any key to continue the experiment. Thank you!</p>",32,,,,,,,,
html-keyboard-response,851,2009949,1870.1400000136346,"<div style=""font-size:48px;"">Press any key to begin list 10 of 24 </div>",32,,,,,,,,
html-keyboard-response,852,2012456,null,"<div style=""font-size:60px;"">+</div>",null,,,,,,,,
html-keyboard-response,853,2012963,null,"MATTRESS<img id = ""stim"" ><div class = red_square id = ""topsquare"" ></div><img id = ""stim"" ><div class = red_square  id = ""bottomsquare"" ></div>",null,word_square,response,0,none,true,,,
html-keyboard-response,854,2014466,null,"MATTRESS",null,word,,,,, 'MATTRESS',,
html-keyboard-response,855,2014973,null,"COUCH<img id = ""stim"" ><div class = red_square id = ""topsquare"" ></div><img id = ""stim"" ><div class = red_square  id = ""bottomsquare"" ></div>",null,word_square,response,0,none,true,,,
html-keyboard-response,856,2016476,null,"COUCH",null,word,,,,, 'COUCH',,
html-keyboard-response,857,2016808,329.6550000086427,"CUSTARD<img id = ""stim"" ><div class = green_square id = ""topsquare"" ></div><img id = ""stim"" ><div class = green_square  id = ""bottomsquare"" ></div>",32,word_square,response,1,Space,true,,,
html-keyboard-response,858,2018312,null,"CUSTARD",null,word,,,,, 'CUSTARD',,
html-keyboard-response,859,2018819,null,"TILE<img id = ""stim"" ><div class = red_square id = ""topsquare"" ></div><img id = ""stim"" ><div class = red_square  id = ""bottomsquare"" ></div>",null,word_square,response,0,none,true,,,
html-keyboard-response,860,2020326,null,"TILE",null,word,,,,, 'TILE',,
html-keyboard-response,861,2020806,476.9150000065565,"CHICKEN<img id = ""stim"" ><div class = green_square id = ""topsquare"" ></div><img id = ""stim"" ><div class = green_square  id = ""bottomsquare"" ></div>",32,word_square,response,1,Space,true,,,
html-keyboard-response,862,2022313,null,"CHICKEN",null,word,,,,, 'CHICKEN',,
html-keyboard-response,863,2022818,null,"SINK<img id = ""stim"" ><div class = red_square id = ""topsquare"" ></div><img id = ""stim"" ><div class = red_square  id = ""bottomsquare"" ></div>",null,word_square,response,0,none,true,,,
html-keyboard-response,864,2024325,null,"SINK",null,word,,,,, 'SINK',,
html-keyboard-response,865,2024833,null,"THIEF<img id = ""stim"" ><div class = red_square id = ""topsquare"" ></div><img id = ""stim"" ><div class = red_square  id = ""bottomsquare"" ></div>",null,word_square,response,0,none,true,,,
html-keyboard-response,866,2026340,null,"THIEF",null,word,,,,, 'THIEF',,
html-keyboard-response,867,2026846,null,"AGENT<img id = ""stim"" ><div class = green_square id = ""topsquare"" ></div><img id = ""stim"" ><div class = green_square  id = ""bottomsquare"" ></div>",null,word_square,response,1,Space,false,,,
html-keyboard-response,868,2028354,null,"AGENT",null,word,,,,, 'AGENT',,
html-keyboard-response,869,2028857,null,"SIDEWALK<img id = ""stim"" ><div class = red_square id = ""topsquare"" ></div><img id = ""stim"" ><div class = red_square  id = ""bottomsquare"" ></div>",null,word_square,response,0,none,true,,,
html-keyboard-response,870,2030364,null,"SIDEWALK",null,word,,,,, 'SIDEWALK',,
html-keyboard-response,871,2030705,338.68500002427027,"HIGHWAY<img id = ""stim"" ><div class = green_square id = ""topsquare"" ></div><img id = ""stim"" ><div class = green_square  id = ""bottomsquare"" ></div>",32,word_square,response,1,Space,true,,,
html-keyboard-response,872,2032212,null,"HIGHWAY",null,word,,,,, 'HIGHWAY',,
html-keyboard-response,873,2032716,null,"BANDIT<img id = ""stim"" ><div class = red_square id = ""topsquare"" ></div><img id = ""stim"" ><div class = red_square  id = ""bottomsquare"" ></div>",null,word_square,response,0,none,true,,,
html-keyboard-response,874,2034223,null,"BANDIT",null,word,,,,, 'BANDIT',,
html-keyboard-response,875,2034731,null,"CLIMBER<img id = ""stim"" ><div class = red_square id = ""topsquare"" ></div><img id = ""stim"" ><div class = red_square  id = ""bottomsquare"" ></div>",null,word_square,response,0,none,true,,,
html-keyboard-response,876,2036234,null,"CLIMBER",null,word,,,,, 'CLIMBER',,
html-keyboard-response,877,2036699,462.64000004157424,"OYSTER<img id = ""stim"" ><div class = green_square id = ""topsquare"" ></div><img id = ""stim"" ><div class = green_square  id = ""bottomsquare"" ></div>",32,word_square,response,1,Space,true,,,
html-keyboard-response,878,2038207,null,"OYSTER",null,word,,,,, 'OYSTER',,
html-keyboard-response,879,2038542,333.37000000756234,"MAGNET<img id = ""stim"" ><div class = green_square id = ""topsquare"" ></div><img id = ""stim"" ><div class = green_square  id = ""bottomsquare"" ></div>",32,word_square,response,1,Space,true,,,
html-keyboard-response,880,2040047,null,"MAGNET",null,word,,,,, 'MAGNET',,
html-keyboard-response,881,2040554,null,"COLUMN<img id = ""stim"" ><div class = red_square id = ""topsquare"" ></div><img id = ""stim"" ><div class = red_square  id = ""bottomsquare"" ></div>",null,word_square,response,0,none,true,,,
html-keyboard-response,882,2042057,null,"COLUMN",null,word,,,,, 'COLUMN',,
html-keyboard-response,883,2042392,333.43999995850027,"MUSHROOM<img id = ""stim"" ><div class = green_square id = ""topsquare"" ></div><img id = ""stim"" ><div class = green_square  id = ""bottomsquare"" ></div>",32,word_square,response,1,Space,true,,,
html-keyboard-response,884,2043895,null,"MUSHROOM",null,word,,,,, 'MUSHROOM',,
html-keyboard-response,885,2044297,399.2650000145659,"LAUNDRY<img id = ""stim"" ><div class = green_square id = ""topsquare"" ></div><img id = ""stim"" ><div class = green_square  id = ""bottomsquare"" ></div>",32,word_square,response,1,Space,true,,,
html-keyboard-response,886,2045804,null,"LAUNDRY",null,word,,,,, 'LAUNDRY',,
html-keyboard-response,887,2046135,328.94000003580004,"CHAMPAGNE<img id = ""stim"" ><div class = green_square id = ""topsquare"" ></div><img id = ""stim"" ><div class = green_square  id = ""bottomsquare"" ></div>",32,word_square,response,1,Space,true,,,
html-keyboard-response,888,2047642,null,"CHAMPAGNE",null,word,,,,, 'CHAMPAGNE',,
call-function,889,2047644,,"",,,,,,,,,
html-keyboard-response,890,2047746,null,"",null,,,,,,,,
math-period,891,2051496,6172.964999976102,"",,,,,,,,,3
html-keyboard-response,892,2051600,null,"",null,,,,,,,,
math-period,893,2053162,2988.5599999688566,"",,,,,,,,,5
html-keyboard-response,894,2053267,null,"",null,,,,,,,,
math-period,895,2054794,2812.4999999417923,"",,,,,,,,,1
html-keyboard-response,896,2054898,null,"",null,,,,,,,,
math-period,897,2056536,3208.1949999555945,"",,,,,,,,,5
html-keyboard-response,898,2056641,null,"",null,,,,,,,,
math-period,899,2057961,2559.880000015255,"",,,,,,,,,1
html-keyboard-response,900,2058064,null,"",null,,,,,,,,
math-period,901,2059560,2858.154999965336,"",,,,,,,,,3
html-keyboard-response,902,2059664,null,"",null,,,,,,,,
math-period,903,2062491,5430.735000001732,"",,,,,,,,,0
html-keyboard-response,904,2062594,null,"",null,,,,,,,,
math-period,905,2064139,3009.330000029877,"",,,,,,,,,4
html-keyboard-response,906,2064244,null,"",null,,,,,,,,
math-period,907,2065526,2389.5900000352412,"",,,,,,,,,1
html-keyboard-response,908,2065630,null,"",null,,,,,,,,
math-period,909,2067322,3113.7399999424815,"",,,,,,,,,3
html-keyboard-response,910,2067426,null,"",null,,,,,,,,
math-period,911,2069792,4539.46000005817,"",,,,,,,,,3
html-keyboard-response,912,2069896,null,"",null,,,,,,,,
math-period,913,2071649,1659.7900000051595,"",,,,,,,,,0
html-keyboard-response,914,2072652,null,"Recall Period!",null,,,,,,,,
call-function,915,2072654,,"",,,,,,,,,
