trial_type,trial_index,time_elapsed,rt,stimulus,key_press,test_part,task,targ_cond,correctKeyCode,correct,word,value,response
pavlovia,0,1199,,"",,,,,,,,,
external-html,1,4830,3332.794999994803,"",,,,,,,,,
html-keyboard-response,2,6427,1591.775000008056,"Welcome to the experiment. Press any key to begin.",32,,,,,,,,
html-keyboard-response,3,96812,90382.01500001014,"<p>You will see a list of words and colored squares in the following task.<p><p>Press the spacebar whenever you see a red square.<p><p>Do not press a key if the square is green<p><p>Press the spacebar to continue.</p>",32,,,,,,,,
html-keyboard-response,4,107810,10493.725000007544,"<p>Please try to remember as many of the words as you can, and try to think about the meaning of each word as it appears.<p><p>After the detection and encoding task you will be asked to solve some math problems for 24 seconds.<p> Please solve as many problems as you can in the time given. <p>",32,,,,,,,,
html-keyboard-response,5,112696,4382.565000007162,"After solving the math problems, you will be asked to type in as many words <p>from the previous list as you can remember for 75 seconds.<p> If you finish recalling before the 75 seconds are up,<p> just sit tight and try to think of any more words you could have missed. <p><p>We will begin with a brief practice session<p>Press the spacebar to begin the practice.</p>",32,,,,,,,,
html-keyboard-response,6,115201,null,"<div style=""font-size:60px;"">+</div>",null,,,,,,,,
html-keyboard-response,7,115706,null,"HAPPY<img id = ""stim"" ><div class = green_square id = ""topsquare"" ></div><img id = ""stim"" ><div class = green_square  id = ""bottomsquare"" ></div>",null,word_square,prac_response,0,none,true,,,
html-keyboard-response,8,117210,null,"HAPPY",null,word,,,,,HAPPY,,
html-keyboard-response,9,117714,null,"COLD<img id = ""stim"" ><div class = red_square id = ""topsquare"" ></div><img id = ""stim"" ><div class = red_square  id = ""bottomsquare"" ></div>",null,word_square,prac_response,1,Space,false,,,
html-keyboard-response,10,119218,null,"COLD",null,word,,,,,COLD,,
html-keyboard-response,11,119721,null,"HEAVY<img id = ""stim"" ><div class = red_square id = ""topsquare"" ></div><img id = ""stim"" ><div class = red_square  id = ""bottomsquare"" ></div>",null,word_square,prac_response,1,Space,false,,,
html-keyboard-response,12,121225,null,"HEAVY",null,word,,,,,HEAVY,,
html-keyboard-response,13,121728,null,"FUNNY<img id = ""stim"" ><div class = green_square id = ""topsquare"" ></div><img id = ""stim"" ><div class = green_square  id = ""bottomsquare"" ></div>",null,word_square,prac_response,0,none,true,,,
html-keyboard-response,14,123231,null,"FUNNY",null,word,,,,,FUNNY,,
html-keyboard-response,15,123734,274.810000002617,"SCARY<img id = ""stim"" ><div class = red_square id = ""topsquare"" ></div><img id = ""stim"" ><div class = red_square  id = ""bottomsquare"" ></div>",32,word_square,prac_response,1,Space,true,,,
html-keyboard-response,16,125237,null,"SCARY",null,word,,,,,SCARY,,
html-keyboard-response,17,125741,null,"PEACEFUL<img id = ""stim"" ><div class = red_square id = ""topsquare"" ></div><img id = ""stim"" ><div class = red_square  id = ""bottomsquare"" ></div>",null,word_square,prac_response,1,Space,false,,,
html-keyboard-response,18,127244,null,"PEACEFUL",null,word,,,,,PEACEFUL,,
html-keyboard-response,19,127750,null,"LITTLE<img id = ""stim"" ><div class = green_square id = ""topsquare"" ></div><img id = ""stim"" ><div class = green_square  id = ""bottomsquare"" ></div>",null,word_square,prac_response,0,none,true,,,
html-keyboard-response,20,129252,null,"LITTLE",null,word,,,,,LITTLE,,
html-keyboard-response,21,129756,null,"TIRED<img id = ""stim"" ><div class = green_square id = ""topsquare"" ></div><img id = ""stim"" ><div class = green_square  id = ""bottomsquare"" ></div>",null,word_square,prac_response,0,none,true,,,
html-keyboard-response,22,131258,null,"TIRED",null,word,,,,,TIRED,,
html-keyboard-response,23,131761,null,"ENTERTAINING<img id = ""stim"" ><div class = green_square id = ""topsquare"" ></div><img id = ""stim"" ><div class = green_square  id = ""bottomsquare"" ></div>",null,word_square,prac_response,0,none,true,,,
html-keyboard-response,24,133264,null,"ENTERTAINING",null,word,,,,,ENTERTAINING,,
html-keyboard-response,25,133767,337.9749999730848,"GRATEFUL<img id = ""stim"" ><div class = red_square id = ""topsquare"" ></div><img id = ""stim"" ><div class = red_square  id = ""bottomsquare"" ></div>",32,word_square,prac_response,1,Space,true,,,
html-keyboard-response,26,135270,null,"GRATEFUL",null,word,,,,,GRATEFUL,,
html-keyboard-response,27,135773,null,"LOUD<img id = ""stim"" ><div class = green_square id = ""topsquare"" ></div><img id = ""stim"" ><div class = green_square  id = ""bottomsquare"" ></div>",null,word_square,prac_response,0,none,true,,,
html-keyboard-response,28,137277,null,"LOUD",null,word,,,,,LOUD,,
html-keyboard-response,29,137780,null,"SMART<img id = ""stim"" ><div class = red_square id = ""topsquare"" ></div><img id = ""stim"" ><div class = red_square  id = ""bottomsquare"" ></div>",null,word_square,prac_response,1,Space,false,,,
html-keyboard-response,30,139283,null,"SMART",null,word,,,,,SMART,,
html-keyboard-response,31,139787,391.7399999918416,"SMOOTH<img id = ""stim"" ><div class = red_square id = ""topsquare"" ></div><img id = ""stim"" ><div class = red_square  id = ""bottomsquare"" ></div>",32,word_square,prac_response,1,Space,true,,,
html-keyboard-response,32,141289,null,"SMOOTH",null,word,,,,,SMOOTH,,
html-keyboard-response,33,141792,null,"DISHONEST<img id = ""stim"" ><div class = green_square id = ""topsquare"" ></div><img id = ""stim"" ><div class = green_square  id = ""bottomsquare"" ></div>",null,word_square,prac_response,0,none,true,,,
html-keyboard-response,34,143296,null,"DISHONEST",null,word,,,,,DISHONEST,,
html-keyboard-response,35,143799,443.06999997934327,"WEALTHY<img id = ""stim"" ><div class = red_square id = ""topsquare"" ></div><img id = ""stim"" ><div class = red_square  id = ""bottomsquare"" ></div>",32,word_square,prac_response,1,Space,true,,,
html-keyboard-response,36,145303,null,"WEALTHY",null,word,,,,,WEALTHY,,
html-keyboard-response,37,145806,null,"BEAUTIFUL<img id = ""stim"" ><div class = green_square id = ""topsquare"" ></div><img id = ""stim"" ><div class = green_square  id = ""bottomsquare"" ></div>",null,word_square,prac_response,0,none,true,,,
html-keyboard-response,38,147310,null,"BEAUTIFUL",null,word,,,,,BEAUTIFUL,,
html-keyboard-response,39,147813,null,"DREARY<img id = ""stim"" ><div class = green_square id = ""topsquare"" ></div><img id = ""stim"" ><div class = green_square  id = ""bottomsquare"" ></div>",null,word_square,prac_response,0,none,true,,,
html-keyboard-response,40,149317,null,"DREARY",null,word,,,,,DREARY,,
html-keyboard-response,41,149819,358.0200000142213,"PLAYFUL<img id = ""stim"" ><div class = red_square id = ""topsquare"" ></div><img id = ""stim"" ><div class = red_square  id = ""bottomsquare"" ></div>",32,word_square,prac_response,1,Space,true,,,
html-keyboard-response,42,151322,null,"PLAYFUL",null,word,,,,,PLAYFUL,,
html-keyboard-response,43,166450,15122.690000018338,"<p> Uh oh. You responded correctly on 78% of the red squares.</p>
                  <p>We need you keep your accuracy above 80%</p>
                  <p>We're going to try once more to make sure you understand the task. press any key to continue.</p>",32,,,,,,,,
html-keyboard-response,44,172476,6022.814999974798,"<p>You will see a list of words and colored squares in the following task.<p><p>Press the spacebar whenever you see a red square.<p><p>Do not press a key if the square is green<p><p>Press the spacebar to continue.</p>",32,,,,,,,,
html-keyboard-response,45,174979,null,"<div style=""font-size:60px;"">+</div>",null,,,,,,,,
html-keyboard-response,46,175483,null,"HAPPY<img id = ""stim"" ><div class = green_square id = ""topsquare"" ></div><img id = ""stim"" ><div class = green_square  id = ""bottomsquare"" ></div>",null,word_square,response,0,none,true,,,
html-keyboard-response,47,176986,null,"HAPPY",null,word,,,,,HAPPY,,
html-keyboard-response,48,177310,320.89999999152496,"COLD<img id = ""stim"" ><div class = red_square id = ""topsquare"" ></div><img id = ""stim"" ><div class = red_square  id = ""bottomsquare"" ></div>",32,word_square,response,1,Space,true,,,
html-keyboard-response,49,178812,null,"COLD",null,word,,,,,COLD,,
html-keyboard-response,50,179316,null,"HEAVY<img id = ""stim"" ><div class = red_square id = ""topsquare"" ></div><img id = ""stim"" ><div class = red_square  id = ""bottomsquare"" ></div>",null,word_square,response,1,Space,false,,,
html-keyboard-response,51,180819,null,"HEAVY",null,word,,,,,HEAVY,,
html-keyboard-response,52,181322,null,"FUNNY<img id = ""stim"" ><div class = green_square id = ""topsquare"" ></div><img id = ""stim"" ><div class = green_square  id = ""bottomsquare"" ></div>",null,word_square,response,0,none,true,,,
html-keyboard-response,53,182824,null,"FUNNY",null,word,,,,,FUNNY,,
html-keyboard-response,54,183113,285.135000012815,"SCARY<img id = ""stim"" ><div class = red_square id = ""topsquare"" ></div><img id = ""stim"" ><div class = red_square  id = ""bottomsquare"" ></div>",32,word_square,response,1,Space,true,,,
html-keyboard-response,55,184616,null,"SCARY",null,word,,,,,SCARY,,
html-keyboard-response,56,184985,365.7799999928102,"PEACEFUL<img id = ""stim"" ><div class = red_square id = ""topsquare"" ></div><img id = ""stim"" ><div class = red_square  id = ""bottomsquare"" ></div>",32,word_square,response,1,Space,true,,,
html-keyboard-response,57,186488,null,"PEACEFUL",null,word,,,,,PEACEFUL,,
html-keyboard-response,58,186992,null,"LITTLE<img id = ""stim"" ><div class = green_square id = ""topsquare"" ></div><img id = ""stim"" ><div class = green_square  id = ""bottomsquare"" ></div>",null,word_square,response,0,none,true,,,
html-keyboard-response,59,188495,null,"LITTLE",null,word,,,,,LITTLE,,
html-keyboard-response,60,188999,null,"TIRED<img id = ""stim"" ><div class = green_square id = ""topsquare"" ></div><img id = ""stim"" ><div class = green_square  id = ""bottomsquare"" ></div>",null,word_square,response,0,none,true,,,
html-keyboard-response,61,190503,null,"TIRED",null,word,,,,,TIRED,,
html-keyboard-response,62,191007,null,"ENTERTAINING<img id = ""stim"" ><div class = green_square id = ""topsquare"" ></div><img id = ""stim"" ><div class = green_square  id = ""bottomsquare"" ></div>",null,word_square,response,0,none,true,,,
html-keyboard-response,63,192513,null,"ENTERTAINING",null,word,,,,,ENTERTAINING,,
html-keyboard-response,64,192801,283.61499999300577,"GRATEFUL<img id = ""stim"" ><div class = red_square id = ""topsquare"" ></div><img id = ""stim"" ><div class = red_square  id = ""bottomsquare"" ></div>",32,word_square,response,1,Space,true,,,
html-keyboard-response,65,194304,null,"GRATEFUL",null,word,,,,,GRATEFUL,,
html-keyboard-response,66,194807,null,"LOUD<img id = ""stim"" ><div class = green_square id = ""topsquare"" ></div><img id = ""stim"" ><div class = green_square  id = ""bottomsquare"" ></div>",null,word_square,response,0,none,true,,,
html-keyboard-response,67,196311,null,"LOUD",null,word,,,,,LOUD,,
html-keyboard-response,68,196578,263.9250000065658,"SMART<img id = ""stim"" ><div class = red_square id = ""topsquare"" ></div><img id = ""stim"" ><div class = red_square  id = ""bottomsquare"" ></div>",32,word_square,response,1,Space,true,,,
html-keyboard-response,69,198081,null,"SMART",null,word,,,,,SMART,,
html-keyboard-response,70,198419,335.5699999956414,"SMOOTH<img id = ""stim"" ><div class = red_square id = ""topsquare"" ></div><img id = ""stim"" ><div class = red_square  id = ""bottomsquare"" ></div>",32,word_square,response,1,Space,true,,,
html-keyboard-response,71,199922,null,"SMOOTH",null,word,,,,,SMOOTH,,
html-keyboard-response,72,200427,null,"DISHONEST<img id = ""stim"" ><div class = green_square id = ""topsquare"" ></div><img id = ""stim"" ><div class = green_square  id = ""bottomsquare"" ></div>",null,word_square,response,0,none,true,,,
html-keyboard-response,73,201930,null,"DISHONEST",null,word,,,,,DISHONEST,,
html-keyboard-response,74,202206,273.48499998333864,"WEALTHY<img id = ""stim"" ><div class = red_square id = ""topsquare"" ></div><img id = ""stim"" ><div class = red_square  id = ""bottomsquare"" ></div>",32,word_square,response,1,Space,true,,,
html-keyboard-response,75,203709,null,"WEALTHY",null,word,,,,,WEALTHY,,
html-keyboard-response,76,204212,null,"BEAUTIFUL<img id = ""stim"" ><div class = green_square id = ""topsquare"" ></div><img id = ""stim"" ><div class = green_square  id = ""bottomsquare"" ></div>",null,word_square,response,0,none,true,,,
html-keyboard-response,77,205715,null,"BEAUTIFUL",null,word,,,,,BEAUTIFUL,,
html-keyboard-response,78,206219,null,"DREARY<img id = ""stim"" ><div class = green_square id = ""topsquare"" ></div><img id = ""stim"" ><div class = green_square  id = ""bottomsquare"" ></div>",null,word_square,response,0,none,true,,,
html-keyboard-response,79,207722,null,"DREARY",null,word,,,,,DREARY,,
html-keyboard-response,80,208021,292.40500001469627,"PLAYFUL<img id = ""stim"" ><div class = red_square id = ""topsquare"" ></div><img id = ""stim"" ><div class = red_square  id = ""bottomsquare"" ></div>",32,word_square,response,1,Space,true,,,
html-keyboard-response,81,209524,null,"PLAYFUL",null,word,,,,,PLAYFUL,,
html-keyboard-response,82,213452,3924.764999974286,"<p> Good job! You responded correctly to 94% of the red squares.</p>
                  <p>Be sure to keep your accuracy above 80%</p>
                  <p>Press any key to begin the math and recall sections. Thank you!</p>",32,,,,,,,,
call-function,83,213454,,"",,,,,,,,,
html-keyboard-response,84,213557,null,"",null,,,,,,,,
math-period,85,220719,13514.154999982566,"",,,,,,,,,0
html-keyboard-response,86,220823,null,"",null,,,,,,,,
math-period,87,222966,3824.559999979101,"",,,,,,,,,5
html-keyboard-response,88,223070,null,"",null,,,,,,,,
math-period,89,224429,2443.485000025248,"",,,,,,,,,4
html-keyboard-response,90,224533,null,"",null,,,,,,,,
math-period,91,225944,2604.0950000169687,"",,,,,,,,,5
html-keyboard-response,92,226048,null,"",null,,,,,,,,
math-period,93,228784,5099.140000005718,"",,,,,,,,,2
html-keyboard-response,94,228887,null,"",null,,,,,,,,
math-period,95,230897,3240.159999986645,"",,,,,,,,,3
html-keyboard-response,96,231001,null,"",null,,,,,,,,
math-period,97,233218,7387.929999997141,"",,,,,,,,,6
html-keyboard-response,98,233321,null,"",null,,,,,,,,
math-period,99,234991,2822.8000000235625,"",,,,,,,,,4
html-keyboard-response,100,235094,null,"",null,,,,,,,,
math-period,101,236247,2092.289999971399,"",,,,,,,,,4
html-keyboard-response,102,236350,null,"",null,,,,,,,,
math-period,103,237456,951.6899999871384,"",,,,,,,,,4
html-keyboard-response,104,238460,null,"Recall Period!",null,,,,,,,,
call-function,105,238462,,"",,,,,,,,,
html-keyboard-response,106,238565,null,"",null,,,,,,,,
recall-period,107,242168,28384.37999985763,"",,,,,,,,,Dishonest
html-keyboard-response,108,242272,null,"",null,,,,,,,,
recall-period,109,243957,6644.574999983888,"",,,,,,,,,Cold
html-keyboard-response,110,244060,null,"",null,,,,,,,,
recall-period,111,245011,3272.1599999640603,"",,,,,,,,,heavy
html-keyboard-response,112,245115,null,"",null,,,,,,,,
recall-period,113,248627,27398.79499998642,"",,,,,,,,,Beautiful
html-keyboard-response,114,248730,null,"",null,,,,,,,,
recall-period,115,250889,10818.034999945667,"",,,,,,,,,heavy
html-keyboard-response,116,250993,null,"",null,,,,,,,,
recall-period,117,255696,39725.74999992503,"",,,,,,,,,wealthy
html-keyboard-response,118,255799,null,"",null,,,,,,,,
recall-period,119,271986,124183.93000011565,"",,,,,,,,,smoothe
html-keyboard-response,120,272089,null,"",null,,,,,,,,
recall-period,121,278794,38250.0299999374,"",,,,,,,,,judge
html-keyboard-response,122,278896,null,"",null,,,,,,,,
recall-period,123,313463,null,"",,,,,,,,,
html-keyboard-response,124,313966,null,"Time's Up!",null,,,,,,,,
html-keyboard-response,125,323251,9281.474999996135,"<p>We will now begin the experiment!<p><p>Please try to remember all words from each list.<p><p>Press the spacebar whenever you see a red square.<p><p><p><p>Press the spacebar to begin.</p>",32,,,,,,,,
html-keyboard-response,126,326996,3243.255000008503,"<div style=""font-size:48px;"">Press any key to begin list 1 of 24 </div>",32,,,,,,,,
html-keyboard-response,127,329500,null,"<div style=""font-size:60px;"">+</div>",null,,,,,,,,
html-keyboard-response,128,330004,null,"DRAWING<img id = ""stim"" ><div class = green_square id = ""topsquare"" ></div><img id = ""stim"" ><div class = green_square  id = ""bottomsquare"" ></div>",null,word_square,response,0,none,true,,,
html-keyboard-response,129,331507,null,"DRAWING",null,word,,,,, 'DRAWING',,
html-keyboard-response,130,331929,419.2149999726098,"LODGE<img id = ""stim"" ><div class = red_square id = ""topsquare"" ></div><img id = ""stim"" ><div class = red_square  id = ""bottomsquare"" ></div>",32,word_square,response,1,Space,true,,,
html-keyboard-response,131,333432,null,"LODGE",null,word,,,,, 'LODGE',,
html-keyboard-response,132,333935,null,"CABOOSE<img id = ""stim"" ><div class = green_square id = ""topsquare"" ></div><img id = ""stim"" ><div class = green_square  id = ""bottomsquare"" ></div>",null,word_square,response,0,none,true,,,
html-keyboard-response,133,335437,null,"CABOOSE",null,word,,,,, 'CABOOSE',,
html-keyboard-response,134,335941,null,"TYPIST<img id = ""stim"" ><div class = green_square id = ""topsquare"" ></div><img id = ""stim"" ><div class = green_square  id = ""bottomsquare"" ></div>",null,word_square,response,0,none,true,,,
html-keyboard-response,135,337444,null,"TYPIST",null,word,,,,, 'TYPIST',,
html-keyboard-response,136,337743,295.56999998749234,"OFFICE<img id = ""stim"" ><div class = red_square id = ""topsquare"" ></div><img id = ""stim"" ><div class = red_square  id = ""bottomsquare"" ></div>",32,word_square,response,1,Space,true,,,
html-keyboard-response,137,339245,null,"OFFICE",null,word,,,,, 'OFFICE',,
html-keyboard-response,138,339749,null,"SCULPTURE<img id = ""stim"" ><div class = red_square id = ""topsquare"" ></div><img id = ""stim"" ><div class = red_square  id = ""bottomsquare"" ></div>",null,word_square,response,1,Space,false,,,
html-keyboard-response,139,341252,null,"SCULPTURE",null,word,,,,, 'SCULPTURE',,
html-keyboard-response,140,341755,null,"IDOL<img id = ""stim"" ><div class = green_square id = ""topsquare"" ></div><img id = ""stim"" ><div class = green_square  id = ""bottomsquare"" ></div>",null,word_square,response,0,none,true,,,
html-keyboard-response,141,343258,null,"IDOL",null,word,,,,, 'IDOL',,
html-keyboard-response,142,343761,null,"SWORD<img id = ""stim"" ><div class = green_square id = ""topsquare"" ></div><img id = ""stim"" ><div class = green_square  id = ""bottomsquare"" ></div>",null,word_square,response,0,none,true,,,
html-keyboard-response,143,345263,null,"SWORD",null,word,,,,, 'SWORD',,
html-keyboard-response,144,345747,481.31000000284985,"LAGOON<img id = ""stim"" ><div class = red_square id = ""topsquare"" ></div><img id = ""stim"" ><div class = red_square  id = ""bottomsquare"" ></div>",32,word_square,response,1,Space,true,,,
html-keyboard-response,145,347250,null,"LAGOON",null,word,,,,, 'LAGOON',,
html-keyboard-response,146,347753,null,"STAKE<img id = ""stim"" ><div class = red_square id = ""topsquare"" ></div><img id = ""stim"" ><div class = red_square  id = ""bottomsquare"" ></div>",null,word_square,response,1,Space,false,,,
html-keyboard-response,147,349255,null,"STAKE",null,word,,,,, 'STAKE',,
html-keyboard-response,148,349759,null,"CABIN<img id = ""stim"" ><div class = green_square id = ""topsquare"" ></div><img id = ""stim"" ><div class = green_square  id = ""bottomsquare"" ></div>",null,word_square,response,0,none,true,,,
html-keyboard-response,149,351262,null,"CABIN",null,word,,,,, 'CABIN',,
html-keyboard-response,150,351607,341.9999999750871,"SHAMPOO<img id = ""stim"" ><div class = red_square id = ""topsquare"" ></div><img id = ""stim"" ><div class = red_square  id = ""bottomsquare"" ></div>",32,word_square,response,1,Space,true,,,
html-keyboard-response,151,353110,null,"SHAMPOO",null,word,,,,, 'SHAMPOO',,
html-keyboard-response,152,353473,360.47499999403954,"BLANKET<img id = ""stim"" ><div class = red_square id = ""topsquare"" ></div><img id = ""stim"" ><div class = red_square  id = ""bottomsquare"" ></div>",32,word_square,response,1,Space,true,,,
html-keyboard-response,153,354976,null,"BLANKET",null,word,,,,, 'BLANKET',,
html-keyboard-response,154,355479,null,"HARP<img id = ""stim"" ><div class = green_square id = ""topsquare"" ></div><img id = ""stim"" ><div class = green_square  id = ""bottomsquare"" ></div>",null,word_square,response,0,none,true,,,
html-keyboard-response,155,356982,null,"HARP",null,word,,,,, 'HARP',,
html-keyboard-response,156,357334,347.5200000102632,"PARCEL<img id = ""stim"" ><div class = green_square id = ""topsquare"" ></div><img id = ""stim"" ><div class = green_square  id = ""bottomsquare"" ></div>",32,word_square,response,0,none,false,,,
html-keyboard-response,157,358837,null,"PARCEL",null,word,,,,, 'PARCEL',,
html-keyboard-response,158,359155,315.310000005411,"MOTEL<img id = ""stim"" ><div class = red_square id = ""topsquare"" ></div><img id = ""stim"" ><div class = red_square  id = ""bottomsquare"" ></div>",32,word_square,response,1,Space,true,,,
html-keyboard-response,159,360658,null,"MOTEL",null,word,,,,, 'MOTEL',,
html-keyboard-response,160,361161,null,"CRAYON<img id = ""stim"" ><div class = green_square id = ""topsquare"" ></div><img id = ""stim"" ><div class = green_square  id = ""bottomsquare"" ></div>",null,word_square,response,0,none,true,,,
html-keyboard-response,161,362664,null,"CRAYON",null,word,,,,, 'CRAYON',,
html-keyboard-response,162,362972,304.6749999921303,"DANDRUFF<img id = ""stim"" ><div class = red_square id = ""topsquare"" ></div><img id = ""stim"" ><div class = red_square  id = ""bottomsquare"" ></div>",32,word_square,response,1,Space,true,,,
html-keyboard-response,163,364475,null,"DANDRUFF",null,word,,,,, 'DANDRUFF',,
call-function,164,364478,,"",,,,,,,,,
html-keyboard-response,165,364581,null,"",null,,,,,,,,
math-period,166,367444,5019.220000016503,"",,,,,,,,,5
html-keyboard-response,167,367548,null,"",null,,,,,,,,
math-period,168,369967,4544.804999983171,"",,,,,,,,,5
html-keyboard-response,169,370070,null,"",null,,,,,,,,
math-period,170,372335,4077.1150000218768,"",,,,,,,,,3
html-keyboard-response,171,372438,null,"",null,,,,,,,,
math-period,172,373799,2312.4149999930523,"",,,,,,,,,3
html-keyboard-response,173,373903,null,"",null,,,,,,,,
math-period,174,375554,2929.295000009006,"",,,,,,,,,1
html-keyboard-response,175,375658,null,"",null,,,,,,,,
math-period,176,378458,4778.625000006286,"",,,,,,,,,2
html-keyboard-response,177,378562,null,"",null,,,,,,,,
math-period,178,380473,3587.4299999850336,"",,,,,,,,,1
html-keyboard-response,179,380577,null,"",null,,,,,,,,
math-period,180,382056,2544.655000034254,"",,,,,,,,,6
html-keyboard-response,181,382160,null,"",null,,,,,,,,
math-period,182,384223,6743.435000069439,"",,,,,,,,,5
html-keyboard-response,183,384327,null,"",null,,,,,,,,
math-period,184,385628,2318.009999988135,"",,,,,,,,,3
html-keyboard-response,185,385731,null,"",null,,,,,,,,
math-period,186,387820,3825.0300000363495,"",,,,,,,,,1
html-keyboard-response,187,387924,null,"",null,,,,,,,,
math-period,188,388478,null,"",,,,,,,,,
html-keyboard-response,189,389484,null,"Recall Period!",null,,,,,,,,
call-function,190,389487,,"",,,,,,,,,
html-keyboard-response,191,389590,null,"",null,,,,,,,,
recall-period,192,392204,14310.69499993464,"",,,,,,,,,shampoo
html-keyboard-response,193,392307,null,"",null,,,,,,,,
recall-period,194,395263,27469.97000015108,"",,,,,,,,,dandruff
html-keyboard-response,195,395366,null,"",null,,,,,,,,
recall-period,196,396375,3994.8650000151247,"",,,,,,,,,motel
html-keyboard-response,197,396478,null,"",null,,,,,,,,
recall-period,198,397832,4372.914999956265,"",,,,,,,,,lagoon
html-keyboard-response,199,397934,null,"",null,,,,,,,,
recall-period,200,402180,25634.78000005125,"",,,,,,,,,crayon
html-keyboard-response,201,402283,null,"",null,,,,,,,,
recall-period,202,409821,43387.45500004734,"",,,,,,,,,lodge
html-keyboard-response,203,409925,null,"",null,,,,,,,,
recall-period,204,435220,195898.42500005034,"",,,,,,,,,caboose
html-keyboard-response,205,435323,null,"",null,,,,,,,,
recall-period,206,436414,3993.2750000152737,"",,,,,,,,,typist
html-keyboard-response,207,436518,null,"",null,,,,,,,,
recall-period,208,464490,null,"",,,,,,,,,
html-keyboard-response,209,464994,null,"Time's Up!",null,,,,,,,,
html-keyboard-response,210,469866,4868.84499998996,"<p> Good job! You responded correctly to 89% of the red squares.</p>
                  <p>Be sure to keep your accuracy above 80%</p>
                  <p>Press any key to continue the experiment. Thank you!</p>",32,,,,,,,,
html-keyboard-response,211,472683,2814.6250000281725,"<div style=""font-size:48px;"">Press any key to begin list 2 of 24 </div>",32,,,,,,,,
html-keyboard-response,212,475186,null,"<div style=""font-size:60px;"">+</div>",null,,,,,,,,
html-keyboard-response,213,475689,null,"RODENT<img id = ""stim"" ><div class = green_square id = ""topsquare"" ></div><img id = ""stim"" ><div class = green_square  id = ""bottomsquare"" ></div>",null,word_square,response,0,none,true,,,
html-keyboard-response,214,477193,null,"RODENT",null,word,,,,, 'RODENT',,
html-keyboard-response,215,477662,465.9000000101514,"THIMBLE<img id = ""stim"" ><div class = red_square id = ""topsquare"" ></div><img id = ""stim"" ><div class = red_square  id = ""bottomsquare"" ></div>",32,word_square,response,1,Space,true,,,
html-keyboard-response,216,479166,null,"THIMBLE",null,word,,,,, 'THIMBLE',,
html-keyboard-response,217,479669,null,"COSTUME<img id = ""stim"" ><div class = green_square id = ""topsquare"" ></div><img id = ""stim"" ><div class = green_square  id = ""bottomsquare"" ></div>",null,word_square,response,0,none,true,,,
html-keyboard-response,218,481172,null,"COSTUME",null,word,,,,, 'COSTUME',,
html-keyboard-response,219,481676,null,"JUGGLER<img id = ""stim"" ><div class = green_square id = ""topsquare"" ></div><img id = ""stim"" ><div class = green_square  id = ""bottomsquare"" ></div>",null,word_square,response,0,none,true,,,
html-keyboard-response,220,483179,null,"JUGGLER",null,word,,,,, 'JUGGLER',,
html-keyboard-response,221,483572,389.8500000068452,"NAPKIN<img id = ""stim"" ><div class = red_square id = ""topsquare"" ></div><img id = ""stim"" ><div class = red_square  id = ""bottomsquare"" ></div>",32,word_square,response,1,Space,true,,,
html-keyboard-response,222,485075,null,"NAPKIN",null,word,,,,, 'NAPKIN',,
html-keyboard-response,223,485405,326.96500001475215,"PATROL<img id = ""stim"" ><div class = red_square id = ""topsquare"" ></div><img id = ""stim"" ><div class = red_square  id = ""bottomsquare"" ></div>",32,word_square,response,1,Space,true,,,
html-keyboard-response,224,486908,null,"PATROL",null,word,,,,, 'PATROL',,
html-keyboard-response,225,487411,null,"COLUMN<img id = ""stim"" ><div class = green_square id = ""topsquare"" ></div><img id = ""stim"" ><div class = green_square  id = ""bottomsquare"" ></div>",null,word_square,response,0,none,true,,,
html-keyboard-response,226,488914,null,"COLUMN",null,word,,,,, 'COLUMN',,
html-keyboard-response,227,489415,498.32499999320135,"ANKLE<img id = ""stim"" ><div class = green_square id = ""topsquare"" ></div><img id = ""stim"" ><div class = green_square  id = ""bottomsquare"" ></div>",32,word_square,response,0,none,false,,,
html-keyboard-response,228,490920,null,"ANKLE",null,word,,,,, 'ANKLE',,
html-keyboard-response,229,491264,341.4500000071712,"CIGAR<img id = ""stim"" ><div class = red_square id = ""topsquare"" ></div><img id = ""stim"" ><div class = red_square  id = ""bottomsquare"" ></div>",32,word_square,response,1,Space,true,,,
html-keyboard-response,230,492768,null,"CIGAR",null,word,,,,, 'CIGAR',,
html-keyboard-response,231,493271,null,"MAILMAN<img id = ""stim"" ><div class = red_square id = ""topsquare"" ></div><img id = ""stim"" ><div class = red_square  id = ""bottomsquare"" ></div>",null,word_square,response,1,Space,false,,,
html-keyboard-response,232,494774,null,"MAILMAN",null,word,,,,, 'MAILMAN',,
html-keyboard-response,233,495278,null,"FRIES<img id = ""stim"" ><div class = green_square id = ""topsquare"" ></div><img id = ""stim"" ><div class = green_square  id = ""bottomsquare"" ></div>",null,word_square,response,0,none,true,,,
html-keyboard-response,234,496780,null,"FRIES",null,word,,,,, 'FRIES',,
html-keyboard-response,235,497018,235.94000001321547,"NICKEL<img id = ""stim"" ><div class = red_square id = ""topsquare"" ></div><img id = ""stim"" ><div class = red_square  id = ""bottomsquare"" ></div>",32,word_square,response,1,Space,true,,,
html-keyboard-response,236,498522,null,"NICKEL",null,word,,,,, 'NICKEL',,
html-keyboard-response,237,498937,411.95999999763444,"KNAPSACK<img id = ""stim"" ><div class = red_square id = ""topsquare"" ></div><img id = ""stim"" ><div class = red_square  id = ""bottomsquare"" ></div>",32,word_square,response,1,Space,true,,,
html-keyboard-response,238,500440,null,"KNAPSACK",null,word,,,,, 'KNAPSACK',,
html-keyboard-response,239,500944,null,"GUARD<img id = ""stim"" ><div class = green_square id = ""topsquare"" ></div><img id = ""stim"" ><div class = green_square  id = ""bottomsquare"" ></div>",null,word_square,response,0,none,true,,,
html-keyboard-response,240,502447,null,"GUARD",null,word,,,,, 'GUARD',,
html-keyboard-response,241,502950,null,"ACTRESS<img id = ""stim"" ><div class = green_square id = ""topsquare"" ></div><img id = ""stim"" ><div class = green_square  id = ""bottomsquare"" ></div>",null,word_square,response,0,none,true,,,
html-keyboard-response,242,504453,null,"ACTRESS",null,word,,,,, 'ACTRESS',,
html-keyboard-response,243,504807,351.42500000074506,"PADDING<img id = ""stim"" ><div class = red_square id = ""topsquare"" ></div><img id = ""stim"" ><div class = red_square  id = ""bottomsquare"" ></div>",32,word_square,response,1,Space,true,,,
html-keyboard-response,244,506310,null,"PADDING",null,word,,,,, 'PADDING',,
html-keyboard-response,245,506813,null,"VELVET<img id = ""stim"" ><div class = green_square id = ""topsquare"" ></div><img id = ""stim"" ><div class = green_square  id = ""bottomsquare"" ></div>",null,word_square,response,0,none,true,,,
html-keyboard-response,246,508316,null,"VELVET",null,word,,,,, 'VELVET',,
html-keyboard-response,247,508654,334.49999999720603,"BIBLE<img id = ""stim"" ><div class = red_square id = ""topsquare"" ></div><img id = ""stim"" ><div class = red_square  id = ""bottomsquare"" ></div>",32,word_square,response,1,Space,true,,,
html-keyboard-response,248,510156,null,"BIBLE",null,word,,,,, 'BIBLE',,
call-function,249,510159,,"",,,,,,,,,
html-keyboard-response,250,510261,null,"",null,,,,,,,,
math-period,251,516851,27338.079999986803,"",,,,,,,,,2
html-keyboard-response,252,516954,null,"",null,,,,,,,,
math-period,253,518308,2537.355000007665,"",,,,,,,,,1
html-keyboard-response,254,518411,null,"",null,,,,,,,,
math-period,255,520752,7881.070000003092,"",,,,,,,,,4
html-keyboard-response,256,520855,null,"",null,,,,,,,,
math-period,257,522224,2398.715000017546,"",,,,,,,,,3
html-keyboard-response,258,522327,null,"",null,,,,,,,,
math-period,259,523289,1772.7900000172667,"",,,,,,,,,2
html-keyboard-response,260,523392,null,"",null,,,,,,,,
math-period,261,524931,2578.219999995781,"",,,,,,,,,5
html-keyboard-response,262,525034,null,"",null,,,,,,,,
math-period,263,527088,3236.7249999952037,"",,,,,,,,,2
html-keyboard-response,264,527191,null,"",null,,,,,,,,
math-period,265,528726,2912.6300000061747,"",,,,,,,,,1
html-keyboard-response,266,528829,null,"",null,,,,,,,,
math-period,267,530984,7115.185000060592,"",,,,,,,,,4
html-keyboard-response,268,531086,null,"",null,,,,,,,,
math-period,269,532205,2103.015000000596,"",,,,,,,,,3
html-keyboard-response,270,532308,null,"",null,,,,,,,,
math-period,271,533844,2907.0550000178628,"",,,,,,,,,2
html-keyboard-response,272,533947,null,"",null,,,,,,,,
math-period,273,534160,null,"",,,,,,,,,
html-keyboard-response,274,535163,null,"Recall Period!",null,,,,,,,,
call-function,275,535165,,"",,,,,,,,,
html-keyboard-response,276,535268,null,"",null,,,,,,,,
recall-period,277,537375,12168.370000057621,"",,,,,,,,,rodent
html-keyboard-response,278,537479,null,"",null,,,,,,,,
recall-period,279,563680,295192.8949999856,"",,,,,,,,,ankle
html-keyboard-response,280,563784,null,"",null,,,,,,,,
recall-period,281,565756,10986.029999970924,"",,,,,,,,,mailman
html-keyboard-response,282,565859,null,"",null,,,,,,,,
recall-period,283,610166,null,"",,,,,,,,,
html-keyboard-response,284,610670,null,"Time's Up!",null,,,,,,,,
html-keyboard-response,285,613473,2798.580000002403,"<p> Good job! You responded correctly to 89% of the red squares.</p>
                  <p>Be sure to keep your accuracy above 80%</p>
                  <p>Press any key to continue the experiment. Thank you!</p>",32,,,,,,,,
html-keyboard-response,286,614357,881.374999997206,"<div style=""font-size:48px;"">Press any key to begin list 3 of 24 </div>",32,,,,,,,,
html-keyboard-response,287,616861,null,"<div style=""font-size:60px;"">+</div>",null,,,,,,,,
html-keyboard-response,288,617195,331.65499998722225,"NEPHEW<img id = ""stim"" ><div class = red_square id = ""topsquare"" ></div><img id = ""stim"" ><div class = red_square  id = ""bottomsquare"" ></div>",32,word_square,response,1,Space,true,,,
html-keyboard-response,289,618698,null,"NEPHEW",null,word,,,,, 'NEPHEW',,
html-keyboard-response,290,619201,null,"DESSERT<img id = ""stim"" ><div class = green_square id = ""topsquare"" ></div><img id = ""stim"" ><div class = green_square  id = ""bottomsquare"" ></div>",null,word_square,response,0,none,true,,,
html-keyboard-response,291,620705,null,"DESSERT",null,word,,,,, 'DESSERT',,
html-keyboard-response,292,621120,413.1000000052154,"BOYFRIEND<img id = ""stim"" ><div class = red_square id = ""topsquare"" ></div><img id = ""stim"" ><div class = red_square  id = ""bottomsquare"" ></div>",32,word_square,response,1,Space,true,,,
html-keyboard-response,293,622623,null,"BOYFRIEND",null,word,,,,, 'BOYFRIEND',,
html-keyboard-response,294,623021,394.7399999888148,"WIFE<img id = ""stim"" ><div class = red_square id = ""topsquare"" ></div><img id = ""stim"" ><div class = red_square  id = ""bottomsquare"" ></div>",32,word_square,response,1,Space,true,,,
html-keyboard-response,295,624523,null,"WIFE",null,word,,,,, 'WIFE',,
html-keyboard-response,296,625027,null,"GAUZE<img id = ""stim"" ><div class = green_square id = ""topsquare"" ></div><img id = ""stim"" ><div class = green_square  id = ""bottomsquare"" ></div>",null,word_square,response,0,none,true,,,
html-keyboard-response,297,626531,null,"GAUZE",null,word,,,,, 'GAUZE',,
html-keyboard-response,298,627034,null,"NOMAD<img id = ""stim"" ><div class = green_square id = ""topsquare"" ></div><img id = ""stim"" ><div class = green_square  id = ""bottomsquare"" ></div>",null,word_square,response,0,none,true,,,
html-keyboard-response,299,628538,null,"NOMAD",null,word,,,,, 'NOMAD',,
html-keyboard-response,300,628832,291.8649999774061,"PECAN<img id = ""stim"" ><div class = red_square id = ""topsquare"" ></div><img id = ""stim"" ><div class = red_square  id = ""bottomsquare"" ></div>",32,word_square,response,1,Space,true,,,
html-keyboard-response,301,630336,null,"PECAN",null,word,,,,, 'PECAN',,
html-keyboard-response,302,630661,316.2350000056904,"FLASK<img id = ""stim"" ><div class = red_square id = ""topsquare"" ></div><img id = ""stim"" ><div class = red_square  id = ""bottomsquare"" ></div>",32,word_square,response,1,Space,true,,,
html-keyboard-response,303,632165,null,"FLASK",null,word,,,,, 'FLASK',,
html-keyboard-response,304,632668,null,"AIRPORT<img id = ""stim"" ><div class = green_square id = ""topsquare"" ></div><img id = ""stim"" ><div class = green_square  id = ""bottomsquare"" ></div>",null,word_square,response,0,none,true,,,
html-keyboard-response,305,634171,null,"AIRPORT",null,word,,,,, 'AIRPORT',,
html-keyboard-response,306,634429,254.4449999986682,"UMPIRE<img id = ""stim"" ><div class = green_square id = ""topsquare"" ></div><img id = ""stim"" ><div class = green_square  id = ""bottomsquare"" ></div>",32,word_square,response,0,none,false,,,
html-keyboard-response,307,635932,null,"UMPIRE",null,word,,,,, 'UMPIRE',,
html-keyboard-response,308,636226,291.04500001994893,"CATCHER<img id = ""stim"" ><div class = red_square id = ""topsquare"" ></div><img id = ""stim"" ><div class = red_square  id = ""bottomsquare"" ></div>",32,word_square,response,1,Space,true,,,
html-keyboard-response,309,637729,null,"CATCHER",null,word,,,,, 'CATCHER',,
html-keyboard-response,310,638233,null,"LOVER<img id = ""stim"" ><div class = green_square id = ""topsquare"" ></div><img id = ""stim"" ><div class = green_square  id = ""bottomsquare"" ></div>",null,word_square,response,0,none,true,,,
html-keyboard-response,311,639736,null,"LOVER",null,word,,,,, 'LOVER',,
html-keyboard-response,312,640239,null,"BOULDER<img id = ""stim"" ><div class = green_square id = ""topsquare"" ></div><img id = ""stim"" ><div class = green_square  id = ""bottomsquare"" ></div>",null,word_square,response,0,none,true,,,
html-keyboard-response,313,641743,null,"BOULDER",null,word,,,,, 'BOULDER',,
html-keyboard-response,314,642041,295.4099999915343,"TRANSPLANT<img id = ""stim"" ><div class = red_square id = ""topsquare"" ></div><img id = ""stim"" ><div class = red_square  id = ""bottomsquare"" ></div>",32,word_square,response,1,Space,true,,,
html-keyboard-response,315,643544,null,"TRANSPLANT",null,word,,,,, 'TRANSPLANT',,
html-keyboard-response,316,643873,325.6000000110362,"THRONE<img id = ""stim"" ><div class = red_square id = ""topsquare"" ></div><img id = ""stim"" ><div class = red_square  id = ""bottomsquare"" ></div>",32,word_square,response,1,Space,true,,,
html-keyboard-response,317,645376,null,"THRONE",null,word,,,,, 'THRONE',,
html-keyboard-response,318,645879,null,"PRINCESS<img id = ""stim"" ><div class = green_square id = ""topsquare"" ></div><img id = ""stim"" ><div class = green_square  id = ""bottomsquare"" ></div>",null,word_square,response,0,none,true,,,
html-keyboard-response,319,647383,null,"PRINCESS",null,word,,,,, 'PRINCESS',,
html-keyboard-response,320,647685,298.91500002122484,"COCKTAIL<img id = ""stim"" ><div class = red_square id = ""topsquare"" ></div><img id = ""stim"" ><div class = red_square  id = ""bottomsquare"" ></div>",32,word_square,response,1,Space,true,,,
html-keyboard-response,321,649188,null,"COCKTAIL",null,word,,,,, 'COCKTAIL',,
html-keyboard-response,322,649691,null,"CRADLE<img id = ""stim"" ><div class = green_square id = ""topsquare"" ></div><img id = ""stim"" ><div class = green_square  id = ""bottomsquare"" ></div>",null,word_square,response,0,none,true,,,
html-keyboard-response,323,651195,null,"CRADLE",null,word,,,,, 'CRADLE',,
call-function,324,651198,,"",,,,,,,,,
html-keyboard-response,325,651301,null,"",null,,,,,,,,
math-period,326,653641,4237.880000000587,"",,,,,,,,,1
html-keyboard-response,327,653744,null,"",null,,,,,,,,
math-period,328,655097,2282.2049999958836,"",,,,,,,,,3
html-keyboard-response,329,655201,null,"",null,,,,,,,,
math-period,330,657138,3229.010000010021,"",,,,,,,,,2
html-keyboard-response,331,657242,null,"",null,,,,,,,,
math-period,332,658633,2415.7150000391994,"",,,,,,,,,3
html-keyboard-response,333,658736,null,"",null,,,,,,,,
math-period,334,659960,2234.8350000102073,"",,,,,,,,,1
html-keyboard-response,335,660063,null,"",null,,,,,,,,
math-period,336,661213,1948.73999999254,"",,,,,,,,,3
html-keyboard-response,337,661316,null,"",null,,,,,,,,
math-period,338,663127,5718.40000001248,"",,,,,,,,,5
html-keyboard-response,339,663232,null,"",null,,,,,,,,
math-period,340,664503,2219.6050000202376,"",,,,,,,,,5
html-keyboard-response,341,664607,null,"",null,,,,,,,,
math-period,342,666990,4387.649999989662,"",,,,,,,,,0
html-keyboard-response,343,667093,null,"",null,,,,,,,,
math-period,344,668494,2324.704999977257,"",,,,,,,,,3
html-keyboard-response,345,668598,null,"",null,,,,,,,,
math-period,346,670517,3497.6900000183377,"",,,,,,,,,2
html-keyboard-response,347,670620,null,"",null,,,,,,,,
math-period,348,672084,2585.255000012694,"",,,,,,,,,4
html-keyboard-response,349,672187,null,"",null,,,,,,,,
math-period,350,675199,8020.004999998491,"",,,,,,,,,2
html-keyboard-response,351,676203,null,"Recall Period!",null,,,,,,,,
call-function,352,676205,,"",,,,,,,,,
html-keyboard-response,353,676308,null,"",null,,,,,,,,
recall-period,354,679836,26198.295000154758,"",,,,,,,,,boyfriend
html-keyboard-response,355,679939,null,"",null,,,,,,,,
recall-period,356,681167,4679.349999962142,"",,,,,,,,,lover
html-keyboard-response,357,681271,null,"",null,,,,,,,,
recall-period,358,684180,23910.544999904232,"",,,,,,,,,dessert
html-keyboard-response,359,684283,null,"",null,,,,,,,,
recall-period,360,686204,13664.670000085607,"",,,,,,,,,nephew
html-keyboard-response,361,686307,null,"",null,,,,,,,,
recall-period,362,687251,2401.5600000566337,"",,,,,,,,,wife
html-keyboard-response,363,687353,null,"",null,,,,,,,,
recall-period,364,693766,40729.74000003887,"",,,,,,,,,police
html-keyboard-response,365,693870,null,"",null,,,,,,,,
recall-period,366,751208,null,"",,,,,,,,,
html-keyboard-response,367,751713,null,"Time's Up!",null,,,,,,,,
html-keyboard-response,368,755084,3366.9499999959953,"<p> Good job! You responded correctly to 90% of the red squares.</p>
                  <p>Be sure to keep your accuracy above 80%</p>
                  <p>Press any key to continue the experiment. Thank you!</p>",32,,,,,,,,
html-keyboard-response,369,756499,1413.1400000187568,"<div style=""font-size:48px;"">Press any key to begin list 4 of 24 </div>",32,,,,,,,,
html-keyboard-response,370,759002,null,"<div style=""font-size:60px;"">+</div>",null,,,,,,,,
html-keyboard-response,371,759319,313.8500000059139,"BRAKE<img id = ""stim"" ><div class = red_square id = ""topsquare"" ></div><img id = ""stim"" ><div class = red_square  id = ""bottomsquare"" ></div>",32,word_square,response,1,Space,true,,,
html-keyboard-response,372,760823,null,"BRAKE",null,word,,,,, 'BRAKE',,
html-keyboard-response,373,761327,null,"WASP<img id = ""stim"" ><div class = green_square id = ""topsquare"" ></div><img id = ""stim"" ><div class = green_square  id = ""bottomsquare"" ></div>",null,word_square,response,0,none,true,,,
html-keyboard-response,374,762833,null,"WASP",null,word,,,,, 'WASP',,
html-keyboard-response,375,763281,443.32999998005107,"SHRIMP<img id = ""stim"" ><div class = red_square id = ""topsquare"" ></div><img id = ""stim"" ><div class = red_square  id = ""bottomsquare"" ></div>",32,word_square,response,1,Space,true,,,
html-keyboard-response,376,764784,null,"SHRIMP",null,word,,,,, 'SHRIMP',,
html-keyboard-response,377,765110,322.5349999847822,"CLIMBER<img id = ""stim"" ><div class = red_square id = ""topsquare"" ></div><img id = ""stim"" ><div class = red_square  id = ""bottomsquare"" ></div>",32,word_square,response,1,Space,true,,,
html-keyboard-response,378,766613,null,"CLIMBER",null,word,,,,, 'CLIMBER',,
html-keyboard-response,379,767116,null,"BRANCH<img id = ""stim"" ><div class = green_square id = ""topsquare"" ></div><img id = ""stim"" ><div class = green_square  id = ""bottomsquare"" ></div>",null,word_square,response,0,none,true,,,
html-keyboard-response,380,768619,null,"BRANCH",null,word,,,,, 'BRANCH',,
html-keyboard-response,381,769022,399.98499999637716,"HEART<img id = ""stim"" ><div class = green_square id = ""topsquare"" ></div><img id = ""stim"" ><div class = green_square  id = ""bottomsquare"" ></div>",32,word_square,response,0,none,false,,,
html-keyboard-response,382,770526,null,"HEART",null,word,,,,, 'HEART',,
html-keyboard-response,383,770838,309.7399999969639,"BRUNETTE<img id = ""stim"" ><div class = red_square id = ""topsquare"" ></div><img id = ""stim"" ><div class = red_square  id = ""bottomsquare"" ></div>",32,word_square,response,1,Space,true,,,
html-keyboard-response,384,772341,null,"BRUNETTE",null,word,,,,, 'BRUNETTE',,
html-keyboard-response,385,772752,406.844999990426,"TULIP<img id = ""stim"" ><div class = red_square id = ""topsquare"" ></div><img id = ""stim"" ><div class = red_square  id = ""bottomsquare"" ></div>",32,word_square,response,1,Space,true,,,
html-keyboard-response,386,774255,null,"TULIP",null,word,,,,, 'TULIP',,
html-keyboard-response,387,774759,null,"FAUCET<img id = ""stim"" ><div class = green_square id = ""topsquare"" ></div><img id = ""stim"" ><div class = green_square  id = ""bottomsquare"" ></div>",null,word_square,response,0,none,true,,,
html-keyboard-response,388,776263,null,"FAUCET",null,word,,,,, 'FAUCET',,
html-keyboard-response,389,776767,null,"PATIENT<img id = ""stim"" ><div class = green_square id = ""topsquare"" ></div><img id = ""stim"" ><div class = green_square  id = ""bottomsquare"" ></div>",null,word_square,response,0,none,true,,,
html-keyboard-response,390,778271,null,"PATIENT",null,word,,,,, 'PATIENT',,
html-keyboard-response,391,778606,331.8950000102632,"NURSE<img id = ""stim"" ><div class = red_square id = ""topsquare"" ></div><img id = ""stim"" ><div class = red_square  id = ""bottomsquare"" ></div>",32,word_square,response,1,Space,true,,,
html-keyboard-response,392,780108,null,"NURSE",null,word,,,,, 'NURSE',,
html-keyboard-response,393,780612,null,"TRIGGER<img id = ""stim"" ><div class = green_square id = ""topsquare"" ></div><img id = ""stim"" ><div class = green_square  id = ""bottomsquare"" ></div>",null,word_square,response,0,none,true,,,
html-keyboard-response,394,782115,null,"TRIGGER",null,word,,,,, 'TRIGGER',,
html-keyboard-response,395,782618,null,"NEPTUNE<img id = ""stim"" ><div class = green_square id = ""topsquare"" ></div><img id = ""stim"" ><div class = green_square  id = ""bottomsquare"" ></div>",null,word_square,response,0,none,true,,,
html-keyboard-response,396,784121,null,"NEPTUNE",null,word,,,,, 'NEPTUNE',,
html-keyboard-response,397,784624,null,"FLASHLIGHT<img id = ""stim"" ><div class = red_square id = ""topsquare"" ></div><img id = ""stim"" ><div class = red_square  id = ""bottomsquare"" ></div>",null,word_square,response,1,Space,false,,,
html-keyboard-response,398,786128,null,"FLASHLIGHT",null,word,,,,, 'FLASHLIGHT',,
html-keyboard-response,399,786526,394.67000000877306,"FRECKLE<img id = ""stim"" ><div class = red_square id = ""topsquare"" ></div><img id = ""stim"" ><div class = red_square  id = ""bottomsquare"" ></div>",32,word_square,response,1,Space,true,,,
html-keyboard-response,400,788028,null,"FRECKLE",null,word,,,,, 'FRECKLE',,
html-keyboard-response,401,788532,null,"POLICE<img id = ""stim"" ><div class = green_square id = ""topsquare"" ></div><img id = ""stim"" ><div class = green_square  id = ""bottomsquare"" ></div>",null,word_square,response,0,none,true,,,
html-keyboard-response,402,790035,null,"POLICE",null,word,,,,, 'POLICE',,
html-keyboard-response,403,790538,null,"AGENT<img id = ""stim"" ><div class = red_square id = ""topsquare"" ></div><img id = ""stim"" ><div class = red_square  id = ""bottomsquare"" ></div>",null,word_square,response,1,Space,false,,,
html-keyboard-response,404,792041,null,"AGENT",null,word,,,,, 'AGENT',,
html-keyboard-response,405,792545,null,"DONOR<img id = ""stim"" ><div class = green_square id = ""topsquare"" ></div><img id = ""stim"" ><div class = green_square  id = ""bottomsquare"" ></div>",null,word_square,response,0,none,true,,,
html-keyboard-response,406,794048,null,"DONOR",null,word,,,,, 'DONOR',,
call-function,407,794051,,"",,,,,,,,,
html-keyboard-response,408,794153,null,"",null,,,,,,,,
math-period,409,796745,4419.285000010859,"",,,,,,,,,4
html-keyboard-response,410,796848,null,"",null,,,,,,,,
math-period,411,798240,2386.1399999586865,"",,,,,,,,,5
html-keyboard-response,412,798343,null,"",null,,,,,,,,
math-period,413,800525,3436.2549999787007,"",,,,,,,,,4
html-keyboard-response,414,800629,null,"",null,,,,,,,,
math-period,415,804103,12144.460000039544,"",,,,,,,,,3
html-keyboard-response,416,804207,null,"",null,,,,,,,,
math-period,417,805605,2381.0299999895506,"",,,,,,,,,6
html-keyboard-response,418,805708,null,"",null,,,,,,,,
math-period,419,806864,1935.505000030389,"",,,,,,,,,4
html-keyboard-response,420,806967,null,"",null,,,,,,,,
math-period,421,808537,2739.190000022063,"",,,,,,,,,1
html-keyboard-response,422,808641,null,"",null,,,,,,,,
math-period,423,810367,3077.930000028573,"",,,,,,,,,3
html-keyboard-response,424,810470,null,"",null,,,,,,,,
math-period,425,811789,2135.840000002645,"",,,,,,,,,4
html-keyboard-response,426,811892,null,"",null,,,,,,,,
math-period,427,813501,2600.2150000131223,"",,,,,,,,,6
html-keyboard-response,428,813604,null,"",null,,,,,,,,
math-period,429,816324,12013.529999938328,"",,,,,,,,,3
html-keyboard-response,430,816427,null,"",null,,,,,,,,
math-period,431,818055,null,"",,,,,,,,,
html-keyboard-response,432,819058,null,"Recall Period!",null,,,,,,,,
call-function,433,819063,,"",,,,,,,,,
html-keyboard-response,434,819166,null,"",null,,,,,,,,
recall-period,435,821976,19540.104999934556,"",,,,,,,,,Police
html-keyboard-response,436,822079,null,"",null,,,,,,,,
recall-period,437,824768,13279.800000076648,"",,,,,,,,,Tulip
html-keyboard-response,438,824871,null,"",null,,,,,,,,
recall-period,439,826640,9002.720000164118,"",,,,,,,,,Nurse
html-keyboard-response,440,826743,null,"",null,,,,,,,,
recall-period,441,828550,10021.810000092955,"",,,,,,,,,Climber
html-keyboard-response,442,828654,null,"",null,,,,,,,,
recall-period,443,839515,62450.85500006098,"",,,,,,,,,lodge
html-keyboard-response,444,839618,null,"",null,,,,,,,,
recall-period,445,894067,null,"",,,,,,,,,
html-keyboard-response,446,894571,null,"Time's Up!",null,,,,,,,,
html-keyboard-response,447,899579,5004.56000000122,"<p> Good job! You responded correctly to 89% of the red squares.</p>
                  <p>Be sure to keep your accuracy above 80%</p>
                  <p>Press any key to continue the experiment. Thank you!</p>",32,,,,,,,,
html-keyboard-response,448,900481,899.7899999958463,"<div style=""font-size:48px;"">Press any key to begin list 5 of 24 </div>",32,,,,,,,,
html-keyboard-response,449,902984,null,"<div style=""font-size:60px;"">+</div>",null,,,,,,,,
html-keyboard-response,450,903339,350.6550000165589,"PUMPKIN<img id = ""stim"" ><div class = red_square id = ""topsquare"" ></div><img id = ""stim"" ><div class = red_square  id = ""bottomsquare"" ></div>",32,word_square,response,1,Space,true,,,
html-keyboard-response,451,904842,null,"PUMPKIN",null,word,,,,, 'PUMPKIN',,
html-keyboard-response,452,905263,415.16500001307577,"TEAPOT<img id = ""stim"" ><div class = red_square id = ""topsquare"" ></div><img id = ""stim"" ><div class = red_square  id = ""bottomsquare"" ></div>",32,word_square,response,1,Space,true,,,
html-keyboard-response,453,906766,null,"TEAPOT",null,word,,,,, 'TEAPOT',,
html-keyboard-response,454,907270,null,"TRUCK<img id = ""stim"" ><div class = green_square id = ""topsquare"" ></div><img id = ""stim"" ><div class = green_square  id = ""bottomsquare"" ></div>",null,word_square,response,0,none,true,,,
html-keyboard-response,455,908773,null,"TRUCK",null,word,,,,, 'TRUCK',,
html-keyboard-response,456,909279,null,"GARBAGE<img id = ""stim"" ><div class = green_square id = ""topsquare"" ></div><img id = ""stim"" ><div class = green_square  id = ""bottomsquare"" ></div>",null,word_square,response,0,none,true,,,
html-keyboard-response,457,910782,null,"GARBAGE",null,word,,,,, 'GARBAGE',,
html-keyboard-response,458,911290,null,"CLERK<img id = ""stim"" ><div class = red_square id = ""topsquare"" ></div><img id = ""stim"" ><div class = red_square  id = ""bottomsquare"" ></div>",null,word_square,response,1,Space,false,,,
html-keyboard-response,459,912793,null,"CLERK",null,word,,,,, 'CLERK',,
html-keyboard-response,460,913297,null,"VIRUS<img id = ""stim"" ><div class = green_square id = ""topsquare"" ></div><img id = ""stim"" ><div class = green_square  id = ""bottomsquare"" ></div>",null,word_square,response,0,none,true,,,
html-keyboard-response,461,914800,null,"VIRUS",null,word,,,,, 'VIRUS',,
html-keyboard-response,462,915304,null,"CRIB<img id = ""stim"" ><div class = green_square id = ""topsquare"" ></div><img id = ""stim"" ><div class = green_square  id = ""bottomsquare"" ></div>",null,word_square,response,0,none,true,,,
html-keyboard-response,463,916807,null,"CRIB",null,word,,,,, 'CRIB',,
html-keyboard-response,464,917310,null,"BRICK<img id = ""stim"" ><div class = red_square id = ""topsquare"" ></div><img id = ""stim"" ><div class = red_square  id = ""bottomsquare"" ></div>",null,word_square,response,1,Space,false,,,
html-keyboard-response,465,918815,null,"BRICK",null,word,,,,, 'BRICK',,
html-keyboard-response,466,919217,397.91499997954816,"FARMER<img id = ""stim"" ><div class = red_square id = ""topsquare"" ></div><img id = ""stim"" ><div class = red_square  id = ""bottomsquare"" ></div>",32,word_square,response,1,Space,true,,,
html-keyboard-response,467,920720,null,"FARMER",null,word,,,,, 'FARMER',,
html-keyboard-response,468,921061,337.79999997932464,"HEDGE<img id = ""stim"" ><div class = green_square id = ""topsquare"" ></div><img id = ""stim"" ><div class = green_square  id = ""bottomsquare"" ></div>",32,word_square,response,0,none,false,,,
html-keyboard-response,469,922564,null,"HEDGE",null,word,,,,, 'HEDGE',,
html-keyboard-response,470,923068,null,"STABLE<img id = ""stim"" ><div class = green_square id = ""topsquare"" ></div><img id = ""stim"" ><div class = green_square  id = ""bottomsquare"" ></div>",null,word_square,response,0,none,true,,,
html-keyboard-response,471,924571,null,"STABLE",null,word,,,,, 'STABLE',,
html-keyboard-response,472,925074,null,"WIDOW<img id = ""stim"" ><div class = red_square id = ""topsquare"" ></div><img id = ""stim"" ><div class = red_square  id = ""bottomsquare"" ></div>",null,word_square,response,1,Space,false,,,
html-keyboard-response,473,926577,null,"WIDOW",null,word,,,,, 'WIDOW',,
html-keyboard-response,474,927080,null,"GLACIER<img id = ""stim"" ><div class = green_square id = ""topsquare"" ></div><img id = ""stim"" ><div class = green_square  id = ""bottomsquare"" ></div>",null,word_square,response,0,none,true,,,
html-keyboard-response,475,928584,null,"GLACIER",null,word,,,,, 'GLACIER',,
html-keyboard-response,476,929087,null,"FREEZER<img id = ""stim"" ><div class = red_square id = ""topsquare"" ></div><img id = ""stim"" ><div class = red_square  id = ""bottomsquare"" ></div>",null,word_square,response,1,Space,false,,,
html-keyboard-response,477,930591,null,"FREEZER",null,word,,,,, 'FREEZER',,
html-keyboard-response,478,931094,null,"SQUIRREL<img id = ""stim"" ><div class = green_square id = ""topsquare"" ></div><img id = ""stim"" ><div class = green_square  id = ""bottomsquare"" ></div>",null,word_square,response,0,none,true,,,
html-keyboard-response,479,932598,null,"SQUIRREL",null,word,,,,, 'SQUIRREL',,
html-keyboard-response,480,932989,387.89499999256805,"ZIPPER<img id = ""stim"" ><div class = red_square id = ""topsquare"" ></div><img id = ""stim"" ><div class = red_square  id = ""bottomsquare"" ></div>",32,word_square,response,1,Space,true,,,
html-keyboard-response,481,934492,null,"ZIPPER",null,word,,,,, 'ZIPPER',,
html-keyboard-response,482,934995,null,"SKIRT<img id = ""stim"" ><div class = green_square id = ""topsquare"" ></div><img id = ""stim"" ><div class = green_square  id = ""bottomsquare"" ></div>",null,word_square,response,0,none,true,,,
html-keyboard-response,483,936499,null,"SKIRT",null,word,,,,, 'SKIRT',,
html-keyboard-response,484,936850,346.79499999037944,"BANDIT<img id = ""stim"" ><div class = red_square id = ""topsquare"" ></div><img id = ""stim"" ><div class = red_square  id = ""bottomsquare"" ></div>",32,word_square,response,1,Space,true,,,
html-keyboard-response,485,938353,null,"BANDIT",null,word,,,,, 'BANDIT',,
call-function,486,938356,,"",,,,,,,,,
html-keyboard-response,487,938459,null,"",null,,,,,,,,
math-period,488,940471,3544.7449999919627,"",,,,,,,,,3
html-keyboard-response,489,940574,null,"",null,,,,,,,,
math-period,490,941576,1869.1450000042096,"",,,,,,,,,3
html-keyboard-response,491,941680,null,"",null,,,,,,,,
math-period,492,943834,7051.049999950919,"",,,,,,,,,6
html-keyboard-response,493,943938,null,"",null,,,,,,,,
math-period,494,945743,5052.480000042124,"",,,,,,,,,6
html-keyboard-response,495,945846,null,"",null,,,,,,,,
math-period,496,947471,5140.264999965439,"",,,,,,,,,5
html-keyboard-response,497,947574,null,"",null,,,,,,,,
math-period,498,949251,2919.804999983171,"",,,,,,,,,1
html-keyboard-response,499,949356,null,"",null,,,,,,,,
math-period,500,950815,2471.9999999797437,"",,,,,,,,,5
html-keyboard-response,501,950919,null,"",null,,,,,,,,
math-period,502,952170,2033.9900000253692,"",,,,,,,,,4
html-keyboard-response,503,952275,null,"",null,,,,,,,,
math-period,504,954149,3577.8149999678135,"",,,,,,,,,1
html-keyboard-response,505,954254,null,"",null,,,,,,,,
math-period,506,956727,4633.285000018077,"",,,,,,,,,3
html-keyboard-response,507,956830,null,"",null,,,,,,,,
math-period,508,958235,2413.5799999930896,"",,,,,,,,,2
html-keyboard-response,509,958339,null,"",null,,,,,,,,
math-period,510,960285,3459.4750000396743,"",,,,,,,,,5
html-keyboard-response,511,960388,null,"",null,,,,,,,,
math-period,512,961929,2602.6399999973364,"",,,,,,,,,5
html-keyboard-response,513,962032,null,"",null,,,,,,,,
math-period,514,962359,null,"",,,,,,,,,
html-keyboard-response,515,963363,null,"Recall Period!",null,,,,,,,,
call-function,516,963366,,"",,,,,,,,,
html-keyboard-response,517,963469,null,"",null,,,,,,,,
recall-period,518,966652,18486.94000003161,"",,,,,,,,,Pumpkin
html-keyboard-response,519,966755,null,"",null,,,,,,,,
recall-period,520,968439,5530.334999872139,"",,,,,,,,,Teapot
html-keyboard-response,521,968543,null,"",null,,,,,,,,
recall-period,522,977001,69395.2350000036,"",,,,,,,,,Trigger
html-keyboard-response,523,977104,null,"",null,,,,,,,,
recall-period,524,1038367,null,"",,,,,,,,,
html-keyboard-response,525,1038870,null,"Time's Up!",null,,,,,,,,
html-keyboard-response,526,1048559,9684.305000002496,"<p> Good job! You responded correctly to 86% of the red squares.</p>
                  <p>Be sure to keep your accuracy above 80%</p>
                  <p>Press any key to continue the experiment. Thank you!</p>",32,,,,,,,,
html-keyboard-response,527,1049928,1366.7700000223704,"<div style=""font-size:48px;"">Press any key to begin list 6 of 24 </div>",32,,,,,,,,
html-keyboard-response,528,1052430,null,"<div style=""font-size:60px;"">+</div>",null,,,,,,,,
html-keyboard-response,529,1052839,403.81499999784864,"ROBBER<img id = ""stim"" ><div class = red_square id = ""topsquare"" ></div><img id = ""stim"" ><div class = red_square  id = ""bottomsquare"" ></div>",32,word_square,response,1,Space,true,,,
html-keyboard-response,530,1054341,null,"ROBBER",null,word,,,,, 'ROBBER',,
html-keyboard-response,531,1054825,480.7849999924656,"BANK<img id = ""stim"" ><div class = red_square id = ""topsquare"" ></div><img id = ""stim"" ><div class = red_square  id = ""bottomsquare"" ></div>",32,word_square,response,1,Space,true,,,
html-keyboard-response,532,1056329,null,"BANK",null,word,,,,, 'BANK',,
html-keyboard-response,533,1056833,null,"MOTHER<img id = ""stim"" ><div class = green_square id = ""topsquare"" ></div><img id = ""stim"" ><div class = green_square  id = ""bottomsquare"" ></div>",null,word_square,response,0,none,true,,,
html-keyboard-response,534,1058336,null,"MOTHER",null,word,,,,, 'MOTHER',,
html-keyboard-response,535,1058839,null,"WITNESS<img id = ""stim"" ><div class = green_square id = ""topsquare"" ></div><img id = ""stim"" ><div class = green_square  id = ""bottomsquare"" ></div>",null,word_square,response,0,none,true,,,
html-keyboard-response,536,1060342,null,"WITNESS",null,word,,,,, 'WITNESS',,
html-keyboard-response,537,1060733,386.7749999917578,"OUTLAW<img id = ""stim"" ><div class = red_square id = ""topsquare"" ></div><img id = ""stim"" ><div class = red_square  id = ""bottomsquare"" ></div>",32,word_square,response,1,Space,true,,,
html-keyboard-response,538,1062236,null,"OUTLAW",null,word,,,,, 'OUTLAW',,
html-keyboard-response,539,1062740,null,"SQUID<img id = ""stim"" ><div class = green_square id = ""topsquare"" ></div><img id = ""stim"" ><div class = green_square  id = ""bottomsquare"" ></div>",null,word_square,response,0,none,true,,,
html-keyboard-response,540,1064243,null,"SQUID",null,word,,,,, 'SQUID',,
html-keyboard-response,541,1064746,null,"GLOVE<img id = ""stim"" ><div class = green_square id = ""topsquare"" ></div><img id = ""stim"" ><div class = green_square  id = ""bottomsquare"" ></div>",null,word_square,response,0,none,true,,,
html-keyboard-response,542,1066249,null,"GLOVE",null,word,,,,, 'GLOVE',,
html-keyboard-response,543,1066712,458.70000001741573,"CONTRACT<img id = ""stim"" ><div class = red_square id = ""topsquare"" ></div><img id = ""stim"" ><div class = red_square  id = ""bottomsquare"" ></div>",32,word_square,response,1,Space,true,,,
html-keyboard-response,544,1068215,null,"CONTRACT",null,word,,,,, 'CONTRACT',,
html-keyboard-response,545,1068719,null,"VILLAGE<img id = ""stim"" ><div class = red_square id = ""topsquare"" ></div><img id = ""stim"" ><div class = red_square  id = ""bottomsquare"" ></div>",null,word_square,response,1,Space,false,,,
html-keyboard-response,546,1070222,null,"VILLAGE",null,word,,,,, 'VILLAGE',,
html-keyboard-response,547,1070726,null,"LOBBY<img id = ""stim"" ><div class = green_square id = ""topsquare"" ></div><img id = ""stim"" ><div class = green_square  id = ""bottomsquare"" ></div>",null,word_square,response,0,none,true,,,
html-keyboard-response,548,1072228,null,"LOBBY",null,word,,,,, 'LOBBY',,
html-keyboard-response,549,1072732,null,"NOVEL<img id = ""stim"" ><div class = green_square id = ""topsquare"" ></div><img id = ""stim"" ><div class = green_square  id = ""bottomsquare"" ></div>",null,word_square,response,0,none,true,,,
html-keyboard-response,550,1074235,null,"NOVEL",null,word,,,,, 'NOVEL',,
html-keyboard-response,551,1074699,460.5849999934435,"GUITAR<img id = ""stim"" ><div class = red_square id = ""topsquare"" ></div><img id = ""stim"" ><div class = red_square  id = ""bottomsquare"" ></div>",32,word_square,response,1,Space,true,,,
html-keyboard-response,552,1076202,null,"GUITAR",null,word,,,,, 'GUITAR',,
html-keyboard-response,553,1076705,null,"FOOTBALL<img id = ""stim"" ><div class = green_square id = ""topsquare"" ></div><img id = ""stim"" ><div class = green_square  id = ""bottomsquare"" ></div>",null,word_square,response,0,none,true,,,
html-keyboard-response,554,1078208,null,"FOOTBALL",null,word,,,,, 'FOOTBALL',,
html-keyboard-response,555,1078601,389.85999999567866,"SOFTBALL<img id = ""stim"" ><div class = red_square id = ""topsquare"" ></div><img id = ""stim"" ><div class = red_square  id = ""bottomsquare"" ></div>",32,word_square,response,1,Space,true,,,
html-keyboard-response,556,1080105,null,"SOFTBALL",null,word,,,,, 'SOFTBALL',,
html-keyboard-response,557,1080609,null,"CAFE<img id = ""stim"" ><div class = green_square id = ""topsquare"" ></div><img id = ""stim"" ><div class = green_square  id = ""bottomsquare"" ></div>",null,word_square,response,0,none,true,,,
html-keyboard-response,558,1082113,null,"CAFE",null,word,,,,, 'CAFE',,
html-keyboard-response,559,1082470,353.97500000544824,"CREEK<img id = ""stim"" ><div class = red_square id = ""topsquare"" ></div><img id = ""stim"" ><div class = red_square  id = ""bottomsquare"" ></div>",32,word_square,response,1,Space,true,,,
html-keyboard-response,560,1083974,null,"CREEK",null,word,,,,, 'CREEK',,
html-keyboard-response,561,1084477,null,"DRESS<img id = ""stim"" ><div class = green_square id = ""topsquare"" ></div><img id = ""stim"" ><div class = green_square  id = ""bottomsquare"" ></div>",null,word_square,response,0,none,true,,,
html-keyboard-response,562,1085981,null,"DRESS",null,word,,,,, 'DRESS',,
html-keyboard-response,563,1086394,410.6049999827519,"SICKLE<img id = ""stim"" ><div class = red_square id = ""topsquare"" ></div><img id = ""stim"" ><div class = red_square  id = ""bottomsquare"" ></div>",32,word_square,response,1,Space,true,,,
html-keyboard-response,564,1087897,null,"SICKLE",null,word,,,,, 'SICKLE',,
call-function,565,1087900,,"",,,,,,,,,
html-keyboard-response,566,1088003,null,"",null,,,,,,,,
math-period,567,1093033,20270.654999942053,"",,,,,,,,,4
html-keyboard-response,568,1093136,null,"",null,,,,,,,,
math-period,569,1094970,3303.3599999616854,"",,,,,,,,,1
html-keyboard-response,570,1095076,null,"",null,,,,,,,,
math-period,571,1097108,6852.714999986347,"",,,,,,,,,5
html-keyboard-response,572,1097211,null,"",null,,,,,,,,
math-period,573,1099063,3330.7499999937136,"",,,,,,,,,0
html-keyboard-response,574,1099166,null,"",null,,,,,,,,
math-period,575,1100846,2955.9449999942444,"",,,,,,,,,1
html-keyboard-response,576,1100949,null,"",null,,,,,,,,
math-period,577,1102934,3600.3900000359863,"",,,,,,,,,4
html-keyboard-response,578,1103038,null,"",null,,,,,,,,
math-period,579,1106658,12001.945000025444,"",,,,,,,,,0
html-keyboard-response,580,1106762,null,"",null,,,,,,,,
math-period,581,1108114,2252.5649999734014,"",,,,,,,,,3
html-keyboard-response,582,1108218,null,"",null,,,,,,,,
math-period,583,1109934,2997.5750000448897,"",,,,,,,,,0
html-keyboard-response,584,1110037,null,"",null,,,,,,,,
math-period,585,1111906,null,"",,,,,,,,,
html-keyboard-response,586,1112910,null,"Recall Period!",null,,,,,,,,
call-function,587,1112913,,"",,,,,,,,,
html-keyboard-response,588,1113015,null,"",null,,,,,,,,
recall-period,589,1116017,12876.995000056922,"",,,,,,,,,Cafe
html-keyboard-response,590,1116121,null,"",null,,,,,,,,
recall-period,591,1117595,4215.934999956517,"",,,,,,,,,Creek
html-keyboard-response,592,1117698,null,"",null,,,,,,,,
recall-period,593,1118714,3365.3099999646656,"",,,,,,,,,Squid
html-keyboard-response,594,1118818,null,"",null,,,,,,,,
recall-period,595,1119697,3323.4550000634044,"",,,,,,,,,Sickle
html-keyboard-response,596,1119800,null,"",null,,,,,,,,
recall-period,597,1120687,3438.9099999389146,"",,,,,,,,,Dress
html-keyboard-response,598,1120790,null,"",null,,,,,,,,
recall-period,599,1142842,151059.1049999639,"",,,,,,,,,robber
html-keyboard-response,600,1142945,null,"",null,,,,,,,,
recall-period,601,1143856,2783.6350000288803,"",,,,,,,,,bank
html-keyboard-response,602,1143960,null,"",null,,,,,,,,
recall-period,603,1145386,5498.849999974482,"",,,,,,,,,mother
html-keyboard-response,604,1145490,null,"",null,,,,,,,,
recall-period,605,1146879,5012.315000116359,"",,,,,,,,,outlaw
html-keyboard-response,606,1146983,null,"",null,,,,,,,,
recall-period,607,1151827,34803.805000090506,"",,,,,,,,,witness
html-keyboard-response,608,1151930,null,"",null,,,,,,,,
recall-period,609,1157986,33584.84500009217,"",,,,,,,,,glove
html-keyboard-response,610,1158091,null,"",null,,,,,,,,
recall-period,611,1163181,36919.925000023795,"",,,,,,,,,village
html-keyboard-response,612,1163283,null,"",null,,,,,,,,
recall-period,613,1165246,8620.929999975488,"",,,,,,,,,lobby
html-keyboard-response,614,1165350,null,"",null,,,,,,,,
recall-period,615,1168594,18860.859999986133,"",,,,,,,,,guitar
html-keyboard-response,616,1168697,null,"",null,,,,,,,,
recall-period,617,1170600,11057.040000043344,"",,,,,,,,,football
html-keyboard-response,618,1170703,null,"",null,,,,,,,,
recall-period,619,1187917,null,"",,,,,,,,,
html-keyboard-response,620,1188422,null,"Time's Up!",null,,,,,,,,
html-keyboard-response,621,1192343,3918.405000003986,"<p> Good job! You responded correctly to 87% of the red squares.</p>
                  <p>Be sure to keep your accuracy above 80%</p>
                  <p>Press any key to continue the experiment. Thank you!</p>",32,,,,,,,,
html-keyboard-response,622,1193086,739.7249999921769,"<div style=""font-size:48px;"">Press any key to begin list 7 of 24 </div>",32,,,,,,,,
html-keyboard-response,623,1195589,null,"<div style=""font-size:60px;"">+</div>",null,,,,,,,,
html-keyboard-response,624,1196093,null,"PACKAGE<img id = ""stim"" ><div class = green_square id = ""topsquare"" ></div><img id = ""stim"" ><div class = green_square  id = ""bottomsquare"" ></div>",null,word_square,response,0,none,true,,,
html-keyboard-response,625,1197595,null,"PACKAGE",null,word,,,,, 'PACKAGE',,
html-keyboard-response,626,1198104,null,"GIFT<img id = ""stim"" ><div class = green_square id = ""topsquare"" ></div><img id = ""stim"" ><div class = green_square  id = ""bottomsquare"" ></div>",null,word_square,response,0,none,true,,,
html-keyboard-response,627,1199607,null,"GIFT",null,word,,,,, 'GIFT',,
html-keyboard-response,628,1199966,356.2400000228081,"ADULT<img id = ""stim"" ><div class = red_square id = ""topsquare"" ></div><img id = ""stim"" ><div class = red_square  id = ""bottomsquare"" ></div>",32,word_square,response,1,Space,true,,,
html-keyboard-response,629,1201470,null,"ADULT",null,word,,,,, 'ADULT',,
html-keyboard-response,630,1201974,null,"JOURNAL<img id = ""stim"" ><div class = red_square id = ""topsquare"" ></div><img id = ""stim"" ><div class = red_square  id = ""bottomsquare"" ></div>",null,word_square,response,1,Space,false,,,
html-keyboard-response,631,1203478,null,"JOURNAL",null,word,,,,, 'JOURNAL',,
html-keyboard-response,632,1203982,null,"LUGGAGE<img id = ""stim"" ><div class = green_square id = ""topsquare"" ></div><img id = ""stim"" ><div class = green_square  id = ""bottomsquare"" ></div>",null,word_square,response,0,none,true,,,
html-keyboard-response,633,1205486,null,"LUGGAGE",null,word,,,,, 'LUGGAGE',,
html-keyboard-response,634,1205963,474.18000001925975,"BASKET<img id = ""stim"" ><div class = red_square id = ""topsquare"" ></div><img id = ""stim"" ><div class = red_square  id = ""bottomsquare"" ></div>",32,word_square,response,1,Space,true,,,
html-keyboard-response,635,1207466,null,"BASKET",null,word,,,,, 'BASKET',,
html-keyboard-response,636,1207854,385.00500001828186,"LIVER<img id = ""stim"" ><div class = red_square id = ""topsquare"" ></div><img id = ""stim"" ><div class = red_square  id = ""bottomsquare"" ></div>",32,word_square,response,1,Space,true,,,
html-keyboard-response,637,1209357,null,"LIVER",null,word,,,,, 'LIVER',,
html-keyboard-response,638,1209860,null,"TOOTHBRUSH<img id = ""stim"" ><div class = green_square id = ""topsquare"" ></div><img id = ""stim"" ><div class = green_square  id = ""bottomsquare"" ></div>",null,word_square,response,0,none,true,,,
html-keyboard-response,639,1211363,null,"TOOTHBRUSH",null,word,,,,, 'TOOTHBRUSH',,
html-keyboard-response,640,1211866,null,"WARDROBE<img id = ""stim"" ><div class = green_square id = ""topsquare"" ></div><img id = ""stim"" ><div class = green_square  id = ""bottomsquare"" ></div>",null,word_square,response,0,none,true,,,
html-keyboard-response,641,1213370,null,"WARDROBE",null,word,,,,, 'WARDROBE',,
html-keyboard-response,642,1213724,349.81499999412335,"KETTLE<img id = ""stim"" ><div class = red_square id = ""topsquare"" ></div><img id = ""stim"" ><div class = red_square  id = ""bottomsquare"" ></div>",32,word_square,response,1,Space,true,,,
html-keyboard-response,643,1215227,null,"KETTLE",null,word,,,,, 'KETTLE',,
html-keyboard-response,644,1215603,372.4849999998696,"COBWEB<img id = ""stim"" ><div class = red_square id = ""topsquare"" ></div><img id = ""stim"" ><div class = red_square  id = ""bottomsquare"" ></div>",32,word_square,response,1,Space,true,,,
html-keyboard-response,645,1217106,null,"COBWEB",null,word,,,,, 'COBWEB',,
html-keyboard-response,646,1217609,null,"BUTLER<img id = ""stim"" ><div class = green_square id = ""topsquare"" ></div><img id = ""stim"" ><div class = green_square  id = ""bottomsquare"" ></div>",null,word_square,response,0,none,true,,,
html-keyboard-response,647,1219115,null,"BUTLER",null,word,,,,, 'BUTLER',,
html-keyboard-response,648,1219619,null,"BEEF<img id = ""stim"" ><div class = red_square id = ""topsquare"" ></div><img id = ""stim"" ><div class = red_square  id = ""bottomsquare"" ></div>",null,word_square,response,1,Space,false,,,
html-keyboard-response,649,1221122,null,"BEEF",null,word,,,,, 'BEEF',,
html-keyboard-response,650,1221624,null,"STAPLE<img id = ""stim"" ><div class = green_square id = ""topsquare"" ></div><img id = ""stim"" ><div class = green_square  id = ""bottomsquare"" ></div>",null,word_square,response,0,none,true,,,
html-keyboard-response,651,1223128,null,"STAPLE",null,word,,,,, 'STAPLE',,
html-keyboard-response,652,1223632,null,"NOTEBOOK<img id = ""stim"" ><div class = red_square id = ""topsquare"" ></div><img id = ""stim"" ><div class = red_square  id = ""bottomsquare"" ></div>",null,word_square,response,1,Space,false,,,
html-keyboard-response,653,1225135,null,"NOTEBOOK",null,word,,,,, 'NOTEBOOK',,
html-keyboard-response,654,1225638,null,"POND<img id = ""stim"" ><div class = green_square id = ""topsquare"" ></div><img id = ""stim"" ><div class = green_square  id = ""bottomsquare"" ></div>",null,word_square,response,0,none,true,,,
html-keyboard-response,655,1227142,null,"POND",null,word,,,,, 'POND',,
html-keyboard-response,656,1227589,444.83999998192303,"RADISH<img id = ""stim"" ><div class = red_square id = ""topsquare"" ></div><img id = ""stim"" ><div class = red_square  id = ""bottomsquare"" ></div>",32,word_square,response,1,Space,true,,,
html-keyboard-response,657,1229093,null,"RADISH",null,word,,,,, 'RADISH',,
html-keyboard-response,658,1229596,null,"BINDER<img id = ""stim"" ><div class = green_square id = ""topsquare"" ></div><img id = ""stim"" ><div class = green_square  id = ""bottomsquare"" ></div>",null,word_square,response,0,none,true,,,
html-keyboard-response,659,1231099,null,"BINDER",null,word,,,,, 'BINDER',,
call-function,660,1231102,,"",,,,,,,,,
html-keyboard-response,661,1231204,null,"",null,,,,,,,,
math-period,662,1233595,4243.435000011232,"",,,,,,,,,0
html-keyboard-response,663,1233699,null,"",null,,,,,,,,
math-period,664,1236132,4429.805000021588,"",,,,,,,,,1
html-keyboard-response,665,1236236,null,"",null,,,,,,,,
math-period,666,1239116,5585.6999999668915,"",,,,,,,,,1
html-keyboard-response,667,1239220,null,"",null,,,,,,,,
math-period,668,1240695,2666.31500000949,"",,,,,,,,,2
html-keyboard-response,669,1240798,null,"",null,,,,,,,,
math-period,670,1242358,2663.05999996257,"",,,,,,,,,3
html-keyboard-response,671,1242461,null,"",null,,,,,,,,
math-period,672,1244572,3529.1549999965355,"",,,,,,,,,6
html-keyboard-response,673,1244675,null,"",null,,,,,,,,
math-period,674,1246667,3535.9600000083447,"",,,,,,,,,0
html-keyboard-response,675,1246771,null,"",null,,,,,,,,
math-period,676,1250961,13304.710000025807,"",,,,,,,,,2
html-keyboard-response,677,1251065,null,"",null,,,,,,,,
math-period,678,1252529,2619.719999987865,"",,,,,,,,,2
html-keyboard-response,679,1252633,null,"",null,,,,,,,,
math-period,680,1254555,3506.1249999853317,"",,,,,,,,,1
html-keyboard-response,681,1254658,null,"",null,,,,,,,,
math-period,682,1255104,null,"",,,,,,,,,
html-keyboard-response,683,1256107,null,"Recall Period!",null,,,,,,,,
call-function,684,1256110,,"",,,,,,,,,
html-keyboard-response,685,1256213,null,"",null,,,,,,,,
recall-period,686,1258111,5934.324999980163,"",,,,,,,,,Pot
html-keyboard-response,687,1258215,null,"",null,,,,,,,,
recall-period,688,1260024,6562.630000087665,"",,,,,,,,,Radish
html-keyboard-response,689,1260127,null,"",null,,,,,,,,
recall-period,690,1261219,4854.334999923594,"",,,,,,,,,Binder
html-keyboard-response,691,1261323,null,"",null,,,,,,,,
recall-period,692,1263644,13235.360000137007,"",,,,,,,,,Cobweb
html-keyboard-response,693,1263747,null,"",null,,,,,,,,
recall-period,694,1264952,4514.160000020638,"",,,,,,,,,Staple
html-keyboard-response,695,1265054,null,"",null,,,,,,,,
recall-period,696,1331112,null,"",,,,,,,,,
html-keyboard-response,697,1331616,null,"Time's Up!",null,,,,,,,,
html-keyboard-response,698,1514439,182819.40499998746,"<p> Good job! You responded correctly to 87% of the red squares.</p>
                  <p>Be sure to keep your accuracy above 80%</p>
                  <p>Press any key to continue the experiment. Thank you!</p>",32,,,,,,,,
html-keyboard-response,699,1515291,849.0900000033434,"<div style=""font-size:48px;"">Press any key to begin list 8 of 24 </div>",32,,,,,,,,
html-keyboard-response,700,1517794,null,"<div style=""font-size:60px;"">+</div>",null,,,,,,,,
html-keyboard-response,701,1518298,null,"ACTOR<img id = ""stim"" ><div class = green_square id = ""topsquare"" ></div><img id = ""stim"" ><div class = green_square  id = ""bottomsquare"" ></div>",null,word_square,response,0,none,true,,,
html-keyboard-response,702,1519801,null,"ACTOR",null,word,,,,, 'ACTOR',,
html-keyboard-response,703,1520304,null,"FILM<img id = ""stim"" ><div class = green_square id = ""topsquare"" ></div><img id = ""stim"" ><div class = green_square  id = ""bottomsquare"" ></div>",null,word_square,response,0,none,true,,,
html-keyboard-response,704,1521808,null,"FILM",null,word,,,,, 'FILM',,
html-keyboard-response,705,1522211,399.33000001474284,"PLANET<img id = ""stim"" ><div class = red_square id = ""topsquare"" ></div><img id = ""stim"" ><div class = red_square  id = ""bottomsquare"" ></div>",32,word_square,response,1,Space,true,,,
html-keyboard-response,706,1523714,null,"PLANET",null,word,,,,, 'PLANET',,
html-keyboard-response,707,1524161,443.1249999906868,"SERPENT<img id = ""stim"" ><div class = red_square id = ""topsquare"" ></div><img id = ""stim"" ><div class = red_square  id = ""bottomsquare"" ></div>",32,word_square,response,1,Space,true,,,
html-keyboard-response,708,1525664,null,"SERPENT",null,word,,,,, 'SERPENT',,
html-keyboard-response,709,1526167,null,"MUFFIN<img id = ""stim"" ><div class = green_square id = ""topsquare"" ></div><img id = ""stim"" ><div class = green_square  id = ""bottomsquare"" ></div>",null,word_square,response,0,none,true,,,
html-keyboard-response,710,1527671,null,"MUFFIN",null,word,,,,, 'MUFFIN',,
html-keyboard-response,711,1528013,338.5349999880418,"FATHER<img id = ""stim"" ><div class = red_square id = ""topsquare"" ></div><img id = ""stim"" ><div class = red_square  id = ""bottomsquare"" ></div>",32,word_square,response,1,Space,true,,,
html-keyboard-response,712,1529517,null,"FATHER",null,word,,,,, 'FATHER',,
html-keyboard-response,713,1530022,null,"COLLEGE<img id = ""stim"" ><div class = red_square id = ""topsquare"" ></div><img id = ""stim"" ><div class = red_square  id = ""bottomsquare"" ></div>",null,word_square,response,1,Space,false,,,
html-keyboard-response,714,1531526,null,"COLLEGE",null,word,,,,, 'COLLEGE',,
html-keyboard-response,715,1532029,null,"NIGHTGOWN<img id = ""stim"" ><div class = green_square id = ""topsquare"" ></div><img id = ""stim"" ><div class = green_square  id = ""bottomsquare"" ></div>",null,word_square,response,0,none,true,,,
html-keyboard-response,716,1533532,null,"NIGHTGOWN",null,word,,,,, 'NIGHTGOWN',,
html-keyboard-response,717,1534036,null,"BANKER<img id = ""stim"" ><div class = green_square id = ""topsquare"" ></div><img id = ""stim"" ><div class = green_square  id = ""bottomsquare"" ></div>",null,word_square,response,0,none,true,,,
html-keyboard-response,718,1535540,null,"BANKER",null,word,,,,, 'BANKER',,
html-keyboard-response,719,1535944,400.7149999961257,"COIN<img id = ""stim"" ><div class = red_square id = ""topsquare"" ></div><img id = ""stim"" ><div class = red_square  id = ""bottomsquare"" ></div>",32,word_square,response,1,Space,true,,,
html-keyboard-response,720,1537448,null,"COIN",null,word,,,,, 'COIN',,
html-keyboard-response,721,1537851,400.72000000509433,"PARTNER<img id = ""stim"" ><div class = red_square id = ""topsquare"" ></div><img id = ""stim"" ><div class = red_square  id = ""bottomsquare"" ></div>",32,word_square,response,1,Space,true,,,
html-keyboard-response,722,1539354,null,"PARTNER",null,word,,,,, 'PARTNER',,
html-keyboard-response,723,1539859,null,"PEOPLE<img id = ""stim"" ><div class = green_square id = ""topsquare"" ></div><img id = ""stim"" ><div class = green_square  id = ""bottomsquare"" ></div>",null,word_square,response,0,none,true,,,
html-keyboard-response,724,1541362,null,"PEOPLE",null,word,,,,, 'PEOPLE',,
html-keyboard-response,725,1541793,427.21500000334345,"PENCIL<img id = ""stim"" ><div class = red_square id = ""topsquare"" ></div><img id = ""stim"" ><div class = red_square  id = ""bottomsquare"" ></div>",32,word_square,response,1,Space,true,,,
html-keyboard-response,726,1543296,null,"PENCIL",null,word,,,,, 'PENCIL',,
html-keyboard-response,727,1543799,null,"FRIEND<img id = ""stim"" ><div class = green_square id = ""topsquare"" ></div><img id = ""stim"" ><div class = green_square  id = ""bottomsquare"" ></div>",null,word_square,response,0,none,true,,,
html-keyboard-response,728,1545303,null,"FRIEND",null,word,,,,, 'FRIEND',,
html-keyboard-response,729,1545657,350.7850000169128,"SPONGE<img id = ""stim"" ><div class = red_square id = ""topsquare"" ></div><img id = ""stim"" ><div class = red_square  id = ""bottomsquare"" ></div>",32,word_square,response,1,Space,true,,,
html-keyboard-response,730,1547161,null,"SPONGE",null,word,,,,, 'SPONGE',,
html-keyboard-response,731,1547539,374.57500002346933,"ISLAND<img id = ""stim"" ><div class = green_square id = ""topsquare"" ></div><img id = ""stim"" ><div class = green_square  id = ""bottomsquare"" ></div>",32,word_square,response,0,none,false,,,
html-keyboard-response,732,1549042,null,"ISLAND",null,word,,,,, 'ISLAND',,
html-keyboard-response,733,1549323,278.5250000015367,"PIMPLE<img id = ""stim"" ><div class = red_square id = ""topsquare"" ></div><img id = ""stim"" ><div class = red_square  id = ""bottomsquare"" ></div>",32,word_square,response,1,Space,true,,,
html-keyboard-response,734,1550826,null,"PIMPLE",null,word,,,,, 'PIMPLE',,
html-keyboard-response,735,1551332,null,"RAFT<img id = ""stim"" ><div class = green_square id = ""topsquare"" ></div><img id = ""stim"" ><div class = green_square  id = ""bottomsquare"" ></div>",null,word_square,response,0,none,true,,,
html-keyboard-response,736,1552835,null,"RAFT",null,word,,,,, 'RAFT',,
call-function,737,1552838,,"",,,,,,,,,
html-keyboard-response,738,1552941,null,"",null,,,,,,,,
math-period,739,1556599,11360.635000048205,"",,,,,,,,,3
html-keyboard-response,740,1556702,null,"",null,,,,,,,,
math-period,741,1558122,2409.58999999566,"",,,,,,,,,4
html-keyboard-response,742,1558226,null,"",null,,,,,,,,
math-period,743,1560627,4083.5550000192598,"",,,,,,,,,0
html-keyboard-response,744,1560730,null,"",null,,,,,,,,
math-period,745,1562148,2400.3750000265427,"",,,,,,,,,3
html-keyboard-response,746,1562251,null,"",null,,,,,,,,
math-period,747,1564409,6998.905000014929,"",,,,,,,,,5
html-keyboard-response,748,1564513,null,"",null,,,,,,,,
math-period,749,1566712,6119.215000013355,"",,,,,,,,,2
html-keyboard-response,750,1566816,null,"",null,,,,,,,,
math-period,751,1568427,5054.255000024568,"",,,,,,,,,4
html-keyboard-response,752,1568533,null,"",null,,,,,,,,
math-period,753,1570130,2778.019999997923,"",,,,,,,,,3
html-keyboard-response,754,1570233,null,"",null,,,,,,,,
math-period,755,1572980,9316.124999924796,"",,,,,,,,,1
html-keyboard-response,756,1573082,null,"",null,,,,,,,,
math-period,757,1575599,6290.49999997369,"",,,,,,,,,2
html-keyboard-response,758,1575703,null,"",null,,,,,,,,
math-period,759,1576843,1038.9549999963492,"",,,,,,,,,3
html-keyboard-response,760,1577847,null,"Recall Period!",null,,,,,,,,
call-function,761,1577850,,"",,,,,,,,,
html-keyboard-response,762,1577953,null,"",null,,,,,,,,
recall-period,763,1581414,16920.085000107065,"",,,,,,,,,Banker
html-keyboard-response,764,1581517,null,"",null,,,,,,,,
recall-period,765,1583204,6647.269999899436,"",,,,,,,,,People
html-keyboard-response,766,1583307,null,"",null,,,,,,,,
recall-period,767,1652855,null,"",,,,,,,,,
html-keyboard-response,768,1653359,null,"Time's Up!",null,,,,,,,,
html-keyboard-response,769,1659386,6020.604999997886,"<p> Good job! You responded correctly to 87% of the red squares.</p>
                  <p>Be sure to keep your accuracy above 80%</p>
                  <p>Press any key to continue the experiment. Thank you!</p>",32,,,,,,,,
html-keyboard-response,770,1660417,1026.784999994561,"<div style=""font-size:48px;"">Press any key to begin list 9 of 24 </div>",32,,,,,,,,
html-keyboard-response,771,1662921,null,"<div style=""font-size:60px;"">+</div>",null,,,,,,,,
html-keyboard-response,772,1663425,null,"HORSE<img id = ""stim"" ><div class = green_square id = ""topsquare"" ></div><img id = ""stim"" ><div class = green_square  id = ""bottomsquare"" ></div>",null,word_square,response,0,none,true,,,
html-keyboard-response,773,1664928,null,"HORSE",null,word,,,,, 'HORSE',,
html-keyboard-response,774,1665273,340.67000000504777,"PARSLEY<img id = ""stim"" ><div class = red_square id = ""topsquare"" ></div><img id = ""stim"" ><div class = red_square  id = ""bottomsquare"" ></div>",32,word_square,response,1,Space,true,,,
html-keyboard-response,775,1666776,null,"PARSLEY",null,word,,,,, 'PARSLEY',,
html-keyboard-response,776,1667184,404.1549999965355,"CRAB<img id = ""stim"" ><div class = red_square id = ""topsquare"" ></div><img id = ""stim"" ><div class = red_square  id = ""bottomsquare"" ></div>",32,word_square,response,1,Space,true,,,
html-keyboard-response,777,1668687,null,"CRAB",null,word,,,,, 'CRAB',,
html-keyboard-response,778,1669191,null,"PLIERS<img id = ""stim"" ><div class = green_square id = ""topsquare"" ></div><img id = ""stim"" ><div class = green_square  id = ""bottomsquare"" ></div>",null,word_square,response,0,none,true,,,
html-keyboard-response,779,1670694,null,"PLIERS",null,word,,,,, 'PLIERS',,
html-keyboard-response,780,1671197,null,"SHEPHERD<img id = ""stim"" ><div class = red_square id = ""topsquare"" ></div><img id = ""stim"" ><div class = red_square  id = ""bottomsquare"" ></div>",null,word_square,response,1,Space,false,,,
html-keyboard-response,781,1672700,null,"SHEPHERD",null,word,,,,, 'SHEPHERD',,
html-keyboard-response,782,1673204,null,"PLASTER<img id = ""stim"" ><div class = red_square id = ""topsquare"" ></div><img id = ""stim"" ><div class = red_square  id = ""bottomsquare"" ></div>",null,word_square,response,1,Space,false,,,
html-keyboard-response,783,1674707,null,"PLASTER",null,word,,,,, 'PLASTER',,
html-keyboard-response,784,1675211,null,"CEILING<img id = ""stim"" ><div class = green_square id = ""topsquare"" ></div><img id = ""stim"" ><div class = green_square  id = ""bottomsquare"" ></div>",null,word_square,response,0,none,true,,,
html-keyboard-response,785,1676714,null,"CEILING",null,word,,,,, 'CEILING',,
html-keyboard-response,786,1677218,null,"SNAKE<img id = ""stim"" ><div class = green_square id = ""topsquare"" ></div><img id = ""stim"" ><div class = green_square  id = ""bottomsquare"" ></div>",null,word_square,response,0,none,true,,,
html-keyboard-response,787,1678721,null,"SNAKE",null,word,,,,, 'SNAKE',,
html-keyboard-response,788,1679141,416.18000000016764,"COBRA<img id = ""stim"" ><div class = red_square id = ""topsquare"" ></div><img id = ""stim"" ><div class = red_square  id = ""bottomsquare"" ></div>",32,word_square,response,1,Space,true,,,
html-keyboard-response,789,1680644,null,"COBRA",null,word,,,,, 'COBRA',,
html-keyboard-response,790,1681147,null,"CHICKEN<img id = ""stim"" ><div class = green_square id = ""topsquare"" ></div><img id = ""stim"" ><div class = green_square  id = ""bottomsquare"" ></div>",null,word_square,response,0,none,true,,,
html-keyboard-response,791,1682650,null,"CHICKEN",null,word,,,,, 'CHICKEN',,
html-keyboard-response,792,1683117,464.6749999956228,"BISON<img id = ""stim"" ><div class = green_square id = ""topsquare"" ></div><img id = ""stim"" ><div class = green_square  id = ""bottomsquare"" ></div>",32,word_square,response,0,none,false,,,
html-keyboard-response,793,1684620,null,"BISON",null,word,,,,, 'BISON',,
html-keyboard-response,794,1684945,322.2200000018347,"RUBY<img id = ""stim"" ><div class = red_square id = ""topsquare"" ></div><img id = ""stim"" ><div class = red_square  id = ""bottomsquare"" ></div>",32,word_square,response,1,Space,true,,,
html-keyboard-response,795,1686449,null,"RUBY",null,word,,,,, 'RUBY',,
html-keyboard-response,796,1686952,null,"GANGSTER<img id = ""stim"" ><div class = red_square id = ""topsquare"" ></div><img id = ""stim"" ><div class = red_square  id = ""bottomsquare"" ></div>",null,word_square,response,1,Space,false,,,
html-keyboard-response,797,1688456,null,"GANGSTER",null,word,,,,, 'GANGSTER',,
html-keyboard-response,798,1688959,null,"BUSH<img id = ""stim"" ><div class = green_square id = ""topsquare"" ></div><img id = ""stim"" ><div class = green_square  id = ""bottomsquare"" ></div>",null,word_square,response,0,none,true,,,
html-keyboard-response,799,1690462,null,"BUSH",null,word,,,,, 'BUSH',,
html-keyboard-response,800,1690967,null,"WRENCH<img id = ""stim"" ><div class = green_square id = ""topsquare"" ></div><img id = ""stim"" ><div class = green_square  id = ""bottomsquare"" ></div>",null,word_square,response,0,none,true,,,
html-keyboard-response,801,1692470,null,"WRENCH",null,word,,,,, 'WRENCH',,
html-keyboard-response,802,1692812,337.15499998652376,"LACE<img id = ""stim"" ><div class = red_square id = ""topsquare"" ></div><img id = ""stim"" ><div class = red_square  id = ""bottomsquare"" ></div>",32,word_square,response,1,Space,true,,,
html-keyboard-response,803,1694315,null,"LACE",null,word,,,,, 'LACE',,
html-keyboard-response,804,1694818,null,"PRIEST<img id = ""stim"" ><div class = green_square id = ""topsquare"" ></div><img id = ""stim"" ><div class = green_square  id = ""bottomsquare"" ></div>",null,word_square,response,0,none,true,,,
html-keyboard-response,805,1696322,null,"PRIEST",null,word,,,,, 'PRIEST',,
html-keyboard-response,806,1696731,405.3049999929499,"SAUCER<img id = ""stim"" ><div class = red_square id = ""topsquare"" ></div><img id = ""stim"" ><div class = red_square  id = ""bottomsquare"" ></div>",32,word_square,response,1,Space,true,,,
html-keyboard-response,807,1698235,null,"SAUCER",null,word,,,,, 'SAUCER',,
call-function,808,1698238,,"",,,,,,,,,
html-keyboard-response,809,1698341,null,"",null,,,,,,,,
math-period,810,1701951,6662.995000020601,"",,,,,,,,,2
html-keyboard-response,811,1702055,null,"",null,,,,,,,,
math-period,812,1704182,3867.339999997057,"",,,,,,,,,3
html-keyboard-response,813,1704285,null,"",null,,,,,,,,
math-period,814,1705446,1922.9150000028312,"",,,,,,,,,2
html-keyboard-response,815,1705550,null,"",null,,,,,,,,
math-period,816,1706554,1736.6650000039954,"",,,,,,,,,3
html-keyboard-response,817,1706658,null,"",null,,,,,,,,
math-period,818,1709357,12343.989999906626,"",,,,,,,,,4
html-keyboard-response,819,1709460,null,"",null,,,,,,,,
math-period,820,1711389,6268.245000013849,"",,,,,,,,,5
html-keyboard-response,821,1711492,null,"",null,,,,,,,,
math-period,822,1712883,2329.2249999649357,"",,,,,,,,,3
html-keyboard-response,823,1712986,null,"",null,,,,,,,,
math-period,824,1716218,6092.789999966044,"",,,,,,,,,3
html-keyboard-response,825,1716322,null,"",null,,,,,,,,
math-period,826,1718707,4338.624999974854,"",,,,,,,,,2
html-keyboard-response,827,1718811,null,"",null,,,,,,,,
math-period,828,1721142,7761.315000010654,"",,,,,,,,,6
html-keyboard-response,829,1721245,null,"",null,,,,,,,,
math-period,830,1722243,null,"",,,,,,,,,
html-keyboard-response,831,1723247,null,"Recall Period!",null,,,,,,,,
call-function,832,1723250,,"",,,,,,,,,
html-keyboard-response,833,1723353,null,"",null,,,,,,,,
recall-period,834,1726470,11909.94999994291,"",,,,,,,,,Horse
html-keyboard-response,835,1726574,null,"",null,,,,,,,,
recall-period,836,1727579,2859.3500000133645,"",,,,,,,,,Crab
html-keyboard-response,837,1727682,null,"",null,,,,,,,,
recall-period,838,1729266,6358.749999955762,"",,,,,,,,,Parsley
html-keyboard-response,839,1729369,null,"",null,,,,,,,,
recall-period,840,1772035,432666.93499984103,"",,,,,,,,,plaster
html-keyboard-response,841,1772139,null,"",null,,,,,,,,
recall-period,842,1774502,12197.620000049938,"",,,,,,,,,ceiling
html-keyboard-response,843,1774606,null,"",null,,,,,,,,
recall-period,844,1775229,1910.5950000230223,"",,,,,,,,,snake
html-keyboard-response,845,1775332,null,"",null,,,,,,,,
recall-period,846,1776190,2427.949999982957,"",,,,,,,,,cobra
html-keyboard-response,847,1776294,null,"",null,,,,,,,,
recall-period,848,1798254,null,"",,,,,,,,,
html-keyboard-response,849,1798758,null,"Time's Up!",null,,,,,,,,
html-keyboard-response,850,1801338,2575.875000009546,"<p> Good job! You responded correctly to 86% of the red squares.</p>
                  <p>Be sure to keep your accuracy above 80%</p>
                  <p>Press any key to continue the experiment. Thank you!</p>",32,,,,,,,,
html-keyboard-response,851,1805942,4601.490000000922,"<div style=""font-size:48px;"">Press any key to begin list 10 of 24 </div>",32,,,,,,,,
html-keyboard-response,852,1808445,null,"<div style=""font-size:60px;"">+</div>",null,,,,,,,,
html-keyboard-response,853,1808949,null,"JEEP<img id = ""stim"" ><div class = green_square id = ""topsquare"" ></div><img id = ""stim"" ><div class = green_square  id = ""bottomsquare"" ></div>",null,word_square,response,0,none,true,,,
html-keyboard-response,854,1810453,null,"JEEP",null,word,,,,, 'JEEP',,
html-keyboard-response,855,1810907,450.74999998905696,"DWARF<img id = ""stim"" ><div class = red_square id = ""topsquare"" ></div><img id = ""stim"" ><div class = red_square  id = ""bottomsquare"" ></div>",32,word_square,response,1,Space,true,,,
html-keyboard-response,856,1812410,null,"DWARF",null,word,,,,, 'DWARF',,
html-keyboard-response,857,1812914,null,"CLOTHES<img id = ""stim"" ><div class = red_square id = ""topsquare"" ></div><img id = ""stim"" ><div class = red_square  id = ""bottomsquare"" ></div>",null,word_square,response,1,Space,false,,,
html-keyboard-response,858,1814417,null,"CLOTHES",null,word,,,,, 'CLOTHES',,
html-keyboard-response,859,1814921,null,"BLOUSE<img id = ""stim"" ><div class = green_square id = ""topsquare"" ></div><img id = ""stim"" ><div class = green_square  id = ""bottomsquare"" ></div>",null,word_square,response,0,none,true,,,
html-keyboard-response,860,1816425,null,"BLOUSE",null,word,,,,, 'BLOUSE',,
html-keyboard-response,861,1816928,null,"MUMMY<img id = ""stim"" ><div class = red_square id = ""topsquare"" ></div><img id = ""stim"" ><div class = red_square  id = ""bottomsquare"" ></div>",null,word_square,response,1,Space,false,,,
html-keyboard-response,862,1818432,null,"MUMMY",null,word,,,,, 'MUMMY',,
html-keyboard-response,863,1818903,468.9850000140723,"CRYSTAL<img id = ""stim"" ><div class = red_square id = ""topsquare"" ></div><img id = ""stim"" ><div class = red_square  id = ""bottomsquare"" ></div>",32,word_square,response,1,Space,true,,,
html-keyboard-response,864,1820407,null,"CRYSTAL",null,word,,,,, 'CRYSTAL',,
html-keyboard-response,865,1820910,null,"KNUCKLE<img id = ""stim"" ><div class = green_square id = ""topsquare"" ></div><img id = ""stim"" ><div class = green_square  id = ""bottomsquare"" ></div>",null,word_square,response,0,none,true,,,
html-keyboard-response,866,1822414,null,"KNUCKLE",null,word,,,,, 'KNUCKLE',,
html-keyboard-response,867,1822920,null,"TOMBSTONE<img id = ""stim"" ><div class = green_square id = ""topsquare"" ></div><img id = ""stim"" ><div class = green_square  id = ""bottomsquare"" ></div>",null,word_square,response,0,none,true,,,
html-keyboard-response,868,1824423,null,"TOMBSTONE",null,word,,,,, 'TOMBSTONE',,
html-keyboard-response,869,1824736,309.49999997392297,"MARROW<img id = ""stim"" ><div class = red_square id = ""topsquare"" ></div><img id = ""stim"" ><div class = red_square  id = ""bottomsquare"" ></div>",32,word_square,response,1,Space,true,,,
html-keyboard-response,870,1826239,null,"MARROW",null,word,,,,, 'MARROW',,
html-keyboard-response,871,1826743,null,"SWATTER<img id = ""stim"" ><div class = green_square id = ""topsquare"" ></div><img id = ""stim"" ><div class = green_square  id = ""bottomsquare"" ></div>",null,word_square,response,0,none,true,,,
html-keyboard-response,872,1828246,null,"SWATTER",null,word,,,,, 'SWATTER',,
html-keyboard-response,873,1828750,null,"CANVAS<img id = ""stim"" ><div class = green_square id = ""topsquare"" ></div><img id = ""stim"" ><div class = green_square  id = ""bottomsquare"" ></div>",null,word_square,response,0,none,true,,,
html-keyboard-response,874,1830253,null,"CANVAS",null,word,,,,, 'CANVAS',,
html-keyboard-response,875,1830604,346.29499999573454,"SUITE<img id = ""stim"" ><div class = red_square id = ""topsquare"" ></div><img id = ""stim"" ><div class = red_square  id = ""bottomsquare"" ></div>",32,word_square,response,1,Space,true,,,
html-keyboard-response,876,1832107,null,"SUITE",null,word,,,,, 'SUITE',,
html-keyboard-response,877,1832427,316.26500000129454,"QUEEN<img id = ""stim"" ><div class = red_square id = ""topsquare"" ></div><img id = ""stim"" ><div class = red_square  id = ""bottomsquare"" ></div>",32,word_square,response,1,Space,true,,,
html-keyboard-response,878,1833930,null,"QUEEN",null,word,,,,, 'QUEEN',,
html-keyboard-response,879,1834434,null,"OMELET<img id = ""stim"" ><div class = green_square id = ""topsquare"" ></div><img id = ""stim"" ><div class = green_square  id = ""bottomsquare"" ></div>",null,word_square,response,0,none,true,,,
html-keyboard-response,880,1835938,null,"OMELET",null,word,,,,, 'OMELET',,
html-keyboard-response,881,1836441,null,"BACON<img id = ""stim"" ><div class = green_square id = ""topsquare"" ></div><img id = ""stim"" ><div class = green_square  id = ""bottomsquare"" ></div>",null,word_square,response,0,none,true,,,
html-keyboard-response,882,1837945,null,"BACON",null,word,,,,, 'BACON',,
html-keyboard-response,883,1838290,341.38500000699423,"SWIMMER<img id = ""stim"" ><div class = red_square id = ""topsquare"" ></div><img id = ""stim"" ><div class = red_square  id = ""bottomsquare"" ></div>",32,word_square,response,1,Space,true,,,
html-keyboard-response,884,1839794,null,"SWIMMER",null,word,,,,, 'SWIMMER',,
html-keyboard-response,885,1840298,null,"SWAMP<img id = ""stim"" ><div class = green_square id = ""topsquare"" ></div><img id = ""stim"" ><div class = green_square  id = ""bottomsquare"" ></div>",null,word_square,response,0,none,true,,,
html-keyboard-response,886,1841801,null,"SWAMP",null,word,,,,, 'SWAMP',,
html-keyboard-response,887,1842175,370.1699999801349,"BEAKER<img id = ""stim"" ><div class = red_square id = ""topsquare"" ></div><img id = ""stim"" ><div class = red_square  id = ""bottomsquare"" ></div>",32,word_square,response,1,Space,true,,,
html-keyboard-response,888,1843678,null,"BEAKER",null,word,,,,, 'BEAKER',,
call-function,889,1843683,,"",,,,,,,,,
html-keyboard-response,890,1843786,null,"",null,,,,,,,,
math-period,891,1846977,5926.5899999882095,"",,,,,,,,,2
html-keyboard-response,892,1847081,null,"",null,,,,,,,,
math-period,893,1849186,3867.3650000127964,"",,,,,,,,,2
html-keyboard-response,894,1849289,null,"",null,,,,,,,,
math-period,895,1850576,2102.3800000257324,"",,,,,,,,,3
html-keyboard-response,896,1850679,null,"",null,,,,,,,,
math-period,897,1851793,1857.9300000274088,"",,,,,,,,,4
html-keyboard-response,898,1851897,null,"",null,,,,,,,,
math-period,899,1853581,2691.0099999804515,"",,,,,,,,,5
html-keyboard-response,900,1853688,null,"",null,,,,,,,,
math-period,901,1855149,2500.7299999706447,"",,,,,,,,,1
html-keyboard-response,902,1855253,null,"",null,,,,,,,,
math-period,903,1856794,2742.949999985285,"",,,,,,,,,1
html-keyboard-response,904,1856898,null,"",null,,,,,,,,
math-period,905,1859782,5425.380000029691,"",,,,,,,,,3
html-keyboard-response,906,1859886,null,"",null,,,,,,,,
math-period,907,1860741,1450.124999973923,"",,,,,,,,,3
html-keyboard-response,908,1860845,null,"",null,,,,,,,,
math-period,909,1862305,2508.274999971036,"",,,,,,,,,2
html-keyboard-response,910,1862408,null,"",null,,,,,,,,
math-period,911,1864025,2791.365000011865,"",,,,,,,,,1
html-keyboard-response,912,1864129,null,"",null,,,,,,,,
