trial_type,trial_index,time_elapsed,rt,stimulus,key_press,test_part,task,targ_cond,correctKeyCode,correct,word,value,response
pavlovia,0,390,,"",,,,,,,,,
external-html,1,80913,80512.43500004057,"",,,,,,,,,
html-keyboard-response,2,82448,1526.259999955073,"Welcome to the experiment. Press any key to begin.",32,,,,,,,,
html-keyboard-response,3,86071,3620.809999993071,"<p>You will see a list of words and colored squares in the following task.<p><p>Press the spacebar whenever you see a GREEN square.<p><p>Do not press a key if the square is RED<p><p>Press the spacebar to continue.</p>",32,,,,,,,,
html-keyboard-response,4,87487,913.9800000702962,"<p>Please try to remember as many of the words as you can, and try to think about the meaning of each word as it appears.<p><p>After the detection and encoding task you will be asked to solve some math problems for 24 seconds.<p> Please solve as many problems as you can in the time given. <p>",32,,,,,,,,
html-keyboard-response,5,89911,1914.4199999282137,"After solving the math problems, you will be asked to type in as many words <p>from the previous list as you can remember for 75 seconds.<p> If you finish recalling before the 75 seconds are up,<p> just sit tight and try to think of any more words you could have missed. <p><p>We will begin with a brief practice session<p>Press the spacebar to begin the practice.</p>",32,,,,,,,,
html-keyboard-response,6,92422,null,"<div style=""font-size:60px;"">+</div>",null,,,,,,,,
html-keyboard-response,7,92927,null,"HAPPY<img id = ""stim"" ><div class = red_square id = ""topsquare"" ></div><img id = ""stim"" ><div class = red_square  id = ""bottomsquare"" ></div>",null,word_square,prac_response,0,none,true,,,
html-keyboard-response,8,94430,null,"HAPPY",null,word,,,,,HAPPY,,
html-keyboard-response,9,94933,422.84999997355044,"COLD<img id = ""stim"" ><div class = green_square id = ""topsquare"" ></div><img id = ""stim"" ><div class = green_square  id = ""bottomsquare"" ></div>",32,word_square,prac_response,1,Space,true,,,
html-keyboard-response,10,96434,null,"COLD",null,word,,,,,COLD,,
html-keyboard-response,11,96937,458.61500001046807,"HEAVY<img id = ""stim"" ><div class = green_square id = ""topsquare"" ></div><img id = ""stim"" ><div class = green_square  id = ""bottomsquare"" ></div>",32,word_square,prac_response,1,Space,true,,,
html-keyboard-response,12,98441,null,"HEAVY",null,word,,,,,HEAVY,,
html-keyboard-response,13,98943,null,"FUNNY<img id = ""stim"" ><div class = red_square id = ""topsquare"" ></div><img id = ""stim"" ><div class = red_square  id = ""bottomsquare"" ></div>",null,word_square,prac_response,0,none,true,,,
html-keyboard-response,14,100445,null,"FUNNY",null,word,,,,,FUNNY,,
html-keyboard-response,15,100947,null,"SCARY<img id = ""stim"" ><div class = green_square id = ""topsquare"" ></div><img id = ""stim"" ><div class = green_square  id = ""bottomsquare"" ></div>",null,word_square,prac_response,1,Space,false,,,
html-keyboard-response,16,102450,null,"SCARY",null,word,,,,,SCARY,,
html-keyboard-response,17,102954,null,"PEACEFUL<img id = ""stim"" ><div class = green_square id = ""topsquare"" ></div><img id = ""stim"" ><div class = green_square  id = ""bottomsquare"" ></div>",null,word_square,prac_response,1,Space,false,,,
html-keyboard-response,18,104463,null,"PEACEFUL",null,word,,,,,PEACEFUL,,
html-keyboard-response,19,104969,493.58000000938773,"LITTLE<img id = ""stim"" ><div class = red_square id = ""topsquare"" ></div><img id = ""stim"" ><div class = red_square  id = ""bottomsquare"" ></div>",32,word_square,prac_response,0,none,true,,,
html-keyboard-response,20,106471,null,"LITTLE",null,word,,,,,LITTLE,,
html-keyboard-response,21,106973,null,"TIRED<img id = ""stim"" ><div class = red_square id = ""topsquare"" ></div><img id = ""stim"" ><div class = red_square  id = ""bottomsquare"" ></div>",null,word_square,prac_response,0,none,true,,,
html-keyboard-response,22,108475,null,"TIRED",null,word,,,,,TIRED,,
html-keyboard-response,23,108977,null,"ENTERTAINING<img id = ""stim"" ><div class = red_square id = ""topsquare"" ></div><img id = ""stim"" ><div class = red_square  id = ""bottomsquare"" ></div>",null,word_square,prac_response,0,none,true,,,
html-keyboard-response,24,110479,null,"ENTERTAINING",null,word,,,,,ENTERTAINING,,
html-keyboard-response,25,110981,404.98999995179474,"GRATEFUL<img id = ""stim"" ><div class = green_square id = ""topsquare"" ></div><img id = ""stim"" ><div class = green_square  id = ""bottomsquare"" ></div>",32,word_square,prac_response,1,Space,true,,,
html-keyboard-response,26,112483,null,"GRATEFUL",null,word,,,,,GRATEFUL,,
html-keyboard-response,27,112985,null,"LOUD<img id = ""stim"" ><div class = red_square id = ""topsquare"" ></div><img id = ""stim"" ><div class = red_square  id = ""bottomsquare"" ></div>",null,word_square,prac_response,0,none,true,,,
html-keyboard-response,28,114486,null,"LOUD",null,word,,,,,LOUD,,
html-keyboard-response,29,114988,429.7650000080466,"SMART<img id = ""stim"" ><div class = green_square id = ""topsquare"" ></div><img id = ""stim"" ><div class = green_square  id = ""bottomsquare"" ></div>",32,word_square,prac_response,1,Space,true,,,
html-keyboard-response,30,116492,null,"SMART",null,word,,,,,SMART,,
html-keyboard-response,31,117003,448.1849999865517,"SMOOTH<img id = ""stim"" ><div class = green_square id = ""topsquare"" ></div><img id = ""stim"" ><div class = green_square  id = ""bottomsquare"" ></div>",32,word_square,prac_response,1,Space,true,,,
html-keyboard-response,32,118510,null,"SMOOTH",null,word,,,,,SMOOTH,,
html-keyboard-response,33,119019,null,"DISHONEST<img id = ""stim"" ><div class = red_square id = ""topsquare"" ></div><img id = ""stim"" ><div class = red_square  id = ""bottomsquare"" ></div>",null,word_square,prac_response,0,none,true,,,
html-keyboard-response,34,120530,null,"DISHONEST",null,word,,,,,DISHONEST,,
html-keyboard-response,35,121032,465.54500004276633,"WEALTHY<img id = ""stim"" ><div class = green_square id = ""topsquare"" ></div><img id = ""stim"" ><div class = green_square  id = ""bottomsquare"" ></div>",32,word_square,prac_response,1,Space,true,,,
html-keyboard-response,36,122534,null,"WEALTHY",null,word,,,,,WEALTHY,,
html-keyboard-response,37,123045,null,"BEAUTIFUL<img id = ""stim"" ><div class = red_square id = ""topsquare"" ></div><img id = ""stim"" ><div class = red_square  id = ""bottomsquare"" ></div>",null,word_square,prac_response,0,none,true,,,
html-keyboard-response,38,124547,null,"BEAUTIFUL",null,word,,,,,BEAUTIFUL,,
html-keyboard-response,39,125057,null,"DREARY<img id = ""stim"" ><div class = red_square id = ""topsquare"" ></div><img id = ""stim"" ><div class = red_square  id = ""bottomsquare"" ></div>",null,word_square,prac_response,0,none,true,,,
html-keyboard-response,40,126561,null,"DREARY",null,word,,,,,DREARY,,
html-keyboard-response,41,127064,379.480000003241,"PLAYFUL<img id = ""stim"" ><div class = green_square id = ""topsquare"" ></div><img id = ""stim"" ><div class = green_square  id = ""bottomsquare"" ></div>",32,word_square,prac_response,1,Space,true,,,
html-keyboard-response,42,128565,null,"PLAYFUL",null,word,,,,,PLAYFUL,,
html-keyboard-response,43,141465,12892.379999975674,"<p> Good job! You responded correctly to 89% of the GREEN squares.</p>
                  <p>Be sure to keep your accuracy above 80%</p>
                  <p>We're going to try once more to make sure you understand  the task. press any key to continue. </p>",32,,,,,,,,
html-keyboard-response,44,142385,918.7399999937043,"<p>You will see a list of words and colored squares in the following task.<p><p>Press the spacebar whenever you see a GREEN square.<p><p>Do not press a key if the square is RED<p><p>Press the spacebar to continue.</p>",32,,,,,,,,
html-keyboard-response,45,144892,null,"<div style=""font-size:60px;"">+</div>",null,,,,,,,,
html-keyboard-response,46,145400,null,"HAPPY<img id = ""stim"" ><div class = red_square id = ""topsquare"" ></div><img id = ""stim"" ><div class = red_square  id = ""bottomsquare"" ></div>",null,word_square,response,0,none,true,,,
html-keyboard-response,47,146902,null,"HAPPY",null,word,,,,,HAPPY,,
html-keyboard-response,48,147404,null,"COLD<img id = ""stim"" ><div class = green_square id = ""topsquare"" ></div><img id = ""stim"" ><div class = green_square  id = ""bottomsquare"" ></div>",null,word_square,response,1,Space,false,,,
html-keyboard-response,49,148907,null,"COLD",null,word,,,,,COLD,,
html-keyboard-response,50,149409,null,"HEAVY<img id = ""stim"" ><div class = green_square id = ""topsquare"" ></div><img id = ""stim"" ><div class = green_square  id = ""bottomsquare"" ></div>",null,word_square,response,1,Space,false,,,
html-keyboard-response,51,150919,null,"HEAVY",null,word,,,,,HEAVY,,
html-keyboard-response,52,151424,null,"FUNNY<img id = ""stim"" ><div class = red_square id = ""topsquare"" ></div><img id = ""stim"" ><div class = red_square  id = ""bottomsquare"" ></div>",null,word_square,response,0,none,true,,,
html-keyboard-response,53,152934,null,"FUNNY",null,word,,,,,FUNNY,,
html-keyboard-response,54,153329,393.09000002685934,"SCARY<img id = ""stim"" ><div class = green_square id = ""topsquare"" ></div><img id = ""stim"" ><div class = green_square  id = ""bottomsquare"" ></div>",32,word_square,response,1,Space,true,,,
html-keyboard-response,55,154831,null,"SCARY",null,word,,,,,SCARY,,
html-keyboard-response,56,155264,431.78500002250075,"PEACEFUL<img id = ""stim"" ><div class = green_square id = ""topsquare"" ></div><img id = ""stim"" ><div class = green_square  id = ""bottomsquare"" ></div>",32,word_square,response,1,Space,true,,,
html-keyboard-response,57,156771,null,"PEACEFUL",null,word,,,,,PEACEFUL,,
html-keyboard-response,58,157274,null,"LITTLE<img id = ""stim"" ><div class = red_square id = ""topsquare"" ></div><img id = ""stim"" ><div class = red_square  id = ""bottomsquare"" ></div>",null,word_square,response,0,none,true,,,
html-keyboard-response,59,158781,null,"LITTLE",null,word,,,,,LITTLE,,
html-keyboard-response,60,159284,null,"TIRED<img id = ""stim"" ><div class = red_square id = ""topsquare"" ></div><img id = ""stim"" ><div class = red_square  id = ""bottomsquare"" ></div>",null,word_square,response,0,none,true,,,
html-keyboard-response,61,160791,null,"TIRED",null,word,,,,,TIRED,,
html-keyboard-response,62,161293,null,"ENTERTAINING<img id = ""stim"" ><div class = red_square id = ""topsquare"" ></div><img id = ""stim"" ><div class = red_square  id = ""bottomsquare"" ></div>",null,word_square,response,0,none,true,,,
html-keyboard-response,63,162799,null,"ENTERTAINING",null,word,,,,,ENTERTAINING,,
html-keyboard-response,64,163200,399.0050000138581,"GRATEFUL<img id = ""stim"" ><div class = green_square id = ""topsquare"" ></div><img id = ""stim"" ><div class = green_square  id = ""bottomsquare"" ></div>",32,word_square,response,1,Space,true,,,
html-keyboard-response,65,164705,null,"GRATEFUL",null,word,,,,,GRATEFUL,,
html-keyboard-response,66,165208,null,"LOUD<img id = ""stim"" ><div class = red_square id = ""topsquare"" ></div><img id = ""stim"" ><div class = red_square  id = ""bottomsquare"" ></div>",null,word_square,response,0,none,true,,,
html-keyboard-response,67,166719,null,"LOUD",null,word,,,,,LOUD,,
html-keyboard-response,68,167160,439.89000003784895,"SMART<img id = ""stim"" ><div class = green_square id = ""topsquare"" ></div><img id = ""stim"" ><div class = green_square  id = ""bottomsquare"" ></div>",32,word_square,response,1,Space,true,,,
html-keyboard-response,69,168669,null,"SMART",null,word,,,,,SMART,,
html-keyboard-response,70,169159,488.95000002812594,"SMOOTH<img id = ""stim"" ><div class = green_square id = ""topsquare"" ></div><img id = ""stim"" ><div class = green_square  id = ""bottomsquare"" ></div>",32,word_square,response,1,Space,true,,,
html-keyboard-response,71,170664,null,"SMOOTH",null,word,,,,,SMOOTH,,
html-keyboard-response,72,171166,null,"DISHONEST<img id = ""stim"" ><div class = red_square id = ""topsquare"" ></div><img id = ""stim"" ><div class = red_square  id = ""bottomsquare"" ></div>",null,word_square,response,0,none,true,,,
html-keyboard-response,73,172669,null,"DISHONEST",null,word,,,,,DISHONEST,,
html-keyboard-response,74,173104,432.7849999535829,"WEALTHY<img id = ""stim"" ><div class = green_square id = ""topsquare"" ></div><img id = ""stim"" ><div class = green_square  id = ""bottomsquare"" ></div>",32,word_square,response,1,Space,true,,,
html-keyboard-response,75,174613,null,"WEALTHY",null,word,,,,,WEALTHY,,
html-keyboard-response,76,175115,null,"BEAUTIFUL<img id = ""stim"" ><div class = red_square id = ""topsquare"" ></div><img id = ""stim"" ><div class = red_square  id = ""bottomsquare"" ></div>",null,word_square,response,0,none,true,,,
html-keyboard-response,77,176619,null,"BEAUTIFUL",null,word,,,,,BEAUTIFUL,,
html-keyboard-response,78,177130,null,"DREARY<img id = ""stim"" ><div class = red_square id = ""topsquare"" ></div><img id = ""stim"" ><div class = red_square  id = ""bottomsquare"" ></div>",null,word_square,response,0,none,true,,,
html-keyboard-response,79,178633,null,"DREARY",null,word,,,,,DREARY,,
html-keyboard-response,80,179033,395.49500006251037,"PLAYFUL<img id = ""stim"" ><div class = green_square id = ""topsquare"" ></div><img id = ""stim"" ><div class = green_square  id = ""bottomsquare"" ></div>",32,word_square,response,1,Space,true,,,
html-keyboard-response,81,180534,null,"PLAYFUL",null,word,,,,,PLAYFUL,,
html-keyboard-response,82,194384,13847.79500006698,"<p> Good job! You responded correctly to 89% of the GREEN squares.</p>
                  <p>Be sure to keep your accuracy above 80%</p>
                  <p>Press any key to begin the math and recall sections. Thank you!</p>",32,,,,,,,,
call-function,83,194385,,"",,,,,,,,,
html-keyboard-response,84,194490,null,"",null,,,,,,,,
math-period,85,201207,43241.9299997855,"",,,,,,,,,4
html-keyboard-response,86,201314,null,"",null,,,,,,,,
math-period,87,203544,3981.630000169389,"",,,,,,,,,4
html-keyboard-response,88,203649,null,"",null,,,,,,,,
math-period,89,205817,3836.775000090711,"",,,,,,,,,4
html-keyboard-response,90,205925,null,"",null,,,,,,,,
math-period,91,208001,3491.2599999224767,"",,,,,,,,,4
html-keyboard-response,92,208103,null,"",null,,,,,,,,
math-period,93,209960,3399.1900000255555,"",,,,,,,,,5
html-keyboard-response,94,210063,null,"",null,,,,,,,,
math-period,95,211240,1808.1650000531226,"",,,,,,,,,5
html-keyboard-response,96,211352,null,"",null,,,,,,,,
math-period,97,213160,3293.0250000208616,"",,,,,,,,,5
html-keyboard-response,98,213266,null,"",null,,,,,,,,
math-period,99,214504,2128.4399998839945,"",,,,,,,,,5
html-keyboard-response,100,214609,null,"",null,,,,,,,,
math-period,101,217328,5106.774999992922,"",,,,,,,,,4
html-keyboard-response,102,217431,null,"",null,,,,,,,,
math-period,103,218392,null,"",,,,,,,,,
html-keyboard-response,104,219396,null,"Recall Period!",null,,,,,,,,
call-function,105,219397,,"",,,,,,,,,
html-keyboard-response,106,219499,null,"",null,,,,,,,,
recall-period,107,233504,79318.61999968532,"",,,,,,,,,happy
html-keyboard-response,108,233609,null,"",null,,,,,,,,
recall-period,109,235383,7415.959999896586,"",,,,,,,,,cold
html-keyboard-response,110,235486,null,"",null,,,,,,,,
recall-period,111,238135,12383.640000247397,"",,,,,,,,,heavy
html-keyboard-response,112,238242,null,"",null,,,,,,,,
recall-period,113,239743,7036.865000263788,"",,,,,,,,,funny
html-keyboard-response,114,239845,null,"",null,,,,,,,,
recall-period,115,241599,6696.610000333749,"",,,,,,,,,scary
html-keyboard-response,116,241709,null,"",null,,,,,,,,
recall-period,117,244151,13117.414999520406,"",,,,,,,,,peaceful
html-keyboard-response,118,244253,null,"",null,,,,,,,,
recall-period,119,246103,8362.75000020396,"",,,,,,,,,tired
html-keyboard-response,120,246209,null,"",null,,,,,,,,
recall-period,121,250983,41529.50500010047,"",,,,,,,,,entertaining
html-keyboard-response,122,251093,null,"",null,,,,,,,,
recall-period,123,252495,5449.23999987077,"",,,,,,,,,loud
html-keyboard-response,124,252598,null,"",null,,,,,,,,
recall-period,125,254079,5757.504999637604,"",,,,,,,,,smart
html-keyboard-response,126,254183,null,"",null,,,,,,,,
recall-period,127,261359,112947.47499981895,"",,,,,,,,,smooth
html-keyboard-response,128,261461,null,"",null,,,,,,,,
recall-period,129,266664,38207.880000118166,"",,,,,,,,,dreary
html-keyboard-response,130,266767,null,"",null,,,,,,,,
recall-period,131,294400,null,"",,,,,,,,,
html-keyboard-response,132,294902,null,"Time's Up!",null,,,,,,,,
html-keyboard-response,133,330976,36069.66499995906,"<p>We will now begin the experiment!<p><p>Please try to remember all words from each list.<p><p>Press the spacebar whenever you see a GREEN square.<p><p><p><p>Press the spacebar to begin.</p>",32,,,,,,,,
html-keyboard-response,134,334519,3035.4850000003353,"<div style=""font-size:48px;"">Press any key to begin list 1 of 24 </div>",32,,,,,,,,
html-keyboard-response,135,337034,null,"<div style=""font-size:60px;"">+</div>",null,,,,,,,,
html-keyboard-response,136,337546,null,"PUPPY<img id = ""stim"" ><div class = red_square id = ""topsquare"" ></div><img id = ""stim"" ><div class = red_square  id = ""bottomsquare"" ></div>",null,word_square,response,0,none,true,,,
html-keyboard-response,137,339055,null,"PUPPY",null,word,,,,, 'PUPPY',,
html-keyboard-response,138,339504,447.5999999558553,"GLASSES<img id = ""stim"" ><div class = green_square id = ""topsquare"" ></div><img id = ""stim"" ><div class = green_square  id = ""bottomsquare"" ></div>",32,word_square,response,1,Space,true,,,
html-keyboard-response,139,341014,null,"GLASSES",null,word,,,,, 'GLASSES',,
html-keyboard-response,140,341520,504.7499999636784,"CARPET<img id = ""stim"" ><div class = green_square id = ""topsquare"" ></div><img id = ""stim"" ><div class = green_square  id = ""bottomsquare"" ></div>",32,word_square,response,1,Space,true,,,
html-keyboard-response,141,343029,null,"CARPET",null,word,,,,, 'CARPET',,
html-keyboard-response,142,343536,null,"SENATE<img id = ""stim"" ><div class = green_square id = ""topsquare"" ></div><img id = ""stim"" ><div class = green_square  id = ""bottomsquare"" ></div>",null,word_square,response,1,Space,false,,,
html-keyboard-response,143,345045,null,"SENATE",null,word,,,,, 'SENATE',,
html-keyboard-response,144,345480,432.78999999165535,"SPIDER<img id = ""stim"" ><div class = green_square id = ""topsquare"" ></div><img id = ""stim"" ><div class = green_square  id = ""bottomsquare"" ></div>",32,word_square,response,1,Space,true,,,
html-keyboard-response,145,346982,null,"SPIDER",null,word,,,,, 'SPIDER',,
html-keyboard-response,146,347487,null,"COCOON<img id = ""stim"" ><div class = red_square id = ""topsquare"" ></div><img id = ""stim"" ><div class = red_square  id = ""bottomsquare"" ></div>",null,word_square,response,0,none,true,,,
html-keyboard-response,147,348989,null,"COCOON",null,word,,,,, 'COCOON',,
html-keyboard-response,148,349455,465.34500003326684,"YACHT<img id = ""stim"" ><div class = green_square id = ""topsquare"" ></div><img id = ""stim"" ><div class = green_square  id = ""bottomsquare"" ></div>",32,word_square,response,1,Space,true,,,
html-keyboard-response,149,350958,null,"YACHT",null,word,,,,, 'YACHT',,
html-keyboard-response,150,351465,null,"VIKING<img id = ""stim"" ><div class = red_square id = ""topsquare"" ></div><img id = ""stim"" ><div class = red_square  id = ""bottomsquare"" ></div>",null,word_square,response,0,none,true,,,
html-keyboard-response,151,352969,null,"VIKING",null,word,,,,, 'VIKING',,
html-keyboard-response,152,353479,null,"FRAGRANCE<img id = ""stim"" ><div class = red_square id = ""topsquare"" ></div><img id = ""stim"" ><div class = red_square  id = ""bottomsquare"" ></div>",null,word_square,response,0,none,true,,,
html-keyboard-response,153,354981,null,"FRAGRANCE",null,word,,,,, 'FRAGRANCE',,
html-keyboard-response,154,355399,417.03000001143664,"FARM<img id = ""stim"" ><div class = green_square id = ""topsquare"" ></div><img id = ""stim"" ><div class = green_square  id = ""bottomsquare"" ></div>",32,word_square,response,1,Space,true,,,
html-keyboard-response,155,356900,null,"FARM",null,word,,,,, 'FARM',,
html-keyboard-response,156,357405,null,"KETCHUP<img id = ""stim"" ><div class = red_square id = ""topsquare"" ></div><img id = ""stim"" ><div class = red_square  id = ""bottomsquare"" ></div>",null,word_square,response,0,none,true,,,
html-keyboard-response,157,358911,null,"KETCHUP",null,word,,,,, 'KETCHUP',,
html-keyboard-response,158,359295,382.7850000234321,"STRANGER<img id = ""stim"" ><div class = green_square id = ""topsquare"" ></div><img id = ""stim"" ><div class = green_square  id = ""bottomsquare"" ></div>",32,word_square,response,1,Space,true,,,
html-keyboard-response,159,360799,null,"STRANGER",null,word,,,,, 'STRANGER',,
html-keyboard-response,160,361303,null,"ONION<img id = ""stim"" ><div class = red_square id = ""topsquare"" ></div><img id = ""stim"" ><div class = red_square  id = ""bottomsquare"" ></div>",null,word_square,response,0,none,true,,,
html-keyboard-response,161,362805,null,"ONION",null,word,,,,, 'ONION',,
html-keyboard-response,162,363315,null,"TURKEY<img id = ""stim"" ><div class = red_square id = ""topsquare"" ></div><img id = ""stim"" ><div class = red_square  id = ""bottomsquare"" ></div>",null,word_square,response,0,none,true,,,
html-keyboard-response,163,364820,null,"TURKEY",null,word,,,,, 'TURKEY',,
html-keyboard-response,164,365271,449.4900000281632,"RELISH<img id = ""stim"" ><div class = green_square id = ""topsquare"" ></div><img id = ""stim"" ><div class = green_square  id = ""bottomsquare"" ></div>",32,word_square,response,1,Space,true,,,
html-keyboard-response,165,366779,null,"RELISH",null,word,,,,, 'RELISH',,
html-keyboard-response,166,367288,null,"FUNGUS<img id = ""stim"" ><div class = red_square id = ""topsquare"" ></div><img id = ""stim"" ><div class = red_square  id = ""bottomsquare"" ></div>",null,word_square,response,0,none,true,,,
html-keyboard-response,167,368790,null,"FUNGUS",null,word,,,,, 'FUNGUS',,
html-keyboard-response,168,369296,null,"PIGEON<img id = ""stim"" ><div class = red_square id = ""topsquare"" ></div><img id = ""stim"" ><div class = red_square  id = ""bottomsquare"" ></div>",null,word_square,response,0,none,true,,,
html-keyboard-response,169,370797,null,"PIGEON",null,word,,,,, 'PIGEON',,
html-keyboard-response,170,371223,424.5799999916926,"SCARECROW<img id = ""stim"" ><div class = green_square id = ""topsquare"" ></div><img id = ""stim"" ><div class = green_square  id = ""bottomsquare"" ></div>",32,word_square,response,1,Space,true,,,
html-keyboard-response,171,372732,null,"SCARECROW",null,word,,,,, 'SCARECROW',,
call-function,172,372733,,"",,,,,,,,,
html-keyboard-response,173,372839,null,"",null,,,,,,,,
math-period,174,378062,9962.315000011586,"",,,,,,,,,6
html-keyboard-response,175,378170,null,"",null,,,,,,,,
math-period,176,380758,4685.600000084378,"",,,,,,,,,2
html-keyboard-response,177,380860,null,"",null,,,,,,,,
math-period,178,382902,3664.784999913536,"",,,,,,,,,4
html-keyboard-response,179,383012,null,"",null,,,,,,,,
math-period,180,385318,4223.90500002075,"",,,,,,,,,4
html-keyboard-response,181,385422,null,"",null,,,,,,,,
math-period,182,386798,2324.8949999688193,"",,,,,,,,,4
html-keyboard-response,183,386902,null,"",null,,,,,,,,
math-period,184,391455,15400.490000261925,"",,,,,,,,,5
html-keyboard-response,185,391562,null,"",null,,,,,,,,
math-period,186,393112,2758.4449999267235,"",,,,,,,,,5
html-keyboard-response,187,393214,null,"",null,,,,,,,,
math-period,188,395470,4133.559999987483,"",,,,,,,,,4
html-keyboard-response,189,395572,null,"",null,,,,,,,,
math-period,190,396737,null,"",,,,,,,,,
html-keyboard-response,191,397740,null,"Recall Period!",null,,,,,,,,
call-function,192,397741,,"",,,,,,,,,
html-keyboard-response,193,397843,null,"",null,,,,,,,,
recall-period,194,412406,109217.54499943927,"",,,,,,,,,puppy
html-keyboard-response,195,412510,null,"",null,,,,,,,,
recall-period,196,414718,13023.094999720342,"",,,,,,,,,glasses
html-keyboard-response,197,414825,null,"",null,,,,,,,,
recall-period,198,416190,6010.865000309423,"",,,,,,,,,crpet
html-keyboard-response,199,416295,null,"",null,,,,,,,,
recall-period,200,418014,8220.214999746531,"",,,,,,,,,senate
html-keyboard-response,201,418118,null,"",null,,,,,,,,
recall-period,202,420110,13441.275000339374,"",,,,,,,,,spider
html-keyboard-response,203,420213,null,"",null,,,,,,,,
recall-period,204,421966,7343.265000265092,"",,,,,,,,,cocoon
html-keyboard-response,205,422070,null,"",null,,,,,,,,
recall-period,206,426693,49512.88999931421,"",,,,,,,,,yacht
html-keyboard-response,207,426795,null,"",null,,,,,,,,
recall-period,208,432190,85590.36500065122,"",,,,,,,,,fragrance
html-keyboard-response,209,432293,null,"",null,,,,,,,,
recall-period,210,434781,17308.875000104308,"",,,,,,,,,stranger
html-keyboard-response,211,434885,null,"",null,,,,,,,,
recall-period,212,436686,7943.104999721982,"",,,,,,,,,onion
html-keyboard-response,213,436788,null,"",null,,,,,,,,
recall-period,214,439285,11837.045000051148,"",,,,,,,,,turkey
html-keyboard-response,215,439389,null,"",null,,,,,,,,
recall-period,216,441533,12012.845000019297,"",,,,,,,,,fungus
html-keyboard-response,217,441636,null,"",null,,,,,,,,
recall-period,218,443517,9788.970000226982,"",,,,,,,,,pigeon
html-keyboard-response,219,443622,null,"",null,,,,,,,,
recall-period,220,446469,20976.604999275878,"",,,,,,,,,scarecrow
html-keyboard-response,221,446571,null,"",null,,,,,,,,
recall-period,222,470038,159253.56000009924,"",,,,,,,,,viking
html-keyboard-response,223,470148,null,"",null,,,,,,,,
recall-period,224,472743,null,"",,,,,,,,,
html-keyboard-response,225,473251,null,"Time's Up!",null,,,,,,,,
html-keyboard-response,226,477309,4055.769999977201,"<p> Good job! You responded correctly to 92% of the GREEN squares.</p>
                  <p>Be sure to keep your accuracy above 80%</p>
                  <p>Press any key to continue the experiment. Thank you!</p>",32,,,,,,,,
html-keyboard-response,227,479382,2071.6900000115857,"<div style=""font-size:48px;"">Press any key to begin list 2 of 24 </div>",32,,,,,,,,
html-keyboard-response,228,481894,null,"<div style=""font-size:60px;"">+</div>",null,,,,,,,,
html-keyboard-response,229,482398,null,"DUSTPAN<img id = ""stim"" ><div class = red_square id = ""topsquare"" ></div><img id = ""stim"" ><div class = red_square  id = ""bottomsquare"" ></div>",null,word_square,response,0,none,true,,,
html-keyboard-response,230,483899,null,"DUSTPAN",null,word,,,,, 'DUSTPAN',,
html-keyboard-response,231,484408,null,"CANAL<img id = ""stim"" ><div class = green_square id = ""topsquare"" ></div><img id = ""stim"" ><div class = green_square  id = ""bottomsquare"" ></div>",null,word_square,response,1,Space,false,,,
html-keyboard-response,232,485910,null,"CANAL",null,word,,,,, 'CANAL',,
html-keyboard-response,233,486405,493.3949999976903,"BROTHER<img id = ""stim"" ><div class = green_square id = ""topsquare"" ></div><img id = ""stim"" ><div class = green_square  id = ""bottomsquare"" ></div>",32,word_square,response,1,Space,true,,,
html-keyboard-response,234,487914,null,"BROTHER",null,word,,,,, 'BROTHER',,
html-keyboard-response,235,488317,402.0800000289455,"TOOTHPASTE<img id = ""stim"" ><div class = green_square id = ""topsquare"" ></div><img id = ""stim"" ><div class = green_square  id = ""bottomsquare"" ></div>",32,word_square,response,1,Space,true,,,
html-keyboard-response,236,489824,null,"TOOTHPASTE",null,word,,,,, 'TOOTHPASTE',,
html-keyboard-response,237,490278,451.9950000103563,"ICING<img id = ""stim"" ><div class = green_square id = ""topsquare"" ></div><img id = ""stim"" ><div class = green_square  id = ""bottomsquare"" ></div>",32,word_square,response,1,Space,true,,,
html-keyboard-response,238,491786,null,"ICING",null,word,,,,, 'ICING',,
html-keyboard-response,239,492288,null,"COCKTAIL<img id = ""stim"" ><div class = red_square id = ""topsquare"" ></div><img id = ""stim"" ><div class = red_square  id = ""bottomsquare"" ></div>",null,word_square,response,0,none,true,,,
html-keyboard-response,240,493799,null,"COCKTAIL",null,word,,,,, 'COCKTAIL',,
html-keyboard-response,241,494237,436.5549999056384,"FLASK<img id = ""stim"" ><div class = green_square id = ""topsquare"" ></div><img id = ""stim"" ><div class = green_square  id = ""bottomsquare"" ></div>",32,word_square,response,1,Space,true,,,
html-keyboard-response,242,495741,null,"FLASK",null,word,,,,, 'FLASK',,
html-keyboard-response,243,496248,null,"SUBURB<img id = ""stim"" ><div class = red_square id = ""topsquare"" ></div><img id = ""stim"" ><div class = red_square  id = ""bottomsquare"" ></div>",null,word_square,response,0,none,true,,,
html-keyboard-response,244,497753,null,"SUBURB",null,word,,,,, 'SUBURB',,
html-keyboard-response,245,498255,null,"SHAMPOO<img id = ""stim"" ><div class = red_square id = ""topsquare"" ></div><img id = ""stim"" ><div class = red_square  id = ""bottomsquare"" ></div>",null,word_square,response,0,none,true,,,
html-keyboard-response,246,499757,null,"SHAMPOO",null,word,,,,, 'SHAMPOO',,
html-keyboard-response,247,500205,446.2749999947846,"LAUNDRY<img id = ""stim"" ><div class = green_square id = ""topsquare"" ></div><img id = ""stim"" ><div class = green_square  id = ""bottomsquare"" ></div>",32,word_square,response,1,Space,true,,,
html-keyboard-response,248,501711,null,"LAUNDRY",null,word,,,,, 'LAUNDRY',,
html-keyboard-response,249,502215,null,"BASEBALL<img id = ""stim"" ><div class = red_square id = ""topsquare"" ></div><img id = ""stim"" ><div class = red_square  id = ""bottomsquare"" ></div>",null,word_square,response,0,none,true,,,
html-keyboard-response,250,503721,null,"BASEBALL",null,word,,,,, 'BASEBALL',,
html-keyboard-response,251,504189,466.4300000295043,"COLUMN<img id = ""stim"" ><div class = green_square id = ""topsquare"" ></div><img id = ""stim"" ><div class = green_square  id = ""bottomsquare"" ></div>",32,word_square,response,1,Space,true,,,
html-keyboard-response,252,505691,null,"COLUMN",null,word,,,,, 'COLUMN',,
html-keyboard-response,253,506202,null,"MONEY<img id = ""stim"" ><div class = red_square id = ""topsquare"" ></div><img id = ""stim"" ><div class = red_square  id = ""bottomsquare"" ></div>",null,word_square,response,0,none,true,,,
html-keyboard-response,254,507708,null,"MONEY",null,word,,,,, 'MONEY',,
html-keyboard-response,255,508215,null,"BRANCH<img id = ""stim"" ><div class = red_square id = ""topsquare"" ></div><img id = ""stim"" ><div class = red_square  id = ""bottomsquare"" ></div>",null,word_square,response,0,none,true,,,
html-keyboard-response,256,509717,null,"BRANCH",null,word,,,,, 'BRANCH',,
html-keyboard-response,257,510140,422.17000003438443,"JAR<img id = ""stim"" ><div class = green_square id = ""topsquare"" ></div><img id = ""stim"" ><div class = green_square  id = ""bottomsquare"" ></div>",32,word_square,response,1,Space,true,,,
html-keyboard-response,258,511643,null,"JAR",null,word,,,,, 'JAR',,
html-keyboard-response,259,512148,null,"PASTRY<img id = ""stim"" ><div class = red_square id = ""topsquare"" ></div><img id = ""stim"" ><div class = red_square  id = ""bottomsquare"" ></div>",null,word_square,response,0,none,true,,,
html-keyboard-response,260,513653,null,"PASTRY",null,word,,,,, 'PASTRY',,
html-keyboard-response,261,514156,null,"FIREMAN<img id = ""stim"" ><div class = red_square id = ""topsquare"" ></div><img id = ""stim"" ><div class = red_square  id = ""bottomsquare"" ></div>",null,word_square,response,0,none,true,,,
html-keyboard-response,262,515658,null,"FIREMAN",null,word,,,,, 'FIREMAN',,
html-keyboard-response,263,516093,433.9499999769032,"DUST<img id = ""stim"" ><div class = green_square id = ""topsquare"" ></div><img id = ""stim"" ><div class = green_square  id = ""bottomsquare"" ></div>",32,word_square,response,1,Space,true,,,
html-keyboard-response,264,517603,null,"DUST",null,word,,,,, 'DUST',,
call-function,265,517604,,"",,,,,,,,,
html-keyboard-response,266,517709,null,"",null,,,,,,,,
math-period,267,527117,18254.919999977574,"",,,,,,,,,4
html-keyboard-response,268,527226,null,"",null,,,,,,,,
math-period,269,528628,2473.854999989271,"",,,,,,,,,3
html-keyboard-response,270,528733,null,"",null,,,,,,,,
math-period,271,530077,2334.044999908656,"",,,,,,,,,3
html-keyboard-response,272,530182,null,"",null,,,,,,,,
math-period,273,531869,3050.2949999645352,"",,,,,,,,,4
html-keyboard-response,274,531973,null,"",null,,,,,,,,
math-period,275,533877,3395.14500007499,"",,,,,,,,,4
html-keyboard-response,276,533983,null,"",null,,,,,,,,
math-period,277,535413,2536.545000039041,"",,,,,,,,,3
html-keyboard-response,278,535516,null,"",null,,,,,,,,
math-period,279,537077,2831.0900001088157,"",,,,,,,,,5
html-keyboard-response,280,537183,null,"",null,,,,,,,,
math-period,281,538901,3112.7100000157952,"",,,,,,,,,4
html-keyboard-response,282,539003,null,"",null,,,,,,,,
math-period,283,540365,2447.4400001345202,"",,,,,,,,,5
html-keyboard-response,284,540469,null,"",null,,,,,,,,
math-period,285,541607,null,"",,,,,,,,,
html-keyboard-response,286,542613,null,"Recall Period!",null,,,,,,,,
call-function,287,542614,,"",,,,,,,,,
html-keyboard-response,288,542716,null,"",null,,,,,,,,
recall-period,289,549204,46305.25499966461,"",,,,,,,,,dustpan
html-keyboard-response,290,549307,null,"",null,,,,,,,,
recall-period,291,551716,12830.489999731071,"",,,,,,,,,canal
html-keyboard-response,292,551826,null,"",null,,,,,,,,
recall-period,293,552932,5864.014999708161,"",,,,,,,,,brother
html-keyboard-response,294,553035,null,"",null,,,,,,,,
recall-period,295,555205,15093.685000319965,"",,,,,,,,,toothpaste
html-keyboard-response,296,555316,null,"",null,,,,,,,,
recall-period,297,556644,6519.41499998793,"",,,,,,,,,icing
html-keyboard-response,298,556747,null,"",null,,,,,,,,
recall-period,299,557764,4591.059999540448,"",,,,,,,,,cocktail
html-keyboard-response,300,557875,null,"",null,,,,,,,,
recall-period,301,560396,8674.289999878965,"",,,,,,,,,flask
html-keyboard-response,302,560497,null,"",null,,,,,,,,
recall-period,303,562532,9357.810000190511,"",,,,,,,,,suburb
html-keyboard-response,304,562643,null,"",null,,,,,,,,
recall-period,305,564244,8772.965000127442,"",,,,,,,,,shampoo
html-keyboard-response,306,564347,null,"",null,,,,,,,,
recall-period,307,566091,10204.514999873936,"",,,,,,,,,laundry
html-keyboard-response,308,566196,null,"",null,,,,,,,,
recall-period,309,568468,16683.744999347255,"",,,,,,,,,baseball
html-keyboard-response,310,568573,null,"",null,,,,,,,,
recall-period,311,570748,10651.579999714158,"",,,,,,,,,column
html-keyboard-response,312,570849,null,"",null,,,,,,,,
recall-period,313,572550,8115.089999861084,"",,,,,,,,,money
html-keyboard-response,314,572652,null,"",null,,,,,,,,
recall-period,315,574030,6874.1800002753735,"",,,,,,,,,branch
html-keyboard-response,316,574135,null,"",null,,,,,,,,
recall-period,317,575702,5429.235000163317,"",,,,,,,,,jar
html-keyboard-response,318,575812,null,"",null,,,,,,,,
recall-period,319,580573,34338.9699999243,"",,,,,,,,,pastry
html-keyboard-response,320,580679,null,"",null,,,,,,,,
recall-period,321,588805,15535.85500002373,"",,,,,,,,,dust
html-keyboard-response,322,588908,null,"",null,,,,,,,,
recall-period,323,591486,16983.160000061616,"",,,,,,,,,fireman
html-keyboard-response,324,591589,null,"",null,,,,,,,,
recall-period,325,617616,null,"",,,,,,,,,
html-keyboard-response,326,618118,null,"Time's Up!",null,,,,,,,,
html-keyboard-response,327,620093,1972.5950000574812,"<p> Good job! You responded correctly to 93% of the GREEN squares.</p>
                  <p>Be sure to keep your accuracy above 80%</p>
                  <p>Press any key to continue the experiment. Thank you!</p>",32,,,,,,,,
html-keyboard-response,328,620636,541.7900000466034,"<div style=""font-size:48px;"">Press any key to begin list 3 of 24 </div>",32,,,,,,,,
html-keyboard-response,329,623140,null,"<div style=""font-size:60px;"">+</div>",null,,,,,,,,
html-keyboard-response,330,623649,null,"DESSERT<img id = ""stim"" ><div class = green_square id = ""topsquare"" ></div><img id = ""stim"" ><div class = green_square  id = ""bottomsquare"" ></div>",null,word_square,response,1,Space,false,,,
html-keyboard-response,331,625151,null,"DESSERT",null,word,,,,, 'DESSERT',,
html-keyboard-response,332,625653,null,"SPACE<img id = ""stim"" ><div class = red_square id = ""topsquare"" ></div><img id = ""stim"" ><div class = red_square  id = ""bottomsquare"" ></div>",null,word_square,response,0,none,true,,,
html-keyboard-response,333,627155,null,"SPACE",null,word,,,,, 'SPACE',,
html-keyboard-response,334,627658,null,"STAR<img id = ""stim"" ><div class = red_square id = ""topsquare"" ></div><img id = ""stim"" ><div class = red_square  id = ""bottomsquare"" ></div>",null,word_square,response,0,none,true,,,
html-keyboard-response,335,629161,null,"STAR",null,word,,,,, 'STAR',,
html-keyboard-response,336,629665,null,"KNUCKLE<img id = ""stim"" ><div class = red_square id = ""topsquare"" ></div><img id = ""stim"" ><div class = red_square  id = ""bottomsquare"" ></div>",null,word_square,response,0,none,true,,,
html-keyboard-response,337,631167,null,"KNUCKLE",null,word,,,,, 'KNUCKLE',,
html-keyboard-response,338,631669,null,"VICTOR<img id = ""stim"" ><div class = red_square id = ""topsquare"" ></div><img id = ""stim"" ><div class = red_square  id = ""bottomsquare"" ></div>",null,word_square,response,0,none,true,,,
html-keyboard-response,339,633181,null,"VICTOR",null,word,,,,, 'VICTOR',,
html-keyboard-response,340,633646,462.99999998882413,"ATOM<img id = ""stim"" ><div class = green_square id = ""topsquare"" ></div><img id = ""stim"" ><div class = green_square  id = ""bottomsquare"" ></div>",32,word_square,response,1,Space,true,,,
html-keyboard-response,341,635148,null,"ATOM",null,word,,,,, 'ATOM',,
html-keyboard-response,342,635650,null,"EMPIRE<img id = ""stim"" ><div class = red_square id = ""topsquare"" ></div><img id = ""stim"" ><div class = red_square  id = ""bottomsquare"" ></div>",null,word_square,response,0,none,true,,,
html-keyboard-response,343,637152,null,"EMPIRE",null,word,,,,, 'EMPIRE',,
html-keyboard-response,344,637637,483.1500001018867,"GARBAGE<img id = ""stim"" ><div class = green_square id = ""topsquare"" ></div><img id = ""stim"" ><div class = green_square  id = ""bottomsquare"" ></div>",32,word_square,response,1,Space,true,,,
html-keyboard-response,345,639139,null,"GARBAGE",null,word,,,,, 'GARBAGE',,
html-keyboard-response,346,639641,null,"HOUND<img id = ""stim"" ><div class = green_square id = ""topsquare"" ></div><img id = ""stim"" ><div class = green_square  id = ""bottomsquare"" ></div>",null,word_square,response,1,Space,false,,,
html-keyboard-response,347,641152,null,"HOUND",null,word,,,,, 'HOUND',,
html-keyboard-response,348,641657,null,"PROTON<img id = ""stim"" ><div class = red_square id = ""topsquare"" ></div><img id = ""stim"" ><div class = red_square  id = ""bottomsquare"" ></div>",null,word_square,response,0,none,true,,,
html-keyboard-response,349,643159,null,"PROTON",null,word,,,,, 'PROTON',,
html-keyboard-response,350,643661,null,"THRONE<img id = ""stim"" ><div class = green_square id = ""topsquare"" ></div><img id = ""stim"" ><div class = green_square  id = ""bottomsquare"" ></div>",null,word_square,response,1,Space,false,,,
html-keyboard-response,351,645171,null,"THRONE",null,word,,,,, 'THRONE',,
html-keyboard-response,352,645676,null,"CLAMP<img id = ""stim"" ><div class = red_square id = ""topsquare"" ></div><img id = ""stim"" ><div class = red_square  id = ""bottomsquare"" ></div>",null,word_square,response,0,none,true,,,
html-keyboard-response,353,647186,null,"CLAMP",null,word,,,,, 'CLAMP',,
html-keyboard-response,354,647621,432.8299999469891,"TRUMPET<img id = ""stim"" ><div class = green_square id = ""topsquare"" ></div><img id = ""stim"" ><div class = green_square  id = ""bottomsquare"" ></div>",32,word_square,response,1,Space,true,,,
html-keyboard-response,355,649132,null,"TRUMPET",null,word,,,,, 'TRUMPET',,
html-keyboard-response,356,649636,null,"SAILOR<img id = ""stim"" ><div class = green_square id = ""topsquare"" ></div><img id = ""stim"" ><div class = green_square  id = ""bottomsquare"" ></div>",null,word_square,response,1,Space,false,,,
html-keyboard-response,357,651141,null,"SAILOR",null,word,,,,, 'SAILOR',,
html-keyboard-response,358,651646,null,"HIKER<img id = ""stim"" ><div class = red_square id = ""topsquare"" ></div><img id = ""stim"" ><div class = red_square  id = ""bottomsquare"" ></div>",null,word_square,response,0,none,true,,,
html-keyboard-response,359,653156,null,"HIKER",null,word,,,,, 'HIKER',,
html-keyboard-response,360,653620,462.32499997131526,"BUGLE<img id = ""stim"" ><div class = green_square id = ""topsquare"" ></div><img id = ""stim"" ><div class = green_square  id = ""bottomsquare"" ></div>",32,word_square,response,1,Space,true,,,
html-keyboard-response,361,655122,null,"BUGLE",null,word,,,,, 'BUGLE',,
html-keyboard-response,362,655624,null,"SIDING<img id = ""stim"" ><div class = green_square id = ""topsquare"" ></div><img id = ""stim"" ><div class = green_square  id = ""bottomsquare"" ></div>",null,word_square,response,1,Space,false,,,
html-keyboard-response,363,657126,null,"SIDING",null,word,,,,, 'SIDING',,
html-keyboard-response,364,657628,null,"VILLAIN<img id = ""stim"" ><div class = red_square id = ""topsquare"" ></div><img id = ""stim"" ><div class = red_square  id = ""bottomsquare"" ></div>",null,word_square,response,0,none,true,,,
html-keyboard-response,365,659133,null,"VILLAIN",null,word,,,,, 'VILLAIN',,
call-function,366,659133,,"",,,,,,,,,
html-keyboard-response,367,659236,null,"",null,,,,,,,,
math-period,368,663348,7436.284999945201,"",,,,,,,,,4
html-keyboard-response,369,663453,null,"",null,,,,,,,,
math-period,370,664916,2514.5449998090044,"",,,,,,,,,2
html-keyboard-response,371,665018,null,"",null,,,,,,,,
math-period,372,666701,2986.2499999580905,"",,,,,,,,,4
html-keyboard-response,373,666803,null,"",null,,,,,,,,
math-period,374,668411,2846.879999851808,"",,,,,,,,,6
html-keyboard-response,375,668519,null,"",null,,,,,,,,
math-period,376,669955,2501.9749999046326,"",,,,,,,,,3
html-keyboard-response,377,670059,null,"",null,,,,,,,,
math-period,378,671699,2911.4100000588223,"",,,,,,,,,6
html-keyboard-response,379,671801,null,"",null,,,,,,,,
math-period,380,673996,4082.1900001028553,"",,,,,,,,,4
html-keyboard-response,381,674103,null,"",null,,,,,,,,
math-period,382,676468,4334.160000085831,"",,,,,,,,,3
html-keyboard-response,383,676579,null,"",null,,,,,,,,
math-period,384,679371,5221.314999973401,"",,,,,,,,,4
html-keyboard-response,385,679473,null,"",null,,,,,,,,
math-period,386,681979,4640.765000018291,"",,,,,,,,,6
html-keyboard-response,387,682086,null,"",null,,,,,,,,
math-period,388,683135,null,"",,,,,,,,,
html-keyboard-response,389,684142,null,"Recall Period!",null,,,,,,,,
call-function,390,684143,,"",,,,,,,,,
html-keyboard-response,391,684253,null,"",null,,,,,,,,
recall-period,392,691875,56026.86499978881,"",,,,,,,,,dessert
html-keyboard-response,393,691986,null,"",null,,,,,,,,
recall-period,394,694501,10338.97500007879,"",,,,,,,,,space
html-keyboard-response,395,694603,null,"",null,,,,,,,,
recall-period,396,696221,5106.429999694228,"",,,,,,,,,stare
html-keyboard-response,397,696328,null,"",null,,,,,,,,
recall-period,398,699277,15714.70500039868,"",,,,,,,,,knuckle
html-keyboard-response,399,699379,null,"",null,,,,,,,,
recall-period,400,701021,6282.2499996982515,"",,,,,,,,,atom
html-keyboard-response,401,701128,null,"",null,,,,,,,,
recall-period,402,704549,33132.49499932863,"",,,,,,,,,empire
html-keyboard-response,403,704655,null,"",null,,,,,,,,
recall-period,404,706981,14895.009999512695,"",,,,,,,,,garbage
html-keyboard-response,405,707083,null,"",null,,,,,,,,
recall-period,406,709269,11627.389999921434,"",,,,,,,,,proton
html-keyboard-response,407,709371,null,"",null,,,,,,,,
recall-period,408,711141,9744.449999998324,"",,,,,,,,,throne
html-keyboard-response,409,711244,null,"",null,,,,,,,,
recall-period,410,713085,8809.310000273399,"",,,,,,,,,clamp
html-keyboard-response,411,713187,null,"",null,,,,,,,,
recall-period,412,716052,16150.805000332184,"",,,,,,,,,trumpet
html-keyboard-response,413,716155,null,"",null,,,,,,,,
recall-period,414,719524,32229.589999536984,"",,,,,,,,,sailor
html-keyboard-response,415,719628,null,"",null,,,,,,,,
recall-period,416,721540,9206.324999802746,"",,,,,,,,,bugle
html-keyboard-response,417,721645,null,"",null,,,,,,,,
recall-period,418,723428,9967.274999944493,"",,,,,,,,,siding
html-keyboard-response,419,723530,null,"",null,,,,,,,,
recall-period,420,725700,13173.215000308119,"",,,,,,,,,villian
html-keyboard-response,421,725805,null,"",null,,,,,,,,
recall-period,422,740932,95787.36499976367,"",,,,,,,,,victor
html-keyboard-response,423,741037,null,"",null,,,,,,,,
recall-period,424,759149,null,"",,,,,,,,,
html-keyboard-response,425,759658,null,"Time's Up!",null,,,,,,,,
html-keyboard-response,426,763652,3992.005000007339,"<p> Good job! You responded correctly to 88% of the GREEN squares.</p>
                  <p>Be sure to keep your accuracy above 80%</p>
                  <p>Press any key to continue the experiment. Thank you!</p>",32,,,,,,,,
html-keyboard-response,427,764347,693.7799999723211,"<div style=""font-size:48px;"">Press any key to begin list 4 of 24 </div>",32,,,,,,,,
html-keyboard-response,428,766854,null,"<div style=""font-size:60px;"">+</div>",null,,,,,,,,
html-keyboard-response,429,767359,null,"JOURNAL<img id = ""stim"" ><div class = green_square id = ""topsquare"" ></div><img id = ""stim"" ><div class = green_square  id = ""bottomsquare"" ></div>",null,word_square,response,1,Space,false,,,
html-keyboard-response,430,768862,null,"JOURNAL",null,word,,,,, 'JOURNAL',,
html-keyboard-response,431,769364,null,"BANQUET<img id = ""stim"" ><div class = red_square id = ""topsquare"" ></div><img id = ""stim"" ><div class = red_square  id = ""bottomsquare"" ></div>",null,word_square,response,0,none,true,,,
html-keyboard-response,432,770874,null,"BANQUET",null,word,,,,, 'BANQUET',,
html-keyboard-response,433,771376,null,"GLACIER<img id = ""stim"" ><div class = red_square id = ""topsquare"" ></div><img id = ""stim"" ><div class = red_square  id = ""bottomsquare"" ></div>",null,word_square,response,0,none,true,,,
html-keyboard-response,434,772884,null,"GLACIER",null,word,,,,, 'GLACIER',,
html-keyboard-response,435,773389,null,"TABLET<img id = ""stim"" ><div class = red_square id = ""topsquare"" ></div><img id = ""stim"" ><div class = red_square  id = ""bottomsquare"" ></div>",null,word_square,response,0,none,true,,,
html-keyboard-response,436,774897,null,"TABLET",null,word,,,,, 'TABLET',,
html-keyboard-response,437,775398,null,"REPORT<img id = ""stim"" ><div class = red_square id = ""topsquare"" ></div><img id = ""stim"" ><div class = red_square  id = ""bottomsquare"" ></div>",null,word_square,response,0,none,true,,,
html-keyboard-response,438,776906,null,"REPORT",null,word,,,,, 'REPORT',,
html-keyboard-response,439,777387,479.5500000473112,"RESORT<img id = ""stim"" ><div class = green_square id = ""topsquare"" ></div><img id = ""stim"" ><div class = green_square  id = ""bottomsquare"" ></div>",32,word_square,response,1,Space,true,,,
html-keyboard-response,440,778894,null,"RESORT",null,word,,,,, 'RESORT',,
html-keyboard-response,441,779399,null,"STUMP<img id = ""stim"" ><div class = red_square id = ""topsquare"" ></div><img id = ""stim"" ><div class = red_square  id = ""bottomsquare"" ></div>",null,word_square,response,0,none,true,,,
html-keyboard-response,442,780904,null,"STUMP",null,word,,,,, 'STUMP',,
html-keyboard-response,443,781355,449.00999998208135,"PEPPER<img id = ""stim"" ><div class = green_square id = ""topsquare"" ></div><img id = ""stim"" ><div class = green_square  id = ""bottomsquare"" ></div>",32,word_square,response,1,Space,true,,,
html-keyboard-response,444,782864,null,"PEPPER",null,word,,,,, 'PEPPER',,
html-keyboard-response,445,783339,473.40000001713634,"CLOTHES<img id = ""stim"" ><div class = green_square id = ""topsquare"" ></div><img id = ""stim"" ><div class = green_square  id = ""bottomsquare"" ></div>",32,word_square,response,1,Space,true,,,
html-keyboard-response,446,784844,null,"CLOTHES",null,word,,,,, 'CLOTHES',,
html-keyboard-response,447,785349,null,"HAMPER<img id = ""stim"" ><div class = red_square id = ""topsquare"" ></div><img id = ""stim"" ><div class = red_square  id = ""bottomsquare"" ></div>",null,word_square,response,0,none,true,,,
html-keyboard-response,448,786855,null,"HAMPER",null,word,,,,, 'HAMPER',,
html-keyboard-response,449,787323,465.3650000691414,"STOVE<img id = ""stim"" ><div class = green_square id = ""topsquare"" ></div><img id = ""stim"" ><div class = green_square  id = ""bottomsquare"" ></div>",32,word_square,response,1,Space,true,,,
html-keyboard-response,450,788833,null,"STOVE",null,word,,,,, 'STOVE',,
html-keyboard-response,451,789338,null,"ARM<img id = ""stim"" ><div class = red_square id = ""topsquare"" ></div><img id = ""stim"" ><div class = red_square  id = ""bottomsquare"" ></div>",null,word_square,response,0,none,true,,,
html-keyboard-response,452,790847,null,"ARM",null,word,,,,, 'ARM',,
html-keyboard-response,453,791291,441.7899999534711,"FOSSIL<img id = ""stim"" ><div class = green_square id = ""topsquare"" ></div><img id = ""stim"" ><div class = green_square  id = ""bottomsquare"" ></div>",32,word_square,response,1,Space,true,,,
html-keyboard-response,454,792794,null,"FOSSIL",null,word,,,,, 'FOSSIL',,
html-keyboard-response,455,793298,null,"CRYSTAL<img id = ""stim"" ><div class = green_square id = ""topsquare"" ></div><img id = ""stim"" ><div class = green_square  id = ""bottomsquare"" ></div>",null,word_square,response,1,Space,false,,,
html-keyboard-response,456,794807,null,"CRYSTAL",null,word,,,,, 'CRYSTAL',,
html-keyboard-response,457,795309,null,"CRADLE<img id = ""stim"" ><div class = red_square id = ""topsquare"" ></div><img id = ""stim"" ><div class = red_square  id = ""bottomsquare"" ></div>",null,word_square,response,0,none,true,,,
html-keyboard-response,458,796815,null,"CRADLE",null,word,,,,, 'CRADLE',,
html-keyboard-response,459,797299,481.90999997314066,"WRIST<img id = ""stim"" ><div class = green_square id = ""topsquare"" ></div><img id = ""stim"" ><div class = green_square  id = ""bottomsquare"" ></div>",32,word_square,response,1,Space,true,,,
html-keyboard-response,460,798805,null,"WRIST",null,word,,,,, 'WRIST',,
html-keyboard-response,461,799307,null,"DRESSER<img id = ""stim"" ><div class = green_square id = ""topsquare"" ></div><img id = ""stim"" ><div class = green_square  id = ""bottomsquare"" ></div>",null,word_square,response,1,Space,false,,,
html-keyboard-response,462,800815,null,"DRESSER",null,word,,,,, 'DRESSER',,
html-keyboard-response,463,801318,null,"GYMNAST<img id = ""stim"" ><div class = red_square id = ""topsquare"" ></div><img id = ""stim"" ><div class = red_square  id = ""bottomsquare"" ></div>",null,word_square,response,0,none,true,,,
html-keyboard-response,464,802821,null,"GYMNAST",null,word,,,,, 'GYMNAST',,
call-function,465,802822,,"",,,,,,,,,
html-keyboard-response,466,802933,null,"",null,,,,,,,,
math-period,467,806090,5990.209999959916,"",,,,,,,,,6
html-keyboard-response,468,806192,null,"",null,,,,,,,,
math-period,469,808922,5006.775000016205,"",,,,,,,,,5
html-keyboard-response,470,809024,null,"",null,,,,,,,,
math-period,471,810762,3134.840000071563,"",,,,,,,,,4
html-keyboard-response,472,810864,null,"",null,,,,,,,,
math-period,473,812378,2672.635000082664,"",,,,,,,,,2
html-keyboard-response,474,812480,null,"",null,,,,,,,,
math-period,475,815315,5383.264999953099,"",,,,,,,,,5
html-keyboard-response,476,815424,null,"",null,,,,,,,,
math-period,477,817027,2899.18999990914,"",,,,,,,,,4
html-keyboard-response,478,817131,null,"",null,,,,,,,,
math-period,479,818923,3260.465000057593,"",,,,,,,,,3
html-keyboard-response,480,819026,null,"",null,,,,,,,,
math-period,481,820291,2205.8699999470264,"",,,,,,,,,3
html-keyboard-response,482,820393,null,"",null,,,,,,,,
math-period,483,822451,3344.054999994114,"",,,,,,,,,5
html-keyboard-response,484,822557,null,"",null,,,,,,,,
math-period,485,824419,3392.4450000049546,"",,,,,,,,,5
html-keyboard-response,486,824521,null,"",null,,,,,,,,
math-period,487,826829,null,"",,,,,,,,,
html-keyboard-response,488,827840,null,"Recall Period!",null,,,,,,,,
call-function,489,827841,,"",,,,,,,,,
html-keyboard-response,490,827950,null,"",null,,,,,,,,
recall-period,491,831827,19010.730000096373,"",,,,,,,,,journal
html-keyboard-response,492,831936,null,"",null,,,,,,,,
recall-period,493,835803,21252.84999993164,"",,,,,,,,,banquet
html-keyboard-response,494,835907,null,"",null,,,,,,,,
recall-period,495,838706,14390.860000043176,"",,,,,,,,,glacier
html-keyboard-response,496,838814,null,"",null,,,,,,,,
recall-period,497,840938,9851.065000053495,"",,,,,,,,,report
html-keyboard-response,498,841050,null,"",null,,,,,,,,
recall-period,499,843426,10624.094999860972,"",,,,,,,,,resort
html-keyboard-response,500,843529,null,"",null,,,,,,,,
recall-period,501,845314,7066.640000091866,"",,,,,,,,,stump
html-keyboard-response,502,845417,null,"",null,,,,,,,,
recall-period,503,847498,9398.014999809675,"",,,,,,,,,pepper
html-keyboard-response,504,847607,null,"",null,,,,,,,,
recall-period,505,849723,10574.245000258088,"",,,,,,,,,clothes
html-keyboard-response,506,849825,null,"",null,,,,,,,,
recall-period,507,852074,9589.33500025887,"",,,,,,,,,hamper
html-keyboard-response,508,852183,null,"",null,,,,,,,,
recall-period,509,854666,7452.694999985397,"",,,,,,,,,arm
html-keyboard-response,510,854773,null,"",null,,,,,,,,
recall-period,511,856833,9520.694999955595,"",,,,,,,,,fossil
html-keyboard-response,512,856936,null,"",null,,,,,,,,
recall-period,513,860666,20216.03999938816,"",,,,,,,,,crystal
html-keyboard-response,514,860768,null,"",null,,,,,,,,
recall-period,515,864714,22906.649999902584,"",,,,,,,,,wrist
html-keyboard-response,516,864816,null,"",null,,,,,,,,
recall-period,517,867298,9185.51999994088,"",,,,,,,,,dresser
html-keyboard-response,518,867406,null,"",null,,,,,,,,
recall-period,519,871017,21217.295000562444,"",,,,,,,,,gymnast
html-keyboard-response,520,871123,null,"",null,,,,,,,,
recall-period,521,902852,null,"",,,,,,,,,
html-keyboard-response,522,903359,null,"Time's Up!",null,,,,,,,,
html-keyboard-response,523,906683,3321.3950000936165,"<p> Good job! You responded correctly to 87% of the GREEN squares.</p>
                  <p>Be sure to keep your accuracy above 80%</p>
                  <p>Press any key to continue the experiment. Thank you!</p>",32,,,,,,,,
html-keyboard-response,524,908082,1397.954999934882,"<div style=""font-size:48px;"">Press any key to begin list 5 of 24 </div>",66,,,,,,,,
html-keyboard-response,525,910590,null,"<div style=""font-size:60px;"">+</div>",null,,,,,,,,
html-keyboard-response,526,911097,null,"STABLE<img id = ""stim"" ><div class = red_square id = ""topsquare"" ></div><img id = ""stim"" ><div class = red_square  id = ""bottomsquare"" ></div>",null,word_square,response,0,none,true,,,
html-keyboard-response,527,912602,null,"STABLE",null,word,,,,, 'STABLE',,
html-keyboard-response,528,913098,493.9649999141693,"COUCH<img id = ""stim"" ><div class = green_square id = ""topsquare"" ></div><img id = ""stim"" ><div class = green_square  id = ""bottomsquare"" ></div>",32,word_square,response,1,Space,true,,,
html-keyboard-response,529,914601,null,"COUCH",null,word,,,,, 'COUCH',,
html-keyboard-response,530,915107,null,"PICNIC<img id = ""stim"" ><div class = red_square id = ""topsquare"" ></div><img id = ""stim"" ><div class = red_square  id = ""bottomsquare"" ></div>",null,word_square,response,0,none,true,,,
html-keyboard-response,531,916609,null,"PICNIC",null,word,,,,, 'PICNIC',,
html-keyboard-response,532,917118,null,"CRAB<img id = ""stim"" ><div class = red_square id = ""topsquare"" ></div><img id = ""stim"" ><div class = red_square  id = ""bottomsquare"" ></div>",null,word_square,response,0,none,true,,,
html-keyboard-response,533,918620,null,"CRAB",null,word,,,,, 'CRAB',,
html-keyboard-response,534,919075,452.52499997150153,"INFANT<img id = ""stim"" ><div class = green_square id = ""topsquare"" ></div><img id = ""stim"" ><div class = green_square  id = ""bottomsquare"" ></div>",32,word_square,response,1,Space,true,,,
html-keyboard-response,535,920582,null,"INFANT",null,word,,,,, 'INFANT',,
html-keyboard-response,536,921092,null,"SKATE<img id = ""stim"" ><div class = red_square id = ""topsquare"" ></div><img id = ""stim"" ><div class = red_square  id = ""bottomsquare"" ></div>",null,word_square,response,0,none,true,,,
html-keyboard-response,537,922602,null,"SKATE",null,word,,,,, 'SKATE',,
html-keyboard-response,538,923018,413.8299999758601,"PARCEL<img id = ""stim"" ><div class = green_square id = ""topsquare"" ></div><img id = ""stim"" ><div class = green_square  id = ""bottomsquare"" ></div>",32,word_square,response,1,Space,true,,,
html-keyboard-response,539,924522,null,"PARCEL",null,word,,,,, 'PARCEL',,
html-keyboard-response,540,924970,445.80000010319054,"ZEBRA<img id = ""stim"" ><div class = green_square id = ""topsquare"" ></div><img id = ""stim"" ><div class = green_square  id = ""bottomsquare"" ></div>",32,word_square,response,1,Space,true,,,
html-keyboard-response,541,926472,null,"ZEBRA",null,word,,,,, 'ZEBRA',,
html-keyboard-response,542,926890,416.16000002250075,"PEOPLE<img id = ""stim"" ><div class = green_square id = ""topsquare"" ></div><img id = ""stim"" ><div class = green_square  id = ""bottomsquare"" ></div>",32,word_square,response,1,Space,true,,,
html-keyboard-response,543,928392,null,"PEOPLE",null,word,,,,, 'PEOPLE',,
html-keyboard-response,544,928874,480.40000000037253,"KLEENEX<img id = ""stim"" ><div class = green_square id = ""topsquare"" ></div><img id = ""stim"" ><div class = green_square  id = ""bottomsquare"" ></div>",32,word_square,response,1,Space,true,,,
html-keyboard-response,545,930382,null,"KLEENEX",null,word,,,,, 'KLEENEX',,
html-keyboard-response,546,930892,null,"PANTHER<img id = ""stim"" ><div class = red_square id = ""topsquare"" ></div><img id = ""stim"" ><div class = red_square  id = ""bottomsquare"" ></div>",null,word_square,response,0,none,true,,,
html-keyboard-response,547,932402,null,"PANTHER",null,word,,,,, 'PANTHER',,
html-keyboard-response,548,932909,null,"LEOPARD<img id = ""stim"" ><div class = red_square id = ""topsquare"" ></div><img id = ""stim"" ><div class = red_square  id = ""bottomsquare"" ></div>",null,word_square,response,0,none,true,,,
html-keyboard-response,549,934411,null,"LEOPARD",null,word,,,,, 'LEOPARD',,
html-keyboard-response,550,934842,429.7399999340996,"SHERIFF<img id = ""stim"" ><div class = green_square id = ""topsquare"" ></div><img id = ""stim"" ><div class = green_square  id = ""bottomsquare"" ></div>",32,word_square,response,1,Space,true,,,
html-keyboard-response,551,936353,null,"SHERIFF",null,word,,,,, 'SHERIFF',,
html-keyboard-response,552,936861,null,"CYCLONE<img id = ""stim"" ><div class = red_square id = ""topsquare"" ></div><img id = ""stim"" ><div class = red_square  id = ""bottomsquare"" ></div>",null,word_square,response,0,none,true,,,
html-keyboard-response,553,938363,null,"CYCLONE",null,word,,,,, 'CYCLONE',,
html-keyboard-response,554,938835,469.44000001531094,"CHILD<img id = ""stim"" ><div class = green_square id = ""topsquare"" ></div><img id = ""stim"" ><div class = green_square  id = ""bottomsquare"" ></div>",32,word_square,response,1,Space,true,,,
html-keyboard-response,555,940340,null,"CHILD",null,word,,,,, 'CHILD',,
html-keyboard-response,556,940843,null,"SEAGULL<img id = ""stim"" ><div class = red_square id = ""topsquare"" ></div><img id = ""stim"" ><div class = red_square  id = ""bottomsquare"" ></div>",null,word_square,response,0,none,true,,,
html-keyboard-response,557,942350,null,"SEAGULL",null,word,,,,, 'SEAGULL',,
html-keyboard-response,558,942860,null,"SAUCER<img id = ""stim"" ><div class = red_square id = ""topsquare"" ></div><img id = ""stim"" ><div class = red_square  id = ""bottomsquare"" ></div>",null,word_square,response,0,none,true,,,
html-keyboard-response,559,944363,null,"SAUCER",null,word,,,,, 'SAUCER',,
html-keyboard-response,560,944827,462.169999955222,"PRISON<img id = ""stim"" ><div class = green_square id = ""topsquare"" ></div><img id = ""stim"" ><div class = green_square  id = ""bottomsquare"" ></div>",32,word_square,response,1,Space,true,,,
html-keyboard-response,561,946331,null,"PRISON",null,word,,,,, 'PRISON',,
call-function,562,946332,,"",,,,,,,,,
html-keyboard-response,563,946435,null,"",null,,,,,,,,
math-period,564,949499,5764.255000045523,"",,,,,,,,,5
html-keyboard-response,565,949601,null,"",null,,,,,,,,
math-period,566,950859,2198.0700000422075,"",,,,,,,,,6
html-keyboard-response,567,950962,null,"",null,,,,,,,,
math-period,568,953066,3796.33499996271,"",,,,,,,,,5
html-keyboard-response,569,953167,null,"",null,,,,,,,,
math-period,570,954506,2305.754999979399,"",,,,,,,,,2
html-keyboard-response,571,954610,null,"",null,,,,,,,,
math-period,572,955842,2061.450000037439,"",,,,,,,,,2
html-keyboard-response,573,955953,null,"",null,,,,,,,,
math-period,574,957314,2367.139999871142,"",,,,,,,,,3
html-keyboard-response,575,957416,null,"",null,,,,,,,,
math-period,576,959666,4146.100000012666,"",,,,,,,,,5
html-keyboard-response,577,959770,null,"",null,,,,,,,,
math-period,578,962810,9007.444999995641,"",,,,,,,,,4
html-keyboard-response,579,962919,null,"",null,,,,,,,,
math-period,580,964842,3481.709999963641,"",,,,,,,,,4
html-keyboard-response,581,964953,null,"",null,,,,,,,,
math-period,582,966314,2333.7550001451746,"",,,,,,,,,2
html-keyboard-response,583,966418,null,"",null,,,,,,,,
math-period,584,969298,5444.385000155307,"",,,,,,,,,5
html-keyboard-response,585,969401,null,"",null,,,,,,,,
math-period,586,970339,null,"",,,,,,,,,
html-keyboard-response,587,971343,null,"Recall Period!",null,,,,,,,,
call-function,588,971344,,"",,,,,,,,,
html-keyboard-response,589,971450,null,"",null,,,,,,,,
recall-period,590,977898,38173.47000003792,"",,,,,,,,,stable
html-keyboard-response,591,978000,null,"",null,,,,,,,,
recall-period,592,980249,9956.175000057556,"",,,,,,,,,couch
html-keyboard-response,593,980351,null,"",null,,,,,,,,
recall-period,594,982801,11088.69999984745,"",,,,,,,,,picnic
html-keyboard-response,595,982910,null,"",null,,,,,,,,
recall-period,596,984673,5663.065000087954,"",,,,,,,,,crab
html-keyboard-response,597,984776,null,"",null,,,,,,,,
recall-period,598,988529,19531.61500033457,"",,,,,,,,,skate
html-keyboard-response,599,988637,null,"",null,,,,,,,,
recall-period,600,991881,14854.574999888428,"",,,,,,,,,zebra
html-keyboard-response,601,991983,null,"",null,,,,,,,,
recall-period,602,994729,13918.229999602772,"",,,,,,,,,people
html-keyboard-response,603,994837,null,"",null,,,,,,,,
recall-period,604,999267,26638.150000129826,"",,,,,,,,,panther
html-keyboard-response,605,999370,null,"",null,,,,,,,,
recall-period,606,1002042,13542.369999689981,"",,,,,,,,,leopard
html-keyboard-response,607,1002146,null,"",null,,,,,,,,
recall-period,608,1005667,13712.519999593496,"",,,,,,,,,cyclone
html-keyboard-response,609,1005769,null,"",null,,,,,,,,
recall-period,610,1008036,11126.260000397451,"",,,,,,,,,seagull
html-keyboard-response,611,1008146,null,"",null,,,,,,,,
recall-period,612,1010883,12961.50999958627,"",,,,,,,,,saucer
html-keyboard-response,613,1010986,null,"",null,,,,,,,,
recall-period,614,1013467,11045.435000327416,"",,,,,,,,,prison
html-keyboard-response,615,1013579,null,"",null,,,,,,,,
recall-period,616,1027194,81776.37000021059,"",,,,,,,,,infant
html-keyboard-response,617,1027297,null,"",null,,,,,,,,
recall-period,618,1033034,29455.175000126474,"",,,,,,,,,parcel
html-keyboard-response,619,1033137,null,"",null,,,,,,,,
recall-period,620,1046352,null,"",,,,,,,,,
html-keyboard-response,621,1046863,null,"Time's Up!",null,,,,,,,,
html-keyboard-response,622,1050794,3928.559999912977,"<p> Good job! You responded correctly to 89% of the GREEN squares.</p>
                  <p>Be sure to keep your accuracy above 80%</p>
                  <p>Press any key to continue the experiment. Thank you!</p>",32,,,,,,,,
html-keyboard-response,623,1051777,981.705000041984,"<div style=""font-size:48px;"">Press any key to begin list 6 of 24 </div>",32,,,,,,,,
html-keyboard-response,624,1054280,null,"<div style=""font-size:60px;"">+</div>",null,,,,,,,,
html-keyboard-response,625,1054783,null,"TIGER<img id = ""stim"" ><div class = red_square id = ""topsquare"" ></div><img id = ""stim"" ><div class = red_square  id = ""bottomsquare"" ></div>",null,word_square,response,0,none,true,,,
html-keyboard-response,626,1056286,null,"TIGER",null,word,,,,, 'TIGER',,
html-keyboard-response,627,1056787,null,"LILY<img id = ""stim"" ><div class = green_square id = ""topsquare"" ></div><img id = ""stim"" ><div class = green_square  id = ""bottomsquare"" ></div>",null,word_square,response,1,Space,false,,,
html-keyboard-response,628,1058299,null,"LILY",null,word,,,,, 'LILY',,
html-keyboard-response,629,1058807,null,"ADULT<img id = ""stim"" ><div class = red_square id = ""topsquare"" ></div><img id = ""stim"" ><div class = red_square  id = ""bottomsquare"" ></div>",null,word_square,response,0,none,true,,,
html-keyboard-response,630,1060308,null,"ADULT",null,word,,,,, 'ADULT',,
html-keyboard-response,631,1060810,null,"MARKET<img id = ""stim"" ><div class = red_square id = ""topsquare"" ></div><img id = ""stim"" ><div class = red_square  id = ""bottomsquare"" ></div>",null,word_square,response,0,none,true,,,
html-keyboard-response,632,1062320,null,"MARKET",null,word,,,,, 'MARKET',,
html-keyboard-response,633,1062739,417.21500002313405,"FINGER<img id = ""stim"" ><div class = green_square id = ""topsquare"" ></div><img id = ""stim"" ><div class = green_square  id = ""bottomsquare"" ></div>",32,word_square,response,1,Space,true,,,
html-keyboard-response,634,1064243,null,"FINGER",null,word,,,,, 'FINGER',,
html-keyboard-response,635,1064747,null,"BASEMENT<img id = ""stim"" ><div class = red_square id = ""topsquare"" ></div><img id = ""stim"" ><div class = red_square  id = ""bottomsquare"" ></div>",null,word_square,response,0,none,true,,,
html-keyboard-response,636,1066253,null,"BASEMENT",null,word,,,,, 'BASEMENT',,
html-keyboard-response,637,1066697,442.38500006031245,"IGLOO<img id = ""stim"" ><div class = green_square id = ""topsquare"" ></div><img id = ""stim"" ><div class = green_square  id = ""bottomsquare"" ></div>",32,word_square,response,1,Space,true,,,
html-keyboard-response,638,1068201,null,"IGLOO",null,word,,,,, 'IGLOO',,
html-keyboard-response,639,1068634,431.3100000144914,"LEMON<img id = ""stim"" ><div class = green_square id = ""topsquare"" ></div><img id = ""stim"" ><div class = green_square  id = ""bottomsquare"" ></div>",32,word_square,response,1,Space,true,,,
html-keyboard-response,640,1070142,null,"LEMON",null,word,,,,, 'LEMON',,
html-keyboard-response,641,1070577,433.3299999125302,"SLIDE<img id = ""stim"" ><div class = green_square id = ""topsquare"" ></div><img id = ""stim"" ><div class = green_square  id = ""bottomsquare"" ></div>",32,word_square,response,1,Space,true,,,
html-keyboard-response,642,1072085,null,"SLIDE",null,word,,,,, 'SLIDE',,
html-keyboard-response,643,1072497,411.03499999735504,"PARTY<img id = ""stim"" ><div class = green_square id = ""topsquare"" ></div><img id = ""stim"" ><div class = green_square  id = ""bottomsquare"" ></div>",32,word_square,response,1,Space,true,,,
html-keyboard-response,644,1074006,null,"PARTY",null,word,,,,, 'PARTY',,
html-keyboard-response,645,1074517,null,"BANJO<img id = ""stim"" ><div class = red_square id = ""topsquare"" ></div><img id = ""stim"" ><div class = red_square  id = ""bottomsquare"" ></div>",null,word_square,response,0,none,true,,,
html-keyboard-response,646,1076020,null,"BANJO",null,word,,,,, 'BANJO',,
html-keyboard-response,647,1076522,null,"RECORD<img id = ""stim"" ><div class = red_square id = ""topsquare"" ></div><img id = ""stim"" ><div class = red_square  id = ""bottomsquare"" ></div>",null,word_square,response,0,none,true,,,
html-keyboard-response,648,1078032,null,"RECORD",null,word,,,,, 'RECORD',,
html-keyboard-response,649,1078489,455.56499995291233,"SWATTER<img id = ""stim"" ><div class = green_square id = ""topsquare"" ></div><img id = ""stim"" ><div class = green_square  id = ""bottomsquare"" ></div>",32,word_square,response,1,Space,true,,,
html-keyboard-response,650,1079996,null,"SWATTER",null,word,,,,, 'SWATTER',,
html-keyboard-response,651,1080506,null,"APPLE<img id = ""stim"" ><div class = red_square id = ""topsquare"" ></div><img id = ""stim"" ><div class = red_square  id = ""bottomsquare"" ></div>",null,word_square,response,0,none,true,,,
html-keyboard-response,652,1082009,null,"APPLE",null,word,,,,, 'APPLE',,
html-keyboard-response,653,1082481,470.19500005990267,"XEROX<img id = ""stim"" ><div class = green_square id = ""topsquare"" ></div><img id = ""stim"" ><div class = green_square  id = ""bottomsquare"" ></div>",32,word_square,response,1,Space,true,,,
html-keyboard-response,654,1083986,null,"XEROX",null,word,,,,, 'XEROX',,
html-keyboard-response,655,1084498,null,"CLOUD<img id = ""stim"" ><div class = red_square id = ""topsquare"" ></div><img id = ""stim"" ><div class = red_square  id = ""bottomsquare"" ></div>",null,word_square,response,0,none,true,,,
html-keyboard-response,656,1086000,null,"CLOUD",null,word,,,,, 'CLOUD',,
html-keyboard-response,657,1086503,null,"TOOTHBRUSH<img id = ""stim"" ><div class = red_square id = ""topsquare"" ></div><img id = ""stim"" ><div class = red_square  id = ""bottomsquare"" ></div>",null,word_square,response,0,none,true,,,
html-keyboard-response,658,1088006,null,"TOOTHBRUSH",null,word,,,,, 'TOOTHBRUSH',,
html-keyboard-response,659,1088481,473.20000000763685,"CIRCUS<img id = ""stim"" ><div class = green_square id = ""topsquare"" ></div><img id = ""stim"" ><div class = green_square  id = ""bottomsquare"" ></div>",32,word_square,response,1,Space,true,,,
html-keyboard-response,660,1089987,null,"CIRCUS",null,word,,,,, 'CIRCUS',,
call-function,661,1089988,,"",,,,,,,,,
html-keyboard-response,662,1090097,null,"",null,,,,,,,,
math-period,663,1098232,12044.294999912381,"",,,,,,,,,5
html-keyboard-response,664,1098337,null,"",null,,,,,,,,
math-period,665,1099569,2146.68000000529,"",,,,,,,,,5
html-keyboard-response,666,1099672,null,"",null,,,,,,,,
math-period,667,1100873,2077.525000087917,"",,,,,,,,,3
html-keyboard-response,668,1100977,null,"",null,,,,,,,,
math-period,669,1102593,2852.485000039451,"",,,,,,,,,4
html-keyboard-response,670,1102697,null,"",null,,,,,,,,
math-period,671,1104488,4082.425000029616,"",,,,,,,,,4\
html-keyboard-response,672,1104597,null,"",null,,,,,,,,
math-period,673,1106025,2548.8000001059845,"",,,,,,,,,6
html-keyboard-response,674,1106127,null,"",null,,,,,,,,
math-period,675,1108313,4015.360000077635,"",,,,,,,,,4
html-keyboard-response,676,1108420,null,"",null,,,,,,,,
math-period,677,1109912,2636.9149999227375,"",,,,,,,,,6
html-keyboard-response,678,1110015,null,"",null,,,,,,,,
math-period,679,1113997,null,"",,,,,,,,,
html-keyboard-response,680,1115007,null,"Recall Period!",null,,,,,,,,
call-function,681,1115007,,"",,,,,,,,,
html-keyboard-response,682,1115113,null,"",null,,,,,,,,
recall-period,683,1118906,14100.670000188984,"",,,,,,,,,tiger
html-keyboard-response,684,1119009,null,"",null,,,,,,,,
recall-period,685,1125066,27022.275000228547,"",,,,,,,,,lily
html-keyboard-response,686,1125174,null,"",null,,,,,,,,
recall-period,687,1127698,10764.245000202209,"",,,,,,,,,adult
html-keyboard-response,688,1127802,null,"",null,,,,,,,,
recall-period,689,1130938,15771.604999899864,"",,,,,,,,,market
html-keyboard-response,690,1131041,null,"",null,,,,,,,,
recall-period,691,1134401,19636.549999937415,"",,,,,,,,,basement
html-keyboard-response,692,1134508,null,"",null,,,,,,,,
recall-period,693,1136522,8461.17000002414,"",,,,,,,,,igloo
html-keyboard-response,694,1136624,null,"",null,,,,,,,,
recall-period,695,1139114,11133.70000012219,"",,,,,,,,,lemon
html-keyboard-response,696,1139217,null,"",null,,,,,,,,
recall-period,697,1141386,7320.100000360981,"",,,,,,,,,slide
html-keyboard-response,698,1141488,null,"",null,,,,,,,,
recall-period,699,1143473,8198.529999936,"",,,,,,,,,banjo
html-keyboard-response,700,1143577,null,"",null,,,,,,,,
recall-period,701,1146241,13435.084999655373,"",,,,,,,,,record
html-keyboard-response,702,1146351,null,"",null,,,,,,,,
recall-period,703,1148378,10057.900000480004,"",,,,,,,,,swatter
html-keyboard-response,704,1148481,null,"",null,,,,,,,,
recall-period,705,1152641,22642.160000512376,"",,,,,,,,,xerox
html-keyboard-response,706,1152748,null,"",null,,,,,,,,
recall-period,707,1158937,51460.37500014063,"",,,,,,,,,toothbrush
html-keyboard-response,708,1159040,null,"",null,,,,,,,,
recall-period,709,1172529,88995.1799995033,"",,,,,,,,,finger
html-keyboard-response,710,1172631,null,"",null,,,,,,,,
recall-period,711,1180468,42797.339999931864,"",,,,,,,,,party
html-keyboard-response,712,1180570,null,"",null,,,,,,,,
recall-period,713,1190008,null,"",,,,,,,,,
html-keyboard-response,714,1190511,null,"Time's Up!",null,,,,,,,,
html-keyboard-response,715,1192933,2419.125000014901,"<p> Good job! You responded correctly to 90% of the GREEN squares.</p>
                  <p>Be sure to keep your accuracy above 80%</p>
                  <p>Press any key to continue the experiment. Thank you!</p>",32,,,,,,,,
html-keyboard-response,716,1193716,781.3399999868125,"<div style=""font-size:48px;"">Press any key to begin list 7 of 24 </div>",32,,,,,,,,
html-keyboard-response,717,1196219,null,"<div style=""font-size:60px;"">+</div>",null,,,,,,,,
html-keyboard-response,718,1196691,469.9900000123307,"MAGNET<img id = ""stim"" ><div class = green_square id = ""topsquare"" ></div><img id = ""stim"" ><div class = green_square  id = ""bottomsquare"" ></div>",32,word_square,response,1,Space,true,,,
html-keyboard-response,719,1198193,null,"MAGNET",null,word,,,,, 'MAGNET',,
html-keyboard-response,720,1198695,null,"MESSAGE<img id = ""stim"" ><div class = red_square id = ""topsquare"" ></div><img id = ""stim"" ><div class = red_square  id = ""bottomsquare"" ></div>",null,word_square,response,0,none,true,,,
html-keyboard-response,721,1200197,null,"MESSAGE",null,word,,,,, 'MESSAGE',,
html-keyboard-response,722,1200692,493.0500000482425,"PORTRAIT<img id = ""stim"" ><div class = green_square id = ""topsquare"" ></div><img id = ""stim"" ><div class = green_square  id = ""bottomsquare"" ></div>",32,word_square,response,1,Space,true,,,
html-keyboard-response,723,1202193,null,"PORTRAIT",null,word,,,,, 'PORTRAIT',,
html-keyboard-response,724,1202659,464.9650000501424,"ATTIC<img id = ""stim"" ><div class = green_square id = ""topsquare"" ></div><img id = ""stim"" ><div class = green_square  id = ""bottomsquare"" ></div>",32,word_square,response,1,Space,true,,,
html-keyboard-response,725,1204170,null,"ATTIC",null,word,,,,, 'ATTIC',,
html-keyboard-response,726,1204672,null,"GRAPE<img id = ""stim"" ><div class = red_square id = ""topsquare"" ></div><img id = ""stim"" ><div class = red_square  id = ""bottomsquare"" ></div>",null,word_square,response,0,none,true,,,
html-keyboard-response,727,1206174,null,"GRAPE",null,word,,,,, 'GRAPE',,
html-keyboard-response,728,1206579,403.2000000588596,"RACKET<img id = ""stim"" ><div class = green_square id = ""topsquare"" ></div><img id = ""stim"" ><div class = green_square  id = ""bottomsquare"" ></div>",32,word_square,response,1,Space,true,,,
html-keyboard-response,729,1208081,null,"RACKET",null,word,,,,, 'RACKET',,
html-keyboard-response,730,1208584,null,"JOKER<img id = ""stim"" ><div class = red_square id = ""topsquare"" ></div><img id = ""stim"" ><div class = red_square  id = ""bottomsquare"" ></div>",null,word_square,response,0,none,true,,,
html-keyboard-response,731,1210095,null,"JOKER",null,word,,,,, 'JOKER',,
html-keyboard-response,732,1210605,null,"PLAYGROUND<img id = ""stim"" ><div class = red_square id = ""topsquare"" ></div><img id = ""stim"" ><div class = red_square  id = ""bottomsquare"" ></div>",null,word_square,response,0,none,true,,,
html-keyboard-response,733,1212107,null,"PLAYGROUND",null,word,,,,, 'PLAYGROUND',,
html-keyboard-response,734,1212609,null,"BABY<img id = ""stim"" ><div class = red_square id = ""topsquare"" ></div><img id = ""stim"" ><div class = red_square  id = ""bottomsquare"" ></div>",null,word_square,response,0,none,true,,,
html-keyboard-response,735,1214111,null,"BABY",null,word,,,,, 'BABY',,
html-keyboard-response,736,1214613,null,"HORNET<img id = ""stim"" ><div class = red_square id = ""topsquare"" ></div><img id = ""stim"" ><div class = red_square  id = ""bottomsquare"" ></div>",null,word_square,response,0,none,true,,,
html-keyboard-response,737,1216120,null,"HORNET",null,word,,,,, 'HORNET',,
html-keyboard-response,738,1216579,456.9949998985976,"NEPHEW<img id = ""stim"" ><div class = green_square id = ""topsquare"" ></div><img id = ""stim"" ><div class = green_square  id = ""bottomsquare"" ></div>",32,word_square,response,1,Space,true,,,
html-keyboard-response,739,1218083,null,"NEPHEW",null,word,,,,, 'NEPHEW',,
html-keyboard-response,740,1218507,422.38000000361353,"SCAPEGOAT<img id = ""stim"" ><div class = green_square id = ""topsquare"" ></div><img id = ""stim"" ><div class = green_square  id = ""bottomsquare"" ></div>",32,word_square,response,1,Space,true,,,
html-keyboard-response,741,1220009,null,"SCAPEGOAT",null,word,,,,, 'SCAPEGOAT',,
html-keyboard-response,742,1220511,null,"WASP<img id = ""stim"" ><div class = red_square id = ""topsquare"" ></div><img id = ""stim"" ><div class = red_square  id = ""bottomsquare"" ></div>",null,word_square,response,0,none,true,,,
html-keyboard-response,743,1222013,null,"WASP",null,word,,,,, 'WASP',,
html-keyboard-response,744,1222443,427.9350000433624,"LACE<img id = ""stim"" ><div class = green_square id = ""topsquare"" ></div><img id = ""stim"" ><div class = green_square  id = ""bottomsquare"" ></div>",32,word_square,response,1,Space,true,,,
html-keyboard-response,745,1223945,null,"LACE",null,word,,,,, 'LACE',,
html-keyboard-response,746,1224454,null,"SILK<img id = ""stim"" ><div class = red_square id = ""topsquare"" ></div><img id = ""stim"" ><div class = red_square  id = ""bottomsquare"" ></div>",null,word_square,response,0,none,true,,,
html-keyboard-response,747,1225958,null,"SILK",null,word,,,,, 'SILK',,
html-keyboard-response,748,1226403,442.7900000009686,"DAUGHTER<img id = ""stim"" ><div class = green_square id = ""topsquare"" ></div><img id = ""stim"" ><div class = green_square  id = ""bottomsquare"" ></div>",32,word_square,response,1,Space,true,,,
html-keyboard-response,749,1227905,null,"DAUGHTER",null,word,,,,, 'DAUGHTER',,
html-keyboard-response,750,1228411,null,"THREAD<img id = ""stim"" ><div class = green_square id = ""topsquare"" ></div><img id = ""stim"" ><div class = green_square  id = ""bottomsquare"" ></div>",null,word_square,response,1,Space,false,,,
html-keyboard-response,751,1229915,null,"THREAD",null,word,,,,, 'THREAD',,
html-keyboard-response,752,1230418,null,"YARN<img id = ""stim"" ><div class = red_square id = ""topsquare"" ></div><img id = ""stim"" ><div class = red_square  id = ""bottomsquare"" ></div>",null,word_square,response,0,none,true,,,
html-keyboard-response,753,1231920,null,"YARN",null,word,,,,, 'YARN',,
call-function,754,1231921,,"",,,,,,,,,
html-keyboard-response,755,1232030,null,"",null,,,,,,,,
math-period,756,1235603,6821.074999985285,"",,,,,,,,,5
html-keyboard-response,757,1235705,null,"",null,,,,,,,,
math-period,758,1236899,2086.8449999252334,"",,,,,,,,,3
html-keyboard-response,759,1237008,null,"",null,,,,,,,,
math-period,760,1238458,2615.6499998178333,"",,,,,,,,,5
html-keyboard-response,761,1238561,null,"",null,,,,,,,,
math-period,762,1240168,2918.675000080839,"",,,,,,,,,4
html-keyboard-response,763,1240271,null,"",null,,,,,,,,
math-period,764,1241512,2150.455000111833,"",,,,,,,,,4
html-keyboard-response,765,1241617,null,"",null,,,,,,,,
math-period,766,1243008,2482.6399999437854,"",,,,,,,,,4
html-keyboard-response,767,1243111,null,"",null,,,,,,,,
math-period,768,1244520,2494.9499999638647,"",,,,,,,,,3
html-keyboard-response,769,1244624,null,"",null,,,,,,,,
math-period,770,1246176,2708.459999994375,"",,,,,,,,,3
html-keyboard-response,771,1246284,null,"",null,,,,,,,,
math-period,772,1247936,3013.2299999240786,"",,,,,,,,,5
html-keyboard-response,773,1248041,null,"",null,,,,,,,,
math-period,774,1249784,3065.9799998393282,"",,,,,,,,,4
html-keyboard-response,775,1249893,null,"",null,,,,,,,,
math-period,776,1251432,2785.8899999409914,"",,,,,,,,,4
html-keyboard-response,777,1251534,null,"",null,,,,,,,,
math-period,778,1252911,2439.810000010766,"",,,,,,,,,4
html-keyboard-response,779,1253014,null,"",null,,,,,,,,
math-period,780,1254528,2751.8850000342354,"",,,,,,,,,5
html-keyboard-response,781,1254633,null,"",null,,,,,,,,
math-period,782,1255922,1268.9850000897422,"",,,,,,,,,4
html-keyboard-response,783,1256927,null,"Recall Period!",null,,,,,,,,
call-function,784,1256928,,"",,,,,,,,,
html-keyboard-response,785,1257037,null,"",null,,,,,,,,
recall-period,786,1262583,32852.96500031836,"",,,,,,,,,magnet
html-keyboard-response,787,1262693,null,"",null,,,,,,,,
recall-period,788,1265024,11247.010000166483,"",,,,,,,,,message
html-keyboard-response,789,1265126,null,"",null,,,,,,,,
recall-period,790,1267583,12374.990000505932,"",,,,,,,,,portrait
html-keyboard-response,791,1267686,null,"",null,,,,,,,,
recall-period,792,1269815,8575.279999990016,"",,,,,,,,,attic
html-keyboard-response,793,1269917,null,"",null,,,,,,,,
recall-period,794,1273519,18994.009999441914,"",,,,,,,,,racket
html-keyboard-response,795,1273621,null,"",null,,,,,,,,
recall-period,796,1275511,7692.559999763034,"",,,,,,,,,joker
html-keyboard-response,797,1275617,null,"",null,,,,,,,,
recall-period,798,1279375,24256.725000217557,"",,,,,,,,,playground
html-keyboard-response,799,1279477,null,"",null,,,,,,,,
recall-period,800,1281791,10171.869999845512,"",,,,,,,,,hornet
html-keyboard-response,801,1281894,null,"",null,,,,,,,,
recall-period,802,1287911,40279.905000468716,"",,,,,,,,,scapegoat
html-keyboard-response,803,1288013,null,"",null,,,,,,,,
recall-period,804,1290558,10070.58999990113,"",,,,,,,,,silk
html-keyboard-response,805,1290667,null,"",null,,,,,,,,
recall-period,806,1293775,19679.919999442063,"",,,,,,,,,daughter
html-keyboard-response,807,1293884,null,"",null,,,,,,,,
recall-period,808,1295695,5792.885000118986,"",,,,,,,,,yarn
html-keyboard-response,809,1295798,null,"",null,,,,,,,,
recall-period,810,1310926,80543.15499996301,"",,,,,,,,,grape
html-keyboard-response,811,1311032,null,"",null,,,,,,,,
recall-period,812,1320206,40440.81999978516,"",,,,,,,,,baby
html-keyboard-response,813,1320318,null,"",null,,,,,,,,
recall-period,814,1326366,27126.749999821186,"",,,,,,,,,wasp
html-keyboard-response,815,1326468,null,"",null,,,,,,,,
recall-period,816,1331929,null,"",,,,,,,,,
html-keyboard-response,817,1332438,null,"Time's Up!",null,,,,,,,,
html-keyboard-response,818,1334375,1933.7850000010803,"<p> Good job! You responded correctly to 90% of the GREEN squares.</p>
                  <p>Be sure to keep your accuracy above 80%</p>
                  <p>Press any key to continue the experiment. Thank you!</p>",32,,,,,,,,
html-keyboard-response,819,1334790,413.5199999436736,"<div style=""font-size:48px;"">Press any key to begin list 8 of 24 </div>",32,,,,,,,,
html-keyboard-response,820,1337293,null,"<div style=""font-size:60px;"">+</div>",null,,,,,,,,
html-keyboard-response,821,1337758,463.34500005468726,"SKUNK<img id = ""stim"" ><div class = green_square id = ""topsquare"" ></div><img id = ""stim"" ><div class = green_square  id = ""bottomsquare"" ></div>",32,word_square,response,1,Space,true,,,
html-keyboard-response,822,1339260,null,"SKUNK",null,word,,,,, 'SKUNK',,
html-keyboard-response,823,1339767,null,"MANSION<img id = ""stim"" ><div class = red_square id = ""topsquare"" ></div><img id = ""stim"" ><div class = red_square  id = ""bottomsquare"" ></div>",null,word_square,response,0,none,true,,,
html-keyboard-response,824,1341269,null,"MANSION",null,word,,,,, 'MANSION',,
html-keyboard-response,825,1341702,430.4400000255555,"STAIRS<img id = ""stim"" ><div class = green_square id = ""topsquare"" ></div><img id = ""stim"" ><div class = green_square  id = ""bottomsquare"" ></div>",32,word_square,response,1,Space,true,,,
html-keyboard-response,826,1343209,null,"STAIRS",null,word,,,,, 'STAIRS',,
html-keyboard-response,827,1343693,482.9600000521168,"ASIA<img id = ""stim"" ><div class = green_square id = ""topsquare"" ></div><img id = ""stim"" ><div class = green_square  id = ""bottomsquare"" ></div>",32,word_square,response,1,Space,true,,,
html-keyboard-response,828,1345201,null,"ASIA",null,word,,,,, 'ASIA',,
html-keyboard-response,829,1345707,null,"WARDROBE<img id = ""stim"" ><div class = red_square id = ""topsquare"" ></div><img id = ""stim"" ><div class = red_square  id = ""bottomsquare"" ></div>",null,word_square,response,0,none,true,,,
html-keyboard-response,830,1347212,null,"WARDROBE",null,word,,,,, 'WARDROBE',,
html-keyboard-response,831,1347722,null,"OUTFIT<img id = ""stim"" ><div class = green_square id = ""topsquare"" ></div><img id = ""stim"" ><div class = green_square  id = ""bottomsquare"" ></div>",null,word_square,response,1,Space,false,,,
html-keyboard-response,832,1349224,null,"OUTFIT",null,word,,,,, 'OUTFIT',,
html-keyboard-response,833,1349727,null,"SLIME<img id = ""stim"" ><div class = red_square id = ""topsquare"" ></div><img id = ""stim"" ><div class = red_square  id = ""bottomsquare"" ></div>",null,word_square,response,0,none,true,,,
html-keyboard-response,834,1351238,null,"SLIME",null,word,,,,, 'SLIME',,
html-keyboard-response,835,1351742,null,"NEPTUNE<img id = ""stim"" ><div class = red_square id = ""topsquare"" ></div><img id = ""stim"" ><div class = red_square  id = ""bottomsquare"" ></div>",null,word_square,response,0,none,true,,,
html-keyboard-response,836,1353251,null,"NEPTUNE",null,word,,,,, 'NEPTUNE',,
html-keyboard-response,837,1353761,null,"SNAKE<img id = ""stim"" ><div class = red_square id = ""topsquare"" ></div><img id = ""stim"" ><div class = red_square  id = ""bottomsquare"" ></div>",null,word_square,response,0,none,true,,,
html-keyboard-response,838,1355268,null,"SNAKE",null,word,,,,, 'SNAKE',,
html-keyboard-response,839,1355777,null,"MOTHER<img id = ""stim"" ><div class = red_square id = ""topsquare"" ></div><img id = ""stim"" ><div class = red_square  id = ""bottomsquare"" ></div>",null,word_square,response,0,none,true,,,
html-keyboard-response,840,1357285,null,"MOTHER",null,word,,,,, 'MOTHER',,
html-keyboard-response,841,1357717,430.6099999230355,"PEBBLE<img id = ""stim"" ><div class = green_square id = ""topsquare"" ></div><img id = ""stim"" ><div class = green_square  id = ""bottomsquare"" ></div>",32,word_square,response,1,Space,true,,,
html-keyboard-response,842,1359230,null,"PEBBLE",null,word,,,,, 'PEBBLE',,
html-keyboard-response,843,1359738,null,"KIDNEY<img id = ""stim"" ><div class = green_square id = ""topsquare"" ></div><img id = ""stim"" ><div class = green_square  id = ""bottomsquare"" ></div>",null,word_square,response,1,Space,false,,,
html-keyboard-response,844,1361241,null,"KIDNEY",null,word,,,,, 'KIDNEY',,
html-keyboard-response,845,1361744,null,"FREEZER<img id = ""stim"" ><div class = red_square id = ""topsquare"" ></div><img id = ""stim"" ><div class = red_square  id = ""bottomsquare"" ></div>",null,word_square,response,0,none,true,,,
html-keyboard-response,846,1363254,null,"FREEZER",null,word,,,,, 'FREEZER',,
html-keyboard-response,847,1363719,463.6349999345839,"FLIPPER<img id = ""stim"" ><div class = green_square id = ""topsquare"" ></div><img id = ""stim"" ><div class = green_square  id = ""bottomsquare"" ></div>",32,word_square,response,1,Space,true,,,
html-keyboard-response,848,1365230,null,"FLIPPER",null,word,,,,, 'FLIPPER',,
html-keyboard-response,849,1365741,null,"FARMER<img id = ""stim"" ><div class = red_square id = ""topsquare"" ></div><img id = ""stim"" ><div class = red_square  id = ""bottomsquare"" ></div>",null,word_square,response,0,none,true,,,
html-keyboard-response,850,1367244,null,"FARMER",null,word,,,,, 'FARMER',,
html-keyboard-response,851,1367696,449.6900000376627,"VILLAGE<img id = ""stim"" ><div class = green_square id = ""topsquare"" ></div><img id = ""stim"" ><div class = green_square  id = ""bottomsquare"" ></div>",32,word_square,response,1,Space,true,,,
html-keyboard-response,852,1369204,null,"VILLAGE",null,word,,,,, 'VILLAGE',,
html-keyboard-response,853,1369648,441.67500000912696,"NOVEL<img id = ""stim"" ><div class = green_square id = ""topsquare"" ></div><img id = ""stim"" ><div class = green_square  id = ""bottomsquare"" ></div>",32,word_square,response,1,Space,true,,,
html-keyboard-response,854,1371150,null,"NOVEL",null,word,,,,, 'NOVEL',,
html-keyboard-response,855,1371654,null,"PAPER<img id = ""stim"" ><div class = red_square id = ""topsquare"" ></div><img id = ""stim"" ><div class = red_square  id = ""bottomsquare"" ></div>",null,word_square,response,0,none,true,,,
html-keyboard-response,856,1373164,null,"PAPER",null,word,,,,, 'PAPER',,
call-function,857,1373166,,"",,,,,,,,,
html-keyboard-response,858,1373271,null,"",null,,,,,,,,
math-period,859,1377007,12196.604999830015,"",,,,,,,,,4
html-keyboard-response,860,1377111,null,"",null,,,,,,,,
math-period,861,1378343,2171.9949999824166,"",,,,,,,,,5
html-keyboard-response,862,1378454,null,"",null,,,,,,,,
math-period,863,1379743,2286.155000096187,"",,,,,,,,,5
html-keyboard-response,864,1379854,null,"",null,,,,,,,,
math-period,865,1381224,2390.6700001098216,"",,,,,,,,,3
html-keyboard-response,866,1381334,null,"",null,,,,,,,,
math-period,867,1383144,3311.5599998272955,"",,,,,,,,,3
html-keyboard-response,868,1383246,null,"",null,,,,,,,,
math-period,869,1384815,2846.140000037849,"",,,,,,,,,4
html-keyboard-response,870,1384921,null,"",null,,,,,,,,
math-period,871,1386175,2225.23999994155,"",,,,,,,,,6
html-keyboard-response,872,1386278,null,"",null,,,,,,,,
math-period,873,1387703,2566.09999993816,"",,,,,,,,,5
html-keyboard-response,874,1387814,null,"",null,,,,,,,,
math-period,875,1390351,4773.694999981672,"",,,,,,,,,4
html-keyboard-response,876,1390454,null,"",null,,,,,,,,
math-period,877,1392607,3975.4600001033396,"",,,,,,,,,3
html-keyboard-response,878,1392710,null,"",null,,,,,,,,
math-period,879,1393992,2255.3550000302494,"",,,,,,,,,5
html-keyboard-response,880,1394104,null,"",null,,,,,,,,
math-period,881,1395399,2289.6650000475347,"",,,,,,,,,6
html-keyboard-response,882,1395508,null,"",null,,,,,,,,
math-period,883,1397175,1489.3600000068545,"",,,,,,,,,5
html-keyboard-response,884,1398178,null,"Recall Period!",null,,,,,,,,
call-function,885,1398179,,"",,,,,,,,,
html-keyboard-response,886,1398281,null,"",null,,,,,,,,
recall-period,887,1402295,20880.06499968469,"",,,,,,,,,skunk
html-keyboard-response,888,1402404,null,"",null,,,,,,,,
recall-period,889,1405103,14280.37000040058,"",,,,,,,,,mansion
html-keyboard-response,890,1405205,null,"",null,,,,,,,,
recall-period,891,1407966,10599.499999778345,"",,,,,,,,,asia
html-keyboard-response,892,1408071,null,"",null,,,,,,,,
recall-period,893,1411782,19808.4000000963,"",,,,,,,,,wardrobe
html-keyboard-response,894,1411888,null,"",null,,,,,,,,
recall-period,895,1414495,11544.824999873526,"",,,,,,,,,slime
html-keyboard-response,896,1414605,null,"",null,,,,,,,,
recall-period,897,1417150,12041.710000135936,"",,,,,,,,,neptune
html-keyboard-response,898,1417254,null,"",null,,,,,,,,
recall-period,899,1421512,19200.705000082962,"",,,,,,,,,snake
html-keyboard-response,900,1421623,null,"",null,,,,,,,,
recall-period,901,1423184,6000.79499988351,"",,,,,,,,,mother
html-keyboard-response,902,1423290,null,"",null,,,,,,,,
recall-period,903,1425447,9284.060000209138,"",,,,,,,,,kidney
html-keyboard-response,904,1425557,null,"",null,,,,,,,,
recall-period,905,1428080,14312.985000084154,"",,,,,,,,,freezer
html-keyboard-response,906,1428183,null,"",null,,,,,,,,
recall-period,907,1430800,14262.00499967672,"",,,,,,,,,flipper
html-keyboard-response,908,1430903,null,"",null,,,,,,,,
recall-period,909,1434944,18985.37499969825,"",,,,,,,,,novel
html-keyboard-response,910,1435047,null,"",null,,,,,,,,
recall-period,911,1437496,9157.220000284724,"",,,,,,,,,paper
html-keyboard-response,912,1437599,null,"",null,,,,,,,,
recall-period,913,1449159,74413.7050001882,"",,,,,,,,,stairs
html-keyboard-response,914,1449271,null,"",null,,,,,,,,
recall-period,915,1452623,18252.080000005662,"",,,,,,,,,outfit
html-keyboard-response,916,1452732,null,"",null,,,,,,,,
recall-period,917,1473190,null,"",,,,,,,,,
html-keyboard-response,918,1473697,null,"Time's Up!",null,,,,,,,,
html-keyboard-response,919,1476703,3003.150000004098,"<p> Good job! You responded correctly to 90% of the GREEN squares.</p>
                  <p>Be sure to keep your accuracy above 80%</p>
                  <p>Press any key to continue the experiment. Thank you!</p>",32,,,,,,,,
html-keyboard-response,920,1477302,597.635000012815,"<div style=""font-size:48px;"">Press any key to begin list 9 of 24 </div>",32,,,,,,,,
html-keyboard-response,921,1479806,null,"<div style=""font-size:60px;"">+</div>",null,,,,,,,,
html-keyboard-response,922,1480310,null,"ELBOW<img id = ""stim"" ><div class = red_square id = ""topsquare"" ></div><img id = ""stim"" ><div class = red_square  id = ""bottomsquare"" ></div>",null,word_square,response,0,none,true,,,
html-keyboard-response,923,1481815,null,"ELBOW",null,word,,,,, 'ELBOW',,
html-keyboard-response,924,1482264,447.24499993026257,"LEG<img id = ""stim"" ><div class = green_square id = ""topsquare"" ></div><img id = ""stim"" ><div class = green_square  id = ""bottomsquare"" ></div>",32,word_square,response,1,Space,true,,,
html-keyboard-response,925,1483766,null,"LEG",null,word,,,,, 'LEG',,
html-keyboard-response,926,1484200,431.745000067167,"SKIRT<img id = ""stim"" ><div class = green_square id = ""topsquare"" ></div><img id = ""stim"" ><div class = green_square  id = ""bottomsquare"" ></div>",32,word_square,response,1,Space,true,,,
html-keyboard-response,927,1485709,null,"SKIRT",null,word,,,,, 'SKIRT',,
html-keyboard-response,928,1486215,null,"VALLEY<img id = ""stim"" ><div class = red_square id = ""topsquare"" ></div><img id = ""stim"" ><div class = red_square  id = ""bottomsquare"" ></div>",null,word_square,response,0,none,true,,,
html-keyboard-response,929,1487717,null,"VALLEY",null,word,,,,, 'VALLEY',,
html-keyboard-response,930,1488225,null,"SERVANT<img id = ""stim"" ><div class = red_square id = ""topsquare"" ></div><img id = ""stim"" ><div class = red_square  id = ""bottomsquare"" ></div>",null,word_square,response,0,none,true,,,
html-keyboard-response,931,1489727,null,"SERVANT",null,word,,,,, 'SERVANT',,
html-keyboard-response,932,1490072,343.49499992094934,"DOORBELL<img id = ""stim"" ><div class = green_square id = ""topsquare"" ></div><img id = ""stim"" ><div class = green_square  id = ""bottomsquare"" ></div>",32,word_square,response,1,Space,true,,,
html-keyboard-response,933,1491579,null,"DOORBELL",null,word,,,,, 'DOORBELL',,
html-keyboard-response,934,1491968,387.25500006694347,"LIPSTICK<img id = ""stim"" ><div class = green_square id = ""topsquare"" ></div><img id = ""stim"" ><div class = green_square  id = ""bottomsquare"" ></div>",32,word_square,response,1,Space,true,,,
html-keyboard-response,935,1493478,null,"LIPSTICK",null,word,,,,, 'LIPSTICK',,
html-keyboard-response,936,1493982,null,"EYELASH<img id = ""stim"" ><div class = red_square id = ""topsquare"" ></div><img id = ""stim"" ><div class = red_square  id = ""bottomsquare"" ></div>",null,word_square,response,0,none,true,,,
html-keyboard-response,937,1495488,null,"EYELASH",null,word,,,,, 'EYELASH',,
html-keyboard-response,938,1495991,null,"ATHLETE<img id = ""stim"" ><div class = red_square id = ""topsquare"" ></div><img id = ""stim"" ><div class = red_square  id = ""bottomsquare"" ></div>",null,word_square,response,0,none,true,,,
html-keyboard-response,939,1497496,null,"ATHLETE",null,word,,,,, 'ATHLETE',,
html-keyboard-response,940,1497928,429.1599999414757,"TABLE<img id = ""stim"" ><div class = green_square id = ""topsquare"" ></div><img id = ""stim"" ><div class = green_square  id = ""bottomsquare"" ></div>",32,word_square,response,1,Space,true,,,
html-keyboard-response,941,1499434,null,"TABLE",null,word,,,,, 'TABLE',,
html-keyboard-response,942,1499941,null,"CEILING<img id = ""stim"" ><div class = red_square id = ""topsquare"" ></div><img id = ""stim"" ><div class = red_square  id = ""bottomsquare"" ></div>",null,word_square,response,0,none,true,,,
html-keyboard-response,943,1501452,null,"CEILING",null,word,,,,, 'CEILING',,
html-keyboard-response,944,1501958,null,"BLOCKADE<img id = ""stim"" ><div class = red_square id = ""topsquare"" ></div><img id = ""stim"" ><div class = red_square  id = ""bottomsquare"" ></div>",null,word_square,response,0,none,true,,,
html-keyboard-response,945,1503464,null,"BLOCKADE",null,word,,,,, 'BLOCKADE',,
html-keyboard-response,946,1503784,317.8400000324473,"LAGOON<img id = ""stim"" ><div class = green_square id = ""topsquare"" ></div><img id = ""stim"" ><div class = green_square  id = ""bottomsquare"" ></div>",32,word_square,response,1,Space,true,,,
html-keyboard-response,947,1505288,null,"LAGOON",null,word,,,,, 'LAGOON',,
html-keyboard-response,948,1505695,405.20500007551163,"COSTUME<img id = ""stim"" ><div class = green_square id = ""topsquare"" ></div><img id = ""stim"" ><div class = green_square  id = ""bottomsquare"" ></div>",32,word_square,response,1,Space,true,,,
html-keyboard-response,949,1507204,null,"COSTUME",null,word,,,,, 'COSTUME',,
html-keyboard-response,950,1507709,null,"SHORTS<img id = ""stim"" ><div class = red_square id = ""topsquare"" ></div><img id = ""stim"" ><div class = red_square  id = ""bottomsquare"" ></div>",null,word_square,response,0,none,true,,,
html-keyboard-response,951,1509214,null,"SHORTS",null,word,,,,, 'SHORTS',,
html-keyboard-response,952,1509591,374.974999926053,"PORPOISE<img id = ""stim"" ><div class = green_square id = ""topsquare"" ></div><img id = ""stim"" ><div class = green_square  id = ""bottomsquare"" ></div>",32,word_square,response,1,Space,true,,,
html-keyboard-response,953,1511098,null,"PORPOISE",null,word,,,,, 'PORPOISE',,
html-keyboard-response,954,1511608,null,"HEEL<img id = ""stim"" ><div class = red_square id = ""topsquare"" ></div><img id = ""stim"" ><div class = red_square  id = ""bottomsquare"" ></div>",null,word_square,response,0,none,true,,,
html-keyboard-response,955,1513115,null,"HEEL",null,word,,,,, 'HEEL',,
html-keyboard-response,956,1513503,386.2100000260398,"BUREAU<img id = ""stim"" ><div class = green_square id = ""topsquare"" ></div><img id = ""stim"" ><div class = green_square  id = ""bottomsquare"" ></div>",32,word_square,response,1,Space,true,,,
html-keyboard-response,957,1515008,null,"BUREAU",null,word,,,,, 'BUREAU',,
call-function,958,1515010,,"",,,,,,,,,
html-keyboard-response,959,1515118,null,"",null,,,,,,,,
math-period,960,1517631,4773.664999986067,"",,,,,,,,,6
html-keyboard-response,961,1517742,null,"",null,,,,,,,,
math-period,962,1519063,2349.4700000155717,"",,,,,,,,,5
html-keyboard-response,963,1519167,null,"",null,,,,,,,,
math-period,964,1520430,2187.5899999868125,"",,,,,,,,,3
html-keyboard-response,965,1520532,null,"",null,,,,,,,,
math-period,966,1521823,2257.3300001677126,"",,,,,,,,,5
html-keyboard-response,967,1521925,null,"",null,,,,,,,,
math-period,968,1523287,2383.324999944307,"",,,,,,,,,2
html-keyboard-response,969,1523394,null,"",null,,,,,,,,
math-period,970,1524831,2574.055000091903,"",,,,,,,,,3
html-keyboard-response,971,1524942,null,"",null,,,,,,,,
math-period,972,1526311,2390.7250000629574,"",,,,,,,,,3
html-keyboard-response,973,1526413,null,"",null,,,,,,,,
math-period,974,1527838,2447.485000011511,"",,,,,,,,,2
html-keyboard-response,975,1527942,null,"",null,,,,,,,,
math-period,976,1529726,3260.5449999682605,"",,,,,,,,,4
html-keyboard-response,977,1529832,null,"",null,,,,,,,,
