trial_type,trial_index,time_elapsed,rt,stimulus,key_press,test_part,task,targ_cond,correctKeyCode,correct,word,value,response
pavlovia,0,2028,,"",,,,,,,,,
external-html,1,7713,5275.63000000373,"",,,,,,,,,
html-keyboard-response,2,9353,1631.184999991092,"Welcome to the experiment. Press any key to begin.",32,,,,,,,,
html-keyboard-response,3,17245,7882.244999986142,"<p>You will see a list of words and colored squares in the following task.<p><p>Press the spacebar whenever you see a red square.<p><p>Do not press a key if the square is green<p><p>Press the spacebar to continue.</p>",32,,,,,,,,
html-keyboard-response,4,27072,9321.40500000969,"<p>Please try to remember as many of the words as you can, and try to think about the meaning of each word as it appears.<p><p>After the detection and encoding task you will be asked to solve some math problems for 24 seconds.<p> Please solve as many problems as you can in the time given. <p>",32,,,,,,,,
html-keyboard-response,5,36182,8602.11999999592,"After solving the math problems, you will be asked to type in as many words <p>from the previous list as you can remember for 75 seconds.<p> If you finish recalling before the 75 seconds are up,<p> just sit tight and try to think of any more words you could have missed. <p><p>We will begin with a brief practice session<p>Press the spacebar to begin the practice.</p>",32,,,,,,,,
html-keyboard-response,6,38698,null,"<div style=""font-size:60px;"">+</div>",null,,,,,,,,
html-keyboard-response,7,39206,null,"HAPPY<img id = ""stim"" ><div class = green_square id = ""topsquare"" ></div><img id = ""stim"" ><div class = green_square  id = ""bottomsquare"" ></div>",null,word_square,prac_response,0,none,true,,,
html-keyboard-response,8,40715,null,"HAPPY",null,word,,,,,HAPPY,,
html-keyboard-response,9,41226,null,"COLD<img id = ""stim"" ><div class = red_square id = ""topsquare"" ></div><img id = ""stim"" ><div class = red_square  id = ""bottomsquare"" ></div>",null,word_square,prac_response,1,Space,false,,,
html-keyboard-response,10,42733,null,"COLD",null,word,,,,,COLD,,
html-keyboard-response,11,43242,368.53000000701286,"HEAVY<img id = ""stim"" ><div class = red_square id = ""topsquare"" ></div><img id = ""stim"" ><div class = red_square  id = ""bottomsquare"" ></div>",32,word_square,prac_response,1,Space,true,,,
html-keyboard-response,12,44750,null,"HEAVY",null,word,,,,,HEAVY,,
html-keyboard-response,13,45259,null,"FUNNY<img id = ""stim"" ><div class = green_square id = ""topsquare"" ></div><img id = ""stim"" ><div class = green_square  id = ""bottomsquare"" ></div>",null,word_square,prac_response,0,none,true,,,
html-keyboard-response,14,46769,null,"FUNNY",null,word,,,,,FUNNY,,
html-keyboard-response,15,47280,null,"SCARY<img id = ""stim"" ><div class = red_square id = ""topsquare"" ></div><img id = ""stim"" ><div class = red_square  id = ""bottomsquare"" ></div>",null,word_square,prac_response,1,Space,false,,,
html-keyboard-response,16,48786,null,"SCARY",null,word,,,,,SCARY,,
html-keyboard-response,17,49293,null,"PEACEFUL<img id = ""stim"" ><div class = red_square id = ""topsquare"" ></div><img id = ""stim"" ><div class = red_square  id = ""bottomsquare"" ></div>",null,word_square,prac_response,1,Space,false,,,
html-keyboard-response,18,50803,null,"PEACEFUL",null,word,,,,,PEACEFUL,,
html-keyboard-response,19,51311,null,"LITTLE<img id = ""stim"" ><div class = green_square id = ""topsquare"" ></div><img id = ""stim"" ><div class = green_square  id = ""bottomsquare"" ></div>",null,word_square,prac_response,0,none,true,,,
html-keyboard-response,20,52818,null,"LITTLE",null,word,,,,,LITTLE,,
html-keyboard-response,21,53327,431.37999999453314,"TIRED<img id = ""stim"" ><div class = green_square id = ""topsquare"" ></div><img id = ""stim"" ><div class = green_square  id = ""bottomsquare"" ></div>",32,word_square,prac_response,0,none,true,,,
html-keyboard-response,22,54836,null,"TIRED",null,word,,,,,TIRED,,
html-keyboard-response,23,55345,null,"ENTERTAINING<img id = ""stim"" ><div class = green_square id = ""topsquare"" ></div><img id = ""stim"" ><div class = green_square  id = ""bottomsquare"" ></div>",null,word_square,prac_response,0,none,true,,,
html-keyboard-response,24,56851,null,"ENTERTAINING",null,word,,,,,ENTERTAINING,,
html-keyboard-response,25,57360,null,"GRATEFUL<img id = ""stim"" ><div class = red_square id = ""topsquare"" ></div><img id = ""stim"" ><div class = red_square  id = ""bottomsquare"" ></div>",null,word_square,prac_response,1,Space,false,,,
html-keyboard-response,26,58871,null,"GRATEFUL",null,word,,,,,GRATEFUL,,
html-keyboard-response,27,59376,null,"LOUD<img id = ""stim"" ><div class = green_square id = ""topsquare"" ></div><img id = ""stim"" ><div class = green_square  id = ""bottomsquare"" ></div>",null,word_square,prac_response,0,none,true,,,
html-keyboard-response,28,60884,null,"LOUD",null,word,,,,,LOUD,,
html-keyboard-response,29,61392,372.41999999969266,"SMART<img id = ""stim"" ><div class = red_square id = ""topsquare"" ></div><img id = ""stim"" ><div class = red_square  id = ""bottomsquare"" ></div>",32,word_square,prac_response,1,Space,true,,,
html-keyboard-response,30,62900,null,"SMART",null,word,,,,,SMART,,
html-keyboard-response,31,63408,null,"SMOOTH<img id = ""stim"" ><div class = red_square id = ""topsquare"" ></div><img id = ""stim"" ><div class = red_square  id = ""bottomsquare"" ></div>",null,word_square,prac_response,1,Space,false,,,
html-keyboard-response,32,64915,null,"SMOOTH",null,word,,,,,SMOOTH,,
html-keyboard-response,33,65422,null,"DISHONEST<img id = ""stim"" ><div class = green_square id = ""topsquare"" ></div><img id = ""stim"" ><div class = green_square  id = ""bottomsquare"" ></div>",null,word_square,prac_response,0,none,true,,,
html-keyboard-response,34,66931,null,"DISHONEST",null,word,,,,,DISHONEST,,
html-keyboard-response,35,67440,null,"WEALTHY<img id = ""stim"" ><div class = red_square id = ""topsquare"" ></div><img id = ""stim"" ><div class = red_square  id = ""bottomsquare"" ></div>",null,word_square,prac_response,1,Space,false,,,
html-keyboard-response,36,68950,null,"WEALTHY",null,word,,,,,WEALTHY,,
html-keyboard-response,37,69460,null,"BEAUTIFUL<img id = ""stim"" ><div class = green_square id = ""topsquare"" ></div><img id = ""stim"" ><div class = green_square  id = ""bottomsquare"" ></div>",null,word_square,prac_response,0,none,true,,,
html-keyboard-response,38,70967,null,"BEAUTIFUL",null,word,,,,,BEAUTIFUL,,
html-keyboard-response,39,71475,null,"DREARY<img id = ""stim"" ><div class = green_square id = ""topsquare"" ></div><img id = ""stim"" ><div class = green_square  id = ""bottomsquare"" ></div>",null,word_square,prac_response,0,none,true,,,
html-keyboard-response,40,72981,null,"DREARY",null,word,,,,,DREARY,,
html-keyboard-response,41,73491,447.6250000006985,"PLAYFUL<img id = ""stim"" ><div class = red_square id = ""topsquare"" ></div><img id = ""stim"" ><div class = red_square  id = ""bottomsquare"" ></div>",32,word_square,prac_response,1,Space,true,,,
html-keyboard-response,42,74999,null,"PLAYFUL",null,word,,,,,PLAYFUL,,
html-keyboard-response,43,79928,4920.48000000068,"<p> Uh oh. You responded correctly on 67% of the red squares.</p>
                  <p>We need you keep your accuracy above 80%</p>
                  <p>We're going to try once more to make sure you understand the task. press any key to continue.</p>",32,,,,,,,,
html-keyboard-response,44,84396,4462.9449999920325,"<p>You will see a list of words and colored squares in the following task.<p><p>Press the spacebar whenever you see a red square.<p><p>Do not press a key if the square is green<p><p>Press the spacebar to continue.</p>",32,,,,,,,,
html-keyboard-response,45,86909,null,"<div style=""font-size:60px;"">+</div>",null,,,,,,,,
html-keyboard-response,46,87418,null,"HAPPY<img id = ""stim"" ><div class = green_square id = ""topsquare"" ></div><img id = ""stim"" ><div class = green_square  id = ""bottomsquare"" ></div>",null,word_square,response,0,none,true,,,
html-keyboard-response,47,88930,null,"HAPPY",null,word,,,,,HAPPY,,
html-keyboard-response,48,89269,332.83500000834465,"COLD<img id = ""stim"" ><div class = red_square id = ""topsquare"" ></div><img id = ""stim"" ><div class = red_square  id = ""bottomsquare"" ></div>",32,word_square,response,1,Space,true,,,
html-keyboard-response,49,90777,null,"COLD",null,word,,,,,COLD,,
html-keyboard-response,50,91149,365.6650000048103,"HEAVY<img id = ""stim"" ><div class = red_square id = ""topsquare"" ></div><img id = ""stim"" ><div class = red_square  id = ""bottomsquare"" ></div>",32,word_square,response,1,Space,true,,,
html-keyboard-response,51,92658,null,"HEAVY",null,word,,,,,HEAVY,,
html-keyboard-response,52,93168,null,"FUNNY<img id = ""stim"" ><div class = green_square id = ""topsquare"" ></div><img id = ""stim"" ><div class = green_square  id = ""bottomsquare"" ></div>",null,word_square,response,0,none,true,,,
html-keyboard-response,53,94674,null,"FUNNY",null,word,,,,,FUNNY,,
html-keyboard-response,54,94999,315.78499999886844,"SCARY<img id = ""stim"" ><div class = red_square id = ""topsquare"" ></div><img id = ""stim"" ><div class = red_square  id = ""bottomsquare"" ></div>",32,word_square,response,1,Space,true,,,
html-keyboard-response,55,96507,null,"SCARY",null,word,,,,,SCARY,,
html-keyboard-response,56,96866,350.0999999960186,"PEACEFUL<img id = ""stim"" ><div class = red_square id = ""topsquare"" ></div><img id = ""stim"" ><div class = red_square  id = ""bottomsquare"" ></div>",32,word_square,response,1,Space,true,,,
html-keyboard-response,57,98372,null,"PEACEFUL",null,word,,,,,PEACEFUL,,
html-keyboard-response,58,98880,null,"LITTLE<img id = ""stim"" ><div class = green_square id = ""topsquare"" ></div><img id = ""stim"" ><div class = green_square  id = ""bottomsquare"" ></div>",null,word_square,response,0,none,true,,,
html-keyboard-response,59,100392,null,"LITTLE",null,word,,,,,LITTLE,,
html-keyboard-response,60,100899,null,"TIRED<img id = ""stim"" ><div class = green_square id = ""topsquare"" ></div><img id = ""stim"" ><div class = green_square  id = ""bottomsquare"" ></div>",null,word_square,response,0,none,true,,,
html-keyboard-response,61,102407,null,"TIRED",null,word,,,,,TIRED,,
html-keyboard-response,62,102918,null,"ENTERTAINING<img id = ""stim"" ><div class = green_square id = ""topsquare"" ></div><img id = ""stim"" ><div class = green_square  id = ""bottomsquare"" ></div>",null,word_square,response,0,none,true,,,
html-keyboard-response,63,104424,null,"ENTERTAINING",null,word,,,,,ENTERTAINING,,
html-keyboard-response,64,104767,334.7349999967264,"GRATEFUL<img id = ""stim"" ><div class = red_square id = ""topsquare"" ></div><img id = ""stim"" ><div class = red_square  id = ""bottomsquare"" ></div>",32,word_square,response,1,Space,true,,,
html-keyboard-response,65,106273,null,"GRATEFUL",null,word,,,,,GRATEFUL,,
html-keyboard-response,66,106782,null,"LOUD<img id = ""stim"" ><div class = green_square id = ""topsquare"" ></div><img id = ""stim"" ><div class = green_square  id = ""bottomsquare"" ></div>",null,word_square,response,0,none,true,,,
html-keyboard-response,67,108290,null,"LOUD",null,word,,,,,LOUD,,
html-keyboard-response,68,108598,299.4999999937136,"SMART<img id = ""stim"" ><div class = red_square id = ""topsquare"" ></div><img id = ""stim"" ><div class = red_square  id = ""bottomsquare"" ></div>",32,word_square,response,1,Space,true,,,
html-keyboard-response,69,110104,null,"SMART",null,word,,,,,SMART,,
html-keyboard-response,70,110400,286.7450000048848,"SMOOTH<img id = ""stim"" ><div class = red_square id = ""topsquare"" ></div><img id = ""stim"" ><div class = red_square  id = ""bottomsquare"" ></div>",32,word_square,response,1,Space,true,,,
html-keyboard-response,71,111907,null,"SMOOTH",null,word,,,,,SMOOTH,,
html-keyboard-response,72,112416,null,"DISHONEST<img id = ""stim"" ><div class = green_square id = ""topsquare"" ></div><img id = ""stim"" ><div class = green_square  id = ""bottomsquare"" ></div>",null,word_square,response,0,none,true,,,
html-keyboard-response,73,113927,null,"DISHONEST",null,word,,,,,DISHONEST,,
html-keyboard-response,74,114267,331.6799999884097,"WEALTHY<img id = ""stim"" ><div class = red_square id = ""topsquare"" ></div><img id = ""stim"" ><div class = red_square  id = ""bottomsquare"" ></div>",32,word_square,response,1,Space,true,,,
html-keyboard-response,75,115775,null,"WEALTHY",null,word,,,,,WEALTHY,,
html-keyboard-response,76,116285,null,"BEAUTIFUL<img id = ""stim"" ><div class = green_square id = ""topsquare"" ></div><img id = ""stim"" ><div class = green_square  id = ""bottomsquare"" ></div>",null,word_square,response,0,none,true,,,
html-keyboard-response,77,117793,null,"BEAUTIFUL",null,word,,,,,BEAUTIFUL,,
html-keyboard-response,78,118304,null,"DREARY<img id = ""stim"" ><div class = green_square id = ""topsquare"" ></div><img id = ""stim"" ><div class = green_square  id = ""bottomsquare"" ></div>",null,word_square,response,0,none,true,,,
html-keyboard-response,79,119814,null,"DREARY",null,word,,,,,DREARY,,
html-keyboard-response,80,120121,297.10499999055173,"PLAYFUL<img id = ""stim"" ><div class = red_square id = ""topsquare"" ></div><img id = ""stim"" ><div class = red_square  id = ""bottomsquare"" ></div>",32,word_square,response,1,Space,true,,,
html-keyboard-response,81,121629,null,"PLAYFUL",null,word,,,,,PLAYFUL,,
html-keyboard-response,82,126219,4580.665000001318,"<p> Good job! You responded correctly to 100% of the red squares.</p>
                  <p>Be sure to keep your accuracy above 80%</p>
                  <p>Press any key to begin the math and recall sections. Thank you!</p>",32,,,,,,,,
call-function,83,126224,,"",,,,,,,,,
html-keyboard-response,84,126330,null,"",null,,,,,,,,
math-period,85,130774,19201.084999978775,"",,,,,,,,,3
html-keyboard-response,86,130881,null,"",null,,,,,,,,
math-period,87,132941,3996.5900000097463,"",,,,,,,,,3
html-keyboard-response,88,133046,null,"",null,,,,,,,,
math-period,89,135340,4439.265000022715,"",,,,,,,,,4
html-keyboard-response,90,135447,null,"",null,,,,,,,,
math-period,91,136418,1821.4900000020862,"",,,,,,,,,4
html-keyboard-response,92,136525,null,"",null,,,,,,,,
math-period,93,137803,2353.369999982533,"",,,,,,,,,2
html-keyboard-response,94,137910,null,"",null,,,,,,,,
math-period,95,142355,8390.889999995125,"",,,,,,,,,4
html-keyboard-response,96,142462,null,"",null,,,,,,,,
math-period,97,147587,10108.735000001616,"",,,,,,,,,2
html-keyboard-response,98,147698,null,"",null,,,,,,,,
math-period,99,150230,null,"",,,,,,,,,
html-keyboard-response,100,151241,null,"Recall Period!",null,,,,,,,,
call-function,101,151245,,"",,,,,,,,,
html-keyboard-response,102,151350,null,"",null,,,,,,,,
recall-period,103,152776,1415.324999994482,"",,,,,,,,,
html-keyboard-response,104,152884,null,"",null,,,,,,,,
recall-period,105,154236,1339.8999999917578,"",,,,,,,,,
html-keyboard-response,106,154343,null,"",null,,,,,,,,
recall-period,107,158295,24156.34500005399,"",,,,,,,,,drought
html-keyboard-response,108,158404,null,"",null,,,,,,,,
recall-period,109,159950,10459.019999980228,"",,,,,,,,,entertaining
html-keyboard-response,110,160058,null,"",null,,,,,,,,
recall-period,111,161194,3545.735000021523,"",,,,,,,,,happy
html-keyboard-response,112,161303,null,"",null,,,,,,,,
recall-period,113,162312,2368.3600000367733,"",,,,,,,,,cold
html-keyboard-response,114,162420,null,"",null,,,,,,,,
recall-period,115,186996,188745.21500006085,"",,,,,,,,,wealthy
html-keyboard-response,116,187105,null,"",null,,,,,,,,
recall-period,117,226251,null,"",,,,,,,,,
html-keyboard-response,118,226760,null,"Time's Up!",null,,,,,,,,
html-keyboard-response,119,246178,19412.274999995134,"<p>We will now begin the experiment!<p><p>Please try to remember all words from each list.<p><p>Press the spacebar whenever you see a red square.<p><p><p><p>Press the spacebar to begin.</p>",32,,,,,,,,
html-keyboard-response,120,248547,1862.9749999963678,"<div style=""font-size:48px;"">Press any key to begin list 1 of 24 </div>",32,,,,,,,,
html-keyboard-response,121,251052,null,"<div style=""font-size:60px;"">+</div>",null,,,,,,,,
html-keyboard-response,122,251558,null,"DRAWING<img id = ""stim"" ><div class = green_square id = ""topsquare"" ></div><img id = ""stim"" ><div class = green_square  id = ""bottomsquare"" ></div>",null,word_square,response,0,none,true,,,
html-keyboard-response,123,253065,null,"DRAWING",null,word,,,,, 'DRAWING',,
html-keyboard-response,124,253575,null,"LODGE<img id = ""stim"" ><div class = red_square id = ""topsquare"" ></div><img id = ""stim"" ><div class = red_square  id = ""bottomsquare"" ></div>",null,word_square,response,1,Space,false,,,
html-keyboard-response,125,255085,null,"LODGE",null,word,,,,, 'LODGE',,
html-keyboard-response,126,255592,null,"CABOOSE<img id = ""stim"" ><div class = green_square id = ""topsquare"" ></div><img id = ""stim"" ><div class = green_square  id = ""bottomsquare"" ></div>",null,word_square,response,0,none,true,,,
html-keyboard-response,127,257103,null,"CABOOSE",null,word,,,,, 'CABOOSE',,
html-keyboard-response,128,257610,null,"TYPIST<img id = ""stim"" ><div class = green_square id = ""topsquare"" ></div><img id = ""stim"" ><div class = green_square  id = ""bottomsquare"" ></div>",null,word_square,response,0,none,true,,,
html-keyboard-response,129,259119,null,"TYPIST",null,word,,,,, 'TYPIST',,
html-keyboard-response,130,259428,304.9800000007963,"OFFICE<img id = ""stim"" ><div class = red_square id = ""topsquare"" ></div><img id = ""stim"" ><div class = red_square  id = ""bottomsquare"" ></div>",32,word_square,response,1,Space,true,,,
html-keyboard-response,131,260936,null,"OFFICE",null,word,,,,, 'OFFICE',,
html-keyboard-response,132,261446,null,"SCULPTURE<img id = ""stim"" ><div class = green_square id = ""topsquare"" ></div><img id = ""stim"" ><div class = green_square  id = ""bottomsquare"" ></div>",null,word_square,response,0,none,true,,,
html-keyboard-response,133,262956,null,"SCULPTURE",null,word,,,,, 'SCULPTURE',,
html-keyboard-response,134,263466,null,"IDOL<img id = ""stim"" ><div class = green_square id = ""topsquare"" ></div><img id = ""stim"" ><div class = green_square  id = ""bottomsquare"" ></div>",null,word_square,response,0,none,true,,,
html-keyboard-response,135,264974,null,"IDOL",null,word,,,,, 'IDOL',,
html-keyboard-response,136,265332,348.27499999664724,"SWORD<img id = ""stim"" ><div class = red_square id = ""topsquare"" ></div><img id = ""stim"" ><div class = red_square  id = ""bottomsquare"" ></div>",32,word_square,response,1,Space,true,,,
html-keyboard-response,137,266837,null,"SWORD",null,word,,,,, 'SWORD',,
html-keyboard-response,138,267348,null,"LAGOON<img id = ""stim"" ><div class = green_square id = ""topsquare"" ></div><img id = ""stim"" ><div class = green_square  id = ""bottomsquare"" ></div>",null,word_square,response,0,none,true,,,
html-keyboard-response,139,268856,null,"LAGOON",null,word,,,,, 'LAGOON',,
html-keyboard-response,140,269368,null,"STAKE<img id = ""stim"" ><div class = green_square id = ""topsquare"" ></div><img id = ""stim"" ><div class = green_square  id = ""bottomsquare"" ></div>",null,word_square,response,0,none,true,,,
html-keyboard-response,141,270876,null,"STAKE",null,word,,,,, 'STAKE',,
html-keyboard-response,142,271177,291.9099999999162,"CABIN<img id = ""stim"" ><div class = red_square id = ""topsquare"" ></div><img id = ""stim"" ><div class = red_square  id = ""bottomsquare"" ></div>",32,word_square,response,1,Space,true,,,
html-keyboard-response,143,272688,null,"CABIN",null,word,,,,, 'CABIN',,
html-keyboard-response,144,273200,null,"SHAMPOO<img id = ""stim"" ><div class = green_square id = ""topsquare"" ></div><img id = ""stim"" ><div class = green_square  id = ""bottomsquare"" ></div>",null,word_square,response,0,none,true,,,
html-keyboard-response,145,274709,null,"SHAMPOO",null,word,,,,, 'SHAMPOO',,
html-keyboard-response,146,275009,293.7850000016624,"BLANKET<img id = ""stim"" ><div class = red_square id = ""topsquare"" ></div><img id = ""stim"" ><div class = red_square  id = ""bottomsquare"" ></div>",32,word_square,response,1,Space,true,,,
html-keyboard-response,147,276518,null,"BLANKET",null,word,,,,, 'BLANKET',,
html-keyboard-response,148,276991,462.5899999955436,"HARP<img id = ""stim"" ><div class = red_square id = ""topsquare"" ></div><img id = ""stim"" ><div class = red_square  id = ""bottomsquare"" ></div>",32,word_square,response,1,Space,true,,,
html-keyboard-response,149,278500,null,"HARP",null,word,,,,, 'HARP',,
html-keyboard-response,150,278777,269.74499999778345,"PARCEL<img id = ""stim"" ><div class = red_square id = ""topsquare"" ></div><img id = ""stim"" ><div class = red_square  id = ""bottomsquare"" ></div>",32,word_square,response,1,Space,true,,,
html-keyboard-response,151,280284,null,"PARCEL",null,word,,,,, 'PARCEL',,
html-keyboard-response,152,280790,null,"MOTEL<img id = ""stim"" ><div class = green_square id = ""topsquare"" ></div><img id = ""stim"" ><div class = green_square  id = ""bottomsquare"" ></div>",null,word_square,response,0,none,true,,,
html-keyboard-response,153,282298,null,"MOTEL",null,word,,,,, 'MOTEL',,
html-keyboard-response,154,282713,408.1200000073295,"CRAYON<img id = ""stim"" ><div class = red_square id = ""topsquare"" ></div><img id = ""stim"" ><div class = red_square  id = ""bottomsquare"" ></div>",32,word_square,response,1,Space,true,,,
html-keyboard-response,155,284222,null,"CRAYON",null,word,,,,, 'CRAYON',,
html-keyboard-response,156,284554,324.43500000226777,"DANDRUFF<img id = ""stim"" ><div class = red_square id = ""topsquare"" ></div><img id = ""stim"" ><div class = red_square  id = ""bottomsquare"" ></div>",32,word_square,response,1,Space,true,,,
html-keyboard-response,157,286066,null,"DANDRUFF",null,word,,,,, 'DANDRUFF',,
call-function,158,286071,,"",,,,,,,,,
html-keyboard-response,159,286177,null,"",null,,,,,,,,
math-period,160,288913,4979.174999985844,"",,,,,,,,,6
html-keyboard-response,161,289024,null,"",null,,,,,,,,
math-period,162,293900,8930.635000011534,"",,,,,,,,,5
html-keyboard-response,163,294006,null,"",null,,,,,,,,
math-period,164,297785,7165.160000004107,"",,,,,,,,,2
html-keyboard-response,165,297893,null,"",null,,,,,,,,
math-period,166,300404,4876.314999986789,"",,,,,,,,,2
html-keyboard-response,167,300514,null,"",null,,,,,,,,
math-period,168,302336,3331.125000011525,"",,,,,,,,,1
html-keyboard-response,169,302445,null,"",null,,,,,,,,
math-period,170,303740,2444.0450000111014,"",,,,,,,,,2
html-keyboard-response,171,303849,null,"",null,,,,,,,,
math-period,172,306236,4618.284999989555,"",,,,,,,,,4
html-keyboard-response,173,306345,null,"",null,,,,,,,,
math-period,174,310074,null,"",,,,,,,,,
html-keyboard-response,175,311084,null,"Recall Period!",null,,,,,,,,
call-function,176,311089,,"",,,,,,,,,
html-keyboard-response,177,311197,null,"",null,,,,,,,,
recall-period,178,314204,18144.16500001971,"",,,,,,,,,dandruff
html-keyboard-response,179,314312,null,"",null,,,,,,,,
recall-period,180,316438,10970.200000025216,"",,,,,,,,,parcel
html-keyboard-response,181,316544,null,"",null,,,,,,,,
recall-period,182,317944,3808.7999999843305,"",,,,,,,,,motel
html-keyboard-response,183,318053,null,"",null,,,,,,,,
recall-period,184,320730,16169.784999961848,"",,,,,,,,,caboose
html-keyboard-response,185,320836,null,"",null,,,,,,,,
recall-period,186,351222,179350.63000000082,"",,,,,,,,,motel
html-keyboard-response,187,351332,null,"",null,,,,,,,,
recall-period,188,359168,43566.760000016075,"",,,,,,,,,cabin
html-keyboard-response,189,359288,null,"",null,,,,,,,,
recall-period,190,386093,null,"",,,,,,,,,
html-keyboard-response,191,386603,null,"Time's Up!",null,,,,,,,,
html-keyboard-response,192,432065,45454.879999990226,"<p> Good job! You responded correctly to 97% of the red squares.</p>
                  <p>Be sure to keep your accuracy above 80%</p>
                  <p>Press any key to continue the experiment. Thank you!</p>",32,,,,,,,,
html-keyboard-response,193,433523,1449.2150000005495,"<div style=""font-size:48px;"">Press any key to begin list 2 of 24 </div>",32,,,,,,,,
html-keyboard-response,194,436030,null,"<div style=""font-size:60px;"">+</div>",null,,,,,,,,
html-keyboard-response,195,436540,null,"RODENT<img id = ""stim"" ><div class = green_square id = ""topsquare"" ></div><img id = ""stim"" ><div class = green_square  id = ""bottomsquare"" ></div>",null,word_square,response,0,none,true,,,
html-keyboard-response,196,438047,null,"RODENT",null,word,,,,, 'RODENT',,
html-keyboard-response,197,438556,null,"THIMBLE<img id = ""stim"" ><div class = red_square id = ""topsquare"" ></div><img id = ""stim"" ><div class = red_square  id = ""bottomsquare"" ></div>",null,word_square,response,1,Space,false,,,
html-keyboard-response,198,440066,null,"THIMBLE",null,word,,,,, 'THIMBLE',,
html-keyboard-response,199,440575,null,"COSTUME<img id = ""stim"" ><div class = green_square id = ""topsquare"" ></div><img id = ""stim"" ><div class = green_square  id = ""bottomsquare"" ></div>",null,word_square,response,0,none,true,,,
html-keyboard-response,200,442082,null,"COSTUME",null,word,,,,, 'COSTUME',,
html-keyboard-response,201,442591,null,"JUGGLER<img id = ""stim"" ><div class = green_square id = ""topsquare"" ></div><img id = ""stim"" ><div class = green_square  id = ""bottomsquare"" ></div>",null,word_square,response,0,none,true,,,
html-keyboard-response,202,444096,null,"JUGGLER",null,word,,,,, 'JUGGLER',,
html-keyboard-response,203,444388,285.7349999976577,"NAPKIN<img id = ""stim"" ><div class = red_square id = ""topsquare"" ></div><img id = ""stim"" ><div class = red_square  id = ""bottomsquare"" ></div>",32,word_square,response,1,Space,true,,,
html-keyboard-response,204,445895,null,"NAPKIN",null,word,,,,, 'NAPKIN',,
html-keyboard-response,205,446404,null,"PATROL<img id = ""stim"" ><div class = green_square id = ""topsquare"" ></div><img id = ""stim"" ><div class = green_square  id = ""bottomsquare"" ></div>",null,word_square,response,0,none,true,,,
html-keyboard-response,206,447914,null,"PATROL",null,word,,,,, 'PATROL',,
html-keyboard-response,207,448425,null,"COLUMN<img id = ""stim"" ><div class = green_square id = ""topsquare"" ></div><img id = ""stim"" ><div class = green_square  id = ""bottomsquare"" ></div>",null,word_square,response,0,none,true,,,
html-keyboard-response,208,449933,null,"COLUMN",null,word,,,,, 'COLUMN',,
html-keyboard-response,209,450245,305.51000000559725,"ANKLE<img id = ""stim"" ><div class = red_square id = ""topsquare"" ></div><img id = ""stim"" ><div class = red_square  id = ""bottomsquare"" ></div>",32,word_square,response,1,Space,true,,,
html-keyboard-response,210,451752,null,"ANKLE",null,word,,,,, 'ANKLE',,
html-keyboard-response,211,452262,null,"CIGAR<img id = ""stim"" ><div class = green_square id = ""topsquare"" ></div><img id = ""stim"" ><div class = green_square  id = ""bottomsquare"" ></div>",null,word_square,response,0,none,true,,,
html-keyboard-response,212,453772,null,"CIGAR",null,word,,,,, 'CIGAR',,
html-keyboard-response,213,454282,null,"MAILMAN<img id = ""stim"" ><div class = green_square id = ""topsquare"" ></div><img id = ""stim"" ><div class = green_square  id = ""bottomsquare"" ></div>",null,word_square,response,0,none,true,,,
html-keyboard-response,214,455791,null,"MAILMAN",null,word,,,,, 'MAILMAN',,
html-keyboard-response,215,456078,279.8949999996694,"FRIES<img id = ""stim"" ><div class = red_square id = ""topsquare"" ></div><img id = ""stim"" ><div class = red_square  id = ""bottomsquare"" ></div>",32,word_square,response,1,Space,true,,,
html-keyboard-response,216,457586,null,"FRIES",null,word,,,,, 'FRIES',,
html-keyboard-response,217,458097,null,"NICKEL<img id = ""stim"" ><div class = green_square id = ""topsquare"" ></div><img id = ""stim"" ><div class = green_square  id = ""bottomsquare"" ></div>",null,word_square,response,0,none,true,,,
html-keyboard-response,218,459604,null,"NICKEL",null,word,,,,, 'NICKEL',,
html-keyboard-response,219,459900,287.57000000041444,"KNAPSACK<img id = ""stim"" ><div class = red_square id = ""topsquare"" ></div><img id = ""stim"" ><div class = red_square  id = ""bottomsquare"" ></div>",32,word_square,response,1,Space,true,,,
html-keyboard-response,220,461408,null,"KNAPSACK",null,word,,,,, 'KNAPSACK',,
html-keyboard-response,221,461735,321.2950000015553,"GUARD<img id = ""stim"" ><div class = red_square id = ""topsquare"" ></div><img id = ""stim"" ><div class = red_square  id = ""bottomsquare"" ></div>",32,word_square,response,1,Space,true,,,
html-keyboard-response,222,463243,null,"GUARD",null,word,,,,, 'GUARD',,
html-keyboard-response,223,463739,489.58999999740627,"ACTRESS<img id = ""stim"" ><div class = red_square id = ""topsquare"" ></div><img id = ""stim"" ><div class = red_square  id = ""bottomsquare"" ></div>",32,word_square,response,1,Space,true,,,
html-keyboard-response,224,465246,null,"ACTRESS",null,word,,,,, 'ACTRESS',,
html-keyboard-response,225,465755,null,"PADDING<img id = ""stim"" ><div class = green_square id = ""topsquare"" ></div><img id = ""stim"" ><div class = green_square  id = ""bottomsquare"" ></div>",null,word_square,response,0,none,true,,,
html-keyboard-response,226,467264,null,"PADDING",null,word,,,,, 'PADDING',,
html-keyboard-response,227,467657,388.2400000002235,"VELVET<img id = ""stim"" ><div class = red_square id = ""topsquare"" ></div><img id = ""stim"" ><div class = red_square  id = ""bottomsquare"" ></div>",32,word_square,response,1,Space,true,,,
html-keyboard-response,228,469166,null,"VELVET",null,word,,,,, 'VELVET',,
html-keyboard-response,229,469660,485.88500000187196,"BIBLE<img id = ""stim"" ><div class = red_square id = ""topsquare"" ></div><img id = ""stim"" ><div class = red_square  id = ""bottomsquare"" ></div>",32,word_square,response,1,Space,true,,,
html-keyboard-response,230,471167,null,"BIBLE",null,word,,,,, 'BIBLE',,
call-function,231,471172,,"",,,,,,,,,
html-keyboard-response,232,471280,null,"",null,,,,,,,,
math-period,233,475651,7822.194999986095,"",,,,,,,,,3
html-keyboard-response,234,475759,null,"",null,,,,,,,,
math-period,235,477092,2536.160000017844,"",,,,,,,,,2
html-keyboard-response,236,477197,null,"",null,,,,,,,,
math-period,237,478810,3131.22999999905,"",,,,,,,,,2
html-keyboard-response,238,478918,null,"",null,,,,,,,,
math-period,239,480428,2908.639999994193,"",,,,,,,,,1
html-keyboard-response,240,480534,null,"",null,,,,,,,,
math-period,241,481443,1709.62999999756,"",,,,,,,,,2
html-keyboard-response,242,481555,null,"",null,,,,,,,,
math-period,243,484406,5611.839999983204,"",,,,,,,,,3
html-keyboard-response,244,484514,null,"",null,,,,,,,,
math-period,245,488500,7834.375000005821,"",,,,,,,,,1
html-keyboard-response,246,488607,null,"",null,,,,,,,,
math-period,247,489955,2344.550000008894,"",,,,,,,,,3
html-keyboard-response,248,490062,null,"",null,,,,,,,,
math-period,249,491514,2708.7350000074366,"",,,,,,,,,4
html-keyboard-response,250,491623,null,"",null,,,,,,,,
math-period,251,494571,8998.360000026878,"",,,,,,,,,3
html-keyboard-response,252,494678,null,"",null,,,,,,,,
math-period,253,495184,null,"",,,,,,,,,
html-keyboard-response,254,496191,null,"Recall Period!",null,,,,,,,,
call-function,255,496197,,"",,,,,,,,,
html-keyboard-response,256,496305,null,"",null,,,,,,,,
recall-period,257,499754,15792.209999999614,"",,,,,,,,,bible
html-keyboard-response,258,499861,null,"",null,,,,,,,,
recall-period,259,506572,42144.97499997378,"",,,,,,,,,rodent
html-keyboard-response,260,506677,null,"",null,,,,,,,,
recall-period,261,514164,48494.16500001098,"",,,,,,,,,napkin
html-keyboard-response,262,514271,null,"",null,,,,,,,,
recall-period,263,519674,29738.545000029262,"",,,,,,,,,ankle
html-keyboard-response,264,519779,null,"",null,,,,,,,,
recall-period,265,526937,40784.86500000872,"",,,,,,,,,fries
html-keyboard-response,266,527046,null,"",null,,,,,,,,
recall-period,267,531848,25979.294999997364,"",,,,,,,,,guard
html-keyboard-response,268,531957,null,"",null,,,,,,,,
recall-period,269,540053,52741.58499996702,"",,,,,,,,,velvet
html-keyboard-response,270,540160,null,"",null,,,,,,,,
recall-period,271,571205,null,"",,,,,,,,,
html-keyboard-response,272,571717,null,"Time's Up!",null,,,,,,,,
html-keyboard-response,273,573919,2190.520000003744,"<p> Good job! You responded correctly to 96% of the red squares.</p>
                  <p>Be sure to keep your accuracy above 80%</p>
                  <p>Press any key to continue the experiment. Thank you!</p>",32,,,,,,,,
html-keyboard-response,274,578506,4581.0399999900255,"<div style=""font-size:48px;"">Press any key to begin list 3 of 24 </div>",32,,,,,,,,
html-keyboard-response,275,581014,null,"<div style=""font-size:60px;"">+</div>",null,,,,,,,,
html-keyboard-response,276,581453,430.82500000309665,"NEPHEW<img id = ""stim"" ><div class = red_square id = ""topsquare"" ></div><img id = ""stim"" ><div class = red_square  id = ""bottomsquare"" ></div>",32,word_square,response,1,Space,true,,,
html-keyboard-response,277,582962,null,"NEPHEW",null,word,,,,, 'NEPHEW',,
html-keyboard-response,278,583471,null,"DESSERT<img id = ""stim"" ><div class = green_square id = ""topsquare"" ></div><img id = ""stim"" ><div class = green_square  id = ""bottomsquare"" ></div>",null,word_square,response,0,none,true,,,
html-keyboard-response,279,584980,null,"DESSERT",null,word,,,,, 'DESSERT',,
html-keyboard-response,280,585327,337.3399999982212,"BOYFRIEND<img id = ""stim"" ><div class = red_square id = ""topsquare"" ></div><img id = ""stim"" ><div class = red_square  id = ""bottomsquare"" ></div>",32,word_square,response,1,Space,true,,,
html-keyboard-response,281,586836,null,"BOYFRIEND",null,word,,,,, 'BOYFRIEND',,
html-keyboard-response,282,587226,383.2150000089314,"WIFE<img id = ""stim"" ><div class = red_square id = ""topsquare"" ></div><img id = ""stim"" ><div class = red_square  id = ""bottomsquare"" ></div>",32,word_square,response,1,Space,true,,,
html-keyboard-response,283,588736,null,"WIFE",null,word,,,,, 'WIFE',,
html-keyboard-response,284,589245,null,"GAUZE<img id = ""stim"" ><div class = green_square id = ""topsquare"" ></div><img id = ""stim"" ><div class = green_square  id = ""bottomsquare"" ></div>",null,word_square,response,0,none,true,,,
html-keyboard-response,285,590755,null,"GAUZE",null,word,,,,, 'GAUZE',,
html-keyboard-response,286,591114,352.27499999746215,"NOMAD<img id = ""stim"" ><div class = red_square id = ""topsquare"" ></div><img id = ""stim"" ><div class = red_square  id = ""bottomsquare"" ></div>",32,word_square,response,1,Space,true,,,
html-keyboard-response,287,592619,null,"NOMAD",null,word,,,,, 'NOMAD',,
html-keyboard-response,288,592990,363.245000000461,"PECAN<img id = ""stim"" ><div class = red_square id = ""topsquare"" ></div><img id = ""stim"" ><div class = red_square  id = ""bottomsquare"" ></div>",32,word_square,response,1,Space,true,,,
html-keyboard-response,289,594497,null,"PECAN",null,word,,,,, 'PECAN',,
html-keyboard-response,290,595006,null,"FLASK<img id = ""stim"" ><div class = green_square id = ""topsquare"" ></div><img id = ""stim"" ><div class = green_square  id = ""bottomsquare"" ></div>",null,word_square,response,0,none,true,,,
html-keyboard-response,291,596514,null,"FLASK",null,word,,,,, 'FLASK',,
html-keyboard-response,292,596816,295.6550000089919,"AIRPORT<img id = ""stim"" ><div class = red_square id = ""topsquare"" ></div><img id = ""stim"" ><div class = red_square  id = ""bottomsquare"" ></div>",32,word_square,response,1,Space,true,,,
html-keyboard-response,293,598326,null,"AIRPORT",null,word,,,,, 'AIRPORT',,
html-keyboard-response,294,598657,323.2350000034785,"UMPIRE<img id = ""stim"" ><div class = red_square id = ""topsquare"" ></div><img id = ""stim"" ><div class = red_square  id = ""bottomsquare"" ></div>",32,word_square,response,1,Space,true,,,
html-keyboard-response,295,600164,null,"UMPIRE",null,word,,,,, 'UMPIRE',,
html-keyboard-response,296,600674,null,"CATCHER<img id = ""stim"" ><div class = green_square id = ""topsquare"" ></div><img id = ""stim"" ><div class = green_square  id = ""bottomsquare"" ></div>",null,word_square,response,0,none,true,,,
html-keyboard-response,297,602185,null,"CATCHER",null,word,,,,, 'CATCHER',,
html-keyboard-response,298,602520,326.1799999891082,"LOVER<img id = ""stim"" ><div class = red_square id = ""topsquare"" ></div><img id = ""stim"" ><div class = red_square  id = ""bottomsquare"" ></div>",32,word_square,response,1,Space,true,,,
html-keyboard-response,299,604031,null,"LOVER",null,word,,,,, 'LOVER',,
html-keyboard-response,300,604541,null,"BOULDER<img id = ""stim"" ><div class = green_square id = ""topsquare"" ></div><img id = ""stim"" ><div class = green_square  id = ""bottomsquare"" ></div>",null,word_square,response,0,none,true,,,
html-keyboard-response,301,606052,null,"BOULDER",null,word,,,,, 'BOULDER',,
html-keyboard-response,302,606559,null,"TRANSPLANT<img id = ""stim"" ><div class = green_square id = ""topsquare"" ></div><img id = ""stim"" ><div class = green_square  id = ""bottomsquare"" ></div>",null,word_square,response,0,none,true,,,
html-keyboard-response,303,608067,null,"TRANSPLANT",null,word,,,,, 'TRANSPLANT',,
html-keyboard-response,304,608575,null,"THRONE<img id = ""stim"" ><div class = green_square id = ""topsquare"" ></div><img id = ""stim"" ><div class = green_square  id = ""bottomsquare"" ></div>",null,word_square,response,0,none,true,,,
html-keyboard-response,305,610086,null,"THRONE",null,word,,,,, 'THRONE',,
html-keyboard-response,306,610384,293.7149999925168,"PRINCESS<img id = ""stim"" ><div class = red_square id = ""topsquare"" ></div><img id = ""stim"" ><div class = red_square  id = ""bottomsquare"" ></div>",32,word_square,response,1,Space,true,,,
html-keyboard-response,307,611892,null,"PRINCESS",null,word,,,,, 'PRINCESS',,
html-keyboard-response,308,612401,null,"COCKTAIL<img id = ""stim"" ><div class = green_square id = ""topsquare"" ></div><img id = ""stim"" ><div class = green_square  id = ""bottomsquare"" ></div>",null,word_square,response,0,none,true,,,
html-keyboard-response,309,613910,null,"COCKTAIL",null,word,,,,, 'COCKTAIL',,
html-keyboard-response,310,614421,null,"CRADLE<img id = ""stim"" ><div class = green_square id = ""topsquare"" ></div><img id = ""stim"" ><div class = green_square  id = ""bottomsquare"" ></div>",null,word_square,response,0,none,true,,,
html-keyboard-response,311,615930,null,"CRADLE",null,word,,,,, 'CRADLE',,
call-function,312,615936,,"",,,,,,,,,
html-keyboard-response,313,616045,null,"",null,,,,,,,,
math-period,314,618654,4665.035000012722,"",,,,,,,,,2
html-keyboard-response,315,618762,null,"",null,,,,,,,,
math-period,316,622764,7073.919999980717,"",,,,,,,,,6
html-keyboard-response,317,622871,null,"",null,,,,,,,,
math-period,318,624895,3933.0400000035297,"",,,,,,,,,2
html-keyboard-response,319,625003,null,"",null,,,,,,,,
math-period,320,626375,2609.184999993886,"",,,,,,,,,2
html-keyboard-response,321,626481,null,"",null,,,,,,,,
math-period,322,629015,4945.510000005015,"",,,,,,,,,5
html-keyboard-response,323,629121,null,"",null,,,,,,,,
math-period,324,630757,3185.1300000125775,"",,,,,,,,,4
html-keyboard-response,325,630861,null,"",null,,,,,,,,
math-period,326,633888,5975.644999998622,"",,,,,,,,,3
html-keyboard-response,327,633995,null,"",null,,,,,,,,
math-period,328,635011,1905.5150000058347,"",,,,,,,,,3
html-keyboard-response,329,635120,null,"",null,,,,,,,,
math-period,330,636272,2166.4899999886984,"",,,,,,,,,3
html-keyboard-response,331,636381,null,"",null,,,,,,,,
math-period,332,639026,5131.079999991925,"",,,,,,,,,3
html-keyboard-response,333,639131,null,"",null,,,,,,,,
math-period,334,639940,744.8249999870313,"",,,,,,,,,3
html-keyboard-response,335,640947,null,"Recall Period!",null,,,,,,,,
call-function,336,640955,,"",,,,,,,,,
html-keyboard-response,337,641061,null,"",null,,,,,,,,
recall-period,338,646846,34167.88500001712,"",,,,,,,,,nephew
html-keyboard-response,339,646955,null,"",null,,,,,,,,
recall-period,340,656475,166392.97999985865,"",,,,,,,,,boyfriend
html-keyboard-response,341,656585,null,"",null,,,,,,,,
recall-period,342,657798,2997.8699999774108,"",,,,,,,,,wife
html-keyboard-response,343,657908,null,"",null,,,,,,,,
recall-period,344,661001,15706.549999988056,"",,,,,,,,,pecan
html-keyboard-response,345,661108,null,"",null,,,,,,,,
recall-period,346,670467,53754.59000002593,"",,,,,,,,,lover
html-keyboard-response,347,670578,null,"",null,,,,,,,,
recall-period,348,715959,null,"",,,,,,,,,
html-keyboard-response,349,716468,null,"Time's Up!",null,,,,,,,,
html-keyboard-response,350,717895,1420.3600000037113,"<p> Good job! You responded correctly to 97% of the red squares.</p>
                  <p>Be sure to keep your accuracy above 80%</p>
                  <p>Press any key to continue the experiment. Thank you!</p>",32,,,,,,,,
html-keyboard-response,351,719477,1575.6750000000466,"<div style=""font-size:48px;"">Press any key to begin list 4 of 24 </div>",32,,,,,,,,
html-keyboard-response,352,721988,null,"<div style=""font-size:60px;"">+</div>",null,,,,,,,,
html-keyboard-response,353,722386,390.0549999962095,"BRAKE<img id = ""stim"" ><div class = red_square id = ""topsquare"" ></div><img id = ""stim"" ><div class = red_square  id = ""bottomsquare"" ></div>",32,word_square,response,1,Space,true,,,
html-keyboard-response,354,723892,null,"BRAKE",null,word,,,,, 'BRAKE',,
html-keyboard-response,355,724400,null,"WASP<img id = ""stim"" ><div class = green_square id = ""topsquare"" ></div><img id = ""stim"" ><div class = green_square  id = ""bottomsquare"" ></div>",null,word_square,response,0,none,true,,,
html-keyboard-response,356,725909,null,"WASP",null,word,,,,, 'WASP',,
html-keyboard-response,357,726421,null,"SHRIMP<img id = ""stim"" ><div class = red_square id = ""topsquare"" ></div><img id = ""stim"" ><div class = red_square  id = ""bottomsquare"" ></div>",null,word_square,response,1,Space,false,,,
html-keyboard-response,358,727930,null,"SHRIMP",null,word,,,,, 'SHRIMP',,
html-keyboard-response,359,728305,367.4250000040047,"CLIMBER<img id = ""stim"" ><div class = red_square id = ""topsquare"" ></div><img id = ""stim"" ><div class = red_square  id = ""bottomsquare"" ></div>",32,word_square,response,1,Space,true,,,
html-keyboard-response,360,729814,null,"CLIMBER",null,word,,,,, 'CLIMBER',,
html-keyboard-response,361,730321,null,"BRANCH<img id = ""stim"" ><div class = green_square id = ""topsquare"" ></div><img id = ""stim"" ><div class = green_square  id = ""bottomsquare"" ></div>",null,word_square,response,0,none,true,,,
html-keyboard-response,362,731830,null,"BRANCH",null,word,,,,, 'BRANCH',,
html-keyboard-response,363,732245,404.72000000590924,"HEART<img id = ""stim"" ><div class = red_square id = ""topsquare"" ></div><img id = ""stim"" ><div class = red_square  id = ""bottomsquare"" ></div>",32,word_square,response,1,Space,true,,,
html-keyboard-response,364,733754,null,"HEART",null,word,,,,, 'HEART',,
html-keyboard-response,365,734204,441.1699999909615,"BRUNETTE<img id = ""stim"" ><div class = red_square id = ""topsquare"" ></div><img id = ""stim"" ><div class = red_square  id = ""bottomsquare"" ></div>",32,word_square,response,1,Space,true,,,
html-keyboard-response,366,735715,null,"BRUNETTE",null,word,,,,, 'BRUNETTE',,
html-keyboard-response,367,736224,null,"TULIP<img id = ""stim"" ><div class = green_square id = ""topsquare"" ></div><img id = ""stim"" ><div class = green_square  id = ""bottomsquare"" ></div>",null,word_square,response,0,none,true,,,
html-keyboard-response,368,737732,null,"TULIP",null,word,,,,, 'TULIP',,
html-keyboard-response,369,738099,358.34500000055414,"FAUCET<img id = ""stim"" ><div class = red_square id = ""topsquare"" ></div><img id = ""stim"" ><div class = red_square  id = ""bottomsquare"" ></div>",32,word_square,response,1,Space,true,,,
html-keyboard-response,370,739610,null,"FAUCET",null,word,,,,, 'FAUCET',,
html-keyboard-response,371,740121,null,"PATIENT<img id = ""stim"" ><div class = red_square id = ""topsquare"" ></div><img id = ""stim"" ><div class = red_square  id = ""bottomsquare"" ></div>",null,word_square,response,1,Space,false,,,
html-keyboard-response,372,741628,null,"PATIENT",null,word,,,,, 'PATIENT',,
html-keyboard-response,373,742134,null,"NURSE<img id = ""stim"" ><div class = green_square id = ""topsquare"" ></div><img id = ""stim"" ><div class = green_square  id = ""bottomsquare"" ></div>",null,word_square,response,0,none,true,,,
html-keyboard-response,374,743641,null,"NURSE",null,word,,,,, 'NURSE',,
html-keyboard-response,375,744151,null,"TRIGGER<img id = ""stim"" ><div class = red_square id = ""topsquare"" ></div><img id = ""stim"" ><div class = red_square  id = ""bottomsquare"" ></div>",null,word_square,response,1,Space,false,,,
html-keyboard-response,376,745660,null,"TRIGGER",null,word,,,,, 'TRIGGER',,
html-keyboard-response,377,746170,null,"NEPTUNE<img id = ""stim"" ><div class = green_square id = ""topsquare"" ></div><img id = ""stim"" ><div class = green_square  id = ""bottomsquare"" ></div>",null,word_square,response,0,none,true,,,
html-keyboard-response,378,747679,null,"NEPTUNE",null,word,,,,, 'NEPTUNE',,
html-keyboard-response,379,748036,348.7099999911152,"FLASHLIGHT<img id = ""stim"" ><div class = green_square id = ""topsquare"" ></div><img id = ""stim"" ><div class = green_square  id = ""bottomsquare"" ></div>",32,word_square,response,0,none,false,,,
html-keyboard-response,380,749544,null,"FLASHLIGHT",null,word,,,,, 'FLASHLIGHT',,
html-keyboard-response,381,750050,null,"FRECKLE<img id = ""stim"" ><div class = green_square id = ""topsquare"" ></div><img id = ""stim"" ><div class = green_square  id = ""bottomsquare"" ></div>",null,word_square,response,0,none,true,,,
html-keyboard-response,382,751560,null,"FRECKLE",null,word,,,,, 'FRECKLE',,
html-keyboard-response,383,752057,489.87999999371823,"POLICE<img id = ""stim"" ><div class = red_square id = ""topsquare"" ></div><img id = ""stim"" ><div class = red_square  id = ""bottomsquare"" ></div>",32,word_square,response,1,Space,true,,,
html-keyboard-response,384,753564,null,"POLICE",null,word,,,,, 'POLICE',,
html-keyboard-response,385,754074,null,"AGENT<img id = ""stim"" ><div class = green_square id = ""topsquare"" ></div><img id = ""stim"" ><div class = green_square  id = ""bottomsquare"" ></div>",null,word_square,response,0,none,true,,,
html-keyboard-response,386,755583,null,"AGENT",null,word,,,,, 'AGENT',,
html-keyboard-response,387,756093,null,"DONOR<img id = ""stim"" ><div class = green_square id = ""topsquare"" ></div><img id = ""stim"" ><div class = green_square  id = ""bottomsquare"" ></div>",null,word_square,response,0,none,true,,,
html-keyboard-response,388,757603,null,"DONOR",null,word,,,,, 'DONOR',,
call-function,389,757610,,"",,,,,,,,,
html-keyboard-response,390,757717,null,"",null,,,,,,,,
math-period,391,759666,3496.1899999907473,"",,,,,,,,,2
html-keyboard-response,392,759774,null,"",null,,,,,,,,
math-period,393,761151,2632.1750000061,"",,,,,,,,,1
html-keyboard-response,394,761259,null,"",null,,,,,,,,
math-period,395,762674,2701.374999989639,"",,,,,,,,,2
html-keyboard-response,396,762782,null,"",null,,,,,,,,
math-period,397,764162,2660.9500000049593,"",,,,,,,,,4
html-keyboard-response,398,764271,null,"",null,,,,,,,,
math-period,399,765350,2039.760000014212,"",,,,,,,,,4
html-keyboard-response,400,765460,null,"",null,,,,,,,,
math-period,401,766932,2811.87500001397,"",,,,,,,,,6
html-keyboard-response,402,767042,null,"",null,,,,,,,,
math-period,403,769098,4013.07000000088,"",,,,,,,,,3
html-keyboard-response,404,769203,null,"",null,,,,,,,,
math-period,405,770532,2516.764999993029,"",,,,,,,,,5
html-keyboard-response,406,770637,null,"",null,,,,,,,,
math-period,407,771931,2490.7300000049872,"",,,,,,,,,6
html-keyboard-response,408,772039,null,"",null,,,,,,,,
math-period,409,773578,2986.925000004703,"",,,,,,,,,2
html-keyboard-response,410,773684,null,"",null,,,,,,,,
math-period,411,775012,2557.0600000064587,"",,,,,,,,,4
html-keyboard-response,412,775121,null,"",null,,,,,,,,
math-period,413,776150,1986.3750000076834,"",,,,,,,,,4
html-keyboard-response,414,776259,null,"",null,,,,,,,,
math-period,415,777849,3105.284999983269,"",,,,,,,,,5
html-keyboard-response,416,777955,null,"",null,,,,,,,,
math-period,417,779284,2567.8250000055414,"",,,,,,,,,3
html-keyboard-response,418,779391,null,"",null,,,,,,,,
math-period,419,781059,3227.9899999848567,"",,,,,,,,,1
html-keyboard-response,420,781167,null,"",null,,,,,,,,
math-period,421,781615,null,"",,,,,,,,,
html-keyboard-response,422,782623,null,"Recall Period!",null,,,,,,,,
call-function,423,782626,,"",,,,,,,,,
html-keyboard-response,424,782734,null,"",null,,,,,,,,
recall-period,425,785317,9228.410000025178,"",,,,,,,,,break
html-keyboard-response,426,785425,null,"",null,,,,,,,,
recall-period,427,787945,12031.745000058436,"",,,,,,,,,climber
html-keyboard-response,428,788054,null,"",null,,,,,,,,
recall-period,429,790947,13605.84000000381,"",,,,,,,,,donor
html-keyboard-response,430,791057,null,"",null,,,,,,,,
recall-period,431,795243,31630.515000011656,"",,,,,,,,,brunette
html-keyboard-response,432,795350,null,"",null,,,,,,,,
recall-period,433,798385,15237.17500003113,"",,,,,,,,,shift
html-keyboard-response,434,798492,null,"",null,,,,,,,,
recall-period,435,857637,null,"",,,,,,,,,
html-keyboard-response,436,858148,null,"Time's Up!",null,,,,,,,,
html-keyboard-response,437,859919,1762.6149999996414,"<p> Good job! You responded correctly to 93% of the red squares.</p>
                  <p>Be sure to keep your accuracy above 80%</p>
                  <p>Press any key to continue the experiment. Thank you!</p>",32,,,,,,,,
html-keyboard-response,438,860846,921.3999999919906,"<div style=""font-size:48px;"">Press any key to begin list 5 of 24 </div>",32,,,,,,,,
html-keyboard-response,439,863356,null,"<div style=""font-size:60px;"">+</div>",null,,,,,,,,
html-keyboard-response,440,863868,null,"PUMPKIN<img id = ""stim"" ><div class = red_square id = ""topsquare"" ></div><img id = ""stim"" ><div class = red_square  id = ""bottomsquare"" ></div>",null,word_square,response,1,Space,false,,,
html-keyboard-response,441,865376,null,"PUMPKIN",null,word,,,,, 'PUMPKIN',,
html-keyboard-response,442,865742,357.79500000353437,"TEAPOT<img id = ""stim"" ><div class = red_square id = ""topsquare"" ></div><img id = ""stim"" ><div class = red_square  id = ""bottomsquare"" ></div>",32,word_square,response,1,Space,true,,,
html-keyboard-response,443,867250,null,"TEAPOT",null,word,,,,, 'TEAPOT',,
html-keyboard-response,444,867760,null,"TRUCK<img id = ""stim"" ><div class = green_square id = ""topsquare"" ></div><img id = ""stim"" ><div class = green_square  id = ""bottomsquare"" ></div>",null,word_square,response,0,none,true,,,
html-keyboard-response,445,869271,null,"TRUCK",null,word,,,,, 'TRUCK',,
html-keyboard-response,446,869773,492.0399999973597,"GARBAGE<img id = ""stim"" ><div class = red_square id = ""topsquare"" ></div><img id = ""stim"" ><div class = red_square  id = ""bottomsquare"" ></div>",32,word_square,response,1,Space,true,,,
html-keyboard-response,447,871283,null,"GARBAGE",null,word,,,,, 'GARBAGE',,
html-keyboard-response,448,871795,null,"CLERK<img id = ""stim"" ><div class = green_square id = ""topsquare"" ></div><img id = ""stim"" ><div class = green_square  id = ""bottomsquare"" ></div>",null,word_square,response,0,none,true,,,
html-keyboard-response,449,873303,null,"CLERK",null,word,,,,, 'CLERK',,
html-keyboard-response,450,873712,402.27500000037253,"VIRUS<img id = ""stim"" ><div class = red_square id = ""topsquare"" ></div><img id = ""stim"" ><div class = red_square  id = ""bottomsquare"" ></div>",32,word_square,response,1,Space,true,,,
html-keyboard-response,451,875220,null,"VIRUS",null,word,,,,, 'VIRUS',,
html-keyboard-response,452,875731,null,"CRIB<img id = ""stim"" ><div class = green_square id = ""topsquare"" ></div><img id = ""stim"" ><div class = green_square  id = ""bottomsquare"" ></div>",null,word_square,response,0,none,true,,,
html-keyboard-response,453,877242,null,"CRIB",null,word,,,,, 'CRIB',,
html-keyboard-response,454,877754,null,"BRICK<img id = ""stim"" ><div class = green_square id = ""topsquare"" ></div><img id = ""stim"" ><div class = green_square  id = ""bottomsquare"" ></div>",null,word_square,response,0,none,true,,,
html-keyboard-response,455,879269,null,"BRICK",null,word,,,,, 'BRICK',,
html-keyboard-response,456,879576,297.2250000020722,"FARMER<img id = ""stim"" ><div class = red_square id = ""topsquare"" ></div><img id = ""stim"" ><div class = red_square  id = ""bottomsquare"" ></div>",32,word_square,response,1,Space,true,,,
html-keyboard-response,457,881084,null,"FARMER",null,word,,,,, 'FARMER',,
html-keyboard-response,458,881596,null,"HEDGE<img id = ""stim"" ><div class = green_square id = ""topsquare"" ></div><img id = ""stim"" ><div class = green_square  id = ""bottomsquare"" ></div>",null,word_square,response,0,none,true,,,
html-keyboard-response,459,883102,null,"HEDGE",null,word,,,,, 'HEDGE',,
html-keyboard-response,460,883434,324.76499999756925,"STABLE<img id = ""stim"" ><div class = red_square id = ""topsquare"" ></div><img id = ""stim"" ><div class = red_square  id = ""bottomsquare"" ></div>",32,word_square,response,1,Space,true,,,
html-keyboard-response,461,884942,null,"STABLE",null,word,,,,, 'STABLE',,
html-keyboard-response,462,885457,null,"WIDOW<img id = ""stim"" ><div class = red_square id = ""topsquare"" ></div><img id = ""stim"" ><div class = red_square  id = ""bottomsquare"" ></div>",null,word_square,response,1,Space,false,,,
html-keyboard-response,463,886966,null,"WIDOW",null,word,,,,, 'WIDOW',,
html-keyboard-response,464,887476,null,"GLACIER<img id = ""stim"" ><div class = green_square id = ""topsquare"" ></div><img id = ""stim"" ><div class = green_square  id = ""bottomsquare"" ></div>",null,word_square,response,0,none,true,,,
html-keyboard-response,465,888986,null,"GLACIER",null,word,,,,, 'GLACIER',,
html-keyboard-response,466,889496,null,"FREEZER<img id = ""stim"" ><div class = green_square id = ""topsquare"" ></div><img id = ""stim"" ><div class = green_square  id = ""bottomsquare"" ></div>",null,word_square,response,0,none,true,,,
html-keyboard-response,467,891005,null,"FREEZER",null,word,,,,, 'FREEZER',,
html-keyboard-response,468,891458,443.6649999988731,"SQUIRREL<img id = ""stim"" ><div class = red_square id = ""topsquare"" ></div><img id = ""stim"" ><div class = red_square  id = ""bottomsquare"" ></div>",32,word_square,response,1,Space,true,,,
html-keyboard-response,469,892968,null,"SQUIRREL",null,word,,,,, 'SQUIRREL',,
html-keyboard-response,470,893478,null,"ZIPPER<img id = ""stim"" ><div class = green_square id = ""topsquare"" ></div><img id = ""stim"" ><div class = green_square  id = ""bottomsquare"" ></div>",null,word_square,response,0,none,true,,,
html-keyboard-response,471,894987,null,"ZIPPER",null,word,,,,, 'ZIPPER',,
html-keyboard-response,472,895497,null,"SKIRT<img id = ""stim"" ><div class = green_square id = ""topsquare"" ></div><img id = ""stim"" ><div class = green_square  id = ""bottomsquare"" ></div>",null,word_square,response,0,none,true,,,
html-keyboard-response,473,897007,null,"SKIRT",null,word,,,,, 'SKIRT',,
html-keyboard-response,474,897342,325.95499999297317,"BANDIT<img id = ""stim"" ><div class = red_square id = ""topsquare"" ></div><img id = ""stim"" ><div class = red_square  id = ""bottomsquare"" ></div>",32,word_square,response,1,Space,true,,,
html-keyboard-response,475,898851,null,"BANDIT",null,word,,,,, 'BANDIT',,
call-function,476,898859,,"",,,,,,,,,
html-keyboard-response,477,898970,null,"",null,,,,,,,,
math-period,478,901526,4956.429999991087,"",,,,,,,,,1
html-keyboard-response,479,901631,null,"",null,,,,,,,,
math-period,480,903144,2893.7299999961397,"",,,,,,,,,1
html-keyboard-response,481,903254,null,"",null,,,,,,,,
math-period,482,905209,3769.6450000075856,"",,,,,,,,,4
html-keyboard-response,483,905318,null,"",null,,,,,,,,
math-period,484,907357,3937.5249999866355,"",,,,,,,,,5
html-keyboard-response,485,907466,null,"",null,,,,,,,,
math-period,486,908862,2696.605000004638,"",,,,,,,,,1
html-keyboard-response,487,908970,null,"",null,,,,,,,,
math-period,488,910338,2634.7099999984493,"",,,,,,,,,4
html-keyboard-response,489,910446,null,"",null,,,,,,,,
math-period,490,911468,1949.5399999868823,"",,,,,,,,,4
html-keyboard-response,491,911576,null,"",null,,,,,,,,
math-period,492,912839,2379.7900000063237,"",,,,,,,,,2
html-keyboard-response,493,912946,null,"",null,,,,,,,,
math-period,494,914191,2388.9150000031805,"",,,,,,,,,3
html-keyboard-response,495,914302,null,"",null,,,,,,,,
math-period,496,915720,2713.4399999922607,"",,,,,,,,,4
html-keyboard-response,497,915830,null,"",null,,,,,,,,
math-period,498,917212,2649.150000012014,"",,,,,,,,,3
html-keyboard-response,499,917321,null,"",null,,,,,,,,
math-period,500,918702,2679.9600000231294,"",,,,,,,,,4
html-keyboard-response,501,918808,null,"",null,,,,,,,,
math-period,502,919861,2010.134999989532,"",,,,,,,,,4
html-keyboard-response,503,919968,null,"",null,,,,,,,,
math-period,504,921295,2571.2600000115344,"",,,,,,,,,6
html-keyboard-response,505,921402,null,"",null,,,,,,,,
math-period,506,922862,null,"",,,,,,,,,
html-keyboard-response,507,923870,null,"Recall Period!",null,,,,,,,,
call-function,508,923875,,"",,,,,,,,,
html-keyboard-response,509,923981,null,"",null,,,,,,,,
recall-period,510,927967,21829.54500008782,"",,,,,,,,,pumpkin
html-keyboard-response,511,928076,null,"",null,,,,,,,,
recall-period,512,929452,5274.915000045439,"",,,,,,,,,teapot
html-keyboard-response,513,929560,null,"",null,,,,,,,,
recall-period,514,930986,5094.759999992675,"",,,,,,,,,garbage
html-keyboard-response,515,931093,null,"",null,,,,,,,,
recall-period,516,931997,3291.4900000032503,"",,,,,,,,,farmer
html-keyboard-response,517,932106,null,"",null,,,,,,,,
recall-period,518,933368,4558.294999980717,"",,,,,,,,,virus
html-keyboard-response,519,933475,null,"",null,,,,,,,,
recall-period,520,935631,13442.725000059,"",,,,,,,,,squirrel
html-keyboard-response,521,935741,null,"",null,,,,,,,,
recall-period,522,998880,null,"",,,,,,,,,
html-keyboard-response,523,999391,null,"Time's Up!",null,,,,,,,,
html-keyboard-response,524,1000909,1510.8949999994365,"<p> Good job! You responded correctly to 93% of the red squares.</p>
                  <p>Be sure to keep your accuracy above 80%</p>
                  <p>Press any key to continue the experiment. Thank you!</p>",32,,,,,,,,
html-keyboard-response,525,1002283,1366.0300000046846,"<div style=""font-size:48px;"">Press any key to begin list 6 of 24 </div>",32,,,,,,,,
html-keyboard-response,526,1004792,null,"<div style=""font-size:60px;"">+</div>",null,,,,,,,,
html-keyboard-response,527,1005292,489.73499999556225,"ROBBER<img id = ""stim"" ><div class = red_square id = ""topsquare"" ></div><img id = ""stim"" ><div class = red_square  id = ""bottomsquare"" ></div>",32,word_square,response,1,Space,true,,,
html-keyboard-response,528,1006797,null,"ROBBER",null,word,,,,, 'ROBBER',,
html-keyboard-response,529,1007159,352.7800000010757,"BANK<img id = ""stim"" ><div class = red_square id = ""topsquare"" ></div><img id = ""stim"" ><div class = red_square  id = ""bottomsquare"" ></div>",32,word_square,response,1,Space,true,,,
html-keyboard-response,530,1008668,null,"BANK",null,word,,,,, 'BANK',,
html-keyboard-response,531,1009181,null,"MOTHER<img id = ""stim"" ><div class = green_square id = ""topsquare"" ></div><img id = ""stim"" ><div class = green_square  id = ""bottomsquare"" ></div>",null,word_square,response,0,none,true,,,
html-keyboard-response,532,1010689,null,"MOTHER",null,word,,,,, 'MOTHER',,
html-keyboard-response,533,1011160,464.98499999870546,"WITNESS<img id = ""stim"" ><div class = red_square id = ""topsquare"" ></div><img id = ""stim"" ><div class = red_square  id = ""bottomsquare"" ></div>",32,word_square,response,1,Space,true,,,
html-keyboard-response,534,1012668,null,"WITNESS",null,word,,,,, 'WITNESS',,
html-keyboard-response,535,1013178,null,"OUTLAW<img id = ""stim"" ><div class = green_square id = ""topsquare"" ></div><img id = ""stim"" ><div class = green_square  id = ""bottomsquare"" ></div>",null,word_square,response,0,none,true,,,
html-keyboard-response,536,1014687,null,"OUTLAW",null,word,,,,, 'OUTLAW',,
html-keyboard-response,537,1015066,370.9799999924144,"SQUID<img id = ""stim"" ><div class = red_square id = ""topsquare"" ></div><img id = ""stim"" ><div class = red_square  id = ""bottomsquare"" ></div>",32,word_square,response,1,Space,true,,,
html-keyboard-response,538,1016574,null,"SQUID",null,word,,,,, 'SQUID',,
html-keyboard-response,539,1017085,null,"GLOVE<img id = ""stim"" ><div class = green_square id = ""topsquare"" ></div><img id = ""stim"" ><div class = green_square  id = ""bottomsquare"" ></div>",null,word_square,response,0,none,true,,,
html-keyboard-response,540,1018597,null,"GLOVE",null,word,,,,, 'GLOVE',,
html-keyboard-response,541,1019105,null,"CONTRACT<img id = ""stim"" ><div class = green_square id = ""topsquare"" ></div><img id = ""stim"" ><div class = green_square  id = ""bottomsquare"" ></div>",null,word_square,response,0,none,true,,,
html-keyboard-response,542,1020615,null,"CONTRACT",null,word,,,,, 'CONTRACT',,
html-keyboard-response,543,1021122,null,"VILLAGE<img id = ""stim"" ><div class = red_square id = ""topsquare"" ></div><img id = ""stim"" ><div class = red_square  id = ""bottomsquare"" ></div>",null,word_square,response,1,Space,false,,,
html-keyboard-response,544,1022627,null,"VILLAGE",null,word,,,,, 'VILLAGE',,
html-keyboard-response,545,1023132,null,"LOBBY<img id = ""stim"" ><div class = green_square id = ""topsquare"" ></div><img id = ""stim"" ><div class = green_square  id = ""bottomsquare"" ></div>",null,word_square,response,0,none,true,,,
html-keyboard-response,546,1024638,null,"LOBBY",null,word,,,,, 'LOBBY',,
html-keyboard-response,547,1025124,480.03000000608154,"NOVEL<img id = ""stim"" ><div class = red_square id = ""topsquare"" ></div><img id = ""stim"" ><div class = red_square  id = ""bottomsquare"" ></div>",32,word_square,response,1,Space,true,,,
html-keyboard-response,548,1026629,null,"NOVEL",null,word,,,,, 'NOVEL',,
html-keyboard-response,549,1027138,null,"GUITAR<img id = ""stim"" ><div class = red_square id = ""topsquare"" ></div><img id = ""stim"" ><div class = red_square  id = ""bottomsquare"" ></div>",null,word_square,response,1,Space,false,,,
html-keyboard-response,550,1028649,null,"GUITAR",null,word,,,,, 'GUITAR',,
html-keyboard-response,551,1029158,null,"FOOTBALL<img id = ""stim"" ><div class = green_square id = ""topsquare"" ></div><img id = ""stim"" ><div class = green_square  id = ""bottomsquare"" ></div>",null,word_square,response,0,none,true,,,
html-keyboard-response,552,1030670,null,"FOOTBALL",null,word,,,,, 'FOOTBALL',,
html-keyboard-response,553,1031182,null,"SOFTBALL<img id = ""stim"" ><div class = green_square id = ""topsquare"" ></div><img id = ""stim"" ><div class = green_square  id = ""bottomsquare"" ></div>",null,word_square,response,0,none,true,,,
html-keyboard-response,554,1032691,null,"SOFTBALL",null,word,,,,, 'SOFTBALL',,
html-keyboard-response,555,1033189,485.964999999851,"CAFE<img id = ""stim"" ><div class = red_square id = ""topsquare"" ></div><img id = ""stim"" ><div class = red_square  id = ""bottomsquare"" ></div>",32,word_square,response,1,Space,true,,,
html-keyboard-response,556,1034697,null,"CAFE",null,word,,,,, 'CAFE',,
html-keyboard-response,557,1035206,null,"CREEK<img id = ""stim"" ><div class = green_square id = ""topsquare"" ></div><img id = ""stim"" ><div class = green_square  id = ""bottomsquare"" ></div>",null,word_square,response,0,none,true,,,
html-keyboard-response,558,1036714,null,"CREEK",null,word,,,,, 'CREEK',,
html-keyboard-response,559,1037223,null,"DRESS<img id = ""stim"" ><div class = green_square id = ""topsquare"" ></div><img id = ""stim"" ><div class = green_square  id = ""bottomsquare"" ></div>",null,word_square,response,0,none,true,,,
html-keyboard-response,560,1038732,null,"DRESS",null,word,,,,, 'DRESS',,
html-keyboard-response,561,1039179,439.17499999224674,"SICKLE<img id = ""stim"" ><div class = red_square id = ""topsquare"" ></div><img id = ""stim"" ><div class = red_square  id = ""bottomsquare"" ></div>",32,word_square,response,1,Space,true,,,
html-keyboard-response,562,1040687,null,"SICKLE",null,word,,,,, 'SICKLE',,
call-function,563,1040695,,"",,,,,,,,,
html-keyboard-response,564,1040803,null,"",null,,,,,,,,
math-period,565,1042719,3565.954999998212,"",,,,,,,,,2
html-keyboard-response,566,1042830,null,"",null,,,,,,,,
math-period,567,1044076,2393.1450000235345,"",,,,,,,,,4
html-keyboard-response,568,1044187,null,"",null,,,,,,,,
math-period,569,1045146,1822.4749999935739,"",,,,,,,,,4
html-keyboard-response,570,1045257,null,"",null,,,,,,,,
math-period,571,1046549,2466.765000004787,"",,,,,,,,,1
html-keyboard-response,572,1046657,null,"",null,,,,,,,,
math-period,573,1048396,3386.815000005532,"",,,,,,,,,3
html-keyboard-response,574,1048504,null,"",null,,,,,,,,
math-period,575,1049736,2352.2599999995437,"",,,,,,,,,1
html-keyboard-response,576,1049844,null,"",null,,,,,,,,
math-period,577,1051305,2790.64500000095,"",,,,,,,,,5
html-keyboard-response,578,1051413,null,"",null,,,,,,,,
math-period,579,1052419,1903.6300000005867,"",,,,,,,,,2
html-keyboard-response,580,1052528,null,"",null,,,,,,,,
math-period,581,1053771,2382.4199999943376,"",,,,,,,,,1
html-keyboard-response,582,1053880,null,"",null,,,,,,,,
math-period,583,1055306,2749.6850000168197,"",,,,,,,,,4
html-keyboard-response,584,1055413,null,"",null,,,,,,,,
math-period,585,1056634,2334.190000008326,"",,,,,,,,,6
html-keyboard-response,586,1056743,null,"",null,,,,,,,,
math-period,587,1059007,4472.0950000048615,"",,,,,,,,,3
html-keyboard-response,588,1059116,null,"",null,,,,,,,,
math-period,589,1060031,1752.8299999972805,"",,,,,,,,,3
html-keyboard-response,590,1060138,null,"",null,,,,,,,,
math-period,591,1061088,1835.4199999738485,"",,,,,,,,,3
html-keyboard-response,592,1061196,null,"",null,,,,,,,,
math-period,593,1063027,3554.6200000101235,"",,,,,,,,,2
html-keyboard-response,594,1063137,null,"",null,,,,,,,,
math-period,595,1064702,null,"",,,,,,,,,
html-keyboard-response,596,1065711,null,"Recall Period!",null,,,,,,,,
call-function,597,1065718,,"",,,,,,,,,
html-keyboard-response,598,1065827,null,"",null,,,,,,,,
recall-period,599,1067565,7108.839999985881,"",,,,,,,,,robber
html-keyboard-response,600,1067672,null,"",null,,,,,,,,
recall-period,601,1068579,2186.054999998538,"",,,,,,,,,bank
html-keyboard-response,602,1068689,null,"",null,,,,,,,,
recall-period,603,1070380,5423.974999984261,"",,,,,,,,,witness
html-keyboard-response,604,1070488,null,"",null,,,,,,,,
recall-period,605,1072435,11430.114999953425,"",,,,,,,,,guitar
html-keyboard-response,606,1072542,null,"",null,,,,,,,,
recall-period,607,1073854,5670.830000030575,"",,,,,,,,,football
html-keyboard-response,608,1073962,null,"",null,,,,,,,,
recall-period,609,1076053,9747.03500002157,"",,,,,,,,,softball
html-keyboard-response,610,1076159,null,"",null,,,,,,,,
recall-period,611,1140727,null,"",,,,,,,,,
html-keyboard-response,612,1141236,null,"Time's Up!",null,,,,,,,,
html-keyboard-response,613,1142778,1535.1349999981467,"<p> Good job! You responded correctly to 92% of the red squares.</p>
                  <p>Be sure to keep your accuracy above 80%</p>
                  <p>Press any key to continue the experiment. Thank you!</p>",32,,,,,,,,
html-keyboard-response,614,1143661,878.4799999995157,"<div style=""font-size:48px;"">Press any key to begin list 7 of 24 </div>",32,,,,,,,,
html-keyboard-response,615,1146172,null,"<div style=""font-size:60px;"">+</div>",null,,,,,,,,
html-keyboard-response,616,1146680,null,"PACKAGE<img id = ""stim"" ><div class = green_square id = ""topsquare"" ></div><img id = ""stim"" ><div class = green_square  id = ""bottomsquare"" ></div>",null,word_square,response,0,none,true,,,
html-keyboard-response,617,1148191,null,"PACKAGE",null,word,,,,, 'PACKAGE',,
html-keyboard-response,618,1148697,null,"GIFT<img id = ""stim"" ><div class = green_square id = ""topsquare"" ></div><img id = ""stim"" ><div class = green_square  id = ""bottomsquare"" ></div>",null,word_square,response,0,none,true,,,
html-keyboard-response,619,1150208,null,"GIFT",null,word,,,,, 'GIFT',,
html-keyboard-response,620,1150713,495.1749999891035,"ADULT<img id = ""stim"" ><div class = red_square id = ""topsquare"" ></div><img id = ""stim"" ><div class = red_square  id = ""bottomsquare"" ></div>",32,word_square,response,1,Space,true,,,
html-keyboard-response,621,1152223,null,"ADULT",null,word,,,,, 'ADULT',,
html-keyboard-response,622,1152742,null,"JOURNAL<img id = ""stim"" ><div class = green_square id = ""topsquare"" ></div><img id = ""stim"" ><div class = green_square  id = ""bottomsquare"" ></div>",null,word_square,response,0,none,true,,,
html-keyboard-response,623,1154252,null,"JOURNAL",null,word,,,,, 'JOURNAL',,
html-keyboard-response,624,1154762,null,"LUGGAGE<img id = ""stim"" ><div class = red_square id = ""topsquare"" ></div><img id = ""stim"" ><div class = red_square  id = ""bottomsquare"" ></div>",null,word_square,response,1,Space,false,,,
html-keyboard-response,625,1156272,null,"LUGGAGE",null,word,,,,, 'LUGGAGE',,
html-keyboard-response,626,1156783,null,"BASKET<img id = ""stim"" ><div class = green_square id = ""topsquare"" ></div><img id = ""stim"" ><div class = green_square  id = ""bottomsquare"" ></div>",null,word_square,response,0,none,true,,,
html-keyboard-response,627,1158293,null,"BASKET",null,word,,,,, 'BASKET',,
html-keyboard-response,628,1158758,459.9900000030175,"LIVER<img id = ""stim"" ><div class = red_square id = ""topsquare"" ></div><img id = ""stim"" ><div class = red_square  id = ""bottomsquare"" ></div>",32,word_square,response,1,Space,true,,,
html-keyboard-response,629,1160265,null,"LIVER",null,word,,,,, 'LIVER',,
html-keyboard-response,630,1160722,451.33999999961816,"TOOTHBRUSH<img id = ""stim"" ><div class = red_square id = ""topsquare"" ></div><img id = ""stim"" ><div class = red_square  id = ""bottomsquare"" ></div>",32,word_square,response,1,Space,true,,,
html-keyboard-response,631,1162227,null,"TOOTHBRUSH",null,word,,,,, 'TOOTHBRUSH',,
html-keyboard-response,632,1162734,null,"WARDROBE<img id = ""stim"" ><div class = green_square id = ""topsquare"" ></div><img id = ""stim"" ><div class = green_square  id = ""bottomsquare"" ></div>",null,word_square,response,0,none,true,,,
html-keyboard-response,633,1164245,null,"WARDROBE",null,word,,,,, 'WARDROBE',,
html-keyboard-response,634,1164760,null,"KETTLE<img id = ""stim"" ><div class = red_square id = ""topsquare"" ></div><img id = ""stim"" ><div class = red_square  id = ""bottomsquare"" ></div>",null,word_square,response,1,Space,false,,,
html-keyboard-response,635,1166270,null,"KETTLE",null,word,,,,, 'KETTLE',,
html-keyboard-response,636,1166779,null,"COBWEB<img id = ""stim"" ><div class = green_square id = ""topsquare"" ></div><img id = ""stim"" ><div class = green_square  id = ""bottomsquare"" ></div>",null,word_square,response,0,none,true,,,
html-keyboard-response,637,1168291,null,"COBWEB",null,word,,,,, 'COBWEB',,
html-keyboard-response,638,1168804,null,"BUTLER<img id = ""stim"" ><div class = green_square id = ""topsquare"" ></div><img id = ""stim"" ><div class = green_square  id = ""bottomsquare"" ></div>",null,word_square,response,0,none,true,,,
html-keyboard-response,639,1170314,null,"BUTLER",null,word,,,,, 'BUTLER',,
html-keyboard-response,640,1170699,375.82999998982996,"BEEF<img id = ""stim"" ><div class = red_square id = ""topsquare"" ></div><img id = ""stim"" ><div class = red_square  id = ""bottomsquare"" ></div>",32,word_square,response,1,Space,true,,,
html-keyboard-response,641,1172205,null,"BEEF",null,word,,,,, 'BEEF',,
html-keyboard-response,642,1172629,417.56999999051914,"STAPLE<img id = ""stim"" ><div class = red_square id = ""topsquare"" ></div><img id = ""stim"" ><div class = red_square  id = ""bottomsquare"" ></div>",32,word_square,response,1,Space,true,,,
html-keyboard-response,643,1174135,null,"STAPLE",null,word,,,,, 'STAPLE',,
html-keyboard-response,644,1174651,null,"NOTEBOOK<img id = ""stim"" ><div class = green_square id = ""topsquare"" ></div><img id = ""stim"" ><div class = green_square  id = ""bottomsquare"" ></div>",null,word_square,response,0,none,true,,,
html-keyboard-response,645,1176161,null,"NOTEBOOK",null,word,,,,, 'NOTEBOOK',,
html-keyboard-response,646,1176574,406.6549999988638,"POND<img id = ""stim"" ><div class = red_square id = ""topsquare"" ></div><img id = ""stim"" ><div class = red_square  id = ""bottomsquare"" ></div>",32,word_square,response,1,Space,true,,,
html-keyboard-response,647,1178083,null,"POND",null,word,,,,, 'POND',,
html-keyboard-response,648,1178555,461.2350000096485,"RADISH<img id = ""stim"" ><div class = red_square id = ""topsquare"" ></div><img id = ""stim"" ><div class = red_square  id = ""bottomsquare"" ></div>",32,word_square,response,1,Space,true,,,
html-keyboard-response,649,1180064,null,"RADISH",null,word,,,,, 'RADISH',,
html-keyboard-response,650,1180575,null,"BINDER<img id = ""stim"" ><div class = green_square id = ""topsquare"" ></div><img id = ""stim"" ><div class = green_square  id = ""bottomsquare"" ></div>",null,word_square,response,0,none,true,,,
html-keyboard-response,651,1182086,null,"BINDER",null,word,,,,, 'BINDER',,
call-function,652,1182094,,"",,,,,,,,,
html-keyboard-response,653,1182201,null,"",null,,,,,,,,
math-period,654,1184538,4082.454999996349,"",,,,,,,,,4
html-keyboard-response,655,1184646,null,"",null,,,,,,,,
math-period,656,1185263,1130.4549999914598,"",,,,,,,,,4
html-keyboard-response,657,1185372,null,"",null,,,,,,,,
math-period,658,1186839,2808.1650000093505,"",,,,,,,,,1
html-keyboard-response,659,1186949,null,"",null,,,,,,,,
math-period,660,1188440,2855.7900000014342,"",,,,,,,,,2
html-keyboard-response,661,1188549,null,"",null,,,,,,,,
math-period,662,1189717,2218.9050000016578,"",,,,,,,,,4
html-keyboard-response,663,1189826,null,"",null,,,,,,,,
math-period,664,1190700,1642.609999995213,"",,,,,,,,,4
html-keyboard-response,665,1190808,null,"",null,,,,,,,,
math-period,666,1192058,2381.275000006892,"",,,,,,,,,3
html-keyboard-response,667,1192169,null,"",null,,,,,,,,
math-period,668,1193301,2163.0300000105053,"",,,,,,,,,1
html-keyboard-response,669,1193406,null,"",null,,,,,,,,
math-period,670,1194707,2494.8049999948125,"",,,,,,,,,6
html-keyboard-response,671,1194815,null,"",null,,,,,,,,
math-period,672,1196039,2324.0700000026263,"",,,,,,,,,3
html-keyboard-response,673,1196145,null,"",null,,,,,,,,
math-period,674,1197250,2136.2699999881443,"",,,,,,,,,4
html-keyboard-response,675,1197357,null,"",null,,,,,,,,
math-period,676,1198751,2675.424999994226,"",,,,,,,,,4
html-keyboard-response,677,1198858,null,"",null,,,,,,,,
math-period,678,1200107,2411.980000004638,"",,,,,,,,,1
html-keyboard-response,679,1200214,null,"",null,,,,,,,,
math-period,680,1202189,3845.100000005681,"",,,,,,,,,2
html-keyboard-response,681,1202298,null,"",null,,,,,,,,
math-period,682,1203664,2592.055000001099,"",,,,,,,,,3
html-keyboard-response,683,1203770,null,"",null,,,,,,,,
math-period,684,1204905,2177.775000003632,"",,,,,,,,,1
html-keyboard-response,685,1205012,null,"",null,,,,,,,,
math-period,686,1206100,null,"",,,,,,,,,
html-keyboard-response,687,1207110,null,"Recall Period!",null,,,,,,,,
call-function,688,1207116,,"",,,,,,,,,
html-keyboard-response,689,1207222,null,"",null,,,,,,,,
recall-period,690,1209878,11388.865000028862,"",,,,,,,,,cobweb
html-keyboard-response,691,1209986,null,"",null,,,,,,,,
recall-period,692,1236372,130014.44500000775,"",,,,,,,,,maid
html-keyboard-response,693,1236480,null,"",null,,,,,,,,
recall-period,694,1277090,239770.79999995558,"",,,,,,,,,liver
html-keyboard-response,695,1277197,null,"",null,,,,,,,,
recall-period,696,1282122,null,"",,,,,,,,,
html-keyboard-response,697,1282635,null,"Time's Up!",null,,,,,,,,
html-keyboard-response,698,1283971,1327.0950000006706,"<p> Good job! You responded correctly to 92% of the red squares.</p>
                  <p>Be sure to keep your accuracy above 80%</p>
                  <p>Press any key to continue the experiment. Thank you!</p>",32,,,,,,,,
html-keyboard-response,699,1284817,836.5400000039954,"<div style=""font-size:48px;"">Press any key to begin list 8 of 24 </div>",32,,,,,,,,
html-keyboard-response,700,1287329,null,"<div style=""font-size:60px;"">+</div>",null,,,,,,,,
html-keyboard-response,701,1287837,null,"ACTOR<img id = ""stim"" ><div class = green_square id = ""topsquare"" ></div><img id = ""stim"" ><div class = green_square  id = ""bottomsquare"" ></div>",null,word_square,response,0,none,true,,,
html-keyboard-response,702,1289346,null,"ACTOR",null,word,,,,, 'ACTOR',,
html-keyboard-response,703,1289856,null,"FILM<img id = ""stim"" ><div class = green_square id = ""topsquare"" ></div><img id = ""stim"" ><div class = green_square  id = ""bottomsquare"" ></div>",null,word_square,response,0,none,true,,,
html-keyboard-response,704,1291364,null,"FILM",null,word,,,,, 'FILM',,
html-keyboard-response,705,1291718,348.629999993369,"PLANET<img id = ""stim"" ><div class = red_square id = ""topsquare"" ></div><img id = ""stim"" ><div class = red_square  id = ""bottomsquare"" ></div>",32,word_square,response,1,Space,true,,,
html-keyboard-response,706,1293228,null,"PLANET",null,word,,,,, 'PLANET',,
html-keyboard-response,707,1293737,null,"SERPENT<img id = ""stim"" ><div class = green_square id = ""topsquare"" ></div><img id = ""stim"" ><div class = green_square  id = ""bottomsquare"" ></div>",null,word_square,response,0,none,true,,,
html-keyboard-response,708,1295248,null,"SERPENT",null,word,,,,, 'SERPENT',,
html-keyboard-response,709,1295639,381.5750000067055,"MUFFIN<img id = ""stim"" ><div class = red_square id = ""topsquare"" ></div><img id = ""stim"" ><div class = red_square  id = ""bottomsquare"" ></div>",32,word_square,response,1,Space,true,,,
html-keyboard-response,710,1297148,null,"MUFFIN",null,word,,,,, 'MUFFIN',,
html-keyboard-response,711,1297660,null,"FATHER<img id = ""stim"" ><div class = green_square id = ""topsquare"" ></div><img id = ""stim"" ><div class = green_square  id = ""bottomsquare"" ></div>",null,word_square,response,0,none,true,,,
html-keyboard-response,712,1299186,null,"FATHER",null,word,,,,, 'FATHER',,
html-keyboard-response,713,1299532,337.5899999954272,"COLLEGE<img id = ""stim"" ><div class = red_square id = ""topsquare"" ></div><img id = ""stim"" ><div class = red_square  id = ""bottomsquare"" ></div>",32,word_square,response,1,Space,true,,,
html-keyboard-response,714,1301039,null,"COLLEGE",null,word,,,,, 'COLLEGE',,
html-keyboard-response,715,1301524,474.45999999763444,"NIGHTGOWN<img id = ""stim"" ><div class = red_square id = ""topsquare"" ></div><img id = ""stim"" ><div class = red_square  id = ""bottomsquare"" ></div>",32,word_square,response,1,Space,true,,,
html-keyboard-response,716,1303034,null,"NIGHTGOWN",null,word,,,,, 'NIGHTGOWN',,
html-keyboard-response,717,1303542,null,"BANKER<img id = ""stim"" ><div class = green_square id = ""topsquare"" ></div><img id = ""stim"" ><div class = green_square  id = ""bottomsquare"" ></div>",null,word_square,response,0,none,true,,,
html-keyboard-response,718,1305051,null,"BANKER",null,word,,,,, 'BANKER',,
html-keyboard-response,719,1305447,386.94999999995343,"COIN<img id = ""stim"" ><div class = red_square id = ""topsquare"" ></div><img id = ""stim"" ><div class = red_square  id = ""bottomsquare"" ></div>",32,word_square,response,1,Space,true,,,
html-keyboard-response,720,1306952,null,"COIN",null,word,,,,, 'COIN',,
html-keyboard-response,721,1307458,null,"PARTNER<img id = ""stim"" ><div class = green_square id = ""topsquare"" ></div><img id = ""stim"" ><div class = green_square  id = ""bottomsquare"" ></div>",null,word_square,response,0,none,true,,,
html-keyboard-response,722,1308968,null,"PARTNER",null,word,,,,, 'PARTNER',,
html-keyboard-response,723,1309478,null,"PEOPLE<img id = ""stim"" ><div class = green_square id = ""topsquare"" ></div><img id = ""stim"" ><div class = green_square  id = ""bottomsquare"" ></div>",null,word_square,response,0,none,true,,,
html-keyboard-response,724,1310988,null,"PEOPLE",null,word,,,,, 'PEOPLE',,
html-keyboard-response,725,1311417,422.6350000097882,"PENCIL<img id = ""stim"" ><div class = red_square id = ""topsquare"" ></div><img id = ""stim"" ><div class = red_square  id = ""bottomsquare"" ></div>",32,word_square,response,1,Space,true,,,
html-keyboard-response,726,1312924,null,"PENCIL",null,word,,,,, 'PENCIL',,
html-keyboard-response,727,1313432,null,"FRIEND<img id = ""stim"" ><div class = red_square id = ""topsquare"" ></div><img id = ""stim"" ><div class = red_square  id = ""bottomsquare"" ></div>",null,word_square,response,1,Space,false,,,
html-keyboard-response,728,1314942,null,"FRIEND",null,word,,,,, 'FRIEND',,
html-keyboard-response,729,1315158,207.91500000632368,"SPONGE<img id = ""stim"" ><div class = green_square id = ""topsquare"" ></div><img id = ""stim"" ><div class = green_square  id = ""bottomsquare"" ></div>",32,word_square,response,0,none,false,,,
html-keyboard-response,730,1316667,null,"SPONGE",null,word,,,,, 'SPONGE',,
html-keyboard-response,731,1317179,null,"ISLAND<img id = ""stim"" ><div class = red_square id = ""topsquare"" ></div><img id = ""stim"" ><div class = red_square  id = ""bottomsquare"" ></div>",null,word_square,response,1,Space,false,,,
html-keyboard-response,732,1318690,null,"ISLAND",null,word,,,,, 'ISLAND',,
html-keyboard-response,733,1319200,null,"PIMPLE<img id = ""stim"" ><div class = red_square id = ""topsquare"" ></div><img id = ""stim"" ><div class = red_square  id = ""bottomsquare"" ></div>",null,word_square,response,1,Space,false,,,
html-keyboard-response,734,1320709,null,"PIMPLE",null,word,,,,, 'PIMPLE',,
html-keyboard-response,735,1321217,null,"RAFT<img id = ""stim"" ><div class = green_square id = ""topsquare"" ></div><img id = ""stim"" ><div class = green_square  id = ""bottomsquare"" ></div>",null,word_square,response,0,none,true,,,
html-keyboard-response,736,1322724,null,"RAFT",null,word,,,,, 'RAFT',,
call-function,737,1322729,,"",,,,,,,,,
html-keyboard-response,738,1322837,null,"",null,,,,,,,,
math-period,739,1324728,3173.6299999898765,"",,,,,,,,,4
html-keyboard-response,740,1324836,null,"",null,,,,,,,,
math-period,741,1326133,2431.6650000109803,"",,,,,,,,,2
html-keyboard-response,742,1326243,null,"",null,,,,,,,,
math-period,743,1327428,2265.3599999900907,"",,,,,,,,,4
html-keyboard-response,744,1327536,null,"",null,,,,,,,,
math-period,745,1328894,2573.7750000117812,"",,,,,,,,,1
html-keyboard-response,746,1329006,null,"",null,,,,,,,,
math-period,747,1330307,2493.3649999876507,"",,,,,,,,,3
html-keyboard-response,748,1330415,null,"",null,,,,,,,,
math-period,749,1331682,2263.8649999862537,"",,,,,,,,,1
html-keyboard-response,750,1331790,null,"",null,,,,,,,,
math-period,751,1332914,2128.4799999995157,"",,,,,,,,,2
html-keyboard-response,752,1333025,null,"",null,,,,,,,,
math-period,753,1335659,5060.465000002412,"",,,,,,,,,0
html-keyboard-response,754,1335765,null,"",null,,,,,,,,
math-period,755,1337982,4304.920000009472,"",,,,,,,,,2
html-keyboard-response,756,1338091,null,"",null,,,,,,,,
math-period,757,1341164,5944.00000000326,"",,,,,,,,,0
html-keyboard-response,758,1341273,null,"",null,,,,,,,,
math-period,759,1342729,2786.3700000019744,"",,,,,,,,,1
html-keyboard-response,760,1342838,null,"",null,,,,,,,,
math-period,761,1344154,2485.9049999797717,"",,,,,,,,,1
html-keyboard-response,762,1344263,null,"",null,,,,,,,,
math-period,763,1345827,2999.370000005234,"",,,,,,,,,3
html-keyboard-response,764,1345939,null,"",null,,,,,,,,
math-period,765,1346734,null,"",,,,,,,,,
html-keyboard-response,766,1347743,null,"Recall Period!",null,,,,,,,,
call-function,767,1347749,,"",,,,,,,,,
html-keyboard-response,768,1347858,null,"",null,,,,,,,,
recall-period,769,1349726,7506.7700000372715,"",,,,,,,,,planet
html-keyboard-response,770,1349834,null,"",null,,,,,,,,
recall-period,771,1351438,6612.715000009863,"",,,,,,,,,muffin
html-keyboard-response,772,1351549,null,"",null,,,,,,,,
recall-period,773,1352552,4302.329999962123,"",,,,,,,,,college
html-keyboard-response,774,1352661,null,"",null,,,,,,,,
recall-period,775,1353474,1911.1349999585655,"",,,,,,,,,coin
html-keyboard-response,776,1353585,null,"",null,,,,,,,,
recall-period,777,1354947,6369.490000011865,"",,,,,,,,,island
html-keyboard-response,778,1355056,null,"",null,,,,,,,,
recall-period,779,1355950,2394.5949999908917,"",,,,,,,,,raft
html-keyboard-response,780,1356059,null,"",null,,,,,,,,
recall-period,781,1366978,70167.23000000627,"",,,,,,,,,banker
html-keyboard-response,782,1367084,null,"",null,,,,,,,,
recall-period,783,1422752,null,"",,,,,,,,,
html-keyboard-response,784,1423263,null,"Time's Up!",null,,,,,,,,
html-keyboard-response,785,1428971,5698.079999987502,"<p> Good job! You responded correctly to 90% of the red squares.</p>
                  <p>Be sure to keep your accuracy above 80%</p>
                  <p>Press any key to continue the experiment. Thank you!</p>",32,,,,,,,,
html-keyboard-response,786,1430217,1239.1900000073947,"<div style=""font-size:48px;"">Press any key to begin list 9 of 24 </div>",32,,,,,,,,
html-keyboard-response,787,1432727,null,"<div style=""font-size:60px;"">+</div>",null,,,,,,,,
html-keyboard-response,788,1433236,null,"HORSE<img id = ""stim"" ><div class = green_square id = ""topsquare"" ></div><img id = ""stim"" ><div class = green_square  id = ""bottomsquare"" ></div>",null,word_square,response,0,none,true,,,
html-keyboard-response,789,1434749,null,"HORSE",null,word,,,,, 'HORSE',,
html-keyboard-response,790,1435258,null,"PARSLEY<img id = ""stim"" ><div class = green_square id = ""topsquare"" ></div><img id = ""stim"" ><div class = green_square  id = ""bottomsquare"" ></div>",null,word_square,response,0,none,true,,,
html-keyboard-response,791,1436769,null,"PARSLEY",null,word,,,,, 'PARSLEY',,
html-keyboard-response,792,1437100,322.8699999889359,"CRAB<img id = ""stim"" ><div class = red_square id = ""topsquare"" ></div><img id = ""stim"" ><div class = red_square  id = ""bottomsquare"" ></div>",32,word_square,response,1,Space,true,,,
html-keyboard-response,793,1438608,null,"CRAB",null,word,,,,, 'CRAB',,
html-keyboard-response,794,1439120,null,"PLIERS<img id = ""stim"" ><div class = green_square id = ""topsquare"" ></div><img id = ""stim"" ><div class = green_square  id = ""bottomsquare"" ></div>",null,word_square,response,0,none,true,,,
html-keyboard-response,795,1440629,null,"PLIERS",null,word,,,,, 'PLIERS',,
html-keyboard-response,796,1441056,416.4199999941047,"SHEPHERD<img id = ""stim"" ><div class = red_square id = ""topsquare"" ></div><img id = ""stim"" ><div class = red_square  id = ""bottomsquare"" ></div>",32,word_square,response,1,Space,true,,,
html-keyboard-response,797,1442562,null,"SHEPHERD",null,word,,,,, 'SHEPHERD',,
html-keyboard-response,798,1442982,409.9100000022445,"PLASTER<img id = ""stim"" ><div class = red_square id = ""topsquare"" ></div><img id = ""stim"" ><div class = red_square  id = ""bottomsquare"" ></div>",32,word_square,response,1,Space,true,,,
html-keyboard-response,799,1444494,null,"PLASTER",null,word,,,,, 'PLASTER',,
html-keyboard-response,800,1445005,null,"CEILING<img id = ""stim"" ><div class = green_square id = ""topsquare"" ></div><img id = ""stim"" ><div class = green_square  id = ""bottomsquare"" ></div>",null,word_square,response,0,none,true,,,
html-keyboard-response,801,1446515,null,"CEILING",null,word,,,,, 'CEILING',,
html-keyboard-response,802,1447026,null,"SNAKE<img id = ""stim"" ><div class = green_square id = ""topsquare"" ></div><img id = ""stim"" ><div class = green_square  id = ""bottomsquare"" ></div>",null,word_square,response,0,none,true,,,
html-keyboard-response,803,1448536,null,"SNAKE",null,word,,,,, 'SNAKE',,
html-keyboard-response,804,1449045,null,"COBRA<img id = ""stim"" ><div class = red_square id = ""topsquare"" ></div><img id = ""stim"" ><div class = red_square  id = ""bottomsquare"" ></div>",null,word_square,response,1,Space,false,,,
html-keyboard-response,805,1450555,null,"COBRA",null,word,,,,, 'COBRA',,
html-keyboard-response,806,1451067,null,"CHICKEN<img id = ""stim"" ><div class = red_square id = ""topsquare"" ></div><img id = ""stim"" ><div class = red_square  id = ""bottomsquare"" ></div>",null,word_square,response,1,Space,false,,,
html-keyboard-response,807,1452577,null,"CHICKEN",null,word,,,,, 'CHICKEN',,
html-keyboard-response,808,1453083,null,"BISON<img id = ""stim"" ><div class = red_square id = ""topsquare"" ></div><img id = ""stim"" ><div class = red_square  id = ""bottomsquare"" ></div>",null,word_square,response,1,Space,false,,,
html-keyboard-response,809,1454592,null,"BISON",null,word,,,,, 'BISON',,
html-keyboard-response,810,1455100,null,"RUBY<img id = ""stim"" ><div class = green_square id = ""topsquare"" ></div><img id = ""stim"" ><div class = green_square  id = ""bottomsquare"" ></div>",null,word_square,response,0,none,true,,,
html-keyboard-response,811,1456611,null,"RUBY",null,word,,,,, 'RUBY',,
html-keyboard-response,812,1457121,null,"GANGSTER<img id = ""stim"" ><div class = green_square id = ""topsquare"" ></div><img id = ""stim"" ><div class = green_square  id = ""bottomsquare"" ></div>",null,word_square,response,0,none,true,,,
html-keyboard-response,813,1458630,null,"GANGSTER",null,word,,,,, 'GANGSTER',,
html-keyboard-response,814,1459141,null,"BUSH<img id = ""stim"" ><div class = red_square id = ""topsquare"" ></div><img id = ""stim"" ><div class = red_square  id = ""bottomsquare"" ></div>",null,word_square,response,1,Space,false,,,
html-keyboard-response,815,1460652,null,"BUSH",null,word,,,,, 'BUSH',,
html-keyboard-response,816,1461162,null,"WRENCH<img id = ""stim"" ><div class = green_square id = ""topsquare"" ></div><img id = ""stim"" ><div class = green_square  id = ""bottomsquare"" ></div>",null,word_square,response,0,none,true,,,
html-keyboard-response,817,1462670,null,"WRENCH",null,word,,,,, 'WRENCH',,
html-keyboard-response,818,1463178,null,"LACE<img id = ""stim"" ><div class = red_square id = ""topsquare"" ></div><img id = ""stim"" ><div class = red_square  id = ""bottomsquare"" ></div>",null,word_square,response,1,Space,false,,,
html-keyboard-response,819,1464688,null,"LACE",null,word,,,,, 'LACE',,
html-keyboard-response,820,1465198,null,"PRIEST<img id = ""stim"" ><div class = green_square id = ""topsquare"" ></div><img id = ""stim"" ><div class = green_square  id = ""bottomsquare"" ></div>",null,word_square,response,0,none,true,,,
html-keyboard-response,821,1466710,null,"PRIEST",null,word,,,,, 'PRIEST',,
html-keyboard-response,822,1466983,264.30500000412576,"SAUCER<img id = ""stim"" ><div class = red_square id = ""topsquare"" ></div><img id = ""stim"" ><div class = red_square  id = ""bottomsquare"" ></div>",32,word_square,response,1,Space,true,,,
html-keyboard-response,823,1468490,null,"SAUCER",null,word,,,,, 'SAUCER',,
call-function,824,1468495,,"",,,,,,,,,
html-keyboard-response,825,1468604,null,"",null,,,,,,,,
math-period,826,1470351,3014.1950000103097,"",,,,,,,,,6
html-keyboard-response,827,1470462,null,"",null,,,,,,,,
math-period,828,1471750,2452.4200000013225,"",,,,,,,,,2
html-keyboard-response,829,1471863,null,"",null,,,,,,,,
math-period,830,1473034,2261.589999994263,"",,,,,,,,,4
html-keyboard-response,831,1473140,null,"",null,,,,,,,,
math-period,832,1474175,1934.6250000088476,"",,,,,,,,,2
html-keyboard-response,833,1474283,null,"",null,,,,,,,,
math-period,834,1476772,4885.095000005327,"",,,,,,,,,3
html-keyboard-response,835,1476881,null,"",null,,,,,,,,
math-period,836,1479382,4484.674999999581,"",,,,,,,,,0
html-keyboard-response,837,1479489,null,"",null,,,,,,,,
math-period,838,1481186,3238.059999988647,"",,,,,,,,,1
html-keyboard-response,839,1481296,null,"",null,,,,,,,,
math-period,840,1482499,2265.1650000186637,"",,,,,,,,,6
html-keyboard-response,841,1482610,null,"",null,,,,,,,,
math-period,842,1483982,2610.8850000160746,"",,,,,,,,,3
html-keyboard-response,843,1484093,null,"",null,,,,,,,,
math-period,844,1485472,2602.310000002384,"",,,,,,,,,3
html-keyboard-response,845,1485583,null,"",null,,,,,,,,
math-period,846,1486901,2473.58999999403,"",,,,,,,,,1
html-keyboard-response,847,1487009,null,"",null,,,,,,,,
math-period,848,1488204,2248.3100000100676,"",,,,,,,,,3
html-keyboard-response,849,1488313,null,"",null,,,,,,,,
math-period,850,1489699,2612.915000019828,"",,,,,,,,,4
html-keyboard-response,851,1489810,null,"",null,,,,,,,,
math-period,852,1491247,2759.430000020191,"",,,,,,,,,6
html-keyboard-response,853,1491357,null,"",null,,,,,,,,
math-period,854,1492508,null,"",,,,,,,,,
html-keyboard-response,855,1493517,null,"Recall Period!",null,,,,,,,,
call-function,856,1493524,,"",,,,,,,,,
html-keyboard-response,857,1493633,null,"",null,,,,,,,,
recall-period,858,1495216,6560.2849999554455,"",,,,,,,,,bison
html-keyboard-response,859,1495325,null,"",null,,,,,,,,
recall-period,860,1496137,3077.55499995267,"",,,,,,,,,chicken
html-keyboard-response,861,1496247,null,"",null,,,,,,,,
recall-period,862,1497839,7585.570000067353,"",,,,,,,,,gangster
html-keyboard-response,863,1497948,null,"",null,,,,,,,,
recall-period,864,1498635,1716.5850000020582,"",,,,,,,,,bush
html-keyboard-response,865,1498745,null,"",null,,,,,,,,
recall-period,866,1500081,3473.554999975022,"",,,,,,,,,snake 
html-keyboard-response,867,1500189,null,"",null,,,,,,,,
recall-period,868,1501474,4444.774999996414,"",,,,,,,,,cobra
html-keyboard-response,869,1501582,null,"",null,,,,,,,,
recall-period,870,1503660,12901.959999973886,"",,,,,,,,,plaster
html-keyboard-response,871,1503770,null,"",null,,,,,,,,
recall-period,872,1504747,3349.959999977844,"",,,,,,,,,house
html-keyboard-response,873,1504858,null,"",null,,,,,,,,
recall-period,874,1568536,null,"",,,,,,,,,
html-keyboard-response,875,1569046,null,"Time's Up!",null,,,,,,,,
html-keyboard-response,876,1570704,1649.4249999958556,"<p> Good job! You responded correctly to 88% of the red squares.</p>
                  <p>Be sure to keep your accuracy above 80%</p>
                  <p>Press any key to continue the experiment. Thank you!</p>",32,,,,,,,,
html-keyboard-response,877,1572046,1336.4549999970477,"<div style=""font-size:48px;"">Press any key to begin list 10 of 24 </div>",32,,,,,,,,
html-keyboard-response,878,1574556,null,"<div style=""font-size:60px;"">+</div>",null,,,,,,,,
html-keyboard-response,879,1575070,null,"JEEP<img id = ""stim"" ><div class = green_square id = ""topsquare"" ></div><img id = ""stim"" ><div class = green_square  id = ""bottomsquare"" ></div>",null,word_square,response,0,none,true,,,
html-keyboard-response,880,1576580,null,"JEEP",null,word,,,,, 'JEEP',,
html-keyboard-response,881,1577088,null,"DWARF<img id = ""stim"" ><div class = green_square id = ""topsquare"" ></div><img id = ""stim"" ><div class = green_square  id = ""bottomsquare"" ></div>",null,word_square,response,0,none,true,,,
html-keyboard-response,882,1578601,null,"DWARF",null,word,,,,, 'DWARF',,
html-keyboard-response,883,1579110,null,"CLOTHES<img id = ""stim"" ><div class = red_square id = ""topsquare"" ></div><img id = ""stim"" ><div class = red_square  id = ""bottomsquare"" ></div>",null,word_square,response,1,Space,false,,,
html-keyboard-response,884,1580620,null,"CLOTHES",null,word,,,,, 'CLOTHES',,
html-keyboard-response,885,1581131,null,"BLOUSE<img id = ""stim"" ><div class = green_square id = ""topsquare"" ></div><img id = ""stim"" ><div class = green_square  id = ""bottomsquare"" ></div>",null,word_square,response,0,none,true,,,
html-keyboard-response,886,1582641,null,"BLOUSE",null,word,,,,, 'BLOUSE',,
html-keyboard-response,887,1583027,376.8350000027567,"MUMMY<img id = ""stim"" ><div class = red_square id = ""topsquare"" ></div><img id = ""stim"" ><div class = red_square  id = ""bottomsquare"" ></div>",32,word_square,response,1,Space,true,,,
html-keyboard-response,888,1584537,null,"MUMMY",null,word,,,,, 'MUMMY',,
html-keyboard-response,889,1584937,386.49000000441447,"CRYSTAL<img id = ""stim"" ><div class = red_square id = ""topsquare"" ></div><img id = ""stim"" ><div class = red_square  id = ""bottomsquare"" ></div>",32,word_square,response,1,Space,true,,,
html-keyboard-response,890,1586446,null,"CRYSTAL",null,word,,,,, 'CRYSTAL',,
html-keyboard-response,891,1586957,null,"KNUCKLE<img id = ""stim"" ><div class = green_square id = ""topsquare"" ></div><img id = ""stim"" ><div class = green_square  id = ""bottomsquare"" ></div>",null,word_square,response,0,none,true,,,
html-keyboard-response,892,1588466,null,"KNUCKLE",null,word,,,,, 'KNUCKLE',,
html-keyboard-response,893,1588976,null,"TOMBSTONE<img id = ""stim"" ><div class = green_square id = ""topsquare"" ></div><img id = ""stim"" ><div class = green_square  id = ""bottomsquare"" ></div>",null,word_square,response,0,none,true,,,
html-keyboard-response,894,1590486,null,"TOMBSTONE",null,word,,,,, 'TOMBSTONE',,
html-keyboard-response,895,1590801,309.3899999947753,"MARROW<img id = ""stim"" ><div class = red_square id = ""topsquare"" ></div><img id = ""stim"" ><div class = red_square  id = ""bottomsquare"" ></div>",32,word_square,response,1,Space,true,,,
html-keyboard-response,896,1592309,null,"MARROW",null,word,,,,, 'MARROW',,
html-keyboard-response,897,1592819,null,"SWATTER<img id = ""stim"" ><div class = red_square id = ""topsquare"" ></div><img id = ""stim"" ><div class = red_square  id = ""bottomsquare"" ></div>",null,word_square,response,1,Space,false,,,
html-keyboard-response,898,1594329,null,"SWATTER",null,word,,,,, 'SWATTER',,
html-keyboard-response,899,1594740,399.0449999982957,"CANVAS<img id = ""stim"" ><div class = red_square id = ""topsquare"" ></div><img id = ""stim"" ><div class = red_square  id = ""bottomsquare"" ></div>",32,word_square,response,1,Space,true,,,
html-keyboard-response,900,1596249,null,"CANVAS",null,word,,,,, 'CANVAS',,
html-keyboard-response,901,1596761,null,"SUITE<img id = ""stim"" ><div class = green_square id = ""topsquare"" ></div><img id = ""stim"" ><div class = green_square  id = ""bottomsquare"" ></div>",null,word_square,response,0,none,true,,,
html-keyboard-response,902,1598271,null,"SUITE",null,word,,,,, 'SUITE',,
html-keyboard-response,903,1598780,null,"QUEEN<img id = ""stim"" ><div class = green_square id = ""topsquare"" ></div><img id = ""stim"" ><div class = green_square  id = ""bottomsquare"" ></div>",null,word_square,response,0,none,true,,,
html-keyboard-response,904,1600289,null,"QUEEN",null,word,,,,, 'QUEEN',,
html-keyboard-response,905,1600784,487.20000000321306,"OMELET<img id = ""stim"" ><div class = red_square id = ""topsquare"" ></div><img id = ""stim"" ><div class = red_square  id = ""bottomsquare"" ></div>",32,word_square,response,1,Space,true,,,
html-keyboard-response,906,1602294,null,"OMELET",null,word,,,,, 'OMELET',,
html-keyboard-response,907,1602804,null,"BACON<img id = ""stim"" ><div class = green_square id = ""topsquare"" ></div><img id = ""stim"" ><div class = green_square  id = ""bottomsquare"" ></div>",null,word_square,response,0,none,true,,,
html-keyboard-response,908,1604314,null,"BACON",null,word,,,,, 'BACON',,
html-keyboard-response,909,1604695,369.02500000735745,"SWIMMER<img id = ""stim"" ><div class = red_square id = ""topsquare"" ></div><img id = ""stim"" ><div class = red_square  id = ""bottomsquare"" ></div>",32,word_square,response,1,Space,true,,,
html-keyboard-response,910,1606204,null,"SWIMMER",null,word,,,,, 'SWIMMER',,
html-keyboard-response,911,1606717,null,"SWAMP<img id = ""stim"" ><div class = green_square id = ""topsquare"" ></div><img id = ""stim"" ><div class = green_square  id = ""bottomsquare"" ></div>",null,word_square,response,0,none,true,,,
html-keyboard-response,912,1608225,null,"SWAMP",null,word,,,,, 'SWAMP',,
html-keyboard-response,913,1608626,391.52000000467524,"BEAKER<img id = ""stim"" ><div class = red_square id = ""topsquare"" ></div><img id = ""stim"" ><div class = red_square  id = ""bottomsquare"" ></div>",32,word_square,response,1,Space,true,,,
html-keyboard-response,914,1610137,null,"BEAKER",null,word,,,,, 'BEAKER',,
call-function,915,1610144,,"",,,,,,,,,
