trial_type,trial_index,time_elapsed,rt,stimulus,key_press,test_part,targ_cond,correct_response,word,responses
pavlovia,0,844,,"",,,,,,
external-html,1,11105,10017.134999998234,"",,,,,,
html-keyboard-response,2,12687,1576.1600000005274,"Welcome to the experiment. Press any key to begin.",32,,,,,
html-keyboard-response,3,20392,7703.97999999841,"<p>You will see a list of words and colored squares in the following task.<p><p>Press the spacebar whenever you see a red square.<p><p>Do not press a key if the square is green<p><p>Press the spacebar to continue.</p>",32,,,,,
html-keyboard-response,4,28390,7492.079999999987,"<p>Please try to remember as many of the words as you can, and try to think about the meaning of each word as it appears.<p><p>After the detection and encoding task you will be asked to solve some math problems for 24 seconds.<p> Please solve as many problems as you can in the time given. <p>",32,,,,,
html-keyboard-response,5,39465,10573.075000000244,"After solving the math problems, you will be asked to type in as many words <p>from the previous list as you can remember for 75 seconds.<p> If you finish recalling before the 75 seconds are up,<p> just sit tight and try to think of any more words you could have missed. <p><p>We will begin with a brief practice session<p>Press the spacebar to begin the practice.</p>",32,,,,,
html-keyboard-response,6,41969,null,"<div style=""font-size:60px;"">+</div>",null,,,,,
html-keyboard-response,7,42472,null,"HAPPY<img id = ""stim"" ><div class = green_square id = ""topsquare"" ></div><img id = ""stim"" ><div class = green_square  id = ""bottomsquare"" ></div>",null,word_square,D,none,,
html-keyboard-response,8,43974,null,"HAPPY",null,word,,,HAPPY,
html-keyboard-response,9,43981,null,"COLD<img id = ""stim"" ><div class = red_square id = ""topsquare"" ></div><img id = ""stim"" ><div class = red_square  id = ""bottomsquare"" ></div>",null,word_square,T,SPACEBAR,,
html-keyboard-response,10,45488,null,"COLD",null,word,,,COLD,
html-keyboard-response,11,45494,null,"HEAVY<img id = ""stim"" ><div class = red_square id = ""topsquare"" ></div><img id = ""stim"" ><div class = red_square  id = ""bottomsquare"" ></div>",null,word_square,T,SPACEBAR,,
html-keyboard-response,12,46999,null,"HEAVY",null,word,,,HEAVY,
html-keyboard-response,13,47506,null,"FUNNY<img id = ""stim"" ><div class = green_square id = ""topsquare"" ></div><img id = ""stim"" ><div class = green_square  id = ""bottomsquare"" ></div>",null,word_square,D,none,,
html-keyboard-response,14,49007,null,"FUNNY",null,word,,,FUNNY,
html-keyboard-response,15,49014,null,"SCARY<img id = ""stim"" ><div class = red_square id = ""topsquare"" ></div><img id = ""stim"" ><div class = red_square  id = ""bottomsquare"" ></div>",null,word_square,T,SPACEBAR,,
html-keyboard-response,16,50521,null,"SCARY",null,word,,,SCARY,
html-keyboard-response,17,50528,null,"PEACEFUL<img id = ""stim"" ><div class = red_square id = ""topsquare"" ></div><img id = ""stim"" ><div class = red_square  id = ""bottomsquare"" ></div>",null,word_square,T,SPACEBAR,,
html-keyboard-response,18,52032,null,"PEACEFUL",null,word,,,PEACEFUL,
html-keyboard-response,19,52538,null,"LITTLE<img id = ""stim"" ><div class = green_square id = ""topsquare"" ></div><img id = ""stim"" ><div class = green_square  id = ""bottomsquare"" ></div>",null,word_square,D,none,,
html-keyboard-response,20,54040,null,"LITTLE",null,word,,,LITTLE,
html-keyboard-response,21,54543,null,"TIRED<img id = ""stim"" ><div class = green_square id = ""topsquare"" ></div><img id = ""stim"" ><div class = green_square  id = ""bottomsquare"" ></div>",null,word_square,D,none,,
html-keyboard-response,22,56046,null,"TIRED",null,word,,,TIRED,
html-keyboard-response,23,56548,null,"ENTERTAINING<img id = ""stim"" ><div class = green_square id = ""topsquare"" ></div><img id = ""stim"" ><div class = green_square  id = ""bottomsquare"" ></div>",null,word_square,D,none,,
html-keyboard-response,24,58052,null,"ENTERTAINING",null,word,,,ENTERTAINING,
html-keyboard-response,25,58059,null,"GRATEFUL<img id = ""stim"" ><div class = red_square id = ""topsquare"" ></div><img id = ""stim"" ><div class = red_square  id = ""bottomsquare"" ></div>",null,word_square,T,SPACEBAR,,
html-keyboard-response,26,59566,null,"GRATEFUL",null,word,,,GRATEFUL,
html-keyboard-response,27,60068,null,"LOUD<img id = ""stim"" ><div class = green_square id = ""topsquare"" ></div><img id = ""stim"" ><div class = green_square  id = ""bottomsquare"" ></div>",null,word_square,D,none,,
html-keyboard-response,28,61573,null,"LOUD",null,word,,,LOUD,
html-keyboard-response,29,61580,null,"SMART<img id = ""stim"" ><div class = red_square id = ""topsquare"" ></div><img id = ""stim"" ><div class = red_square  id = ""bottomsquare"" ></div>",null,word_square,T,SPACEBAR,,
html-keyboard-response,30,63082,null,"SMART",null,word,,,SMART,
html-keyboard-response,31,63089,null,"SMOOTH<img id = ""stim"" ><div class = red_square id = ""topsquare"" ></div><img id = ""stim"" ><div class = red_square  id = ""bottomsquare"" ></div>",null,word_square,T,SPACEBAR,,
html-keyboard-response,32,64595,null,"SMOOTH",null,word,,,SMOOTH,
html-keyboard-response,33,65098,null,"DISHONEST<img id = ""stim"" ><div class = green_square id = ""topsquare"" ></div><img id = ""stim"" ><div class = green_square  id = ""bottomsquare"" ></div>",null,word_square,D,none,,
html-keyboard-response,34,66599,null,"DISHONEST",null,word,,,DISHONEST,
html-keyboard-response,35,66606,null,"WEALTHY<img id = ""stim"" ><div class = red_square id = ""topsquare"" ></div><img id = ""stim"" ><div class = red_square  id = ""bottomsquare"" ></div>",null,word_square,T,SPACEBAR,,
html-keyboard-response,36,68108,null,"WEALTHY",null,word,,,WEALTHY,
html-keyboard-response,37,68609,null,"BEAUTIFUL<img id = ""stim"" ><div class = green_square id = ""topsquare"" ></div><img id = ""stim"" ><div class = green_square  id = ""bottomsquare"" ></div>",null,word_square,D,none,,
html-keyboard-response,38,70114,null,"BEAUTIFUL",null,word,,,BEAUTIFUL,
html-keyboard-response,39,70620,null,"DREARY<img id = ""stim"" ><div class = green_square id = ""topsquare"" ></div><img id = ""stim"" ><div class = green_square  id = ""bottomsquare"" ></div>",null,word_square,D,none,,
html-keyboard-response,40,72123,null,"DREARY",null,word,,,DREARY,
html-keyboard-response,41,72625,null,"PLAYFUL<img id = ""stim"" ><div class = green_square id = ""topsquare"" ></div><img id = ""stim"" ><div class = green_square  id = ""bottomsquare"" ></div>",null,word_square,D,none,,
html-keyboard-response,42,74128,null,"PLAYFUL",null,word,,,PLAYFUL,
survey-text,43,79265,5132.209999999759,"",,,,,,{"Q0":"2"}
survey-text,44,82337,3069.500000001426,"",,,,,,{"Q0":"5"}
survey-text,45,84991,2650.8950000024925,"",,,,,,{"Q0":"5"}
survey-text,46,89287,4293.035000002419,"",,,,,,{"Q0":"4"}
survey-text,47,91534,2244.575000000623,"",,,,,,{"Q0":"3"}
survey-text,48,94414,2877.1950000009383,"",,,,,,{"Q0":"1"}
survey-text,49,97212,2795.4549999994924,"",,,,,,{"Q0":"4"}
survey-text,50,102080,4865.270000002056,"",,,,,,{"Q0":"3"}
survey-text,51,110347,8262.309999998251,"",,,,,,{"Q0":"beautiful"}
survey-text,52,112947,2597.2599999986414,"",,,,,,{"Q0":"dreary"}
survey-text,53,114323,1372.7250000010827,"",,,,,,{"Q0":"happy"}
survey-text,54,115954,1627.9150000009395,"",,,,,,{"Q0":"sad"}
survey-text,55,121910,5952.734999998938,"",,,,,,{"Q0":"joyful"}
survey-text,56,140471,18557.819999998173,"",,,,,,{"Q0":"kind"}
survey-text,57,245947,105471.55500000008,"",,,,,,{"Q0":"mad"}
html-keyboard-response,58,257204,11254.974999999831,"<p>We will now begin the experiment!<p><p>Please try to remember all words from each list.<p><p>Press the spacebar whenever you see a red square.<p><p><p><p>Press the spacebar to begin.</p>",32,,,,,
html-keyboard-response,59,261128,3421.379999999772,"<div style=""font-size:48px;"">Press any key to begin list 1 of 24 </div>",86,,,,,
html-keyboard-response,60,263636,null,"<div style=""font-size:60px;"">+</div>",null,,,,,
html-keyboard-response,61,264138,null,"SPONGE<img id = ""stim"" ><div class = green_square id = ""topsquare"" ></div><img id = ""stim"" ><div class = green_square  id = ""bottomsquare"" ></div>",null,word_square,0,SPACEBAR,,
html-keyboard-response,62,265641,null,"SPONGE",null,word,,, 'SPONGE',
html-keyboard-response,63,266144,null,"SHELF<img id = ""stim"" ><div class = green_square id = ""topsquare"" ></div><img id = ""stim"" ><div class = green_square  id = ""bottomsquare"" ></div>",null,word_square,0,SPACEBAR,,
html-keyboard-response,64,267650,null,"SHELF",null,word,,, 'SHELF',
html-keyboard-response,65,268156,null,"NOVEL<img id = ""stim"" ><div class = red_square id = ""topsquare"" ></div><img id = ""stim"" ><div class = red_square  id = ""bottomsquare"" ></div>",null,word_square,1,SPACEBAR,,
html-keyboard-response,66,269660,null,"NOVEL",null,word,,, 'NOVEL',
html-keyboard-response,67,270168,null,"DRESS<img id = ""stim"" ><div class = green_square id = ""topsquare"" ></div><img id = ""stim"" ><div class = green_square  id = ""bottomsquare"" ></div>",null,word_square,0,SPACEBAR,,
html-keyboard-response,68,271669,null,"DRESS",null,word,,, 'DRESS',
html-keyboard-response,69,272176,null,"CAPTAIN<img id = ""stim"" ><div class = green_square id = ""topsquare"" ></div><img id = ""stim"" ><div class = green_square  id = ""bottomsquare"" ></div>",null,word_square,0,SPACEBAR,,
html-keyboard-response,70,273680,null,"CAPTAIN",null,word,,, 'CAPTAIN',
html-keyboard-response,71,274182,null,"TIGER<img id = ""stim"" ><div class = red_square id = ""topsquare"" ></div><img id = ""stim"" ><div class = red_square  id = ""bottomsquare"" ></div>",null,word_square,1,SPACEBAR,,
html-keyboard-response,72,275686,null,"TIGER",null,word,,, 'TIGER',
html-keyboard-response,73,276191,null,"SNACK<img id = ""stim"" ><div class = green_square id = ""topsquare"" ></div><img id = ""stim"" ><div class = green_square  id = ""bottomsquare"" ></div>",null,word_square,0,SPACEBAR,,
html-keyboard-response,74,277693,null,"SNACK",null,word,,, 'SNACK',
html-keyboard-response,75,278154,460.31500000029337,"SHORTCAKE<img id = ""stim"" ><div class = red_square id = ""topsquare"" ></div><img id = ""stim"" ><div class = red_square  id = ""bottomsquare"" ></div>",32,word_square,1,SPACEBAR,,
html-keyboard-response,76,279661,null,"SHORTCAKE",null,word,,, 'SHORTCAKE',
html-keyboard-response,77,280167,null,"CELLAR<img id = ""stim"" ><div class = green_square id = ""topsquare"" ></div><img id = ""stim"" ><div class = green_square  id = ""bottomsquare"" ></div>",null,word_square,0,SPACEBAR,,
html-keyboard-response,78,281674,null,"CELLAR",null,word,,, 'CELLAR',
html-keyboard-response,79,282179,null,"MUFFIN<img id = ""stim"" ><div class = red_square id = ""topsquare"" ></div><img id = ""stim"" ><div class = red_square  id = ""bottomsquare"" ></div>",null,word_square,1,SPACEBAR,,
html-keyboard-response,80,283685,null,"MUFFIN",null,word,,, 'MUFFIN',
html-keyboard-response,81,284187,null,"AIRCRAFT<img id = ""stim"" ><div class = red_square id = ""topsquare"" ></div><img id = ""stim"" ><div class = red_square  id = ""bottomsquare"" ></div>",null,word_square,1,SPACEBAR,,
html-keyboard-response,82,285689,null,"AIRCRAFT",null,word,,, 'AIRCRAFT',
html-keyboard-response,83,286194,null,"FROG<img id = ""stim"" ><div class = red_square id = ""topsquare"" ></div><img id = ""stim"" ><div class = red_square  id = ""bottomsquare"" ></div>",null,word_square,1,SPACEBAR,,
html-keyboard-response,84,287701,null,"FROG",null,word,,, 'FROG',
html-keyboard-response,85,288202,null,"CRADLE<img id = ""stim"" ><div class = green_square id = ""topsquare"" ></div><img id = ""stim"" ><div class = green_square  id = ""bottomsquare"" ></div>",null,word_square,0,SPACEBAR,,
html-keyboard-response,86,289708,null,"CRADLE",null,word,,, 'CRADLE',
html-keyboard-response,87,290211,null,"TRACTOR<img id = ""stim"" ><div class = red_square id = ""topsquare"" ></div><img id = ""stim"" ><div class = red_square  id = ""bottomsquare"" ></div>",null,word_square,1,SPACEBAR,,
html-keyboard-response,88,291717,null,"TRACTOR",null,word,,, 'TRACTOR',
html-keyboard-response,89,292223,null,"TUTU<img id = ""stim"" ><div class = green_square id = ""topsquare"" ></div><img id = ""stim"" ><div class = green_square  id = ""bottomsquare"" ></div>",null,word_square,0,SPACEBAR,,
html-keyboard-response,90,293725,null,"TUTU",null,word,,, 'TUTU',
html-keyboard-response,91,294227,null,"BASEMENT<img id = ""stim"" ><div class = green_square id = ""topsquare"" ></div><img id = ""stim"" ><div class = green_square  id = ""bottomsquare"" ></div>",null,word_square,0,SPACEBAR,,
html-keyboard-response,92,295728,null,"BASEMENT",null,word,,, 'BASEMENT',
html-keyboard-response,93,296232,null,"STREAM<img id = ""stim"" ><div class = red_square id = ""topsquare"" ></div><img id = ""stim"" ><div class = red_square  id = ""bottomsquare"" ></div>",null,word_square,1,SPACEBAR,,
html-keyboard-response,94,297736,null,"STREAM",null,word,,, 'STREAM',
html-keyboard-response,95,298241,null,"LUMBER<img id = ""stim"" ><div class = red_square id = ""topsquare"" ></div><img id = ""stim"" ><div class = red_square  id = ""bottomsquare"" ></div>",null,word_square,1,SPACEBAR,,
html-keyboard-response,96,299744,null,"LUMBER",null,word,,, 'LUMBER',
survey-text,97,303956,4208.419999998994,"",,,,,,{"Q0":"6"}
survey-text,98,306170,2211.5299999968265,"",,,,,,{"Q0":"3"}
survey-text,99,308337,2164.375000000291,"",,,,,,{"Q0":"0"}
survey-text,100,310219,1879.755000001751,"",,,,,,{"Q0":"4"}
survey-text,101,312337,2115.335000002233,"",,,,,,{"Q0":"4"}
survey-text,102,314169,1829.5800000014715,"",,,,,,{"Q0":"4"}
survey-text,103,316327,2154.755000003148,"",,,,,,{"Q0":"2"}
survey-text,104,318038,1708.6999999991967,"",,,,,,{"Q0":"4"}
survey-text,105,320528,2486.9049999979325,"",,,,,,{"Q0":"1"}
survey-text,106,323806,3274.939999999304,"",,,,,,{"Q0":"1"}
survey-text,107,328399,4589.305000001332,"",,,,,,{"Q0":"tutu"}
survey-text,108,330637,2235.065000000759,"",,,,,,{"Q0":"sponge"}
survey-text,109,333147,2506.649999999325,"",,,,,,{"Q0":"shelf"}
survey-text,110,335186,2036.1850000008126,"",,,,,,{"Q0":"novel"}
survey-text,111,337113,1924.0350000000326,"",,,,,,{"Q0":"dress"}
survey-text,112,342689,5572.705000002345,"",,,,,,{"Q0":"captain"}
survey-text,113,344120,1428.155000001425,"",,,,,,{"Q0":"tiger"}
survey-text,114,348114,3990.634999998263,"",,,,,,{"Q0":"snack"}
survey-text,115,350557,2438.780000000377,"",,,,,,{"Q0":"air"}
survey-text,116,352866,2305.5700000004144,"",,,,,,{"Q0":"frog"}
survey-text,117,355679,2809.5200000024633,"",,,,,,{"Q0":"lumber"}
survey-text,118,358190,2507.805000001099,"",,,,,,{"Q0":"streat"}
survey-text,119,362951,4758.4100000022445,"",,,,,,{"Q0":"tractor"}
survey-text,120,369484,6529.419999998994,"",,,,,,{"Q0":"muffin"}
survey-text,121,435660,66170.17000000126,"",,,,,,{"Q0":"shortcake"}
html-keyboard-response,122,437823,2161.2900000000373,"<div style=""font-size:48px;"">Press any key to begin list 2 of 24 </div>",32,,,,,
html-keyboard-response,123,440330,null,"<div style=""font-size:60px;"">+</div>",null,,,,,
html-keyboard-response,124,440837,null,"KNUCKLE<img id = ""stim"" ><div class = green_square id = ""topsquare"" ></div><img id = ""stim"" ><div class = green_square  id = ""bottomsquare"" ></div>",null,word_square,0,SPACEBAR,,
html-keyboard-response,125,442338,null,"KNUCKLE",null,word,,, 'KNUCKLE',
html-keyboard-response,126,442842,null,"MATTRESS<img id = ""stim"" ><div class = green_square id = ""topsquare"" ></div><img id = ""stim"" ><div class = green_square  id = ""bottomsquare"" ></div>",null,word_square,0,SPACEBAR,,
html-keyboard-response,127,444343,null,"MATTRESS",null,word,,, 'MATTRESS',
html-keyboard-response,128,444850,null,"GLASS<img id = ""stim"" ><div class = red_square id = ""topsquare"" ></div><img id = ""stim"" ><div class = red_square  id = ""bottomsquare"" ></div>",null,word_square,1,SPACEBAR,,
html-keyboard-response,129,446352,null,"GLASS",null,word,,, 'GLASS',
html-keyboard-response,130,446859,null,"CRIB<img id = ""stim"" ><div class = green_square id = ""topsquare"" ></div><img id = ""stim"" ><div class = green_square  id = ""bottomsquare"" ></div>",null,word_square,0,SPACEBAR,,
html-keyboard-response,131,448360,null,"CRIB",null,word,,, 'CRIB',
html-keyboard-response,132,448866,null,"GREASE<img id = ""stim"" ><div class = green_square id = ""topsquare"" ></div><img id = ""stim"" ><div class = green_square  id = ""bottomsquare"" ></div>",null,word_square,0,SPACEBAR,,
html-keyboard-response,133,450368,null,"GREASE",null,word,,, 'GREASE',
html-keyboard-response,134,450874,null,"JUNGLE<img id = ""stim"" ><div class = red_square id = ""topsquare"" ></div><img id = ""stim"" ><div class = red_square  id = ""bottomsquare"" ></div>",null,word_square,1,SPACEBAR,,
html-keyboard-response,135,452375,null,"JUNGLE",null,word,,, 'JUNGLE',
html-keyboard-response,136,452878,null,"COOKIE<img id = ""stim"" ><div class = green_square id = ""topsquare"" ></div><img id = ""stim"" ><div class = green_square  id = ""bottomsquare"" ></div>",null,word_square,0,SPACEBAR,,
html-keyboard-response,137,454383,null,"COOKIE",null,word,,, 'COOKIE',
html-keyboard-response,138,454890,null,"RUBY<img id = ""stim"" ><div class = red_square id = ""topsquare"" ></div><img id = ""stim"" ><div class = red_square  id = ""bottomsquare"" ></div>",null,word_square,1,SPACEBAR,,
html-keyboard-response,139,456392,null,"RUBY",null,word,,, 'RUBY',
html-keyboard-response,140,456898,null,"WALNUT<img id = ""stim"" ><div class = green_square id = ""topsquare"" ></div><img id = ""stim"" ><div class = green_square  id = ""bottomsquare"" ></div>",null,word_square,0,SPACEBAR,,
html-keyboard-response,141,458399,null,"WALNUT",null,word,,, 'WALNUT',
html-keyboard-response,142,458904,null,"PRIMATE<img id = ""stim"" ><div class = red_square id = ""topsquare"" ></div><img id = ""stim"" ><div class = red_square  id = ""bottomsquare"" ></div>",null,word_square,1,SPACEBAR,,
html-keyboard-response,143,460409,null,"PRIMATE",null,word,,, 'PRIMATE',
html-keyboard-response,144,460915,null,"PIMPLE<img id = ""stim"" ><div class = red_square id = ""topsquare"" ></div><img id = ""stim"" ><div class = red_square  id = ""bottomsquare"" ></div>",null,word_square,1,SPACEBAR,,
html-keyboard-response,145,462417,null,"PIMPLE",null,word,,, 'PIMPLE',
html-keyboard-response,146,462922,null,"CLIFF<img id = ""stim"" ><div class = red_square id = ""topsquare"" ></div><img id = ""stim"" ><div class = red_square  id = ""bottomsquare"" ></div>",null,word_square,1,SPACEBAR,,
html-keyboard-response,147,464423,null,"CLIFF",null,word,,, 'CLIFF',
html-keyboard-response,148,464929,null,"TWIG<img id = ""stim"" ><div class = green_square id = ""topsquare"" ></div><img id = ""stim"" ><div class = green_square  id = ""bottomsquare"" ></div>",null,word_square,0,SPACEBAR,,
html-keyboard-response,149,466430,null,"TWIG",null,word,,, 'TWIG',
html-keyboard-response,150,466936,null,"HATCHET<img id = ""stim"" ><div class = red_square id = ""topsquare"" ></div><img id = ""stim"" ><div class = red_square  id = ""bottomsquare"" ></div>",null,word_square,1,SPACEBAR,,
html-keyboard-response,151,468437,null,"HATCHET",null,word,,, 'HATCHET',
html-keyboard-response,152,468942,null,"EUROPE<img id = ""stim"" ><div class = green_square id = ""topsquare"" ></div><img id = ""stim"" ><div class = green_square  id = ""bottomsquare"" ></div>",null,word_square,0,SPACEBAR,,
html-keyboard-response,153,470446,null,"EUROPE",null,word,,, 'EUROPE',
html-keyboard-response,154,470951,null,"LONDON<img id = ""stim"" ><div class = green_square id = ""topsquare"" ></div><img id = ""stim"" ><div class = green_square  id = ""bottomsquare"" ></div>",null,word_square,0,SPACEBAR,,
html-keyboard-response,155,472452,null,"LONDON",null,word,,, 'LONDON',
html-keyboard-response,156,472956,null,"VELVET<img id = ""stim"" ><div class = red_square id = ""topsquare"" ></div><img id = ""stim"" ><div class = red_square  id = ""bottomsquare"" ></div>",null,word_square,1,SPACEBAR,,
html-keyboard-response,157,474459,null,"VELVET",null,word,,, 'VELVET',
html-keyboard-response,158,474927,466.6299999990151,"JEEP<img id = ""stim"" ><div class = red_square id = ""topsquare"" ></div><img id = ""stim"" ><div class = red_square  id = ""bottomsquare"" ></div>",32,word_square,1,SPACEBAR,,
html-keyboard-response,159,476429,null,"JEEP",null,word,,, 'JEEP',
survey-text,160,480978,4546.739999997895,"",,,,,,{"Q0":"5"}
survey-text,161,483616,2635.164999999688,"",,,,,,{"Q0":"0"}
survey-text,162,486098,2477.9549999984447,"",,,,,,{"Q0":"0"}
survey-text,163,488408,2305.680000001332,"",,,,,,{"Q0":"2"}
survey-text,164,490752,2341.069999998552,"",,,,,,{"Q0":"5"}
survey-text,165,492431,1675.4550000005402,"",,,,,,{"Q0":"4"}
survey-text,166,493899,1465.0650000003516,"",,,,,,{"Q0":"2"}
survey-text,167,496957,3055.0449999973644,"",,,,,,{"Q0":"5"}
survey-text,168,498782,1822.1450000019395,"",,,,,,{"Q0":"5"}
survey-text,169,500648,1863.6850000002887,"",,,,,,{"Q0":"1"}
survey-text,170,506033,5380.9000000000815,"",,,,,,{"Q0":"pimple"}
survey-text,171,509243,3205.965000001015,"",,,,,,{"Q0":"cliff"}
survey-text,172,512606,3360.0249999981024,"",,,,,,{"Q0":"glass"}
survey-text,173,517086,4475.815000001632,"",,,,,,{"Q0":"mattress"}
survey-text,174,520082,2993.1499999984517,"",,,,,,{"Q0":"knuckle"}
survey-text,175,523402,3316.9500000003027,"",,,,,,{"Q0":"twig"}
survey-text,176,525566,2160.8000000014435,"",,,,,,{"Q0":"europe"}
survey-text,177,528162,2592.4799999993993,"",,,,,,{"Q0":"london"}
survey-text,178,533227,5062.109999998938,"",,,,,,{"Q0":"velvet"}
survey-text,179,536359,3128.984999999404,"",,,,,,{"Q0":"jeep"}
survey-text,180,540054,3692.074999999022,"",,,,,,{"Q0":"cookie"}
survey-text,181,542510,2452.7149999995017,"",,,,,,{"Q0":"walnut"}
survey-text,182,582098,39583.77499999909,"",,,,,,{"Q0":"ruby"}
html-keyboard-response,183,584927,2827.5700000013458,"<div style=""font-size:48px;"">Press any key to begin list 3 of 24 </div>",32,,,,,
html-keyboard-response,184,587436,null,"<div style=""font-size:60px;"">+</div>",null,,,,,
html-keyboard-response,185,587939,null,"CHILD<img id = ""stim"" ><div class = red_square id = ""topsquare"" ></div><img id = ""stim"" ><div class = red_square  id = ""bottomsquare"" ></div>",null,word_square,1,SPACEBAR,,
html-keyboard-response,186,589442,null,"CHILD",null,word,,, 'CHILD',
html-keyboard-response,187,589946,null,"FACE<img id = ""stim"" ><div class = red_square id = ""topsquare"" ></div><img id = ""stim"" ><div class = red_square  id = ""bottomsquare"" ></div>",null,word_square,1,SPACEBAR,,
html-keyboard-response,188,591449,null,"FACE",null,word,,, 'FACE',
html-keyboard-response,189,591956,null,"GIFT<img id = ""stim"" ><div class = green_square id = ""topsquare"" ></div><img id = ""stim"" ><div class = green_square  id = ""bottomsquare"" ></div>",null,word_square,0,SPACEBAR,,
html-keyboard-response,190,593458,null,"GIFT",null,word,,, 'GIFT',
html-keyboard-response,191,593894,434.83500000007916,"PACKAGE<img id = ""stim"" ><div class = red_square id = ""topsquare"" ></div><img id = ""stim"" ><div class = red_square  id = ""bottomsquare"" ></div>",32,word_square,1,SPACEBAR,,
html-keyboard-response,192,595400,null,"PACKAGE",null,word,,, 'PACKAGE',
html-keyboard-response,193,595902,null,"BANDAGE<img id = ""stim"" ><div class = red_square id = ""topsquare"" ></div><img id = ""stim"" ><div class = red_square  id = ""bottomsquare"" ></div>",null,word_square,1,SPACEBAR,,
html-keyboard-response,194,597406,null,"BANDAGE",null,word,,, 'BANDAGE',
html-keyboard-response,195,597907,null,"MEAT<img id = ""stim"" ><div class = green_square id = ""topsquare"" ></div><img id = ""stim"" ><div class = green_square  id = ""bottomsquare"" ></div>",null,word_square,0,SPACEBAR,,
html-keyboard-response,196,599409,null,"MEAT",null,word,,, 'MEAT',
html-keyboard-response,197,599858,448.61499999754597,"DART<img id = ""stim"" ><div class = red_square id = ""topsquare"" ></div><img id = ""stim"" ><div class = red_square  id = ""bottomsquare"" ></div>",32,word_square,1,SPACEBAR,,
html-keyboard-response,198,601365,null,"DART",null,word,,, 'DART',
html-keyboard-response,199,601871,null,"MAGNET<img id = ""stim"" ><div class = green_square id = ""topsquare"" ></div><img id = ""stim"" ><div class = green_square  id = ""bottomsquare"" ></div>",null,word_square,0,SPACEBAR,,
html-keyboard-response,200,603373,null,"MAGNET",null,word,,, 'MAGNET',
html-keyboard-response,201,603876,null,"TURKEY<img id = ""stim"" ><div class = red_square id = ""topsquare"" ></div><img id = ""stim"" ><div class = red_square  id = ""bottomsquare"" ></div>",null,word_square,1,SPACEBAR,,
html-keyboard-response,202,605383,null,"TURKEY",null,word,,, 'TURKEY',
html-keyboard-response,203,605889,null,"PAVEMENT<img id = ""stim"" ><div class = green_square id = ""topsquare"" ></div><img id = ""stim"" ><div class = green_square  id = ""bottomsquare"" ></div>",null,word_square,0,SPACEBAR,,
html-keyboard-response,204,607395,null,"PAVEMENT",null,word,,, 'PAVEMENT',
html-keyboard-response,205,607902,null,"MARINE<img id = ""stim"" ><div class = green_square id = ""topsquare"" ></div><img id = ""stim"" ><div class = green_square  id = ""bottomsquare"" ></div>",null,word_square,0,SPACEBAR,,
html-keyboard-response,206,609404,null,"MARINE",null,word,,, 'MARINE',
html-keyboard-response,207,609909,null,"RADISH<img id = ""stim"" ><div class = green_square id = ""topsquare"" ></div><img id = ""stim"" ><div class = green_square  id = ""bottomsquare"" ></div>",null,word_square,0,SPACEBAR,,
html-keyboard-response,208,611416,null,"RADISH",null,word,,, 'RADISH',
html-keyboard-response,209,611923,null,"WARDROBE<img id = ""stim"" ><div class = red_square id = ""topsquare"" ></div><img id = ""stim"" ><div class = red_square  id = ""bottomsquare"" ></div>",null,word_square,1,SPACEBAR,,
html-keyboard-response,210,613429,null,"WARDROBE",null,word,,, 'WARDROBE',
html-keyboard-response,211,613937,null,"CHEST<img id = ""stim"" ><div class = green_square id = ""topsquare"" ></div><img id = ""stim"" ><div class = green_square  id = ""bottomsquare"" ></div>",null,word_square,0,SPACEBAR,,
html-keyboard-response,212,615438,null,"CHEST",null,word,,, 'CHEST',
html-keyboard-response,213,615944,null,"CLOTHES<img id = ""stim"" ><div class = red_square id = ""topsquare"" ></div><img id = ""stim"" ><div class = red_square  id = ""bottomsquare"" ></div>",null,word_square,1,SPACEBAR,,
html-keyboard-response,214,617449,null,"CLOTHES",null,word,,, 'CLOTHES',
html-keyboard-response,215,617955,null,"ROOSTER<img id = ""stim"" ><div class = red_square id = ""topsquare"" ></div><img id = ""stim"" ><div class = red_square  id = ""bottomsquare"" ></div>",null,word_square,1,SPACEBAR,,
html-keyboard-response,216,619460,null,"ROOSTER",null,word,,, 'ROOSTER',
html-keyboard-response,217,619966,null,"YOLK<img id = ""stim"" ><div class = green_square id = ""topsquare"" ></div><img id = ""stim"" ><div class = green_square  id = ""bottomsquare"" ></div>",null,word_square,0,SPACEBAR,,
html-keyboard-response,218,621472,null,"YOLK",null,word,,, 'YOLK',
html-keyboard-response,219,621979,null,"CABBAGE<img id = ""stim"" ><div class = green_square id = ""topsquare"" ></div><img id = ""stim"" ><div class = green_square  id = ""bottomsquare"" ></div>",null,word_square,0,SPACEBAR,,
html-keyboard-response,220,623484,null,"CABBAGE",null,word,,, 'CABBAGE',
survey-text,221,627391,3903.019999997923,"",,,,,,{"Q0":"3"}
survey-text,222,629542,2148.1849999981932,"",,,,,,{"Q0":"4"}
survey-text,223,631472,1926.0749999993714,"",,,,,,{"Q0":"4"}
survey-text,224,633411,1936.2099999998463,"",,,,,,{"Q0":"2"}
survey-text,225,635578,2163.904999997583,"",,,,,,{"Q0":"4"}
survey-text,226,639178,3596.509999999311,"",,,,,,{"Q0":"0"}
survey-text,227,641613,2431.5700000006473,"",,,,,,{"Q0":"2"}
survey-text,228,643712,2096.5300000024727,"",,,,,,{"Q0":"1"}
survey-text,229,645886,2171.050000000745,"",,,,,,{"Q0":"0"}
survey-text,230,647639,1750.3900000010617,"",,,,,,{"Q0":"5"}
survey-text,231,650519,2876.2649999989662,"",,,,,,{"Q0":"chest"}
survey-text,232,653090,2567.0050000008196,"",,,,,,{"Q0":"yolk"}
survey-text,233,655078,1985.274999999092,"",,,,,,{"Q0":"child"}
survey-text,234,657375,2293.7099999981,"",,,,,,{"Q0":"face"}
survey-text,235,658841,1462.6750000024913,"",,,,,,{"Q0":"gift"}
survey-text,236,660627,1783.094999998808,"",,,,,,{"Q0":"package"}
survey-text,237,664308,3677.305000001099,"",,,,,,{"Q0":"dart"}
survey-text,238,665876,1563.350000000326,"",,,,,,{"Q0":"meat"}
survey-text,239,672514,6633.345000001951,"",,,,,,{"Q0":"magnet"}
survey-text,240,674822,2305.3450000006706,"",,,,,,{"Q0":"turkey"}
survey-text,241,691723,16896.280000000726,"",,,,,,{"Q0":"radish"}
survey-text,242,704644,12917.650000003166,"",,,,,,{"Q0":"marine"}
survey-text,243,717759,13111.065000000992,"",,,,,,{"Q0":"face"}
survey-text,244,740596,22833.969999999623,"",,,,,,{"Q0":"bar"}
html-keyboard-response,245,744955,4357.724999998114,"<div style=""font-size:48px;"">Press any key to begin list 4 of 24 </div>",32,,,,,
html-keyboard-response,246,747462,null,"<div style=""font-size:60px;"">+</div>",null,,,,,
html-keyboard-response,247,747965,null,"SIDING<img id = ""stim"" ><div class = red_square id = ""topsquare"" ></div><img id = ""stim"" ><div class = red_square  id = ""bottomsquare"" ></div>",null,word_square,1,SPACEBAR,,
html-keyboard-response,248,749468,null,"SIDING",null,word,,, 'SIDING',
html-keyboard-response,249,749975,null,"CLIMBER<img id = ""stim"" ><div class = red_square id = ""topsquare"" ></div><img id = ""stim"" ><div class = red_square  id = ""bottomsquare"" ></div>",null,word_square,1,SPACEBAR,,
html-keyboard-response,250,751477,null,"CLIMBER",null,word,,, 'CLIMBER',
html-keyboard-response,251,751983,null,"SUMMIT<img id = ""stim"" ><div class = green_square id = ""topsquare"" ></div><img id = ""stim"" ><div class = green_square  id = ""bottomsquare"" ></div>",null,word_square,0,SPACEBAR,,
html-keyboard-response,252,753484,null,"SUMMIT",null,word,,, 'SUMMIT',
html-keyboard-response,253,753988,null,"OUTLAW<img id = ""stim"" ><div class = red_square id = ""topsquare"" ></div><img id = ""stim"" ><div class = red_square  id = ""bottomsquare"" ></div>",null,word_square,1,SPACEBAR,,
html-keyboard-response,254,755489,null,"OUTLAW",null,word,,, 'OUTLAW',
html-keyboard-response,255,755996,null,"TRUMPET<img id = ""stim"" ><div class = red_square id = ""topsquare"" ></div><img id = ""stim"" ><div class = red_square  id = ""bottomsquare"" ></div>",null,word_square,1,SPACEBAR,,
html-keyboard-response,256,757498,null,"TRUMPET",null,word,,, 'TRUMPET',
html-keyboard-response,257,758000,null,"DIAMOND<img id = ""stim"" ><div class = green_square id = ""topsquare"" ></div><img id = ""stim"" ><div class = green_square  id = ""bottomsquare"" ></div>",null,word_square,0,SPACEBAR,,
html-keyboard-response,258,759504,null,"DIAMOND",null,word,,, 'DIAMOND',
html-keyboard-response,259,760009,null,"DRAWING<img id = ""stim"" ><div class = red_square id = ""topsquare"" ></div><img id = ""stim"" ><div class = red_square  id = ""bottomsquare"" ></div>",null,word_square,1,SPACEBAR,,
html-keyboard-response,260,761512,null,"DRAWING",null,word,,, 'DRAWING',
html-keyboard-response,261,762013,null,"BURGLAR<img id = ""stim"" ><div class = green_square id = ""topsquare"" ></div><img id = ""stim"" ><div class = green_square  id = ""bottomsquare"" ></div>",null,word_square,0,SPACEBAR,,
html-keyboard-response,262,763517,null,"BURGLAR",null,word,,, 'BURGLAR',
html-keyboard-response,263,764023,null,"SLIDE<img id = ""stim"" ><div class = red_square id = ""topsquare"" ></div><img id = ""stim"" ><div class = red_square  id = ""bottomsquare"" ></div>",null,word_square,1,SPACEBAR,,
html-keyboard-response,264,765526,null,"SLIDE",null,word,,, 'SLIDE',
html-keyboard-response,265,766032,null,"MARSH<img id = ""stim"" ><div class = green_square id = ""topsquare"" ></div><img id = ""stim"" ><div class = green_square  id = ""bottomsquare"" ></div>",null,word_square,0,SPACEBAR,,
html-keyboard-response,266,767535,null,"MARSH",null,word,,, 'MARSH',
html-keyboard-response,267,768041,null,"COD<img id = ""stim"" ><div class = green_square id = ""topsquare"" ></div><img id = ""stim"" ><div class = green_square  id = ""bottomsquare"" ></div>",null,word_square,0,SPACEBAR,,
html-keyboard-response,268,769542,null,"COD",null,word,,, 'COD',
html-keyboard-response,269,770049,null,"STAPLE<img id = ""stim"" ><div class = green_square id = ""topsquare"" ></div><img id = ""stim"" ><div class = green_square  id = ""bottomsquare"" ></div>",null,word_square,0,SPACEBAR,,
html-keyboard-response,270,771550,null,"STAPLE",null,word,,, 'STAPLE',
html-keyboard-response,271,772003,452.7300000009127,"WOMAN<img id = ""stim"" ><div class = red_square id = ""topsquare"" ></div><img id = ""stim"" ><div class = red_square  id = ""bottomsquare"" ></div>",32,word_square,1,SPACEBAR,,
html-keyboard-response,272,773506,null,"WOMAN",null,word,,, 'WOMAN',
html-keyboard-response,273,774010,null,"WRITER<img id = ""stim"" ><div class = green_square id = ""topsquare"" ></div><img id = ""stim"" ><div class = green_square  id = ""bottomsquare"" ></div>",null,word_square,0,SPACEBAR,,
html-keyboard-response,274,775513,null,"WRITER",null,word,,, 'WRITER',
html-keyboard-response,275,776015,null,"GLOVE<img id = ""stim"" ><div class = red_square id = ""topsquare"" ></div><img id = ""stim"" ><div class = red_square  id = ""bottomsquare"" ></div>",null,word_square,1,SPACEBAR,,
html-keyboard-response,276,777517,null,"GLOVE",null,word,,, 'GLOVE',
html-keyboard-response,277,778023,null,"PAPER<img id = ""stim"" ><div class = red_square id = ""topsquare"" ></div><img id = ""stim"" ><div class = red_square  id = ""bottomsquare"" ></div>",null,word_square,1,SPACEBAR,,
html-keyboard-response,278,779530,null,"PAPER",null,word,,, 'PAPER',
html-keyboard-response,279,780034,null,"PEOPLE<img id = ""stim"" ><div class = green_square id = ""topsquare"" ></div><img id = ""stim"" ><div class = green_square  id = ""bottomsquare"" ></div>",null,word_square,0,SPACEBAR,,
html-keyboard-response,280,781537,null,"PEOPLE",null,word,,, 'PEOPLE',
html-keyboard-response,281,782043,null,"SKIRT<img id = ""stim"" ><div class = green_square id = ""topsquare"" ></div><img id = ""stim"" ><div class = green_square  id = ""bottomsquare"" ></div>",null,word_square,0,SPACEBAR,,
html-keyboard-response,282,783546,null,"SKIRT",null,word,,, 'SKIRT',
survey-text,283,785660,2109.9099999992177,"",,,,,,{"Q0":"3"}
survey-text,284,787470,1805.47999999905,"",,,,,,{"Q0":"1"}
survey-text,285,788917,1444.2550000022165,"",,,,,,{"Q0":"4"}
survey-text,286,790129,1208.6049999997485,"",,,,,,{"Q0":"3"}
survey-text,287,791288,1156.1000000002095,"",,,,,,{"Q0":"4"}
survey-text,288,792762,1470.6500000029337,"",,,,,,{"Q0":"1"}
survey-text,289,794056,1290.6800000017975,"",,,,,,{"Q0":"4"}
survey-text,290,795242,1183.600000000326,"",,,,,,{"Q0":"4"}
survey-text,291,796999,1752.1649999981746,"",,,,,,{"Q0":"4"}
survey-text,292,798661,1658.625,"",,,,,,{"Q0":"5"}
survey-text,293,799878,1214.7600000025705,"",,,,,,{"Q0":"4"}
survey-text,294,801022,1140.3649999992922,"",,,,,,{"Q0":"4"}
survey-text,295,802092,1066.7750000029337,"",,,,,,{"Q0":"4"}
survey-text,296,803386,1291.4750000018394,"",,,,,,{"Q0":"4"}
survey-text,297,804937,1547.9750000013737,"",,,,,,{"Q0":"6"}
survey-text,298,806533,1592.5950000019511,"",,,,,,{"Q0":"2"}
survey-text,299,807877,1340.8699999999953,"",,,,,,{"Q0":"4"}
survey-text,300,817262,9381.025000002468,"",,,,,,{"Q0":"siding"}
survey-text,301,823084,5819.605000000563,"",,,,,,{"Q0":"outlaw"}
survey-text,302,829817,6729.984999998123,"",,,,,,{"Q0":"trumpet"}
survey-text,303,834008,4187.5399999989895,"",,,,,,{"Q0":"drawing"}
survey-text,304,837864,3851.579999998561,"",,,,,,{"Q0":"slide"}
survey-text,305,845525,7657.474999999977,"",,,,,,{"Q0":"marshmellow"}
survey-text,306,847453,1924.0100000023376,"",,,,,,{"Q0":"writer"}
survey-text,307,849953,2497.2950000009732,"",,,,,,{"Q0":"cod"}
survey-text,308,853180,3223.5949999995064,"",,,,,,{"Q0":"woman"}
survey-text,309,882861,29677.575000001583,"",,,,,,{"Q0":"glove"}
survey-text,310,905556,22691.875000000466,"",,,,,,{"Q0":"paper"}
html-keyboard-response,311,909366,3807.9749999996275,"<div style=""font-size:48px;"">Press any key to begin list 5 of 24 </div>",32,,,,,
html-keyboard-response,312,911873,null,"<div style=""font-size:60px;"">+</div>",null,,,,,
html-keyboard-response,313,912377,null,"GERM<img id = ""stim"" ><div class = green_square id = ""topsquare"" ></div><img id = ""stim"" ><div class = green_square  id = ""bottomsquare"" ></div>",null,word_square,0,SPACEBAR,,
html-keyboard-response,314,913878,null,"GERM",null,word,,, 'GERM',
html-keyboard-response,315,914381,null,"COMPASS<img id = ""stim"" ><div class = green_square id = ""topsquare"" ></div><img id = ""stim"" ><div class = green_square  id = ""bottomsquare"" ></div>",null,word_square,0,SPACEBAR,,
html-keyboard-response,316,915885,null,"COMPASS",null,word,,, 'COMPASS',
html-keyboard-response,317,916340,453.80000000284053,"SAND<img id = ""stim"" ><div class = red_square id = ""topsquare"" ></div><img id = ""stim"" ><div class = red_square  id = ""bottomsquare"" ></div>",32,word_square,1,SPACEBAR,,
html-keyboard-response,318,917846,null,"SAND",null,word,,, 'SAND',
html-keyboard-response,319,918353,null,"RABBIT<img id = ""stim"" ><div class = green_square id = ""topsquare"" ></div><img id = ""stim"" ><div class = green_square  id = ""bottomsquare"" ></div>",null,word_square,0,SPACEBAR,,
html-keyboard-response,320,919859,null,"RABBIT",null,word,,, 'RABBIT',
html-keyboard-response,321,920366,null,"SALAD<img id = ""stim"" ><div class = red_square id = ""topsquare"" ></div><img id = ""stim"" ><div class = red_square  id = ""bottomsquare"" ></div>",null,word_square,1,SPACEBAR,,
html-keyboard-response,322,921872,null,"SALAD",null,word,,, 'SALAD',
html-keyboard-response,323,922375,null,"TEMPLE<img id = ""stim"" ><div class = red_square id = ""topsquare"" ></div><img id = ""stim"" ><div class = red_square  id = ""bottomsquare"" ></div>",null,word_square,1,SPACEBAR,,
html-keyboard-response,324,923882,null,"TEMPLE",null,word,,, 'TEMPLE',
html-keyboard-response,325,924386,null,"SPHINX<img id = ""stim"" ><div class = green_square id = ""topsquare"" ></div><img id = ""stim"" ><div class = green_square  id = ""bottomsquare"" ></div>",null,word_square,0,SPACEBAR,,
html-keyboard-response,326,925888,null,"SPHINX",null,word,,, 'SPHINX',
html-keyboard-response,327,926394,null,"RECEIPT<img id = ""stim"" ><div class = green_square id = ""topsquare"" ></div><img id = ""stim"" ><div class = green_square  id = ""bottomsquare"" ></div>",null,word_square,0,SPACEBAR,,
html-keyboard-response,328,927897,null,"RECEIPT",null,word,,, 'RECEIPT',
html-keyboard-response,329,928398,null,"SUPPER<img id = ""stim"" ><div class = red_square id = ""topsquare"" ></div><img id = ""stim"" ><div class = red_square  id = ""bottomsquare"" ></div>",null,word_square,1,SPACEBAR,,
html-keyboard-response,330,929905,null,"SUPPER",null,word,,, 'SUPPER',
html-keyboard-response,331,930412,null,"COFFIN<img id = ""stim"" ><div class = green_square id = ""topsquare"" ></div><img id = ""stim"" ><div class = green_square  id = ""bottomsquare"" ></div>",null,word_square,0,SPACEBAR,,
html-keyboard-response,332,931914,null,"COFFIN",null,word,,, 'COFFIN',
html-keyboard-response,333,932241,325.89999999979045,"SIRLOIN<img id = ""stim"" ><div class = red_square id = ""topsquare"" ></div><img id = ""stim"" ><div class = red_square  id = ""bottomsquare"" ></div>",32,word_square,1,SPACEBAR,,
html-keyboard-response,334,933746,null,"SIRLOIN",null,word,,, 'SIRLOIN',
html-keyboard-response,335,934252,null,"BRIEFCASE<img id = ""stim"" ><div class = red_square id = ""topsquare"" ></div><img id = ""stim"" ><div class = red_square  id = ""bottomsquare"" ></div>",null,word_square,1,SPACEBAR,,
html-keyboard-response,336,935759,null,"BRIEFCASE",null,word,,, 'BRIEFCASE',
html-keyboard-response,337,936262,null,"SANDWICH<img id = ""stim"" ><div class = green_square id = ""topsquare"" ></div><img id = ""stim"" ><div class = green_square  id = ""bottomsquare"" ></div>",null,word_square,0,SPACEBAR,,
html-keyboard-response,338,937766,null,"SANDWICH",null,word,,, 'SANDWICH',
html-keyboard-response,339,938273,null,"TRANSPLANT<img id = ""stim"" ><div class = green_square id = ""topsquare"" ></div><img id = ""stim"" ><div class = green_square  id = ""bottomsquare"" ></div>",null,word_square,0,SPACEBAR,,
html-keyboard-response,340,939775,null,"TRANSPLANT",null,word,,, 'TRANSPLANT',
html-keyboard-response,341,940277,500.61000000278,"BEDROOM<img id = ""stim"" ><div class = red_square id = ""topsquare"" ></div><img id = ""stim"" ><div class = red_square  id = ""bottomsquare"" ></div>",32,word_square,1,SPACEBAR,,
html-keyboard-response,342,941783,null,"BEDROOM",null,word,,, 'BEDROOM',
html-keyboard-response,343,942290,null,"INSECT<img id = ""stim"" ><div class = red_square id = ""topsquare"" ></div><img id = ""stim"" ><div class = red_square  id = ""bottomsquare"" ></div>",null,word_square,1,SPACEBAR,,
html-keyboard-response,344,943797,null,"INSECT",null,word,,, 'INSECT',
html-keyboard-response,345,944299,null,"LEG<img id = ""stim"" ><div class = green_square id = ""topsquare"" ></div><img id = ""stim"" ><div class = green_square  id = ""bottomsquare"" ></div>",null,word_square,0,SPACEBAR,,
html-keyboard-response,346,945805,null,"LEG",null,word,,, 'LEG',
html-keyboard-response,347,946309,null,"ARM<img id = ""stim"" ><div class = red_square id = ""topsquare"" ></div><img id = ""stim"" ><div class = red_square  id = ""bottomsquare"" ></div>",null,word_square,1,SPACEBAR,,
html-keyboard-response,348,947816,null,"ARM",null,word,,, 'ARM',
survey-text,349,950601,2781.1000000002095,"",,,,,,{"Q0":"1"}
survey-text,350,951950,1345.3850000005914,"",,,,,,{"Q0":"3"}
survey-text,351,954221,2267.4649999971734,"",,,,,,{"Q0":"6"}
survey-text,352,955602,1377.4699999995064,"",,,,,,{"Q0":"1"}
survey-text,353,957429,1823.8849999979138,"",,,,,,{"Q0":"1"}
survey-text,354,958760,1327.080000002752,"",,,,,,{"Q0":"4"}
survey-text,355,959948,1186.0100000012899,"",,,,,,{"Q0":"5"}
survey-text,356,961650,1697.8900000030408,"",,,,,,{"Q0":"2"}
survey-text,357,962780,1126.8049999999348,"",,,,,,{"Q0":"2"}
survey-text,358,963997,1213.7250000013737,"",,,,,,{"Q0":"3"}
survey-text,359,965567,1565.9350000023842,"",,,,,,{"Q0":"5"}
survey-text,360,967245,1675.090000000666,"",,,,,,{"Q0":"4"}
survey-text,361,969080,1831.6649999978254,"",,,,,,{"Q0":"5"}
survey-text,362,972756,3671.830000002985,"",,,,,,{"Q0":"3"}
survey-text,363,975933,3172.565000000759,"",,,,,,{"Q0":"germ"}
survey-text,364,978453,2516.7099999998463,"",,,,,,{"Q0":"compass"}
survey-text,365,979694,1237.7049999994924,"",,,,,,{"Q0":"sand"}
survey-text,366,981806,2108.8799999996554,"",,,,,,{"Q0":"rabbit"}
survey-text,367,984687,2877.840000001015,"",,,,,,{"Q0":"bedroom"}
survey-text,368,989678,4988.04999999993,"",,,,,,{"Q0":"salad"}
survey-text,369,993229,3547.550000002957,"",,,,,,{"Q0":"sphinx"}
survey-text,370,995200,1967.8249999997206,"",,,,,,{"Q0":"coffin"}
survey-text,371,996581,1377.6950000028592,"",,,,,,{"Q0":"supper"}
survey-text,372,1001975,5390.26500000176,"",,,,,,{"Q0":"sandwhich"}
survey-text,373,1080654,78673.745,"",,,,,,{"Q0":"temple"}
html-keyboard-response,374,1085825,5169.5350000008475,"<div style=""font-size:48px;"">Press any key to begin list 6 of 24 </div>",32,,,,,
html-keyboard-response,375,1088331,null,"<div style=""font-size:60px;"">+</div>",null,,,,,
html-keyboard-response,376,1088838,null,"PLANT<img id = ""stim"" ><div class = green_square id = ""topsquare"" ></div><img id = ""stim"" ><div class = green_square  id = ""bottomsquare"" ></div>",null,word_square,0,SPACEBAR,,
html-keyboard-response,377,1090340,null,"PLANT",null,word,,, 'PLANT',
html-keyboard-response,378,1090846,null,"EMPIRE<img id = ""stim"" ><div class = green_square id = ""topsquare"" ></div><img id = ""stim"" ><div class = green_square  id = ""bottomsquare"" ></div>",null,word_square,0,SPACEBAR,,
html-keyboard-response,379,1092348,null,"EMPIRE",null,word,,, 'EMPIRE',
html-keyboard-response,380,1092847,498.66499999933876,"EXPERT<img id = ""stim"" ><div class = red_square id = ""topsquare"" ></div><img id = ""stim"" ><div class = red_square  id = ""bottomsquare"" ></div>",32,word_square,1,SPACEBAR,,
html-keyboard-response,381,1094353,null,"EXPERT",null,word,,, 'EXPERT',
html-keyboard-response,382,1094855,null,"BUREAU<img id = ""stim"" ><div class = green_square id = ""topsquare"" ></div><img id = ""stim"" ><div class = green_square  id = ""bottomsquare"" ></div>",null,word_square,0,SPACEBAR,,
html-keyboard-response,383,1096358,null,"BUREAU",null,word,,, 'BUREAU',
html-keyboard-response,384,1096865,null,"CREATURE<img id = ""stim"" ><div class = red_square id = ""topsquare"" ></div><img id = ""stim"" ><div class = red_square  id = ""bottomsquare"" ></div>",null,word_square,1,SPACEBAR,,
html-keyboard-response,385,1098366,null,"CREATURE",null,word,,, 'CREATURE',
html-keyboard-response,386,1098870,null,"SCALLOP<img id = ""stim"" ><div class = red_square id = ""topsquare"" ></div><img id = ""stim"" ><div class = red_square  id = ""bottomsquare"" ></div>",null,word_square,1,SPACEBAR,,
html-keyboard-response,387,1100374,null,"SCALLOP",null,word,,, 'SCALLOP',
html-keyboard-response,388,1100877,null,"VALVE<img id = ""stim"" ><div class = green_square id = ""topsquare"" ></div><img id = ""stim"" ><div class = green_square  id = ""bottomsquare"" ></div>",null,word_square,0,SPACEBAR,,
html-keyboard-response,389,1102379,null,"VALVE",null,word,,, 'VALVE',
html-keyboard-response,390,1102881,null,"FLESH<img id = ""stim"" ><div class = green_square id = ""topsquare"" ></div><img id = ""stim"" ><div class = green_square  id = ""bottomsquare"" ></div>",null,word_square,0,SPACEBAR,,
html-keyboard-response,391,1104386,null,"FLESH",null,word,,, 'FLESH',
html-keyboard-response,392,1104893,null,"SNOB<img id = ""stim"" ><div class = red_square id = ""topsquare"" ></div><img id = ""stim"" ><div class = red_square  id = ""bottomsquare"" ></div>",null,word_square,1,SPACEBAR,,
html-keyboard-response,393,1106394,null,"SNOB",null,word,,, 'SNOB',
html-keyboard-response,394,1106898,null,"CLOCK<img id = ""stim"" ><div class = green_square id = ""topsquare"" ></div><img id = ""stim"" ><div class = green_square  id = ""bottomsquare"" ></div>",null,word_square,0,SPACEBAR,,
html-keyboard-response,395,1108400,null,"CLOCK",null,word,,, 'CLOCK',
html-keyboard-response,396,1108906,null,"WIDOW<img id = ""stim"" ><div class = red_square id = ""topsquare"" ></div><img id = ""stim"" ><div class = red_square  id = ""bottomsquare"" ></div>",null,word_square,1,SPACEBAR,,
html-keyboard-response,397,1110408,null,"WIDOW",null,word,,, 'WIDOW',
html-keyboard-response,398,1110911,null,"GRAVE<img id = ""stim"" ><div class = red_square id = ""topsquare"" ></div><img id = ""stim"" ><div class = red_square  id = ""bottomsquare"" ></div>",null,word_square,1,SPACEBAR,,
html-keyboard-response,399,1112415,null,"GRAVE",null,word,,, 'GRAVE',
html-keyboard-response,400,1112921,null,"HAMPER<img id = ""stim"" ><div class = green_square id = ""topsquare"" ></div><img id = ""stim"" ><div class = green_square  id = ""bottomsquare"" ></div>",null,word_square,0,SPACEBAR,,
html-keyboard-response,401,1114423,null,"HAMPER",null,word,,, 'HAMPER',
html-keyboard-response,402,1114927,null,"SOLDIER<img id = ""stim"" ><div class = green_square id = ""topsquare"" ></div><img id = ""stim"" ><div class = green_square  id = ""bottomsquare"" ></div>",null,word_square,0,SPACEBAR,,
html-keyboard-response,403,1116432,null,"SOLDIER",null,word,,, 'SOLDIER',
html-keyboard-response,404,1116937,null,"BEAST<img id = ""stim"" ><div class = red_square id = ""topsquare"" ></div><img id = ""stim"" ><div class = red_square  id = ""bottomsquare"" ></div>",null,word_square,1,SPACEBAR,,
html-keyboard-response,405,1118438,null,"BEAST",null,word,,, 'BEAST',
html-keyboard-response,406,1118940,null,"REPTILE<img id = ""stim"" ><div class = red_square id = ""topsquare"" ></div><img id = ""stim"" ><div class = red_square  id = ""bottomsquare"" ></div>",null,word_square,1,SPACEBAR,,
html-keyboard-response,407,1120444,null,"REPTILE",null,word,,, 'REPTILE',
html-keyboard-response,408,1120946,null,"BRIDE<img id = ""stim"" ><div class = green_square id = ""topsquare"" ></div><img id = ""stim"" ><div class = green_square  id = ""bottomsquare"" ></div>",null,word_square,0,SPACEBAR,,
html-keyboard-response,409,1122450,null,"BRIDE",null,word,,, 'BRIDE',
html-keyboard-response,410,1122885,433.61999999615364,"AUTHOR<img id = ""stim"" ><div class = red_square id = ""topsquare"" ></div><img id = ""stim"" ><div class = red_square  id = ""bottomsquare"" ></div>",32,word_square,1,SPACEBAR,,
html-keyboard-response,411,1124391,null,"AUTHOR",null,word,,, 'AUTHOR',
survey-text,412,1126653,2253.230000002077,"",,,,,,{"Q0":"2"}
survey-text,413,1131848,5192.250000000233,"",,,,,,{"Q0":"5"}
survey-text,414,1133587,1735.834999999497,"",,,,,,{"Q0":"4"}
survey-text,415,1135160,1570.344999999972,"",,,,,,{"Q0":"5"}
survey-text,416,1136659,1496.0100000025705,"",,,,,,{"Q0":"2"}
survey-text,417,1137993,1330.3799999994226,"",,,,,,{"Q0":"4"}
survey-text,418,1139361,1365.0449999985285,"",,,,,,{"Q0":"4"}
survey-text,419,1140840,1475.2850000003818,"",,,,,,{"Q0":"3"}
survey-text,420,1141987,1144.6399999985006,"",,,,,,{"Q0":"3"}
survey-text,421,1143073,1082.4849999991711,"",,,,,,{"Q0":"3"}
survey-text,422,1144264,1188.6000000012573,"",,,,,,{"Q0":"4"}
survey-text,423,1145473,1206.2300000034738,"",,,,,,{"Q0":"6"}
survey-text,424,1148920,3441.964999998221,"",,,,,,{"Q0":"0"}
survey-text,425,1151580,2656.8550000011455,"",,,,,,{"Q0":"beast"}
survey-text,426,1153316,1732.1050000027753,"",,,,,,{"Q0":"bride"}
survey-text,427,1155964,2643.425000001909,"",,,,,,{"Q0":"plant"}
survey-text,428,1158309,2342.510000002105,"",,,,,,{"Q0":"empire"}
survey-text,429,1160443,2130.0899999989197,"",,,,,,{"Q0":"clock"}
survey-text,430,1162557,2109.850000000559,"",,,,,,{"Q0":"expert"}
survey-text,431,1164665,2105.2800000032876,"",,,,,,{"Q0":"bureau"}
survey-text,432,1168898,4229.124999998137,"",,,,,,{"Q0":"creature"}
survey-text,433,1172303,3401.284999999916,"",,,,,,{"Q0":"scallop"}
survey-text,434,1174875,2569.0499999984168,"",,,,,,{"Q0":"valve"}
survey-text,435,1178040,3161.8299999972805,"",,,,,,{"Q0":"flesh"}
survey-text,436,1180648,2605.08999999729,"",,,,,,{"Q0":"snob"}
survey-text,437,1231104,50451.23500000057,"",,,,,,{"Q0":"widow"}
html-keyboard-response,438,1234772,3667.31499999878,"<div style=""font-size:48px;"">Press any key to begin list 7 of 24 </div>",32,,,,,
html-keyboard-response,439,1237275,null,"<div style=""font-size:60px;"">+</div>",null,,,,,
html-keyboard-response,440,1237778,null,"BUGLE<img id = ""stim"" ><div class = red_square id = ""topsquare"" ></div><img id = ""stim"" ><div class = red_square  id = ""bottomsquare"" ></div>",null,word_square,1,SPACEBAR,,
html-keyboard-response,441,1239282,null,"BUGLE",null,word,,, 'BUGLE',
html-keyboard-response,442,1239787,null,"VIRUS<img id = ""stim"" ><div class = red_square id = ""topsquare"" ></div><img id = ""stim"" ><div class = red_square  id = ""bottomsquare"" ></div>",null,word_square,1,SPACEBAR,,
html-keyboard-response,443,1241289,null,"VIRUS",null,word,,, 'VIRUS',
html-keyboard-response,444,1241796,null,"TURTLE<img id = ""stim"" ><div class = green_square id = ""topsquare"" ></div><img id = ""stim"" ><div class = green_square  id = ""bottomsquare"" ></div>",null,word_square,0,SPACEBAR,,
html-keyboard-response,445,1243298,null,"TURTLE",null,word,,, 'TURTLE',
html-keyboard-response,446,1243770,471.2650000001304,"SNAIL<img id = ""stim"" ><div class = red_square id = ""topsquare"" ></div><img id = ""stim"" ><div class = red_square  id = ""bottomsquare"" ></div>",32,word_square,1,SPACEBAR,,
html-keyboard-response,447,1245271,null,"SNAIL",null,word,,, 'SNAIL',
html-keyboard-response,448,1245775,null,"GLACIER<img id = ""stim"" ><div class = green_square id = ""topsquare"" ></div><img id = ""stim"" ><div class = green_square  id = ""bottomsquare"" ></div>",null,word_square,0,SPACEBAR,,
html-keyboard-response,449,1247280,null,"GLACIER",null,word,,, 'GLACIER',
html-keyboard-response,450,1247786,null,"BINDER<img id = ""stim"" ><div class = green_square id = ""topsquare"" ></div><img id = ""stim"" ><div class = green_square  id = ""bottomsquare"" ></div>",null,word_square,0,SPACEBAR,,
html-keyboard-response,451,1249290,null,"BINDER",null,word,,, 'BINDER',
html-keyboard-response,452,1249792,null,"PARTY<img id = ""stim"" ><div class = red_square id = ""topsquare"" ></div><img id = ""stim"" ><div class = red_square  id = ""bottomsquare"" ></div>",null,word_square,1,SPACEBAR,,
html-keyboard-response,453,1251296,null,"PARTY",null,word,,, 'PARTY',
html-keyboard-response,454,1251797,null,"SWORD<img id = ""stim"" ><div class = red_square id = ""topsquare"" ></div><img id = ""stim"" ><div class = red_square  id = ""bottomsquare"" ></div>",null,word_square,1,SPACEBAR,,
html-keyboard-response,455,1253304,null,"SWORD",null,word,,, 'SWORD',
html-keyboard-response,456,1253810,null,"LOFT<img id = ""stim"" ><div class = green_square id = ""topsquare"" ></div><img id = ""stim"" ><div class = green_square  id = ""bottomsquare"" ></div>",null,word_square,0,SPACEBAR,,
html-keyboard-response,457,1255316,null,"LOFT",null,word,,, 'LOFT',
html-keyboard-response,458,1255784,466.9599999981001,"ACTRESS<img id = ""stim"" ><div class = red_square id = ""topsquare"" ></div><img id = ""stim"" ><div class = red_square  id = ""bottomsquare"" ></div>",32,word_square,1,SPACEBAR,,
html-keyboard-response,459,1257296,null,"ACTRESS",null,word,,, 'ACTRESS',
html-keyboard-response,460,1257803,null,"JUGGLER<img id = ""stim"" ><div class = green_square id = ""topsquare"" ></div><img id = ""stim"" ><div class = green_square  id = ""bottomsquare"" ></div>",null,word_square,0,SPACEBAR,,
html-keyboard-response,461,1259307,null,"JUGGLER",null,word,,, 'JUGGLER',
html-keyboard-response,462,1259814,null,"KNIFE<img id = ""stim"" ><div class = green_square id = ""topsquare"" ></div><img id = ""stim"" ><div class = green_square  id = ""bottomsquare"" ></div>",null,word_square,0,SPACEBAR,,
html-keyboard-response,463,1261320,null,"KNIFE",null,word,,, 'KNIFE',
html-keyboard-response,464,1261827,null,"WAITER<img id = ""stim"" ><div class = red_square id = ""topsquare"" ></div><img id = ""stim"" ><div class = red_square  id = ""bottomsquare"" ></div>",null,word_square,1,SPACEBAR,,
html-keyboard-response,465,1263329,null,"WAITER",null,word,,, 'WAITER',
html-keyboard-response,466,1263721,391.2049999998417,"HORSE<img id = ""stim"" ><div class = red_square id = ""topsquare"" ></div><img id = ""stim"" ><div class = red_square  id = ""bottomsquare"" ></div>",32,word_square,1,SPACEBAR,,
html-keyboard-response,467,1265227,null,"HORSE",null,word,,, 'HORSE',
html-keyboard-response,468,1265731,null,"BISCUIT<img id = ""stim"" ><div class = green_square id = ""topsquare"" ></div><img id = ""stim"" ><div class = green_square  id = ""bottomsquare"" ></div>",null,word_square,0,SPACEBAR,,
html-keyboard-response,469,1267236,null,"BISCUIT",null,word,,, 'BISCUIT',
html-keyboard-response,470,1267742,null,"PIANO<img id = ""stim"" ><div class = green_square id = ""topsquare"" ></div><img id = ""stim"" ><div class = green_square  id = ""bottomsquare"" ></div>",null,word_square,0,SPACEBAR,,
html-keyboard-response,471,1269245,null,"PIANO",null,word,,, 'PIANO',
html-keyboard-response,472,1269747,null,"STAR<img id = ""stim"" ><div class = red_square id = ""topsquare"" ></div><img id = ""stim"" ><div class = red_square  id = ""bottomsquare"" ></div>",null,word_square,1,SPACEBAR,,
html-keyboard-response,473,1271253,null,"STAR",null,word,,, 'STAR',
html-keyboard-response,474,1271760,null,"SPACE<img id = ""stim"" ><div class = green_square id = ""topsquare"" ></div><img id = ""stim"" ><div class = green_square  id = ""bottomsquare"" ></div>",null,word_square,0,SPACEBAR,,
html-keyboard-response,475,1273267,null,"SPACE",null,word,,, 'SPACE',
survey-text,476,1276389,3113.3749999934807,"",,,,,,{"Q0":"2"}
survey-text,477,1277560,1168.6649999974761,"",,,,,,{"Q0":"3"}
survey-text,478,1279170,1605.8049999992363,"",,,,,,{"Q0":"4"}
survey-text,479,1280845,1670.7650000024587,"",,,,,,{"Q0":"1"}
survey-text,480,1282232,1383.239999995567,"",,,,,,{"Q0":"4"}
survey-text,481,1283881,1646.1649999984074,"",,,,,,{"Q0":"2"}
survey-text,482,1285132,1247.5850000046194,"",,,,,,{"Q0":"4"}
survey-text,483,1286581,1445.6900000004098,"",,,,,,{"Q0":"1"}
survey-text,484,1287835,1250.2050000037998,"",,,,,,{"Q0":"4"}
survey-text,485,1289457,1618.6649999946821,"",,,,,,{"Q0":"2"}
survey-text,486,1290927,1467.0199999962933,"",,,,,,{"Q0":"5"}
survey-text,487,1292495,1565.3049999964423,"",,,,,,{"Q0":"3"}
survey-text,488,1293973,1474.4749999954365,"",,,,,,{"Q0":"1"}
survey-text,489,1295292,1316.6349999955855,"",,,,,,{"Q0":"6"}
survey-text,490,1296474,1178.4350000016857,"",,,,,,{"Q0":"2"}
survey-text,491,1297798,1319.5550000017975,"",,,,,,{"Q0":"1"}
survey-text,492,1299849,2048.4950000029057,"",,,,,,{"Q0":"star"}
survey-text,493,1301590,1737.549999997951,"",,,,,,{"Q0":"space"}
survey-text,494,1305290,3695.265000002226,"",,,,,,{"Q0":"jungle"}
survey-text,495,1306970,1676.579999999376,"",,,,,,{"Q0":"loft"}
survey-text,496,1310307,3333.935000002384,"",,,,,,{"Q0":"sword"}
survey-text,497,1312637,2327.1049999967217,"",,,,,,{"Q0":"party"}
survey-text,498,1317812,5171.614999999292,"",,,,,,{"Q0":"glacier"}
survey-text,499,1323864,6048.925000002608,"",,,,,,{"Q0":"virus"}
survey-text,500,1326367,2499.3250000041444,"",,,,,,{"Q0":"turtle"}
survey-text,501,1338577,12206.28999999445,"",,,,,,{"Q0":"bugle"}
survey-text,502,1372344,33763.059999997495,"",,,,,,{"Q0":"party"}
survey-text,503,1412789,40440.84499999741,"",,,,,,{"Q0":"loft"}
html-keyboard-response,504,1415970,3179.255000002682,"<div style=""font-size:48px;"">Press any key to begin list 8 of 24 </div>",32,,,,,
html-keyboard-response,505,1418477,null,"<div style=""font-size:60px;"">+</div>",null,,,,,
html-keyboard-response,506,1418985,null,"HANDCUFFS<img id = ""stim"" ><div class = red_square id = ""topsquare"" ></div><img id = ""stim"" ><div class = red_square  id = ""bottomsquare"" ></div>",null,word_square,1,SPACEBAR,,
html-keyboard-response,507,1420487,null,"HANDCUFFS",null,word,,, 'HANDCUFFS',
html-keyboard-response,508,1420990,null,"WASHER<img id = ""stim"" ><div class = red_square id = ""topsquare"" ></div><img id = ""stim"" ><div class = red_square  id = ""bottomsquare"" ></div>",null,word_square,1,SPACEBAR,,
html-keyboard-response,509,1422494,null,"WASHER",null,word,,, 'WASHER',
html-keyboard-response,510,1423001,null,"PICTURE<img id = ""stim"" ><div class = green_square id = ""topsquare"" ></div><img id = ""stim"" ><div class = green_square  id = ""bottomsquare"" ></div>",null,word_square,0,SPACEBAR,,
html-keyboard-response,511,1424502,null,"PICTURE",null,word,,, 'PICTURE',
html-keyboard-response,512,1424896,393.0199999960605,"VENUS<img id = ""stim"" ><div class = red_square id = ""topsquare"" ></div><img id = ""stim"" ><div class = red_square  id = ""bottomsquare"" ></div>",32,word_square,1,SPACEBAR,,
html-keyboard-response,513,1426403,null,"VENUS",null,word,,, 'VENUS',
html-keyboard-response,514,1426908,null,"CARRIAGE<img id = ""stim"" ><div class = green_square id = ""topsquare"" ></div><img id = ""stim"" ><div class = green_square  id = ""bottomsquare"" ></div>",null,word_square,0,SPACEBAR,,
html-keyboard-response,515,1428420,null,"CARRIAGE",null,word,,, 'CARRIAGE',
html-keyboard-response,516,1428927,null,"BUGGY<img id = ""stim"" ><div class = green_square id = ""topsquare"" ></div><img id = ""stim"" ><div class = green_square  id = ""bottomsquare"" ></div>",null,word_square,0,SPACEBAR,,
html-keyboard-response,517,1430433,null,"BUGGY",null,word,,, 'BUGGY',
html-keyboard-response,518,1430940,null,"WORLD<img id = ""stim"" ><div class = red_square id = ""topsquare"" ></div><img id = ""stim"" ><div class = red_square  id = ""bottomsquare"" ></div>",null,word_square,1,SPACEBAR,,
html-keyboard-response,519,1432446,null,"WORLD",null,word,,, 'WORLD',
html-keyboard-response,520,1432953,null,"BOTTLE<img id = ""stim"" ><div class = red_square id = ""topsquare"" ></div><img id = ""stim"" ><div class = red_square  id = ""bottomsquare"" ></div>",null,word_square,1,SPACEBAR,,
html-keyboard-response,521,1434459,null,"BOTTLE",null,word,,, 'BOTTLE',
html-keyboard-response,522,1434966,null,"SHRUB<img id = ""stim"" ><div class = green_square id = ""topsquare"" ></div><img id = ""stim"" ><div class = green_square  id = ""bottomsquare"" ></div>",null,word_square,0,SPACEBAR,,
html-keyboard-response,523,1436470,null,"SHRUB",null,word,,, 'SHRUB',
html-keyboard-response,524,1436934,462.70999999996275,"JOINT<img id = ""stim"" ><div class = red_square id = ""topsquare"" ></div><img id = ""stim"" ><div class = red_square  id = ""bottomsquare"" ></div>",32,word_square,1,SPACEBAR,,
html-keyboard-response,525,1438438,null,"JOINT",null,word,,, 'JOINT',
html-keyboard-response,526,1438941,null,"MARS<img id = ""stim"" ><div class = green_square id = ""topsquare"" ></div><img id = ""stim"" ><div class = green_square  id = ""bottomsquare"" ></div>",null,word_square,0,SPACEBAR,,
html-keyboard-response,527,1440447,null,"MARS",null,word,,, 'MARS',
html-keyboard-response,528,1440952,null,"IDOL<img id = ""stim"" ><div class = green_square id = ""topsquare"" ></div><img id = ""stim"" ><div class = green_square  id = ""bottomsquare"" ></div>",null,word_square,0,SPACEBAR,,
html-keyboard-response,529,1442453,null,"IDOL",null,word,,, 'IDOL',
html-keyboard-response,530,1442961,null,"BANQUET<img id = ""stim"" ><div class = red_square id = ""topsquare"" ></div><img id = ""stim"" ><div class = red_square  id = ""bottomsquare"" ></div>",null,word_square,1,SPACEBAR,,
html-keyboard-response,531,1444467,null,"BANQUET",null,word,,, 'BANQUET',
html-keyboard-response,532,1444971,null,"PARSLEY<img id = ""stim"" ><div class = red_square id = ""topsquare"" ></div><img id = ""stim"" ><div class = red_square  id = ""bottomsquare"" ></div>",null,word_square,1,SPACEBAR,,
html-keyboard-response,533,1446473,null,"PARSLEY",null,word,,, 'PARSLEY',
html-keyboard-response,534,1446977,null,"PLUTO<img id = ""stim"" ><div class = green_square id = ""topsquare"" ></div><img id = ""stim"" ><div class = green_square  id = ""bottomsquare"" ></div>",null,word_square,0,SPACEBAR,,
html-keyboard-response,535,1448484,null,"PLUTO",null,word,,, 'PLUTO',
html-keyboard-response,536,1448992,null,"SHEPHERD<img id = ""stim"" ><div class = green_square id = ""topsquare"" ></div><img id = ""stim"" ><div class = green_square  id = ""bottomsquare"" ></div>",null,word_square,0,SPACEBAR,,
html-keyboard-response,537,1450498,null,"SHEPHERD",null,word,,, 'SHEPHERD',
html-keyboard-response,538,1451005,null,"BEAVER<img id = ""stim"" ><div class = red_square id = ""topsquare"" ></div><img id = ""stim"" ><div class = red_square  id = ""bottomsquare"" ></div>",null,word_square,1,SPACEBAR,,
html-keyboard-response,539,1452511,null,"BEAVER",null,word,,, 'BEAVER',
html-keyboard-response,540,1453013,null,"HERO<img id = ""stim"" ><div class = green_square id = ""topsquare"" ></div><img id = ""stim"" ><div class = green_square  id = ""bottomsquare"" ></div>",null,word_square,0,SPACEBAR,,
html-keyboard-response,541,1454516,null,"HERO",null,word,,, 'HERO',
survey-text,542,1456875,2354.690000000177,"",,,,,,{"Q0":"1"}
survey-text,543,1458244,1365.9150000021327,"",,,,,,{"Q0":"4"}
survey-text,544,1459347,1100.294999996433,"",,,,,,{"Q0":"2"}
survey-text,545,1460836,1485.2050000044983,"",,,,,,{"Q0":"1"}
survey-text,546,1462744,1904.0999999998603,"",,,,,,{"Q0":"1"}
survey-text,547,1464928,2180.6450000002515,"",,,,,,{"Q0":"2"}
survey-text,548,1466865,1933.8399999979883,"",,,,,,{"Q0":"4"}
survey-text,549,1470057,3188.2599999953527,"",,,,,,{"Q0":"5"}
survey-text,550,1471272,1211.5249999987427,"",,,,,,{"Q0":"5"}
survey-text,551,1472951,1675.1700000022538,"",,,,,,{"Q0":"2"}
survey-text,552,1474558,1603.349999997532,"",,,,,,{"Q0":"1"}
survey-text,553,1476036,1474.6799999992363,"",,,,,,{"Q0":"1"}
survey-text,554,1477916,1875.9649999991525,"",,,,,,{"Q0":"1"}
survey-text,555,1479614,1694.6750000061002,"",,,,,,{"Q0":"2"}
survey-text,556,1481795,2177.3099999991246,"",,,,,,{"Q0":"mars"}
survey-text,557,1483925,2126.105000003008,"",,,,,,{"Q0":"pluto"}
survey-text,558,1485786,1857.799999997951,"",,,,,,{"Q0":"beaver"}
survey-text,559,1489561,3772.6150000016205,"",,,,,,{"Q0":"handcuffs"}
survey-text,560,1492018,2453.5049999977928,"",,,,,,{"Q0":"washer"}
survey-text,561,1494167,2145.364999996731,"",,,,,,{"Q0":"picture"}
survey-text,562,1497255,3085.430000006454,"",,,,,,{"Q0":"venus"}
survey-text,563,1502099,4840.360000001965,"",,,,,,{"Q0":"buggy"}
survey-text,564,1503807,1705.024999995716,"",,,,,,{"Q0":"world"}
survey-text,565,1506291,2478.279999995604,"",,,,,,{"Q0":"bottle"}
survey-text,566,1557264,50968.254999999655,"",,,,,,{"Q0":"shrub"}
html-keyboard-response,567,1563204,5938.090000003343,"<div style=""font-size:48px;"">Press any key to begin list 9 of 24 </div>",32,,,,,
html-keyboard-response,568,1565714,null,"<div style=""font-size:60px;"">+</div>",null,,,,,
html-keyboard-response,569,1566219,null,"DUNGEON<img id = ""stim"" ><div class = green_square id = ""topsquare"" ></div><img id = ""stim"" ><div class = green_square  id = ""bottomsquare"" ></div>",null,word_square,0,SPACEBAR,,
html-keyboard-response,570,1567722,null,"DUNGEON",null,word,,, 'DUNGEON',
html-keyboard-response,571,1568228,null,"CROWN<img id = ""stim"" ><div class = red_square id = ""topsquare"" ></div><img id = ""stim"" ><div class = red_square  id = ""bottomsquare"" ></div>",null,word_square,1,SPACEBAR,,
html-keyboard-response,572,1569731,null,"CROWN",null,word,,, 'CROWN',
html-keyboard-response,573,1570234,null,"TUNNEL<img id = ""stim"" ><div class = green_square id = ""topsquare"" ></div><img id = ""stim"" ><div class = green_square  id = ""bottomsquare"" ></div>",null,word_square,0,SPACEBAR,,
html-keyboard-response,574,1571738,null,"TUNNEL",null,word,,, 'TUNNEL',
html-keyboard-response,575,1572244,null,"CYCLONE<img id = ""stim"" ><div class = green_square id = ""topsquare"" ></div><img id = ""stim"" ><div class = green_square  id = ""bottomsquare"" ></div>",null,word_square,0,SPACEBAR,,
html-keyboard-response,576,1573746,null,"CYCLONE",null,word,,, 'CYCLONE',
html-keyboard-response,577,1574237,490.2250000014901,"PECAN<img id = ""stim"" ><div class = red_square id = ""topsquare"" ></div><img id = ""stim"" ><div class = red_square  id = ""bottomsquare"" ></div>",32,word_square,1,SPACEBAR,,
html-keyboard-response,578,1575743,null,"PECAN",null,word,,, 'PECAN',
html-keyboard-response,579,1576245,null,"SALMON<img id = ""stim"" ><div class = green_square id = ""topsquare"" ></div><img id = ""stim"" ><div class = green_square  id = ""bottomsquare"" ></div>",null,word_square,0,SPACEBAR,,
html-keyboard-response,580,1577751,null,"SALMON",null,word,,, 'SALMON',
html-keyboard-response,581,1578253,null,"SALT<img id = ""stim"" ><div class = green_square id = ""topsquare"" ></div><img id = ""stim"" ><div class = green_square  id = ""bottomsquare"" ></div>",null,word_square,0,SPACEBAR,,
html-keyboard-response,582,1579758,null,"SALT",null,word,,, 'SALT',
html-keyboard-response,583,1580189,429.660000001546,"CRITIC<img id = ""stim"" ><div class = red_square id = ""topsquare"" ></div><img id = ""stim"" ><div class = red_square  id = ""bottomsquare"" ></div>",32,word_square,1,SPACEBAR,,
html-keyboard-response,584,1581692,null,"CRITIC",null,word,,, 'CRITIC',
html-keyboard-response,585,1581907,213.7700000021141,"POPCORN<img id = ""stim"" ><div class = red_square id = ""topsquare"" ></div><img id = ""stim"" ><div class = red_square  id = ""bottomsquare"" ></div>",32,word_square,1,SPACEBAR,,
html-keyboard-response,586,1583411,null,"POPCORN",null,word,,, 'POPCORN',
html-keyboard-response,587,1583913,null,"PERSON<img id = ""stim"" ><div class = green_square id = ""topsquare"" ></div><img id = ""stim"" ><div class = green_square  id = ""bottomsquare"" ></div>",null,word_square,0,SPACEBAR,,
html-keyboard-response,588,1585416,null,"PERSON",null,word,,, 'PERSON',
html-keyboard-response,589,1585922,null,"BEETLE<img id = ""stim"" ><div class = green_square id = ""topsquare"" ></div><img id = ""stim"" ><div class = green_square  id = ""bottomsquare"" ></div>",null,word_square,0,SPACEBAR,,
html-keyboard-response,590,1587429,null,"BEETLE",null,word,,, 'BEETLE',
html-keyboard-response,591,1587817,387.39499999792315,"SKILLET<img id = ""stim"" ><div class = red_square id = ""topsquare"" ></div><img id = ""stim"" ><div class = red_square  id = ""bottomsquare"" ></div>",32,word_square,1,SPACEBAR,,
html-keyboard-response,592,1589321,null,"SKILLET",null,word,,, 'SKILLET',
html-keyboard-response,593,1589824,null,"KITCHEN<img id = ""stim"" ><div class = red_square id = ""topsquare"" ></div><img id = ""stim"" ><div class = red_square  id = ""bottomsquare"" ></div>",null,word_square,1,SPACEBAR,,
html-keyboard-response,594,1591330,null,"KITCHEN",null,word,,, 'KITCHEN',
html-keyboard-response,595,1591678,346.4100000055041,"PORPOISE<img id = ""stim"" ><div class = red_square id = ""topsquare"" ></div><img id = ""stim"" ><div class = red_square  id = ""bottomsquare"" ></div>",32,word_square,1,SPACEBAR,,
html-keyboard-response,596,1593185,null,"PORPOISE",null,word,,, 'PORPOISE',
html-keyboard-response,597,1593687,null,"CONSOLE<img id = ""stim"" ><div class = green_square id = ""topsquare"" ></div><img id = ""stim"" ><div class = green_square  id = ""bottomsquare"" ></div>",null,word_square,0,SPACEBAR,,
html-keyboard-response,598,1595193,null,"CONSOLE",null,word,,, 'CONSOLE',
html-keyboard-response,599,1595657,462.3500000014901,"THRONE<img id = ""stim"" ><div class = red_square id = ""topsquare"" ></div><img id = ""stim"" ><div class = red_square  id = ""bottomsquare"" ></div>",32,word_square,1,SPACEBAR,,
html-keyboard-response,600,1597163,null,"THRONE",null,word,,, 'THRONE',
html-keyboard-response,601,1597669,null,"BOYFRIEND<img id = ""stim"" ><div class = green_square id = ""topsquare"" ></div><img id = ""stim"" ><div class = green_square  id = ""bottomsquare"" ></div>",null,word_square,0,SPACEBAR,,
html-keyboard-response,602,1599171,null,"BOYFRIEND",null,word,,, 'BOYFRIEND',
html-keyboard-response,603,1599673,null,"APPLE<img id = ""stim"" ><div class = red_square id = ""topsquare"" ></div><img id = ""stim"" ><div class = red_square  id = ""bottomsquare"" ></div>",null,word_square,1,SPACEBAR,,
html-keyboard-response,604,1601180,null,"APPLE",null,word,,, 'APPLE',
survey-text,605,1604025,2842.8249999997206,"",,,,,,{"Q0":"1"}
survey-text,606,1607680,3651.590000001248,"",,,,,,{"Q0":"5"}
survey-text,607,1609309,1625.204999996582,"",,,,,,{"Q0":"5"}
survey-text,608,1610647,1334.4399999985471,"",,,,,,{"Q0":"4"}
survey-text,609,1613003,2351.795000002254,"",,,,,,{"Q0":"3"}
survey-text,610,1616128,3121.390000000363,"",,,,,,{"Q0":"4"}
survey-text,611,1618107,1975.7149999933317,"",,,,,,{"Q0":"1"}
survey-text,612,1619948,1837.8650000013877,"",,,,,,{"Q0":"1"}
survey-text,613,1621585,1633.6450000016484,"",,,,,,{"Q0":"4"}
survey-text,614,1622905,1317.4599999985658,"",,,,,,{"Q0":"6"}
survey-text,615,1624559,1650.08999999566,"",,,,,,{"Q0":"5"}
survey-text,616,1625972,1409.9600000046194,"",,,,,,{"Q0":"4"}
survey-text,617,1628810,2833.8700000022072,"",,,,,,{"Q0":"popcorn"}
survey-text,618,1630979,2164.2300000023097,"",,,,,,{"Q0":"person"}
survey-text,619,1636284,5302.10500000231,"",,,,,,{"Q0":"boyfriend"}
survey-text,620,1638144,1856.654999995837,"",,,,,,{"Q0":"beaver"}
survey-text,621,1640876,2728.23000000068,"",,,,,,{"Q0":"crown"}
survey-text,622,1643292,2412.3399999951944,"",,,,,,{"Q0":"tunnel"}
survey-text,623,1646310,3014.6650000023656,"",,,,,,{"Q0":"salt"}
survey-text,624,1649485,3171.1900000008754,"",,,,,,{"Q0":"cyclone"}
survey-text,625,1655220,5731.315000004601,"",,,,,,{"Q0":"salt"}
survey-text,626,1694513,39288.46999999951,"",,,,,,{"Q0":"salmon"}
survey-text,627,1726068,31550.81000000052,"",,,,,,{"Q0":" "}
html-keyboard-response,628,1728684,2614.204999997979,"<div style=""font-size:48px;"">Press any key to begin list 10 of 24 </div>",32,,,,,
html-keyboard-response,629,1731189,null,"<div style=""font-size:60px;"">+</div>",null,,,,,
html-keyboard-response,630,1731695,null,"CROSS<img id = ""stim"" ><div class = green_square id = ""topsquare"" ></div><img id = ""stim"" ><div class = green_square  id = ""bottomsquare"" ></div>",null,word_square,0,SPACEBAR,,
html-keyboard-response,631,1733199,null,"CROSS",null,word,,, 'CROSS',
html-keyboard-response,632,1733706,null,"CANOE<img id = ""stim"" ><div class = red_square id = ""topsquare"" ></div><img id = ""stim"" ><div class = red_square  id = ""bottomsquare"" ></div>",null,word_square,1,SPACEBAR,,
html-keyboard-response,633,1735209,null,"CANOE",null,word,,, 'CANOE',
html-keyboard-response,634,1735716,null,"SHERIFF<img id = ""stim"" ><div class = green_square id = ""topsquare"" ></div><img id = ""stim"" ><div class = green_square  id = ""bottomsquare"" ></div>",null,word_square,0,SPACEBAR,,
html-keyboard-response,635,1737218,null,"SHERIFF",null,word,,, 'SHERIFF',
html-keyboard-response,636,1737725,null,"AGENT<img id = ""stim"" ><div class = green_square id = ""topsquare"" ></div><img id = ""stim"" ><div class = green_square  id = ""bottomsquare"" ></div>",null,word_square,0,SPACEBAR,,
html-keyboard-response,637,1739226,null,"AGENT",null,word,,, 'AGENT',
html-keyboard-response,638,1739730,null,"SPICE<img id = ""stim"" ><div class = red_square id = ""topsquare"" ></div><img id = ""stim"" ><div class = red_square  id = ""bottomsquare"" ></div>",null,word_square,1,SPACEBAR,,
html-keyboard-response,639,1741232,null,"SPICE",null,word,,, 'SPICE',
html-keyboard-response,640,1741734,null,"FOOTBALL<img id = ""stim"" ><div class = green_square id = ""topsquare"" ></div><img id = ""stim"" ><div class = green_square  id = ""bottomsquare"" ></div>",null,word_square,0,SPACEBAR,,
html-keyboard-response,641,1743236,null,"FOOTBALL",null,word,,, 'FOOTBALL',
html-keyboard-response,642,1743741,null,"SISTER<img id = ""stim"" ><div class = green_square id = ""topsquare"" ></div><img id = ""stim"" ><div class = green_square  id = ""bottomsquare"" ></div>",null,word_square,0,SPACEBAR,,
html-keyboard-response,643,1745243,null,"SISTER",null,word,,, 'SISTER',
html-keyboard-response,644,1745749,null,"XEROX<img id = ""stim"" ><div class = red_square id = ""topsquare"" ></div><img id = ""stim"" ><div class = red_square  id = ""bottomsquare"" ></div>",null,word_square,1,SPACEBAR,,
html-keyboard-response,645,1747251,null,"XEROX",null,word,,, 'XEROX',
html-keyboard-response,646,1747757,null,"WAREHOUSE<img id = ""stim"" ><div class = red_square id = ""topsquare"" ></div><img id = ""stim"" ><div class = red_square  id = ""bottomsquare"" ></div>",null,word_square,1,SPACEBAR,,
html-keyboard-response,647,1749259,null,"WAREHOUSE",null,word,,, 'WAREHOUSE',
html-keyboard-response,648,1749766,null,"FRIAR<img id = ""stim"" ><div class = green_square id = ""topsquare"" ></div><img id = ""stim"" ><div class = green_square  id = ""bottomsquare"" ></div>",null,word_square,0,SPACEBAR,,
html-keyboard-response,649,1751268,null,"FRIAR",null,word,,, 'FRIAR',
html-keyboard-response,650,1751775,null,"SKUNK<img id = ""stim"" ><div class = green_square id = ""topsquare"" ></div><img id = ""stim"" ><div class = green_square  id = ""bottomsquare"" ></div>",null,word_square,0,SPACEBAR,,
html-keyboard-response,651,1753277,null,"SKUNK",null,word,,, 'SKUNK',
html-keyboard-response,652,1753707,428.72499999799766,"HOSTAGE<img id = ""stim"" ><div class = red_square id = ""topsquare"" ></div><img id = ""stim"" ><div class = red_square  id = ""bottomsquare"" ></div>",32,word_square,1,SPACEBAR,,
html-keyboard-response,653,1755212,null,"HOSTAGE",null,word,,, 'HOSTAGE',
html-keyboard-response,654,1755716,null,"LAVA<img id = ""stim"" ><div class = red_square id = ""topsquare"" ></div><img id = ""stim"" ><div class = red_square  id = ""bottomsquare"" ></div>",null,word_square,1,SPACEBAR,,
html-keyboard-response,655,1757222,null,"LAVA",null,word,,, 'LAVA',
html-keyboard-response,656,1757727,null,"PEBBLE<img id = ""stim"" ><div class = red_square id = ""topsquare"" ></div><img id = ""stim"" ><div class = red_square  id = ""bottomsquare"" ></div>",null,word_square,1,SPACEBAR,,
html-keyboard-response,657,1759234,null,"PEBBLE",null,word,,, 'PEBBLE',
html-keyboard-response,658,1759740,null,"BROTHER<img id = ""stim"" ><div class = green_square id = ""topsquare"" ></div><img id = ""stim"" ><div class = green_square  id = ""bottomsquare"" ></div>",null,word_square,0,SPACEBAR,,
html-keyboard-response,659,1761246,null,"BROTHER",null,word,,, 'BROTHER',
html-keyboard-response,660,1761749,null,"DAISY<img id = ""stim"" ><div class = red_square id = ""topsquare"" ></div><img id = ""stim"" ><div class = red_square  id = ""bottomsquare"" ></div>",null,word_square,1,SPACEBAR,,
html-keyboard-response,661,1763255,null,"DAISY",null,word,,, 'DAISY',
html-keyboard-response,662,1763762,null,"NURSE<img id = ""stim"" ><div class = green_square id = ""topsquare"" ></div><img id = ""stim"" ><div class = green_square  id = ""bottomsquare"" ></div>",null,word_square,0,SPACEBAR,,
html-keyboard-response,663,1765264,null,"NURSE",null,word,,, 'NURSE',
html-keyboard-response,664,1765769,null,"HOUSE<img id = ""stim"" ><div class = red_square id = ""topsquare"" ></div><img id = ""stim"" ><div class = red_square  id = ""bottomsquare"" ></div>",null,word_square,1,SPACEBAR,,
html-keyboard-response,665,1767270,null,"HOUSE",null,word,,, 'HOUSE',
survey-text,666,1770818,3545.1649999958463,"",,,,,,{"Q0":"2"}
survey-text,667,1772291,1469.4349999988917,"",,,,,,{"Q0":"5"}
survey-text,668,1774491,2196.899999995483,"",,,,,,{"Q0":"1"}
survey-text,669,1776275,1780.2700000028126,"",,,,,,{"Q0":"2"}
survey-text,670,1777812,1534.5799999996088,"",,,,,,{"Q0":"5"}
survey-text,671,1779071,1255.5799999972805,"",,,,,,{"Q0":"4"}
survey-text,672,1780110,1035.6150000006892,"",,,,,,{"Q0":"4"}
survey-text,673,1781445,1331.0349999954924,"",,,,,,{"Q0":"2"}
survey-text,674,1782846,1397.5649999994785,"",,,,,,{"Q0":"1"}
survey-text,675,1786819,3970.454999995185,"",,,,,,{"Q0":"3"}
survey-text,676,1789666,2843.75,"",,,,,,{"Q0":"3"}
survey-text,677,1791129,1459.5450000052806,"",,,,,,{"Q0":"2"}
survey-text,678,1792584,1450.7599999997765,"",,,,,,{"Q0":"1"}
survey-text,679,1798513,5925.719999999274,"",,,,,,{"Q0":"brother"}
survey-text,680,1800267,1751.090000005206,"",,,,,,{"Q0":"daisy"}
survey-text,681,1802541,2269.4849999970756,"",,,,,,{"Q0":"lava"}
survey-text,682,1805600,3056.0399999958463,"",,,,,,{"Q0":"pebble"}
survey-text,683,1809558,3954.6700000064448,"",,,,,,{"Q0":"cross"}
survey-text,684,1814440,4877.669999994338,"",,,,,,{"Q0":"warehouse"}
survey-text,685,1817923,3479.125000005355,"",,,,,,{"Q0":"skunk"}
survey-text,686,1820696,2768.779999998631,"",,,,,,{"Q0":"canoe"}
survey-text,687,1824404,3703.6050000023097,"",,,,,,{"Q0":"agent"}
survey-text,688,1826993,2585.4899999976624,"",,,,,,{"Q0":"sheriff"}
survey-text,689,1829435,2437.9850000040606,"",,,,,,{"Q0":"spice"}
survey-text,690,1882503,53063.15999999782,"",,,,,,{"Q0":"xenox"}
html-keyboard-response,691,1888111,5607.165000001434,"<div style=""font-size:48px;"">Press any key to begin list 11 of 24 </div>",32,,,,,
html-keyboard-response,692,1890619,null,"<div style=""font-size:60px;"">+</div>",null,,,,,
html-keyboard-response,693,1891126,null,"LASER<img id = ""stim"" ><div class = red_square id = ""topsquare"" ></div><img id = ""stim"" ><div class = red_square  id = ""bottomsquare"" ></div>",null,word_square,1,SPACEBAR,,
html-keyboard-response,694,1892628,null,"LASER",null,word,,, 'LASER',
html-keyboard-response,695,1893132,null,"BUBBLE<img id = ""stim"" ><div class = green_square id = ""topsquare"" ></div><img id = ""stim"" ><div class = green_square  id = ""bottomsquare"" ></div>",null,word_square,0,SPACEBAR,,
html-keyboard-response,696,1894637,null,"BUBBLE",null,word,,, 'BUBBLE',
html-keyboard-response,697,1895111,473.09499999391846,"TERMITE<img id = ""stim"" ><div class = red_square id = ""topsquare"" ></div><img id = ""stim"" ><div class = red_square  id = ""bottomsquare"" ></div>",32,word_square,1,SPACEBAR,,
html-keyboard-response,698,1896618,null,"TERMITE",null,word,,, 'TERMITE',
html-keyboard-response,699,1897125,null,"COCOON<img id = ""stim"" ><div class = red_square id = ""topsquare"" ></div><img id = ""stim"" ><div class = red_square  id = ""bottomsquare"" ></div>",null,word_square,1,SPACEBAR,,
html-keyboard-response,700,1898631,null,"COCOON",null,word,,, 'COCOON',
html-keyboard-response,701,1899138,null,"MOTOR<img id = ""stim"" ><div class = green_square id = ""topsquare"" ></div><img id = ""stim"" ><div class = green_square  id = ""bottomsquare"" ></div>",null,word_square,0,SPACEBAR,,
html-keyboard-response,702,1900641,null,"MOTOR",null,word,,, 'MOTOR',
html-keyboard-response,703,1901087,444.83000000030734,"FLASK<img id = ""stim"" ><div class = red_square id = ""topsquare"" ></div><img id = ""stim"" ><div class = red_square  id = ""bottomsquare"" ></div>",32,word_square,1,SPACEBAR,,
html-keyboard-response,704,1902593,null,"FLASK",null,word,,, 'FLASK',
html-keyboard-response,705,1903098,null,"PORT<img id = ""stim"" ><div class = red_square id = ""topsquare"" ></div><img id = ""stim"" ><div class = red_square  id = ""bottomsquare"" ></div>",null,word_square,1,SPACEBAR,,
html-keyboard-response,706,1904602,null,"PORT",null,word,,, 'PORT',
html-keyboard-response,707,1905103,null,"CASHEW<img id = ""stim"" ><div class = green_square id = ""topsquare"" ></div><img id = ""stim"" ><div class = green_square  id = ""bottomsquare"" ></div>",null,word_square,0,SPACEBAR,,
html-keyboard-response,708,1906606,null,"CASHEW",null,word,,, 'CASHEW',
html-keyboard-response,709,1907111,null,"BANDIT<img id = ""stim"" ><div class = green_square id = ""topsquare"" ></div><img id = ""stim"" ><div class = green_square  id = ""bottomsquare"" ></div>",null,word_square,0,SPACEBAR,,
html-keyboard-response,710,1908615,null,"BANDIT",null,word,,, 'BANDIT',
html-keyboard-response,711,1909118,null,"CLOSET<img id = ""stim"" ><div class = red_square id = ""topsquare"" ></div><img id = ""stim"" ><div class = red_square  id = ""bottomsquare"" ></div>",null,word_square,1,SPACEBAR,,
html-keyboard-response,712,1910625,null,"CLOSET",null,word,,, 'CLOSET',
html-keyboard-response,713,1911128,null,"DENTIST<img id = ""stim"" ><div class = red_square id = ""topsquare"" ></div><img id = ""stim"" ><div class = red_square  id = ""bottomsquare"" ></div>",null,word_square,1,SPACEBAR,,
html-keyboard-response,714,1912630,null,"DENTIST",null,word,,, 'DENTIST',
html-keyboard-response,715,1913137,null,"DRINK<img id = ""stim"" ><div class = green_square id = ""topsquare"" ></div><img id = ""stim"" ><div class = green_square  id = ""bottomsquare"" ></div>",null,word_square,0,SPACEBAR,,
html-keyboard-response,716,1914638,null,"DRINK",null,word,,, 'DRINK',
html-keyboard-response,717,1915144,null,"TROUSERS<img id = ""stim"" ><div class = green_square id = ""topsquare"" ></div><img id = ""stim"" ><div class = green_square  id = ""bottomsquare"" ></div>",null,word_square,0,SPACEBAR,,
html-keyboard-response,718,1916651,null,"TROUSERS",null,word,,, 'TROUSERS',
html-keyboard-response,719,1917153,null,"CAFE<img id = ""stim"" ><div class = green_square id = ""topsquare"" ></div><img id = ""stim"" ><div class = green_square  id = ""bottomsquare"" ></div>",null,word_square,0,SPACEBAR,,
html-keyboard-response,720,1918655,null,"CAFE",null,word,,, 'CAFE',
html-keyboard-response,721,1919016,359.31500000157394,"CUPBOARD<img id = ""stim"" ><div class = red_square id = ""topsquare"" ></div><img id = ""stim"" ><div class = red_square  id = ""bottomsquare"" ></div>",32,word_square,1,SPACEBAR,,
html-keyboard-response,722,1920523,null,"CUPBOARD",null,word,,, 'CUPBOARD',
html-keyboard-response,723,1921026,null,"SAILOR<img id = ""stim"" ><div class = green_square id = ""topsquare"" ></div><img id = ""stim"" ><div class = green_square  id = ""bottomsquare"" ></div>",null,word_square,0,SPACEBAR,,
html-keyboard-response,724,1922531,null,"SAILOR",null,word,,, 'SAILOR',
html-keyboard-response,725,1923037,null,"PEANUT<img id = ""stim"" ><div class = red_square id = ""topsquare"" ></div><img id = ""stim"" ><div class = red_square  id = ""bottomsquare"" ></div>",null,word_square,1,SPACEBAR,,
html-keyboard-response,726,1924541,null,"PEANUT",null,word,,, 'PEANUT',
html-keyboard-response,727,1925044,null,"PLAYGROUND<img id = ""stim"" ><div class = green_square id = ""topsquare"" ></div><img id = ""stim"" ><div class = green_square  id = ""bottomsquare"" ></div>",null,word_square,0,SPACEBAR,,
html-keyboard-response,728,1926550,null,"PLAYGROUND",null,word,,, 'PLAYGROUND',
survey-text,729,1929543,2990.33000000054,"",,,,,,{"Q0":"3"}
survey-text,730,1930811,1264.3549999992829,"",,,,,,{"Q0":"2"}
survey-text,731,1933052,2237.504999997327,"",,,,,,{"Q0":"3"}
survey-text,732,1934587,1532.0849999987986,"",,,,,,{"Q0":"2"}
survey-text,733,1935887,1296.0600000005215,"",,,,,,{"Q0":"2"}
survey-text,734,1937762,1871.2700000032783,"",,,,,,{"Q0":"1"}
survey-text,735,1939098,1332.2049999989104,"",,,,,,{"Q0":"3"}
survey-text,736,1941732,2630.565000006696,"",,,,,,{"Q0":"5"}
survey-text,737,1943092,1356.195000000298,"",,,,,,{"Q0":"2"}
survey-text,738,1944766,1670.270000002347,"",,,,,,{"Q0":"2"}
survey-text,739,1946160,1390.8999999985099,"",,,,,,{"Q0":"4"}
survey-text,740,1947710,1546.3349999992643,"",,,,,,{"Q0":"5"}
survey-text,741,1948915,1201.625000001397,"",,,,,,{"Q0":"5"}
survey-text,742,1950310,1391.4499999955297,"",,,,,,{"Q0":"1"}
survey-text,743,1951777,1464.2900000035297,"",,,,,,{"Q0":"2"}
survey-text,744,1954581,2800.2550000019837,"",,,,,,{"Q0":"cashew"}
survey-text,745,1956769,2185.5599999981932,"",,,,,,{"Q0":"bandit"}
survey-text,746,1960058,3285.909999998752,"",,,,,,{"Q0":"closet"}
survey-text,747,1962209,2147.1900000034366,"",,,,,,{"Q0":"dentist"}
survey-text,748,1964182,1969.9749999998603,"",,,,,,{"Q0":"peanut"}
survey-text,749,1968975,4790.1349999955855,"",,,,,,{"Q0":"laser"}
survey-text,750,1970871,1892.325000000652,"",,,,,,{"Q0":"bubble"}
survey-text,751,1974735,3860.1950000009965,"",,,,,,{"Q0":"coccoon"}
survey-text,752,1982113,7374.369999997783,"",,,,,,{"Q0":"motor"}
survey-text,753,2029160,47043.10499999719,"",,,,,,{"Q0":"flask"}
html-keyboard-response,754,2036196,7033.889999998733,"<div style=""font-size:48px;"">Press any key to begin list 12 of 24 </div>",32,,,,,
html-keyboard-response,755,2038699,null,"<div style=""font-size:60px;"">+</div>",null,,,,,
html-keyboard-response,756,2039203,null,"OMELET<img id = ""stim"" ><div class = red_square id = ""topsquare"" ></div><img id = ""stim"" ><div class = red_square  id = ""bottomsquare"" ></div>",null,word_square,1,SPACEBAR,,
html-keyboard-response,757,2040708,null,"OMELET",null,word,,, 'OMELET',
html-keyboard-response,758,2041214,null,"BACON<img id = ""stim"" ><div class = green_square id = ""topsquare"" ></div><img id = ""stim"" ><div class = green_square  id = ""bottomsquare"" ></div>",null,word_square,0,SPACEBAR,,
html-keyboard-response,759,2042716,null,"BACON",null,word,,, 'BACON',
html-keyboard-response,760,2043221,null,"WRENCH<img id = ""stim"" ><div class = red_square id = ""topsquare"" ></div><img id = ""stim"" ><div class = red_square  id = ""bottomsquare"" ></div>",null,word_square,1,SPACEBAR,,
html-keyboard-response,761,2044724,null,"WRENCH",null,word,,, 'WRENCH',
html-keyboard-response,762,2045230,null,"BARREL<img id = ""stim"" ><div class = red_square id = ""topsquare"" ></div><img id = ""stim"" ><div class = red_square  id = ""bottomsquare"" ></div>",null,word_square,1,SPACEBAR,,
html-keyboard-response,763,2046731,null,"BARREL",null,word,,, 'BARREL',
html-keyboard-response,764,2047238,null,"MAMMAL<img id = ""stim"" ><div class = green_square id = ""topsquare"" ></div><img id = ""stim"" ><div class = green_square  id = ""bottomsquare"" ></div>",null,word_square,0,SPACEBAR,,
html-keyboard-response,765,2048740,null,"MAMMAL",null,word,,, 'MAMMAL',
html-keyboard-response,766,2049247,null,"CHIPMUNK<img id = ""stim"" ><div class = red_square id = ""topsquare"" ></div><img id = ""stim"" ><div class = red_square  id = ""bottomsquare"" ></div>",null,word_square,1,SPACEBAR,,
html-keyboard-response,767,2050749,null,"CHIPMUNK",null,word,,, 'CHIPMUNK',
html-keyboard-response,768,2051164,413.2650000026915,"COTTAGE<img id = ""stim"" ><div class = red_square id = ""topsquare"" ></div><img id = ""stim"" ><div class = red_square  id = ""bottomsquare"" ></div>",32,word_square,1,SPACEBAR,,
html-keyboard-response,769,2052667,null,"COTTAGE",null,word,,, 'COTTAGE',
html-keyboard-response,770,2053172,null,"PREACHER<img id = ""stim"" ><div class = green_square id = ""topsquare"" ></div><img id = ""stim"" ><div class = green_square  id = ""bottomsquare"" ></div>",null,word_square,0,SPACEBAR,,
html-keyboard-response,771,2054676,null,"PREACHER",null,word,,, 'PREACHER',
html-keyboard-response,772,2055178,null,"FREEZER<img id = ""stim"" ><div class = green_square id = ""topsquare"" ></div><img id = ""stim"" ><div class = green_square  id = ""bottomsquare"" ></div>",null,word_square,0,SPACEBAR,,
html-keyboard-response,773,2056682,null,"FREEZER",null,word,,, 'FREEZER',
html-keyboard-response,774,2057142,458.38999999989755,"DINER<img id = ""stim"" ><div class = red_square id = ""topsquare"" ></div><img id = ""stim"" ><div class = red_square  id = ""bottomsquare"" ></div>",32,word_square,1,SPACEBAR,,
html-keyboard-response,775,2058644,null,"DINER",null,word,,, 'DINER',
html-keyboard-response,776,2059150,null,"PLUM<img id = ""stim"" ><div class = red_square id = ""topsquare"" ></div><img id = ""stim"" ><div class = red_square  id = ""bottomsquare"" ></div>",null,word_square,1,SPACEBAR,,
html-keyboard-response,777,2060657,null,"PLUM",null,word,,, 'PLUM',
html-keyboard-response,778,2061164,null,"CRUTCH<img id = ""stim"" ><div class = green_square id = ""topsquare"" ></div><img id = ""stim"" ><div class = green_square  id = ""bottomsquare"" ></div>",null,word_square,0,SPACEBAR,,
html-keyboard-response,779,2062669,null,"CRUTCH",null,word,,, 'CRUTCH',
html-keyboard-response,780,2063175,null,"SPOON<img id = ""stim"" ><div class = green_square id = ""topsquare"" ></div><img id = ""stim"" ><div class = green_square  id = ""bottomsquare"" ></div>",null,word_square,0,SPACEBAR,,
html-keyboard-response,781,2064681,null,"SPOON",null,word,,, 'SPOON',
html-keyboard-response,782,2065186,null,"TREASURE<img id = ""stim"" ><div class = green_square id = ""topsquare"" ></div><img id = ""stim"" ><div class = green_square  id = ""bottomsquare"" ></div>",null,word_square,0,SPACEBAR,,
html-keyboard-response,783,2066692,null,"TREASURE",null,word,,, 'TREASURE',
html-keyboard-response,784,2067196,null,"BATHTUB<img id = ""stim"" ><div class = red_square id = ""topsquare"" ></div><img id = ""stim"" ><div class = red_square  id = ""bottomsquare"" ></div>",null,word_square,1,SPACEBAR,,
html-keyboard-response,785,2068700,null,"BATHTUB",null,word,,, 'BATHTUB',
html-keyboard-response,786,2069204,null,"JOKER<img id = ""stim"" ><div class = green_square id = ""topsquare"" ></div><img id = ""stim"" ><div class = green_square  id = ""bottomsquare"" ></div>",null,word_square,0,SPACEBAR,,
html-keyboard-response,787,2070709,null,"JOKER",null,word,,, 'JOKER',
html-keyboard-response,788,2071015,304.38499999581836,"PASTRY<img id = ""stim"" ><div class = red_square id = ""topsquare"" ></div><img id = ""stim"" ><div class = red_square  id = ""bottomsquare"" ></div>",32,word_square,1,SPACEBAR,,
html-keyboard-response,789,2072521,null,"PASTRY",null,word,,, 'PASTRY',
html-keyboard-response,790,2073023,null,"BLADE<img id = ""stim"" ><div class = green_square id = ""topsquare"" ></div><img id = ""stim"" ><div class = green_square  id = ""bottomsquare"" ></div>",null,word_square,0,SPACEBAR,,
html-keyboard-response,791,2074529,null,"BLADE",null,word,,, 'BLADE',
survey-text,792,2076340,1807.605000001844,"",,,,,,{"Q0":"1"}
survey-text,793,2078033,1691.1349999937229,"",,,,,,{"Q0":"3"}
survey-text,794,2079557,1520.724999994738,"",,,,,,{"Q0":"5"}
survey-text,795,2080892,1330.700000006007,"",,,,,,{"Q0":"5"}
survey-text,796,2082120,1224.0549999987707,"",,,,,,{"Q0":"5"}
survey-text,797,2084122,1998.6400000052527,"",,,,,,{"Q0":"1"}
survey-text,798,2085288,1163.3249999941327,"",,,,,,{"Q0":"1"}
survey-text,799,2086357,1066.3200000054203,"",,,,,,{"Q0":"2"}
survey-text,800,2087526,1165.4849999977741,"",,,,,,{"Q0":"4"}
survey-text,801,2088624,1094.054999994114,"",,,,,,{"Q0":"5"}
survey-text,802,2090321,1693.1799999945797,"",,,,,,{"Q0":"4"}
survey-text,803,2091643,1318.809999997029,"",,,,,,{"Q0":"2"}
survey-text,804,2093230,1583.7549999996554,"",,,,,,{"Q0":"1"}
survey-text,805,2094326,1092.2400000053458,"",,,,,,{"Q0":"3"}
survey-text,806,2095700,1371.4450000042561,"",,,,,,{"Q0":"5"}
survey-text,807,2098631,2927.985000002198,"",,,,,,{"Q0":"0"}
survey-text,808,2101575,2939.5849999999627,"",,,,,,{"Q0":"treasure"}
survey-text,809,2104493,2914.469999996014,"",,,,,,{"Q0":"bathtub"}
survey-text,810,2107236,2739.4050000002608,"",,,,,,{"Q0":"joker"}
survey-text,811,2111395,4155.459999994375,"",,,,,,{"Q0":"omelet"}
survey-text,812,2113032,1633.4300000020303,"",,,,,,{"Q0":"bacon"}
survey-text,813,2116020,2984.445000001695,"",,,,,,{"Q0":"wrench"}
survey-text,814,2118695,2671.739999997895,"",,,,,,{"Q0":"mammal"}
survey-text,815,2122262,3562.825000000652,"",,,,,,{"Q0":"cottage"}
survey-text,816,2125951,3685.6450000046752,"",,,,,,{"Q0":"freezer"}
survey-text,817,2131659,5703.934999997728,"",,,,,,{"Q0":"spoon"}
survey-text,818,2185563,53899.909999993164,"",,,,,,{"Q0":"plum"}
html-keyboard-response,819,2188981,3416.2649999996647,"<div style=""font-size:48px;"">Press any key to begin list 13 of 24 </div>",32,,,,,
html-keyboard-response,820,2191489,null,"<div style=""font-size:60px;"">+</div>",null,,,,,
html-keyboard-response,821,2191993,null,"ALMOND<img id = ""stim"" ><div class = green_square id = ""topsquare"" ></div><img id = ""stim"" ><div class = green_square  id = ""bottomsquare"" ></div>",null,word_square,0,SPACEBAR,,
html-keyboard-response,822,2193494,null,"ALMOND",null,word,,, 'ALMOND',
html-keyboard-response,823,2193996,null,"BOULDER<img id = ""stim"" ><div class = green_square id = ""topsquare"" ></div><img id = ""stim"" ><div class = green_square  id = ""bottomsquare"" ></div>",null,word_square,0,SPACEBAR,,
html-keyboard-response,824,2195501,null,"BOULDER",null,word,,, 'BOULDER',
html-keyboard-response,825,2196009,null,"MARBLE<img id = ""stim"" ><div class = red_square id = ""topsquare"" ></div><img id = ""stim"" ><div class = red_square  id = ""bottomsquare"" ></div>",null,word_square,1,SPACEBAR,,
html-keyboard-response,826,2197510,null,"MARBLE",null,word,,, 'MARBLE',
html-keyboard-response,827,2198015,null,"MEADOW<img id = ""stim"" ><div class = red_square id = ""topsquare"" ></div><img id = ""stim"" ><div class = red_square  id = ""bottomsquare"" ></div>",null,word_square,1,SPACEBAR,,
html-keyboard-response,828,2199517,null,"MEADOW",null,word,,, 'MEADOW',
html-keyboard-response,829,2200023,null,"ITEM<img id = ""stim"" ><div class = red_square id = ""topsquare"" ></div><img id = ""stim"" ><div class = red_square  id = ""bottomsquare"" ></div>",null,word_square,1,SPACEBAR,,
html-keyboard-response,830,2201525,null,"ITEM",null,word,,, 'ITEM',
html-keyboard-response,831,2202029,null,"CROOK<img id = ""stim"" ><div class = red_square id = ""topsquare"" ></div><img id = ""stim"" ><div class = red_square  id = ""bottomsquare"" ></div>",null,word_square,1,SPACEBAR,,
html-keyboard-response,832,2203532,null,"CROOK",null,word,,, 'CROOK',
html-keyboard-response,833,2204033,null,"SQUIRREL<img id = ""stim"" ><div class = green_square id = ""topsquare"" ></div><img id = ""stim"" ><div class = green_square  id = ""bottomsquare"" ></div>",null,word_square,0,SPACEBAR,,
html-keyboard-response,834,2205535,null,"SQUIRREL",null,word,,, 'SQUIRREL',
html-keyboard-response,835,2206038,null,"LIST<img id = ""stim"" ><div class = red_square id = ""topsquare"" ></div><img id = ""stim"" ><div class = red_square  id = ""bottomsquare"" ></div>",null,word_square,1,SPACEBAR,,
html-keyboard-response,836,2207543,null,"LIST",null,word,,, 'LIST',
html-keyboard-response,837,2208045,null,"BANK<img id = ""stim"" ><div class = green_square id = ""topsquare"" ></div><img id = ""stim"" ><div class = green_square  id = ""bottomsquare"" ></div>",null,word_square,0,SPACEBAR,,
html-keyboard-response,838,2209552,null,"BANK",null,word,,, 'BANK',
html-keyboard-response,839,2210058,null,"CEILING<img id = ""stim"" ><div class = green_square id = ""topsquare"" ></div><img id = ""stim"" ><div class = green_square  id = ""bottomsquare"" ></div>",null,word_square,0,SPACEBAR,,
html-keyboard-response,840,2211559,null,"CEILING",null,word,,, 'CEILING',
html-keyboard-response,841,2211889,328.179999996908,"DORM<img id = ""stim"" ><div class = red_square id = ""topsquare"" ></div><img id = ""stim"" ><div class = red_square  id = ""bottomsquare"" ></div>",32,word_square,1,SPACEBAR,,
html-keyboard-response,842,2213395,null,"DORM",null,word,,, 'DORM',
html-keyboard-response,843,2213901,null,"BRUNETTE<img id = ""stim"" ><div class = green_square id = ""topsquare"" ></div><img id = ""stim"" ><div class = green_square  id = ""bottomsquare"" ></div>",null,word_square,0,SPACEBAR,,
html-keyboard-response,844,2215407,null,"BRUNETTE",null,word,,, 'BRUNETTE',
html-keyboard-response,845,2215914,null,"EARRING<img id = ""stim"" ><div class = red_square id = ""topsquare"" ></div><img id = ""stim"" ><div class = red_square  id = ""bottomsquare"" ></div>",null,word_square,1,SPACEBAR,,
html-keyboard-response,846,2217419,null,"EARRING",null,word,,, 'EARRING',
html-keyboard-response,847,2217922,null,"BUSH<img id = ""stim"" ><div class = green_square id = ""topsquare"" ></div><img id = ""stim"" ><div class = green_square  id = ""bottomsquare"" ></div>",null,word_square,0,SPACEBAR,,
html-keyboard-response,848,2219425,null,"BUSH",null,word,,, 'BUSH',
html-keyboard-response,849,2219807,380.3950000000186,"TIMBER<img id = ""stim"" ><div class = red_square id = ""topsquare"" ></div><img id = ""stim"" ><div class = red_square  id = ""bottomsquare"" ></div>",32,word_square,1,SPACEBAR,,
html-keyboard-response,850,2221313,null,"TIMBER",null,word,,, 'TIMBER',
html-keyboard-response,851,2221820,null,"PLANET<img id = ""stim"" ><div class = green_square id = ""topsquare"" ></div><img id = ""stim"" ><div class = green_square  id = ""bottomsquare"" ></div>",null,word_square,0,SPACEBAR,,
html-keyboard-response,852,2223322,null,"PLANET",null,word,,, 'PLANET',
html-keyboard-response,853,2223827,null,"GODDESS<img id = ""stim"" ><div class = green_square id = ""topsquare"" ></div><img id = ""stim"" ><div class = green_square  id = ""bottomsquare"" ></div>",null,word_square,0,SPACEBAR,,
html-keyboard-response,854,2225333,null,"GODDESS",null,word,,, 'GODDESS',
html-keyboard-response,855,2225743,409.210000005085,"SCHOOL<img id = ""stim"" ><div class = red_square id = ""topsquare"" ></div><img id = ""stim"" ><div class = red_square  id = ""bottomsquare"" ></div>",32,word_square,1,SPACEBAR,,
html-keyboard-response,856,2227250,null,"SCHOOL",null,word,,, 'SCHOOL',
survey-text,857,2230232,2979.7800000016578,"",,,,,,{"Q0":"2"}
survey-text,858,2231652,1416.64000000339,"",,,,,,{"Q0":"1"}
survey-text,859,2232808,1152.3149999990128,"",,,,,,{"Q0":"3"}
survey-text,860,2233707,895.5850000055507,"",,,,,,{"Q0":"3"}
survey-text,861,2235385,1675.054999999702,"",,,,,,{"Q0":"5"}
survey-text,862,2236622,1233.4100000006147,"",,,,,,{"Q0":"6"}
survey-text,863,2237954,1328.7999999956228,"",,,,,,{"Q0":"4"}
