trial_type,trial_index,time_elapsed,rt,stimulus,key_press,test_part,task,targ_cond,correctKeyCode,correct,word,value,response
pavlovia,0,1014,,"",,,,,,,,,
external-html,1,584392,583172.9849999538,"",,,,,,,,,
html-keyboard-response,2,585620,1224.8100000433624,"Welcome to the experiment. Press any key to begin.",13,,,,,,,,
html-keyboard-response,3,594084,8462.630000023637,"<p>You will see a list of words and colored squares in the following task.<p><p>Press the spacebar whenever you see a GREEN square.<p><p>Do not press a key if the square is RED<p><p>Press the spacebar to continue.</p>",13,,,,,,,,
html-keyboard-response,4,603347,8760.849999962375,"<p>Please try to remember as many of the words as you can, and try to think about the meaning of each word as it appears.<p><p>After the detection and encoding task you will be asked to solve some math problems for 24 seconds.<p> Please solve as many problems as you can in the time given. <p>",13,,,,,,,,
html-keyboard-response,5,610283,6434.479999996256,"After solving the math problems, you will be asked to type in as many words <p>from the previous list as you can remember for 75 seconds.<p> If you finish recalling before the 75 seconds are up,<p> just sit tight and try to think of any more words you could have missed. <p><p>We will begin with a brief practice session<p>Press the spacebar to begin the practice.</p>",13,,,,,,,,
html-keyboard-response,6,612792,null,"<div style=""font-size:60px;"">+</div>",null,,,,,,,,
html-keyboard-response,7,613295,null,"HAPPY<img id = ""stim"" ><div class = red_square id = ""topsquare"" ></div><img id = ""stim"" ><div class = red_square  id = ""bottomsquare"" ></div>",null,word_square,prac_response,0,none,true,,,
html-keyboard-response,8,614797,null,"HAPPY",null,word,,,,,HAPPY,,
html-keyboard-response,9,615300,436.8150000227615,"COLD<img id = ""stim"" ><div class = green_square id = ""topsquare"" ></div><img id = ""stim"" ><div class = green_square  id = ""bottomsquare"" ></div>",32,word_square,prac_response,1,Space,true,,,
html-keyboard-response,10,616803,null,"COLD",null,word,,,,,COLD,,
html-keyboard-response,11,617305,null,"HEAVY<img id = ""stim"" ><div class = green_square id = ""topsquare"" ></div><img id = ""stim"" ><div class = green_square  id = ""bottomsquare"" ></div>",null,word_square,prac_response,1,Space,false,,,
html-keyboard-response,12,618809,null,"HEAVY",null,word,,,,,HEAVY,,
html-keyboard-response,13,619311,null,"FUNNY<img id = ""stim"" ><div class = red_square id = ""topsquare"" ></div><img id = ""stim"" ><div class = red_square  id = ""bottomsquare"" ></div>",null,word_square,prac_response,0,none,true,,,
html-keyboard-response,14,620813,null,"FUNNY",null,word,,,,,FUNNY,,
html-keyboard-response,15,621315,356.63500003283843,"SCARY<img id = ""stim"" ><div class = green_square id = ""topsquare"" ></div><img id = ""stim"" ><div class = green_square  id = ""bottomsquare"" ></div>",32,word_square,prac_response,1,Space,true,,,
html-keyboard-response,16,622818,null,"SCARY",null,word,,,,,SCARY,,
html-keyboard-response,17,623320,328.02000001538545,"PEACEFUL<img id = ""stim"" ><div class = green_square id = ""topsquare"" ></div><img id = ""stim"" ><div class = green_square  id = ""bottomsquare"" ></div>",32,word_square,prac_response,1,Space,true,,,
html-keyboard-response,18,624822,null,"PEACEFUL",null,word,,,,,PEACEFUL,,
html-keyboard-response,19,625324,null,"LITTLE<img id = ""stim"" ><div class = red_square id = ""topsquare"" ></div><img id = ""stim"" ><div class = red_square  id = ""bottomsquare"" ></div>",null,word_square,prac_response,0,none,true,,,
html-keyboard-response,20,626825,null,"LITTLE",null,word,,,,,LITTLE,,
html-keyboard-response,21,627327,null,"TIRED<img id = ""stim"" ><div class = red_square id = ""topsquare"" ></div><img id = ""stim"" ><div class = red_square  id = ""bottomsquare"" ></div>",null,word_square,prac_response,0,none,true,,,
html-keyboard-response,22,628831,null,"TIRED",null,word,,,,,TIRED,,
html-keyboard-response,23,629332,null,"ENTERTAINING<img id = ""stim"" ><div class = red_square id = ""topsquare"" ></div><img id = ""stim"" ><div class = red_square  id = ""bottomsquare"" ></div>",null,word_square,prac_response,0,none,true,,,
html-keyboard-response,24,630835,null,"ENTERTAINING",null,word,,,,,ENTERTAINING,,
html-keyboard-response,25,631337,303.84999996749684,"GRATEFUL<img id = ""stim"" ><div class = green_square id = ""topsquare"" ></div><img id = ""stim"" ><div class = green_square  id = ""bottomsquare"" ></div>",32,word_square,prac_response,1,Space,true,,,
html-keyboard-response,26,632848,null,"GRATEFUL",null,word,,,,,GRATEFUL,,
html-keyboard-response,27,633350,null,"LOUD<img id = ""stim"" ><div class = red_square id = ""topsquare"" ></div><img id = ""stim"" ><div class = red_square  id = ""bottomsquare"" ></div>",null,word_square,prac_response,0,none,true,,,
html-keyboard-response,28,634853,null,"LOUD",null,word,,,,,LOUD,,
html-keyboard-response,29,635356,325.83500002510846,"SMART<img id = ""stim"" ><div class = green_square id = ""topsquare"" ></div><img id = ""stim"" ><div class = green_square  id = ""bottomsquare"" ></div>",32,word_square,prac_response,1,Space,true,,,
html-keyboard-response,30,636858,null,"SMART",null,word,,,,,SMART,,
html-keyboard-response,31,637361,null,"SMOOTH<img id = ""stim"" ><div class = green_square id = ""topsquare"" ></div><img id = ""stim"" ><div class = green_square  id = ""bottomsquare"" ></div>",null,word_square,prac_response,1,Space,false,,,
html-keyboard-response,32,638863,null,"SMOOTH",null,word,,,,,SMOOTH,,
html-keyboard-response,33,639364,null,"DISHONEST<img id = ""stim"" ><div class = red_square id = ""topsquare"" ></div><img id = ""stim"" ><div class = red_square  id = ""bottomsquare"" ></div>",null,word_square,prac_response,0,none,true,,,
html-keyboard-response,34,640867,null,"DISHONEST",null,word,,,,,DISHONEST,,
html-keyboard-response,35,641369,null,"WEALTHY<img id = ""stim"" ><div class = green_square id = ""topsquare"" ></div><img id = ""stim"" ><div class = green_square  id = ""bottomsquare"" ></div>",null,word_square,prac_response,1,Space,false,,,
html-keyboard-response,36,642871,null,"WEALTHY",null,word,,,,,WEALTHY,,
html-keyboard-response,37,643374,null,"BEAUTIFUL<img id = ""stim"" ><div class = red_square id = ""topsquare"" ></div><img id = ""stim"" ><div class = red_square  id = ""bottomsquare"" ></div>",null,word_square,prac_response,0,none,true,,,
html-keyboard-response,38,644877,null,"BEAUTIFUL",null,word,,,,,BEAUTIFUL,,
html-keyboard-response,39,645379,null,"DREARY<img id = ""stim"" ><div class = red_square id = ""topsquare"" ></div><img id = ""stim"" ><div class = red_square  id = ""bottomsquare"" ></div>",null,word_square,prac_response,0,none,true,,,
html-keyboard-response,40,646881,null,"DREARY",null,word,,,,,DREARY,,
html-keyboard-response,41,647392,401.9700000062585,"PLAYFUL<img id = ""stim"" ><div class = green_square id = ""topsquare"" ></div><img id = ""stim"" ><div class = green_square  id = ""bottomsquare"" ></div>",32,word_square,prac_response,1,Space,true,,,
html-keyboard-response,42,648893,null,"PLAYFUL",null,word,,,,,PLAYFUL,,
html-keyboard-response,43,654740,5844.230000046082,"<p> Good job! You responded correctly to 83% of the GREEN squares.</p>
                  <p>Be sure to keep your accuracy above 80%</p>
                  <p>We're going to try once more to make sure you understand  the task. press any key to continue. </p>",32,,,,,,,,
html-keyboard-response,44,658244,3502.459999988787,"<p>You will see a list of words and colored squares in the following task.<p><p>Press the spacebar whenever you see a GREEN square.<p><p>Do not press a key if the square is RED<p><p>Press the spacebar to continue.</p>",32,,,,,,,,
html-keyboard-response,45,660747,null,"<div style=""font-size:60px;"">+</div>",null,,,,,,,,
html-keyboard-response,46,661248,null,"HAPPY<img id = ""stim"" ><div class = red_square id = ""topsquare"" ></div><img id = ""stim"" ><div class = red_square  id = ""bottomsquare"" ></div>",null,word_square,response,0,none,true,,,
html-keyboard-response,47,662751,null,"HAPPY",null,word,,,,,HAPPY,,
html-keyboard-response,48,663164,411.2849999801256,"COLD<img id = ""stim"" ><div class = green_square id = ""topsquare"" ></div><img id = ""stim"" ><div class = green_square  id = ""bottomsquare"" ></div>",32,word_square,response,1,Space,true,,,
html-keyboard-response,49,664667,null,"COLD",null,word,,,,,COLD,,
html-keyboard-response,50,664996,327.82999996561557,"HEAVY<img id = ""stim"" ><div class = green_square id = ""topsquare"" ></div><img id = ""stim"" ><div class = green_square  id = ""bottomsquare"" ></div>",32,word_square,response,1,Space,true,,,
html-keyboard-response,51,666498,null,"HEAVY",null,word,,,,,HEAVY,,
html-keyboard-response,52,667000,null,"FUNNY<img id = ""stim"" ><div class = red_square id = ""topsquare"" ></div><img id = ""stim"" ><div class = red_square  id = ""bottomsquare"" ></div>",null,word_square,response,0,none,true,,,
html-keyboard-response,53,668504,null,"FUNNY",null,word,,,,,FUNNY,,
html-keyboard-response,54,668827,322.5749999983236,"SCARY<img id = ""stim"" ><div class = green_square id = ""topsquare"" ></div><img id = ""stim"" ><div class = green_square  id = ""bottomsquare"" ></div>",32,word_square,response,1,Space,true,,,
html-keyboard-response,55,670344,null,"SCARY",null,word,,,,,SCARY,,
html-keyboard-response,56,670644,298.47999999765307,"PEACEFUL<img id = ""stim"" ><div class = green_square id = ""topsquare"" ></div><img id = ""stim"" ><div class = green_square  id = ""bottomsquare"" ></div>",32,word_square,response,1,Space,true,,,
html-keyboard-response,57,672145,null,"PEACEFUL",null,word,,,,,PEACEFUL,,
html-keyboard-response,58,672648,369.0099999657832,"LITTLE<img id = ""stim"" ><div class = red_square id = ""topsquare"" ></div><img id = ""stim"" ><div class = red_square  id = ""bottomsquare"" ></div>",32,word_square,response,0,none,true,,,
html-keyboard-response,59,674150,null,"LITTLE",null,word,,,,,LITTLE,,
html-keyboard-response,60,674651,null,"TIRED<img id = ""stim"" ><div class = red_square id = ""topsquare"" ></div><img id = ""stim"" ><div class = red_square  id = ""bottomsquare"" ></div>",null,word_square,response,0,none,true,,,
html-keyboard-response,61,676152,null,"TIRED",null,word,,,,,TIRED,,
html-keyboard-response,62,676655,394.109999993816,"ENTERTAINING<img id = ""stim"" ><div class = red_square id = ""topsquare"" ></div><img id = ""stim"" ><div class = red_square  id = ""bottomsquare"" ></div>",32,word_square,response,0,none,true,,,
html-keyboard-response,63,678158,null,"ENTERTAINING",null,word,,,,,ENTERTAINING,,
html-keyboard-response,64,678460,300.249999971129,"GRATEFUL<img id = ""stim"" ><div class = green_square id = ""topsquare"" ></div><img id = ""stim"" ><div class = green_square  id = ""bottomsquare"" ></div>",32,word_square,response,1,Space,true,,,
html-keyboard-response,65,679962,null,"GRATEFUL",null,word,,,,,GRATEFUL,,
html-keyboard-response,66,680466,null,"LOUD<img id = ""stim"" ><div class = red_square id = ""topsquare"" ></div><img id = ""stim"" ><div class = red_square  id = ""bottomsquare"" ></div>",null,word_square,response,0,none,true,,,
html-keyboard-response,67,681968,null,"LOUD",null,word,,,,,LOUD,,
html-keyboard-response,68,682308,338.50499999243766,"SMART<img id = ""stim"" ><div class = green_square id = ""topsquare"" ></div><img id = ""stim"" ><div class = green_square  id = ""bottomsquare"" ></div>",32,word_square,response,1,Space,true,,,
html-keyboard-response,69,683811,null,"SMART",null,word,,,,,SMART,,
html-keyboard-response,70,684139,326.72999997157604,"SMOOTH<img id = ""stim"" ><div class = green_square id = ""topsquare"" ></div><img id = ""stim"" ><div class = green_square  id = ""bottomsquare"" ></div>",32,word_square,response,1,Space,true,,,
html-keyboard-response,71,685641,null,"SMOOTH",null,word,,,,,SMOOTH,,
html-keyboard-response,72,686144,null,"DISHONEST<img id = ""stim"" ><div class = red_square id = ""topsquare"" ></div><img id = ""stim"" ><div class = red_square  id = ""bottomsquare"" ></div>",null,word_square,response,0,none,true,,,
html-keyboard-response,73,687646,null,"DISHONEST",null,word,,,,,DISHONEST,,
html-keyboard-response,74,687948,299.96499995468184,"WEALTHY<img id = ""stim"" ><div class = green_square id = ""topsquare"" ></div><img id = ""stim"" ><div class = green_square  id = ""bottomsquare"" ></div>",32,word_square,response,1,Space,true,,,
html-keyboard-response,75,689449,null,"WEALTHY",null,word,,,,,WEALTHY,,
html-keyboard-response,76,689950,null,"BEAUTIFUL<img id = ""stim"" ><div class = red_square id = ""topsquare"" ></div><img id = ""stim"" ><div class = red_square  id = ""bottomsquare"" ></div>",null,word_square,response,0,none,true,,,
html-keyboard-response,77,691452,null,"BEAUTIFUL",null,word,,,,,BEAUTIFUL,,
html-keyboard-response,78,691955,253.72499995864928,"DREARY<img id = ""stim"" ><div class = red_square id = ""topsquare"" ></div><img id = ""stim"" ><div class = red_square  id = ""bottomsquare"" ></div>",32,word_square,response,0,none,true,,,
html-keyboard-response,79,693457,null,"DREARY",null,word,,,,,DREARY,,
html-keyboard-response,80,693812,352.87499998230487,"PLAYFUL<img id = ""stim"" ><div class = green_square id = ""topsquare"" ></div><img id = ""stim"" ><div class = green_square  id = ""bottomsquare"" ></div>",32,word_square,response,1,Space,true,,,
html-keyboard-response,81,695314,null,"PLAYFUL",null,word,,,,,PLAYFUL,,
html-keyboard-response,82,702011,6695.2999999630265,"<p> Good job! You responded correctly to 100% of the GREEN squares.</p>
                  <p>Be sure to keep your accuracy above 80%</p>
                  <p>Press any key to begin the math and recall sections. Thank you!</p>",32,,,,,,,,
call-function,83,702012,,"",,,,,,,,,
html-keyboard-response,84,702129,null,"",null,,,,,,,,
math-period,85,706739,8552.39999992773,"",,,,,,,,,3
html-keyboard-response,86,706841,null,"",null,,,,,,,,
math-period,87,708475,3120.3250000835396,"",,,,,,,,,4
html-keyboard-response,88,708590,null,"",null,,,,,,,,
math-period,89,709531,1735.225000011269,"",,,,,,,,,4
html-keyboard-response,90,709632,null,"",null,,,,,,,,
math-period,91,710331,1265.8649999648333,"",,,,,,,,,4
html-keyboard-response,92,710433,null,"",null,,,,,,,,
math-period,93,712291,3505.0250000786036,"",,,,,,,,,3
html-keyboard-response,94,712392,null,"",null,,,,,,,,
math-period,95,715147,4930.509999976493,"",,,,,,,,,5
html-keyboard-response,96,715262,null,"",null,,,,,,,,
math-period,97,716595,2511.7149999714456,"",,,,,,,,,6
html-keyboard-response,98,716696,null,"",null,,,,,,,,
math-period,99,720203,6809.999999997672,"",,,,,,,,,1
html-keyboard-response,100,720308,null,"",null,,,,,,,,
math-period,101,721755,2786.7649999679998,"",,,,,,,,,3
html-keyboard-response,102,721856,null,"",null,,,,,,,,
math-period,103,723795,3730.829999956768,"",,,,,,,,,1
html-keyboard-response,104,723896,null,"",null,,,,,,,,
math-period,105,725570,3210.5000000447035,"",,,,,,,,,6
html-keyboard-response,106,725673,null,"",null,,,,,,,,
math-period,107,726015,null,"",,,,,,,,,
html-keyboard-response,108,727016,null,"Recall Period!",null,,,,,,,,
call-function,109,727020,,"",,,,,,,,,
html-keyboard-response,110,727122,null,"",null,,,,,,,,
recall-period,111,733579,69154.21999973478,"",,,,,,,,,beatiful
html-keyboard-response,112,733682,null,"",null,,,,,,,,
recall-period,113,735426,5531.444999913219,"",,,,,,,,,loud
html-keyboard-response,114,735528,null,"",null,,,,,,,,
recall-period,115,737331,8971.775000041816,"",,,,,,,,,dreary
html-keyboard-response,116,737432,null,"",null,,,,,,,,
recall-period,117,739474,10421.519999974407,"",,,,,,,,,tired
html-keyboard-response,118,739584,null,"",null,,,,,,,,
recall-period,119,740555,4050.229999877047,"",,,,,,,,,little
html-keyboard-response,120,740658,null,"",null,,,,,,,,
recall-period,121,745474,25807.51000001328,"",,,,,,,,,happy
html-keyboard-response,122,745576,null,"",null,,,,,,,,
recall-period,123,746794,5876.790000067558,"",,,,,,,,,smooth
html-keyboard-response,124,746896,null,"",null,,,,,,,,
recall-period,125,748891,11538.145000173245,"",,,,,,,,,dishonest
html-keyboard-response,126,748995,null,"",null,,,,,,,,
recall-period,127,802022,null,"",,,,,,,,,
html-keyboard-response,128,802524,null,"Time's Up!",null,,,,,,,,
html-keyboard-response,129,806338,3812.7150000073016,"<p>We will now begin the experiment!<p><p>Please try to remember all words from each list.<p><p>Press the spacebar whenever you see a GREEN square.<p><p><p><p>Press the spacebar to begin.</p>",32,,,,,,,,
html-keyboard-response,130,809050,2209.8499999847263,"<div style=""font-size:48px;"">Press any key to begin list 1 of 24 </div>",32,,,,,,,,
html-keyboard-response,131,811552,null,"<div style=""font-size:60px;"">+</div>",null,,,,,,,,
html-keyboard-response,132,812056,null,"VICTOR<img id = ""stim"" ><div class = red_square id = ""topsquare"" ></div><img id = ""stim"" ><div class = red_square  id = ""bottomsquare"" ></div>",null,word_square,response,0,none,true,,,
html-keyboard-response,133,813558,null,"VICTOR",null,word,,,,, 'VICTOR',,
html-keyboard-response,134,813993,434.0700000175275,"CACTUS<img id = ""stim"" ><div class = green_square id = ""topsquare"" ></div><img id = ""stim"" ><div class = green_square  id = ""bottomsquare"" ></div>",32,word_square,response,1,Space,true,,,
html-keyboard-response,135,815523,null,"CACTUS",null,word,,,,, 'CACTUS',,
html-keyboard-response,136,815953,428.74500004108995,"FLASHLIGHT<img id = ""stim"" ><div class = green_square id = ""topsquare"" ></div><img id = ""stim"" ><div class = green_square  id = ""bottomsquare"" ></div>",32,word_square,response,1,Space,true,,,
html-keyboard-response,137,817455,null,"FLASHLIGHT",null,word,,,,, 'FLASHLIGHT',,
html-keyboard-response,138,817957,null,"BOXER<img id = ""stim"" ><div class = red_square id = ""topsquare"" ></div><img id = ""stim"" ><div class = red_square  id = ""bottomsquare"" ></div>",null,word_square,response,0,none,true,,,
html-keyboard-response,139,819459,null,"BOXER",null,word,,,,, 'BOXER',,
html-keyboard-response,140,819962,null,"AIRCRAFT<img id = ""stim"" ><div class = red_square id = ""topsquare"" ></div><img id = ""stim"" ><div class = red_square  id = ""bottomsquare"" ></div>",null,word_square,response,0,none,true,,,
html-keyboard-response,141,821463,null,"AIRCRAFT",null,word,,,,, 'AIRCRAFT',,
html-keyboard-response,142,821955,489.815000037197,"FLASK<img id = ""stim"" ><div class = green_square id = ""topsquare"" ></div><img id = ""stim"" ><div class = green_square  id = ""bottomsquare"" ></div>",32,word_square,response,1,Space,true,,,
html-keyboard-response,143,823458,null,"FLASK",null,word,,,,, 'FLASK',,
html-keyboard-response,144,823723,263.17499997094274,"MARINE<img id = ""stim"" ><div class = green_square id = ""topsquare"" ></div><img id = ""stim"" ><div class = green_square  id = ""bottomsquare"" ></div>",32,word_square,response,1,Space,true,,,
html-keyboard-response,145,825224,null,"MARINE",null,word,,,,, 'MARINE',,
html-keyboard-response,146,825726,null,"BOUQUET<img id = ""stim"" ><div class = red_square id = ""topsquare"" ></div><img id = ""stim"" ><div class = red_square  id = ""bottomsquare"" ></div>",null,word_square,response,0,none,true,,,
html-keyboard-response,147,827229,null,"BOUQUET",null,word,,,,, 'BOUQUET',,
html-keyboard-response,148,827641,411.42000001855195,"CHICKEN<img id = ""stim"" ><div class = green_square id = ""topsquare"" ></div><img id = ""stim"" ><div class = green_square  id = ""bottomsquare"" ></div>",32,word_square,response,1,Space,true,,,
html-keyboard-response,149,829143,null,"CHICKEN",null,word,,,,, 'CHICKEN',,
html-keyboard-response,150,829646,null,"SHIRT<img id = ""stim"" ><div class = red_square id = ""topsquare"" ></div><img id = ""stim"" ><div class = red_square  id = ""bottomsquare"" ></div>",null,word_square,response,0,none,true,,,
html-keyboard-response,151,831147,null,"SHIRT",null,word,,,,, 'SHIRT',,
html-keyboard-response,152,831650,null,"NEPHEW<img id = ""stim"" ><div class = red_square id = ""topsquare"" ></div><img id = ""stim"" ><div class = red_square  id = ""bottomsquare"" ></div>",null,word_square,response,0,none,true,,,
html-keyboard-response,153,833153,null,"NEPHEW",null,word,,,,, 'NEPHEW',,
html-keyboard-response,154,833611,456.6900000208989,"BLUEJAY<img id = ""stim"" ><div class = green_square id = ""topsquare"" ></div><img id = ""stim"" ><div class = green_square  id = ""bottomsquare"" ></div>",32,word_square,response,1,Space,true,,,
html-keyboard-response,155,835113,null,"BLUEJAY",null,word,,,,, 'BLUEJAY',,
html-keyboard-response,156,835615,null,"WRIST<img id = ""stim"" ><div class = green_square id = ""topsquare"" ></div><img id = ""stim"" ><div class = green_square  id = ""bottomsquare"" ></div>",null,word_square,response,1,Space,false,,,
html-keyboard-response,157,837118,null,"WRIST",null,word,,,,, 'WRIST',,
html-keyboard-response,158,837620,null,"LASER<img id = ""stim"" ><div class = red_square id = ""topsquare"" ></div><img id = ""stim"" ><div class = red_square  id = ""bottomsquare"" ></div>",null,word_square,response,0,none,true,,,
html-keyboard-response,159,839123,null,"LASER",null,word,,,,, 'LASER',,
html-keyboard-response,160,839458,333.0699999933131,"EGYPT<img id = ""stim"" ><div class = green_square id = ""topsquare"" ></div><img id = ""stim"" ><div class = green_square  id = ""bottomsquare"" ></div>",32,word_square,response,1,Space,true,,,
html-keyboard-response,161,840960,null,"EGYPT",null,word,,,,, 'EGYPT',,
html-keyboard-response,162,841462,null,"BACON<img id = ""stim"" ><div class = red_square id = ""topsquare"" ></div><img id = ""stim"" ><div class = red_square  id = ""bottomsquare"" ></div>",null,word_square,response,0,none,true,,,
html-keyboard-response,163,842965,null,"BACON",null,word,,,,, 'BACON',,
html-keyboard-response,164,843468,null,"DRESS<img id = ""stim"" ><div class = red_square id = ""topsquare"" ></div><img id = ""stim"" ><div class = red_square  id = ""bottomsquare"" ></div>",null,word_square,response,0,none,true,,,
html-keyboard-response,165,844971,null,"DRESS",null,word,,,,, 'DRESS',,
html-keyboard-response,166,845323,350.2250000019558,"NOTEBOOK<img id = ""stim"" ><div class = green_square id = ""topsquare"" ></div><img id = ""stim"" ><div class = green_square  id = ""bottomsquare"" ></div>",32,word_square,response,1,Space,true,,,
html-keyboard-response,167,846825,null,"NOTEBOOK",null,word,,,,, 'NOTEBOOK',,
call-function,168,846826,,"",,,,,,,,,
html-keyboard-response,169,846927,null,"",null,,,,,,,,
math-period,170,851129,8177.369999990333,"",,,,,,,,,0
html-keyboard-response,171,851232,null,"",null,,,,,,,,
math-period,172,856497,10338.110000069719,"",,,,,,,,,0
html-keyboard-response,173,856603,null,"",null,,,,,,,,
math-period,174,861153,8905.55000002496,"",,,,,,,,,1
html-keyboard-response,175,861266,null,"",null,,,,,,,,
math-period,176,863033,3364.0200000372715,"",,,,,,,,,4
html-keyboard-response,177,863137,null,"",null,,,,,,,,
math-period,178,864545,2655.2700000465848,"",,,,,,,,,6
html-keyboard-response,179,864646,null,"",null,,,,,,,,
math-period,180,869105,8771.509999933187,"",,,,,,,,,0
html-keyboard-response,181,869207,null,"",null,,,,,,,,
math-period,182,870827,null,"",,,,,,,,,
html-keyboard-response,183,871830,null,"Recall Period!",null,,,,,,,,
call-function,184,871831,,"",,,,,,,,,
html-keyboard-response,185,871933,null,"",null,,,,,,,,
recall-period,186,883281,65437.95499991393,"",,,,,,,,,wrist
html-keyboard-response,187,883383,null,"",null,,,,,,,,
recall-period,188,884833,6970.070000039414,"",,,,,,,,,bouquet
html-keyboard-response,189,884938,null,"",null,,,,,,,,
recall-period,190,888497,20953.65499984473,"",,,,,,,,,cactus
html-keyboard-response,191,888608,null,"",null,,,,,,,,
recall-period,192,889913,5901.789999858011,"",,,,,,,,,victor
html-keyboard-response,193,890021,null,"",null,,,,,,,,
recall-period,194,894505,38078.30000022659,"",,,,,,,,,flashlight
html-keyboard-response,195,894611,null,"",null,,,,,,,,
recall-period,196,946834,null,"",,,,,,,,,
html-keyboard-response,197,947337,null,"Time's Up!",null,,,,,,,,
html-keyboard-response,198,949577,2239.115000003949,"<p> Good job! You responded correctly to 97% of the GREEN squares.</p>
                  <p>Be sure to keep your accuracy above 80%</p>
                  <p>Press any key to continue the experiment. Thank you!</p>",32,,,,,,,,
html-keyboard-response,199,951400,1821.5699999709614,"<div style=""font-size:48px;"">Press any key to begin list 2 of 24 </div>",32,,,,,,,,
html-keyboard-response,200,953903,null,"<div style=""font-size:60px;"">+</div>",null,,,,,,,,
html-keyboard-response,201,954405,null,"LILY<img id = ""stim"" ><div class = red_square id = ""topsquare"" ></div><img id = ""stim"" ><div class = red_square  id = ""bottomsquare"" ></div>",null,word_square,response,0,none,true,,,
html-keyboard-response,202,955907,null,"LILY",null,word,,,,, 'LILY',,
html-keyboard-response,203,956344,435.3399999672547,"COUNTRY<img id = ""stim"" ><div class = green_square id = ""topsquare"" ></div><img id = ""stim"" ><div class = green_square  id = ""bottomsquare"" ></div>",32,word_square,response,1,Space,true,,,
html-keyboard-response,204,957846,null,"COUNTRY",null,word,,,,, 'COUNTRY',,
html-keyboard-response,205,958320,472.68499998608604,"TOOTHBRUSH<img id = ""stim"" ><div class = green_square id = ""topsquare"" ></div><img id = ""stim"" ><div class = green_square  id = ""bottomsquare"" ></div>",32,word_square,response,1,Space,true,,,
html-keyboard-response,206,959822,null,"TOOTHBRUSH",null,word,,,,, 'TOOTHBRUSH',,
html-keyboard-response,207,960324,null,"COBWEB<img id = ""stim"" ><div class = red_square id = ""topsquare"" ></div><img id = ""stim"" ><div class = red_square  id = ""bottomsquare"" ></div>",null,word_square,response,0,none,true,,,
html-keyboard-response,208,961826,null,"COBWEB",null,word,,,,, 'COBWEB',,
html-keyboard-response,209,962328,null,"BRAKE<img id = ""stim"" ><div class = red_square id = ""topsquare"" ></div><img id = ""stim"" ><div class = red_square  id = ""bottomsquare"" ></div>",null,word_square,response,0,none,true,,,
html-keyboard-response,210,963830,null,"BRAKE",null,word,,,,, 'BRAKE',,
html-keyboard-response,211,964273,441.55500002671033,"ONION<img id = ""stim"" ><div class = green_square id = ""topsquare"" ></div><img id = ""stim"" ><div class = green_square  id = ""bottomsquare"" ></div>",32,word_square,response,1,Space,true,,,
html-keyboard-response,212,965775,null,"ONION",null,word,,,,, 'ONION',,
html-keyboard-response,213,966200,423.0749999987893,"HANDBAG<img id = ""stim"" ><div class = green_square id = ""topsquare"" ></div><img id = ""stim"" ><div class = green_square  id = ""bottomsquare"" ></div>",32,word_square,response,1,Space,true,,,
html-keyboard-response,214,967702,null,"HANDBAG",null,word,,,,, 'HANDBAG',,
html-keyboard-response,215,968204,null,"KNAPSACK<img id = ""stim"" ><div class = red_square id = ""topsquare"" ></div><img id = ""stim"" ><div class = red_square  id = ""bottomsquare"" ></div>",null,word_square,response,0,none,true,,,
html-keyboard-response,216,969706,null,"KNAPSACK",null,word,,,,, 'KNAPSACK',,
html-keyboard-response,217,970008,300.40499998722225,"WAX<img id = ""stim"" ><div class = green_square id = ""topsquare"" ></div><img id = ""stim"" ><div class = green_square  id = ""bottomsquare"" ></div>",32,word_square,response,1,Space,true,,,
html-keyboard-response,218,971509,null,"WAX",null,word,,,,, 'WAX',,
html-keyboard-response,219,972011,null,"CHAMPAGNE<img id = ""stim"" ><div class = red_square id = ""topsquare"" ></div><img id = ""stim"" ><div class = red_square  id = ""bottomsquare"" ></div>",null,word_square,response,0,none,true,,,
html-keyboard-response,220,973513,null,"CHAMPAGNE",null,word,,,,, 'CHAMPAGNE',,
html-keyboard-response,221,974014,null,"DIVER<img id = ""stim"" ><div class = red_square id = ""topsquare"" ></div><img id = ""stim"" ><div class = red_square  id = ""bottomsquare"" ></div>",null,word_square,response,0,none,true,,,
html-keyboard-response,222,975516,null,"DIVER",null,word,,,,, 'DIVER',,
html-keyboard-response,223,975929,411.43999999621883,"PLAYGROUND<img id = ""stim"" ><div class = green_square id = ""topsquare"" ></div><img id = ""stim"" ><div class = green_square  id = ""bottomsquare"" ></div>",32,word_square,response,1,Space,true,,,
html-keyboard-response,224,977432,null,"PLAYGROUND",null,word,,,,, 'PLAYGROUND',,
html-keyboard-response,225,977934,null,"BABY<img id = ""stim"" ><div class = green_square id = ""topsquare"" ></div><img id = ""stim"" ><div class = green_square  id = ""bottomsquare"" ></div>",null,word_square,response,1,Space,false,,,
html-keyboard-response,226,979435,null,"BABY",null,word,,,,, 'BABY',,
html-keyboard-response,227,979937,null,"HAMMOCK<img id = ""stim"" ><div class = red_square id = ""topsquare"" ></div><img id = ""stim"" ><div class = red_square  id = ""bottomsquare"" ></div>",null,word_square,response,0,none,true,,,
html-keyboard-response,228,981440,null,"HAMMOCK",null,word,,,,, 'HAMMOCK',,
html-keyboard-response,229,981920,478.2300000078976,"EAGLE<img id = ""stim"" ><div class = green_square id = ""topsquare"" ></div><img id = ""stim"" ><div class = green_square  id = ""bottomsquare"" ></div>",32,word_square,response,1,Space,true,,,
html-keyboard-response,230,983423,null,"EAGLE",null,word,,,,, 'EAGLE',,
html-keyboard-response,231,983925,null,"BRIDE<img id = ""stim"" ><div class = red_square id = ""topsquare"" ></div><img id = ""stim"" ><div class = red_square  id = ""bottomsquare"" ></div>",null,word_square,response,0,none,true,,,
html-keyboard-response,232,985427,null,"BRIDE",null,word,,,,, 'BRIDE',,
html-keyboard-response,233,985929,null,"BLOCKADE<img id = ""stim"" ><div class = red_square id = ""topsquare"" ></div><img id = ""stim"" ><div class = red_square  id = ""bottomsquare"" ></div>",null,word_square,response,0,none,true,,,
html-keyboard-response,234,987430,null,"BLOCKADE",null,word,,,,, 'BLOCKADE',,
html-keyboard-response,235,987688,256.56000000890344,"CRYSTAL<img id = ""stim"" ><div class = green_square id = ""topsquare"" ></div><img id = ""stim"" ><div class = green_square  id = ""bottomsquare"" ></div>",32,word_square,response,1,Space,true,,,
html-keyboard-response,236,989191,null,"CRYSTAL",null,word,,,,, 'CRYSTAL',,
call-function,237,989192,,"",,,,,,,,,
html-keyboard-response,238,989293,null,"",null,,,,,,,,
math-period,239,991199,3626.525000028778,"",,,,,,,,,6
html-keyboard-response,240,991301,null,"",null,,,,,,,,
math-period,241,995359,7922.430000035092,"",,,,,,,,,2
html-keyboard-response,242,995461,null,"",null,,,,,,,,
math-period,243,997248,3442.7750000031665,"",,,,,,,,,1
html-keyboard-response,244,997349,null,"",null,,,,,,,,
math-period,245,998887,2978.1650000368245,"",,,,,,,,,5
html-keyboard-response,246,998990,null,"",null,,,,,,,,
math-period,247,1000031,1976.2299999711104,"",,,,,,,,,5
html-keyboard-response,248,1000133,null,"",null,,,,,,,,
math-period,249,1002031,3674.9500000150874,"",,,,,,,,,1
html-keyboard-response,250,1002135,null,"",null,,,,,,,,
math-period,251,1002903,1422.4150000372902,"",,,,,,,,,1
html-keyboard-response,252,1003005,null,"",null,,,,,,,,
math-period,253,1004096,2065.7099999370985,"",,,,,,,,,2
html-keyboard-response,254,1004199,null,"",null,,,,,,,,
math-period,255,1005760,2863.359999959357,"",,,,,,,,,5
html-keyboard-response,256,1005863,null,"",null,,,,,,,,
math-period,257,1007423,2987.040000036359,"",,,,,,,,,4
html-keyboard-response,258,1007525,null,"",null,,,,,,,,
math-period,259,1010048,4899.200000043493,"",,,,,,,,,2
html-keyboard-response,260,1010150,null,"",null,,,,,,,,
math-period,261,1011528,2665.320000029169,"",,,,,,,,,5
html-keyboard-response,262,1011631,null,"",null,,,,,,,,
math-period,263,1012943,2526.9050000351854,"",,,,,,,,,6
html-keyboard-response,264,1013055,null,"",null,,,,,,,,
math-period,265,1013196,null,"",,,,,,,,,
html-keyboard-response,266,1014199,null,"Recall Period!",null,,,,,,,,
call-function,267,1014200,,"",,,,,,,,,
html-keyboard-response,268,1014303,null,"",null,,,,,,,,
recall-period,269,1017583,16366.630000178702,"",,,,,,,,,eagle
html-keyboard-response,270,1017694,null,"",null,,,,,,,,
recall-period,271,1018927,4260.425000160467,"",,,,,,,,,baby
html-keyboard-response,272,1019029,null,"",null,,,,,,,,
recall-period,273,1021383,14669.790000247303,"",,,,,,,,,hammock
html-keyboard-response,274,1021487,null,"",null,,,,,,,,
recall-period,275,1023399,11357.835000380874,"",,,,,,,,,playground
html-keyboard-response,276,1023504,null,"",null,,,,,,,,
recall-period,277,1026079,9399.765000038315,"",,,,,,,,,dive
html-keyboard-response,278,1026181,null,"",null,,,,,,,,
recall-period,279,1089202,null,"",,,,,,,,,
html-keyboard-response,280,1089704,null,"Time's Up!",null,,,,,,,,
html-keyboard-response,281,1091879,2173.9049999741837,"<p> Good job! You responded correctly to 96% of the GREEN squares.</p>
                  <p>Be sure to keep your accuracy above 80%</p>
                  <p>Press any key to continue the experiment. Thank you!</p>",32,,,,,,,,
html-keyboard-response,282,1092967,1086.9850000017323,"<div style=""font-size:48px;"">Press any key to begin list 3 of 24 </div>",32,,,,,,,,
html-keyboard-response,283,1095470,null,"<div style=""font-size:60px;"">+</div>",null,,,,,,,,
html-keyboard-response,284,1095863,391.5400000405498,"COLESLAW<img id = ""stim"" ><div class = green_square id = ""topsquare"" ></div><img id = ""stim"" ><div class = green_square  id = ""bottomsquare"" ></div>",32,word_square,response,1,Space,true,,,
html-keyboard-response,285,1097366,null,"COLESLAW",null,word,,,,, 'COLESLAW',,
html-keyboard-response,286,1097868,null,"PORK<img id = ""stim"" ><div class = red_square id = ""topsquare"" ></div><img id = ""stim"" ><div class = red_square  id = ""bottomsquare"" ></div>",null,word_square,response,0,none,true,,,
html-keyboard-response,287,1099370,null,"PORK",null,word,,,,, 'PORK',,
html-keyboard-response,288,1099874,null,"FIDDLE<img id = ""stim"" ><div class = red_square id = ""topsquare"" ></div><img id = ""stim"" ><div class = red_square  id = ""bottomsquare"" ></div>",null,word_square,response,0,none,true,,,
html-keyboard-response,289,1101376,null,"FIDDLE",null,word,,,,, 'FIDDLE',,
html-keyboard-response,290,1101758,380.43499999912456,"RECORD<img id = ""stim"" ><div class = green_square id = ""topsquare"" ></div><img id = ""stim"" ><div class = green_square  id = ""bottomsquare"" ></div>",32,word_square,response,1,Space,true,,,
html-keyboard-response,291,1103260,null,"RECORD",null,word,,,,, 'RECORD',,
html-keyboard-response,292,1103552,290.1399999973364,"BRANDY<img id = ""stim"" ><div class = green_square id = ""topsquare"" ></div><img id = ""stim"" ><div class = green_square  id = ""bottomsquare"" ></div>",32,word_square,response,1,Space,true,,,
html-keyboard-response,293,1105054,null,"BRANDY",null,word,,,,, 'BRANDY',,
html-keyboard-response,294,1105556,null,"MEAT<img id = ""stim"" ><div class = red_square id = ""topsquare"" ></div><img id = ""stim"" ><div class = red_square  id = ""bottomsquare"" ></div>",null,word_square,response,0,none,true,,,
html-keyboard-response,295,1107057,null,"MEAT",null,word,,,,, 'MEAT',,
html-keyboard-response,296,1107559,null,"GLOVE<img id = ""stim"" ><div class = red_square id = ""topsquare"" ></div><img id = ""stim"" ><div class = red_square  id = ""bottomsquare"" ></div>",null,word_square,response,0,none,true,,,
html-keyboard-response,297,1109062,null,"GLOVE",null,word,,,,, 'GLOVE',,
html-keyboard-response,298,1109500,435.9600000316277,"SAUSAGE<img id = ""stim"" ><div class = green_square id = ""topsquare"" ></div><img id = ""stim"" ><div class = green_square  id = ""bottomsquare"" ></div>",32,word_square,response,1,Space,true,,,
html-keyboard-response,299,1111002,null,"SAUSAGE",null,word,,,,, 'SAUSAGE',,
html-keyboard-response,300,1111503,null,"HIGHWAY<img id = ""stim"" ><div class = red_square id = ""topsquare"" ></div><img id = ""stim"" ><div class = red_square  id = ""bottomsquare"" ></div>",null,word_square,response,0,none,true,,,
html-keyboard-response,301,1113005,null,"HIGHWAY",null,word,,,,, 'HIGHWAY',,
html-keyboard-response,302,1113375,368.1749999523163,"BOULDER<img id = ""stim"" ><div class = green_square id = ""topsquare"" ></div><img id = ""stim"" ><div class = green_square  id = ""bottomsquare"" ></div>",32,word_square,response,1,Space,true,,,
html-keyboard-response,303,1114878,null,"BOULDER",null,word,,,,, 'BOULDER',,
html-keyboard-response,304,1115239,359.6499999985099,"LEMON<img id = ""stim"" ><div class = green_square id = ""topsquare"" ></div><img id = ""stim"" ><div class = green_square  id = ""bottomsquare"" ></div>",32,word_square,response,1,Space,true,,,
html-keyboard-response,305,1116741,null,"LEMON",null,word,,,,, 'LEMON',,
html-keyboard-response,306,1117243,null,"SQUIRREL<img id = ""stim"" ><div class = red_square id = ""topsquare"" ></div><img id = ""stim"" ><div class = red_square  id = ""bottomsquare"" ></div>",null,word_square,response,0,none,true,,,
html-keyboard-response,307,1118745,null,"SQUIRREL",null,word,,,,, 'SQUIRREL',,
html-keyboard-response,308,1119247,null,"DASHBOARD<img id = ""stim"" ><div class = red_square id = ""topsquare"" ></div><img id = ""stim"" ><div class = red_square  id = ""bottomsquare"" ></div>",null,word_square,response,0,none,true,,,
html-keyboard-response,309,1120749,null,"DASHBOARD",null,word,,,,, 'DASHBOARD',,
html-keyboard-response,310,1121159,408.77499995986,"CHAUFFEUR<img id = ""stim"" ><div class = green_square id = ""topsquare"" ></div><img id = ""stim"" ><div class = green_square  id = ""bottomsquare"" ></div>",32,word_square,response,1,Space,true,,,
html-keyboard-response,311,1122661,null,"CHAUFFEUR",null,word,,,,, 'CHAUFFEUR',,
html-keyboard-response,312,1123162,null,"COBRA<img id = ""stim"" ><div class = red_square id = ""topsquare"" ></div><img id = ""stim"" ><div class = red_square  id = ""bottomsquare"" ></div>",null,word_square,response,0,none,true,,,
html-keyboard-response,313,1124664,null,"COBRA",null,word,,,,, 'COBRA',,
html-keyboard-response,314,1124951,285.42500000912696,"SCOUT<img id = ""stim"" ><div class = green_square id = ""topsquare"" ></div><img id = ""stim"" ><div class = green_square  id = ""bottomsquare"" ></div>",32,word_square,response,1,Space,true,,,
html-keyboard-response,315,1126453,null,"SCOUT",null,word,,,,, 'SCOUT',,
html-keyboard-response,316,1126734,280.2849999861792,"LIVER<img id = ""stim"" ><div class = green_square id = ""topsquare"" ></div><img id = ""stim"" ><div class = green_square  id = ""bottomsquare"" ></div>",32,word_square,response,1,Space,true,,,
html-keyboard-response,317,1128236,null,"LIVER",null,word,,,,, 'LIVER',,
html-keyboard-response,318,1128739,null,"BREAST<img id = ""stim"" ><div class = red_square id = ""topsquare"" ></div><img id = ""stim"" ><div class = red_square  id = ""bottomsquare"" ></div>",null,word_square,response,0,none,true,,,
html-keyboard-response,319,1130249,null,"BREAST",null,word,,,,, 'BREAST',,
call-function,320,1130250,,"",,,,,,,,,
html-keyboard-response,321,1130352,null,"",null,,,,,,,,
math-period,322,1132006,3113.2499999948777,"",,,,,,,,,4
html-keyboard-response,323,1132123,null,"",null,,,,,,,,
math-period,324,1134678,4972.210000036284,"",,,,,,,,,1
html-keyboard-response,325,1134780,null,"",null,,,,,,,,
math-period,326,1135886,2088.684999907855,"",,,,,,,,,3
html-keyboard-response,327,1135990,null,"",null,,,,,,,,
math-period,328,1137614,3124.575000081677,"",,,,,,,,,2
html-keyboard-response,329,1137715,null,"",null,,,,,,,,
math-period,330,1138870,2187.3950000153854,"",,,,,,,,,4
html-keyboard-response,331,1138971,null,"",null,,,,,,,,
math-period,332,1140190,2330.0299999536946,"",,,,,,,,,3
html-keyboard-response,333,1140292,null,"",null,,,,,,,,
math-period,334,1141942,3193.700000003446,"",,,,,,,,,1
html-keyboard-response,335,1142043,null,"",null,,,,,,,,
math-period,336,1143694,3162.4099999899045,"",,,,,,,,,5
html-keyboard-response,337,1143796,null,"",null,,,,,,,,
math-period,338,1146278,4777.61999994982,"",,,,,,,,,1
html-keyboard-response,339,1146385,null,"",null,,,,,,,,
math-period,340,1147878,2871.320000034757,"",,,,,,,,,5
html-keyboard-response,341,1147979,null,"",null,,,,,,,,
math-period,342,1149445,2801.084999984596,"",,,,,,,,,4
html-keyboard-response,343,1149546,null,"",null,,,,,,,,
math-period,344,1150846,2461.1199999344535,"",,,,,,,,,4
html-keyboard-response,345,1150947,null,"",null,,,,,,,,
math-period,346,1152342,2674.04000001261,"",,,,,,,,,4
html-keyboard-response,347,1152455,null,"",null,,,,,,,,
math-period,348,1153726,2418.7800000654534,"",,,,,,,,,3
html-keyboard-response,349,1153835,null,"",null,,,,,,,,
math-period,350,1154251,null,"",,,,,,,,,
html-keyboard-response,351,1155264,null,"Recall Period!",null,,,,,,,,
call-function,352,1155265,,"",,,,,,,,,
html-keyboard-response,353,1155366,null,"",null,,,,,,,,
recall-period,354,1159957,24533.79499982111,"",,,,,,,,,liver
html-keyboard-response,355,1160072,null,"",null,,,,,,,,
recall-period,356,1162109,7934.810000064317,"",,,,,,,,,breast
html-keyboard-response,357,1162214,null,"",null,,,,,,,,
recall-period,358,1164606,17756.41499971971,"",,,,,,,,,coleslaw
html-keyboard-response,359,1164707,null,"",null,,,,,,,,
recall-period,360,1165886,3102.97000000719,"",,,,,,,,,pork
html-keyboard-response,361,1165987,null,"",null,,,,,,,,
recall-period,362,1170381,26531.320000067353,"",,,,,,,,,fiddle
html-keyboard-response,363,1170484,null,"",null,,,,,,,,
recall-period,364,1174589,23914.175000041723,"",,,,,,,,,brandy
html-keyboard-response,365,1174691,null,"",null,,,,,,,,
recall-period,366,1230266,null,"",,,,,,,,,
html-keyboard-response,367,1230769,null,"Time's Up!",null,,,,,,,,
html-keyboard-response,368,1232862,2091.629999980796,"<p> Good job! You responded correctly to 97% of the GREEN squares.</p>
                  <p>Be sure to keep your accuracy above 80%</p>
                  <p>Press any key to continue the experiment. Thank you!</p>",32,,,,,,,,
html-keyboard-response,369,1233693,829.5949999592267,"<div style=""font-size:48px;"">Press any key to begin list 4 of 24 </div>",32,,,,,,,,
html-keyboard-response,370,1236198,null,"<div style=""font-size:60px;"">+</div>",null,,,,,,,,
html-keyboard-response,371,1236534,333.61500001046807,"TORCH<img id = ""stim"" ><div class = green_square id = ""topsquare"" ></div><img id = ""stim"" ><div class = green_square  id = ""bottomsquare"" ></div>",32,word_square,response,1,Space,true,,,
html-keyboard-response,372,1238036,null,"TORCH",null,word,,,,, 'TORCH',,
html-keyboard-response,373,1238537,null,"HAMPER<img id = ""stim"" ><div class = red_square id = ""topsquare"" ></div><img id = ""stim"" ><div class = red_square  id = ""bottomsquare"" ></div>",null,word_square,response,0,none,true,,,
html-keyboard-response,374,1240040,null,"HAMPER",null,word,,,,, 'HAMPER',,
html-keyboard-response,375,1240550,null,"SUBURB<img id = ""stim"" ><div class = red_square id = ""topsquare"" ></div><img id = ""stim"" ><div class = red_square  id = ""bottomsquare"" ></div>",null,word_square,response,0,none,true,,,
html-keyboard-response,376,1242052,null,"SUBURB",null,word,,,,, 'SUBURB',,
html-keyboard-response,377,1242372,319.12499997997656,"PECAN<img id = ""stim"" ><div class = green_square id = ""topsquare"" ></div><img id = ""stim"" ><div class = green_square  id = ""bottomsquare"" ></div>",32,word_square,response,1,Space,true,,,
html-keyboard-response,378,1243874,null,"PECAN",null,word,,,,, 'PECAN',,
html-keyboard-response,379,1244181,305.35999999847263,"MAPLE<img id = ""stim"" ><div class = green_square id = ""topsquare"" ></div><img id = ""stim"" ><div class = green_square  id = ""bottomsquare"" ></div>",32,word_square,response,1,Space,true,,,
html-keyboard-response,380,1245684,null,"MAPLE",null,word,,,,, 'MAPLE',,
html-keyboard-response,381,1246186,null,"TUTU<img id = ""stim"" ><div class = red_square id = ""topsquare"" ></div><img id = ""stim"" ><div class = red_square  id = ""bottomsquare"" ></div>",null,word_square,response,0,none,true,,,
html-keyboard-response,382,1247688,null,"TUTU",null,word,,,,, 'TUTU',,
html-keyboard-response,383,1248197,null,"SKIRT<img id = ""stim"" ><div class = red_square id = ""topsquare"" ></div><img id = ""stim"" ><div class = red_square  id = ""bottomsquare"" ></div>",null,word_square,response,0,none,true,,,
html-keyboard-response,384,1249698,null,"SKIRT",null,word,,,,, 'SKIRT',,
html-keyboard-response,385,1249998,297.5950000109151,"CABLE<img id = ""stim"" ><div class = green_square id = ""topsquare"" ></div><img id = ""stim"" ><div class = green_square  id = ""bottomsquare"" ></div>",32,word_square,response,1,Space,true,,,
html-keyboard-response,386,1251501,null,"CABLE",null,word,,,,, 'CABLE',,
html-keyboard-response,387,1252005,null,"DART<img id = ""stim"" ><div class = red_square id = ""topsquare"" ></div><img id = ""stim"" ><div class = red_square  id = ""bottomsquare"" ></div>",null,word_square,response,0,none,true,,,
html-keyboard-response,388,1253507,null,"DART",null,word,,,,, 'DART',,
html-keyboard-response,389,1253766,257.02999997884035,"RATTLE<img id = ""stim"" ><div class = green_square id = ""topsquare"" ></div><img id = ""stim"" ><div class = green_square  id = ""bottomsquare"" ></div>",32,word_square,response,1,Space,true,,,
html-keyboard-response,390,1255268,null,"RATTLE",null,word,,,,, 'RATTLE',,
html-keyboard-response,391,1255622,352.0600000047125,"HEART<img id = ""stim"" ><div class = green_square id = ""topsquare"" ></div><img id = ""stim"" ><div class = green_square  id = ""bottomsquare"" ></div>",32,word_square,response,1,Space,true,,,
html-keyboard-response,392,1257124,null,"HEART",null,word,,,,, 'HEART',,
html-keyboard-response,393,1257627,null,"CRADLE<img id = ""stim"" ><div class = red_square id = ""topsquare"" ></div><img id = ""stim"" ><div class = red_square  id = ""bottomsquare"" ></div>",null,word_square,response,0,none,true,,,
html-keyboard-response,394,1259129,null,"CRADLE",null,word,,,,, 'CRADLE',,
html-keyboard-response,395,1259631,null,"CHIPMUNK<img id = ""stim"" ><div class = red_square id = ""topsquare"" ></div><img id = ""stim"" ><div class = red_square  id = ""bottomsquare"" ></div>",null,word_square,response,0,none,true,,,
html-keyboard-response,396,1261133,null,"CHIPMUNK",null,word,,,,, 'CHIPMUNK',,
html-keyboard-response,397,1261510,375.15999999595806,"VICTIM<img id = ""stim"" ><div class = green_square id = ""topsquare"" ></div><img id = ""stim"" ><div class = green_square  id = ""bottomsquare"" ></div>",32,word_square,response,1,Space,true,,,
html-keyboard-response,398,1263012,null,"VICTIM",null,word,,,,, 'VICTIM',,
html-keyboard-response,399,1263515,null,"STRING<img id = ""stim"" ><div class = red_square id = ""topsquare"" ></div><img id = ""stim"" ><div class = red_square  id = ""bottomsquare"" ></div>",null,word_square,response,0,none,true,,,
html-keyboard-response,400,1265016,null,"STRING",null,word,,,,, 'STRING',,
html-keyboard-response,401,1265519,null,"MARROW<img id = ""stim"" ><div class = green_square id = ""topsquare"" ></div><img id = ""stim"" ><div class = green_square  id = ""bottomsquare"" ></div>",null,word_square,response,1,Space,false,,,
html-keyboard-response,402,1267021,null,"MARROW",null,word,,,,, 'MARROW',,
html-keyboard-response,403,1267523,null,"MAMMAL<img id = ""stim"" ><div class = green_square id = ""topsquare"" ></div><img id = ""stim"" ><div class = green_square  id = ""bottomsquare"" ></div>",null,word_square,response,1,Space,false,,,
html-keyboard-response,404,1269027,null,"MAMMAL",null,word,,,,, 'MAMMAL',,
html-keyboard-response,405,1269529,null,"WASHER<img id = ""stim"" ><div class = red_square id = ""topsquare"" ></div><img id = ""stim"" ><div class = red_square  id = ""bottomsquare"" ></div>",null,word_square,response,0,none,true,,,
html-keyboard-response,406,1271032,null,"WASHER",null,word,,,,, 'WASHER',,
call-function,407,1271033,,"",,,,,,,,,
html-keyboard-response,408,1271135,null,"",null,,,,,,,,
math-period,409,1272829,2977.6050000218675,"",,,,,,,,,4
html-keyboard-response,410,1272932,null,"",null,,,,,,,,
math-period,411,1274621,3224.1050000302494,"",,,,,,,,,3
html-keyboard-response,412,1274722,null,"",null,,,,,,,,
math-period,413,1276021,2458.790000062436,"",,,,,,,,,3
html-keyboard-response,414,1276130,null,"",null,,,,,,,,
math-period,415,1277349,2300.7549999747425,"",,,,,,,,,5
html-keyboard-response,416,1277450,null,"",null,,,,,,,,
math-period,417,1278757,2474.605000053998,"",,,,,,,,,4
html-keyboard-response,418,1278860,null,"",null,,,,,,,,
math-period,419,1280213,2575.669999991078,"",,,,,,,,,5
html-keyboard-response,420,1280315,null,"",null,,,,,,,,
math-period,421,1283253,5681.744999950752,"",,,,,,,,,0
html-keyboard-response,422,1283355,null,"",null,,,,,,,,
math-period,423,1285677,4505.394999985583,"",,,,,,,,,4
html-keyboard-response,424,1285779,null,"",null,,,,,,,,
math-period,425,1287629,3610.525000083726,"",,,,,,,,,2
html-keyboard-response,426,1287731,null,"",null,,,,,,,,
math-period,427,1289493,3394.3149999831803,"",,,,,,,,,1
html-keyboard-response,428,1289598,null,"",null,,,,,,,,
math-period,429,1291261,3195.999999938067,"",,,,,,,,,5
html-keyboard-response,430,1291374,null,"",null,,,,,,,,
math-period,431,1293013,3140.220000001136,"",,,,,,,,,4
html-keyboard-response,432,1293114,null,"",null,,,,,,,,
math-period,433,1294405,2491.730000008829,"",,,,,,,,,3
html-keyboard-response,434,1294507,null,"",null,,,,,,,,
math-period,435,1295034,null,"",,,,,,,,,
html-keyboard-response,436,1296037,null,"Recall Period!",null,,,,,,,,
call-function,437,1296038,,"",,,,,,,,,
html-keyboard-response,438,1296140,null,"",null,,,,,,,,
recall-period,439,1301861,21033.515000075568,"",,,,,,,,,heart
html-keyboard-response,440,1301963,null,"",null,,,,,,,,
recall-period,441,1371040,null,"",,,,,,,,,
html-keyboard-response,442,1371543,null,"Time's Up!",null,,,,,,,,
html-keyboard-response,443,1372893,1348.1550000142306,"<p> Good job! You responded correctly to 96% of the GREEN squares.</p>
                  <p>Be sure to keep your accuracy above 80%</p>
                  <p>Press any key to continue the experiment. Thank you!</p>",32,,,,,,,,
html-keyboard-response,444,1373540,645.334999950137,"<div style=""font-size:48px;"">Press any key to begin list 5 of 24 </div>",32,,,,,,,,
html-keyboard-response,445,1376057,null,"<div style=""font-size:60px;"">+</div>",null,,,,,,,,
html-keyboard-response,446,1376560,null,"CABOOSE<img id = ""stim"" ><div class = green_square id = ""topsquare"" ></div><img id = ""stim"" ><div class = green_square  id = ""bottomsquare"" ></div>",null,word_square,response,1,Space,false,,,
html-keyboard-response,447,1378063,null,"CABOOSE",null,word,,,,, 'CABOOSE',,
html-keyboard-response,448,1378565,null,"GUARD<img id = ""stim"" ><div class = green_square id = ""topsquare"" ></div><img id = ""stim"" ><div class = green_square  id = ""bottomsquare"" ></div>",null,word_square,response,1,Space,false,,,
html-keyboard-response,449,1380066,null,"GUARD",null,word,,,,, 'GUARD',,
html-keyboard-response,450,1380569,null,"COLONEL<img id = ""stim"" ><div class = green_square id = ""topsquare"" ></div><img id = ""stim"" ><div class = green_square  id = ""bottomsquare"" ></div>",null,word_square,response,1,Space,false,,,
html-keyboard-response,451,1382078,null,"COLONEL",null,word,,,,, 'COLONEL',,
html-keyboard-response,452,1382580,null,"FOLDER<img id = ""stim"" ><div class = red_square id = ""topsquare"" ></div><img id = ""stim"" ><div class = red_square  id = ""bottomsquare"" ></div>",null,word_square,response,0,none,true,,,
html-keyboard-response,453,1384082,null,"FOLDER",null,word,,,,, 'FOLDER',,
html-keyboard-response,454,1384583,null,"CASKET<img id = ""stim"" ><div class = red_square id = ""topsquare"" ></div><img id = ""stim"" ><div class = red_square  id = ""bottomsquare"" ></div>",null,word_square,response,0,none,true,,,
html-keyboard-response,455,1386092,null,"CASKET",null,word,,,,, 'CASKET',,
html-keyboard-response,456,1386412,318.95499996608123,"POISON<img id = ""stim"" ><div class = green_square id = ""topsquare"" ></div><img id = ""stim"" ><div class = green_square  id = ""bottomsquare"" ></div>",32,word_square,response,1,Space,true,,,
html-keyboard-response,457,1387913,null,"POISON",null,word,,,,, 'POISON',,
html-keyboard-response,458,1388415,null,"FLESH<img id = ""stim"" ><div class = red_square id = ""topsquare"" ></div><img id = ""stim"" ><div class = red_square  id = ""bottomsquare"" ></div>",null,word_square,response,0,none,true,,,
html-keyboard-response,459,1389917,null,"FLESH",null,word,,,,, 'FLESH',,
html-keyboard-response,460,1390419,null,"RECEIPT<img id = ""stim"" ><div class = red_square id = ""topsquare"" ></div><img id = ""stim"" ><div class = red_square  id = ""bottomsquare"" ></div>",null,word_square,response,0,none,true,,,
html-keyboard-response,461,1391921,null,"RECEIPT",null,word,,,,, 'RECEIPT',,
html-keyboard-response,462,1392179,256.8350000074133,"RODENT<img id = ""stim"" ><div class = green_square id = ""topsquare"" ></div><img id = ""stim"" ><div class = green_square  id = ""bottomsquare"" ></div>",32,word_square,response,1,Space,true,,,
html-keyboard-response,463,1393681,null,"RODENT",null,word,,,,, 'RODENT',,
html-keyboard-response,464,1394193,null,"DENIM<img id = ""stim"" ><div class = red_square id = ""topsquare"" ></div><img id = ""stim"" ><div class = red_square  id = ""bottomsquare"" ></div>",null,word_square,response,0,none,true,,,
html-keyboard-response,465,1395694,null,"DENIM",null,word,,,,, 'DENIM',,
html-keyboard-response,466,1396198,null,"JEANS<img id = ""stim"" ><div class = red_square id = ""topsquare"" ></div><img id = ""stim"" ><div class = red_square  id = ""bottomsquare"" ></div>",null,word_square,response,0,none,true,,,
html-keyboard-response,467,1397701,null,"JEANS",null,word,,,,, 'JEANS',,
html-keyboard-response,468,1398203,null,"NAPKIN<img id = ""stim"" ><div class = green_square id = ""topsquare"" ></div><img id = ""stim"" ><div class = green_square  id = ""bottomsquare"" ></div>",null,word_square,response,1,Space,false,,,
html-keyboard-response,469,1399705,null,"NAPKIN",null,word,,,,, 'NAPKIN',,
html-keyboard-response,470,1400208,null,"LITTER<img id = ""stim"" ><div class = red_square id = ""topsquare"" ></div><img id = ""stim"" ><div class = red_square  id = ""bottomsquare"" ></div>",null,word_square,response,0,none,true,,,
html-keyboard-response,471,1401710,null,"LITTER",null,word,,,,, 'LITTER',,
html-keyboard-response,472,1402149,438.1500000017695,"SMOG<img id = ""stim"" ><div class = green_square id = ""topsquare"" ></div><img id = ""stim"" ><div class = green_square  id = ""bottomsquare"" ></div>",32,word_square,response,1,Space,true,,,
html-keyboard-response,473,1403652,null,"SMOG",null,word,,,,, 'SMOG',,
html-keyboard-response,474,1404154,null,"CURTAIN<img id = ""stim"" ><div class = red_square id = ""topsquare"" ></div><img id = ""stim"" ><div class = red_square  id = ""bottomsquare"" ></div>",null,word_square,response,0,none,true,,,
html-keyboard-response,475,1405656,null,"CURTAIN",null,word,,,,, 'CURTAIN',,
html-keyboard-response,476,1406159,null,"GROUND<img id = ""stim"" ><div class = green_square id = ""topsquare"" ></div><img id = ""stim"" ><div class = green_square  id = ""bottomsquare"" ></div>",null,word_square,response,1,Space,false,,,
html-keyboard-response,477,1407661,null,"GROUND",null,word,,,,, 'GROUND',,
html-keyboard-response,478,1408166,null,"DOCTOR<img id = ""stim"" ><div class = red_square id = ""topsquare"" ></div><img id = ""stim"" ><div class = red_square  id = ""bottomsquare"" ></div>",null,word_square,response,0,none,true,,,
html-keyboard-response,479,1409670,null,"DOCTOR",null,word,,,,, 'DOCTOR',,
html-keyboard-response,480,1410172,null,"NEWSSTAND<img id = ""stim"" ><div class = green_square id = ""topsquare"" ></div><img id = ""stim"" ><div class = green_square  id = ""bottomsquare"" ></div>",null,word_square,response,1,Space,false,,,
html-keyboard-response,481,1411674,null,"NEWSSTAND",null,word,,,,, 'NEWSSTAND',,
call-function,482,1411675,,"",,,,,,,,,
html-keyboard-response,483,1411777,null,"",null,,,,,,,,
math-period,484,1413363,2857.2400000412017,"",,,,,,,,,4
html-keyboard-response,485,1413465,null,"",null,,,,,,,,
math-period,486,1415459,3808.9749999926426,"",,,,,,,,,4
html-keyboard-response,487,1415561,null,"",null,,,,,,,,
math-period,488,1416467,1677.7050000382587,"",,,,,,,,,4
html-keyboard-response,489,1416575,null,"",null,,,,,,,,
math-period,490,1417931,2589.990000007674,"",,,,,,,,,5
html-keyboard-response,491,1418034,null,"",null,,,,,,,,
math-period,492,1419539,2879.8599999863654,"",,,,,,,,,1
html-keyboard-response,493,1419641,null,"",null,,,,,,,,
math-period,494,1420979,2554.2649999260902,"",,,,,,,,,5
html-keyboard-response,495,1421083,null,"",null,,,,,,,,
math-period,496,1423899,5460.090000007767,"",,,,,,,,,2
html-keyboard-response,497,1424011,null,"",null,,,,,,,,
math-period,498,1427027,5878.245000028983,"",,,,,,,,,2
html-keyboard-response,499,1427132,null,"",null,,,,,,,,
math-period,500,1429539,4659.829999960493,"",,,,,,,,,5
html-keyboard-response,501,1429641,null,"",null,,,,,,,,
math-period,502,1430924,2473.444999952335,"",,,,,,,,,4
html-keyboard-response,503,1431026,null,"",null,,,,,,,,
math-period,504,1432203,2263.225000060629,"",,,,,,,,,5
html-keyboard-response,505,1432304,null,"",null,,,,,,,,
math-period,506,1433427,2131.3249999075197,"",,,,,,,,,6
html-keyboard-response,507,1433529,null,"",null,,,,,,,,
math-period,508,1434235,1312.5700000091456,"",,,,,,,,,6
html-keyboard-response,509,1434350,null,"",null,,,,,,,,
math-period,510,1435659,2496.5050000464544,"",,,,,,,,,5
html-keyboard-response,511,1435762,null,"",null,,,,,,,,
math-period,512,1435765,null,"",,,,,,,,,
html-keyboard-response,513,1436767,null,"Recall Period!",null,,,,,,,,
call-function,514,1436769,,"",,,,,,,,,
html-keyboard-response,515,1436871,null,"",null,,,,,,,,
recall-period,516,1438355,5359.204999869689,"",,,,,,,,,denim
html-keyboard-response,517,1438457,null,"",null,,,,,,,,
recall-period,518,1439419,3486.0249999328516,"",,,,,,,,,jeans
html-keyboard-response,519,1439521,null,"",null,,,,,,,,
recall-period,520,1443227,31094.604999758303,"",,,,,,,,,cabooze
html-keyboard-response,521,1443336,null,"",null,,,,,,,,
recall-period,522,1456171,83502.72500014398,"",,,,,,,,,noodle
html-keyboard-response,523,1456273,null,"",null,,,,,,,,
recall-period,524,1459731,15472.18000004068,"",,,,,,,,,smog
html-keyboard-response,525,1459843,null,"",null,,,,,,,,
recall-period,526,1460827,3494.4900001282804,"",,,,,,,,,ground
html-keyboard-response,527,1460935,null,"",null,,,,,,,,
recall-period,528,1462499,7238.670000107959,"",,,,,,,,,curtains
html-keyboard-response,529,1462601,null,"",null,,,,,,,,
recall-period,530,1467051,37518.74500029953,"",,,,,,,,,doctor
html-keyboard-response,531,1467165,null,"",null,,,,,,,,
recall-period,532,1511770,null,"",,,,,,,,,
html-keyboard-response,533,1512275,null,"Time's Up!",null,,,,,,,,
html-keyboard-response,534,1517547,5271.154999965802,"<p> Good job! You responded correctly to 91% of the GREEN squares.</p>
                  <p>Be sure to keep your accuracy above 80%</p>
                  <p>Press any key to continue the experiment. Thank you!</p>",32,,,,,,,,
html-keyboard-response,535,1518634,1084.9700000253506,"<div style=""font-size:48px;"">Press any key to begin list 6 of 24 </div>",32,,,,,,,,
html-keyboard-response,536,1521136,null,"<div style=""font-size:60px;"">+</div>",null,,,,,,,,
html-keyboard-response,537,1521467,329.1449999669567,"COFFIN<img id = ""stim"" ><div class = green_square id = ""topsquare"" ></div><img id = ""stim"" ><div class = green_square  id = ""bottomsquare"" ></div>",32,word_square,response,1,Space,true,,,
html-keyboard-response,538,1522970,null,"COFFIN",null,word,,,,, 'COFFIN',,
html-keyboard-response,539,1523371,398.96500000031665,"BLACKBOARD<img id = ""stim"" ><div class = green_square id = ""topsquare"" ></div><img id = ""stim"" ><div class = green_square  id = ""bottomsquare"" ></div>",32,word_square,response,1,Space,true,,,
html-keyboard-response,540,1524873,null,"BLACKBOARD",null,word,,,,, 'BLACKBOARD',,
html-keyboard-response,541,1525347,472.1149999531917,"HOUND<img id = ""stim"" ><div class = green_square id = ""topsquare"" ></div><img id = ""stim"" ><div class = green_square  id = ""bottomsquare"" ></div>",32,word_square,response,1,Space,true,,,
html-keyboard-response,542,1526849,null,"HOUND",null,word,,,,, 'HOUND',,
html-keyboard-response,543,1527351,null,"CHISEL<img id = ""stim"" ><div class = red_square id = ""topsquare"" ></div><img id = ""stim"" ><div class = red_square  id = ""bottomsquare"" ></div>",null,word_square,response,0,none,true,,,
html-keyboard-response,544,1528853,null,"CHISEL",null,word,,,,, 'CHISEL',,
html-keyboard-response,545,1529356,null,"BOUILLON<img id = ""stim"" ><div class = red_square id = ""topsquare"" ></div><img id = ""stim"" ><div class = red_square  id = ""bottomsquare"" ></div>",null,word_square,response,0,none,true,,,
html-keyboard-response,546,1530857,null,"BOUILLON",null,word,,,,, 'BOUILLON',,
html-keyboard-response,547,1531358,null,"TART<img id = ""stim"" ><div class = green_square id = ""topsquare"" ></div><img id = ""stim"" ><div class = green_square  id = ""bottomsquare"" ></div>",null,word_square,response,1,Space,false,,,
html-keyboard-response,548,1532870,null,"TART",null,word,,,,, 'TART',,
html-keyboard-response,549,1533384,null,"PRIEST<img id = ""stim"" ><div class = red_square id = ""topsquare"" ></div><img id = ""stim"" ><div class = red_square  id = ""bottomsquare"" ></div>",null,word_square,response,0,none,true,,,
html-keyboard-response,550,1534886,null,"PRIEST",null,word,,,,, 'PRIEST',,
html-keyboard-response,551,1535389,null,"PRAIRIE<img id = ""stim"" ><div class = red_square id = ""topsquare"" ></div><img id = ""stim"" ><div class = red_square  id = ""bottomsquare"" ></div>",null,word_square,response,0,none,true,,,
html-keyboard-response,552,1536892,null,"PRAIRIE",null,word,,,,, 'PRAIRIE',,
html-keyboard-response,553,1537386,492.97999998088926,"TEMPLE<img id = ""stim"" ><div class = green_square id = ""topsquare"" ></div><img id = ""stim"" ><div class = green_square  id = ""bottomsquare"" ></div>",32,word_square,response,1,Space,true,,,
html-keyboard-response,554,1538888,null,"TEMPLE",null,word,,,,, 'TEMPLE',,
html-keyboard-response,555,1539390,null,"IDOL<img id = ""stim"" ><div class = red_square id = ""topsquare"" ></div><img id = ""stim"" ><div class = red_square  id = ""bottomsquare"" ></div>",null,word_square,response,0,none,true,,,
html-keyboard-response,556,1540892,null,"IDOL",null,word,,,,, 'IDOL',,
html-keyboard-response,557,1541396,null,"OUTFIT<img id = ""stim"" ><div class = red_square id = ""topsquare"" ></div><img id = ""stim"" ><div class = red_square  id = ""bottomsquare"" ></div>",null,word_square,response,0,none,true,,,
html-keyboard-response,558,1542898,null,"OUTFIT",null,word,,,,, 'OUTFIT',,
html-keyboard-response,559,1543251,351.6500000259839,"SNACK<img id = ""stim"" ><div class = green_square id = ""topsquare"" ></div><img id = ""stim"" ><div class = green_square  id = ""bottomsquare"" ></div>",32,word_square,response,1,Space,true,,,
html-keyboard-response,560,1544753,null,"SNACK",null,word,,,,, 'SNACK',,
html-keyboard-response,561,1545256,null,"TURKEY<img id = ""stim"" ><div class = red_square id = ""topsquare"" ></div><img id = ""stim"" ><div class = red_square  id = ""bottomsquare"" ></div>",null,word_square,response,0,none,true,,,
html-keyboard-response,562,1546758,null,"TURKEY",null,word,,,,, 'TURKEY',,
html-keyboard-response,563,1547044,282.90500002913177,"SKETCH<img id = ""stim"" ><div class = green_square id = ""topsquare"" ></div><img id = ""stim"" ><div class = green_square  id = ""bottomsquare"" ></div>",32,word_square,response,1,Space,true,,,
html-keyboard-response,564,1548546,null,"SKETCH",null,word,,,,, 'SKETCH',,
html-keyboard-response,565,1549048,null,"HAND<img id = ""stim"" ><div class = red_square id = ""topsquare"" ></div><img id = ""stim"" ><div class = red_square  id = ""bottomsquare"" ></div>",null,word_square,response,0,none,true,,,
html-keyboard-response,566,1550557,null,"HAND",null,word,,,,, 'HAND',,
html-keyboard-response,567,1550907,348.51999999955297,"FINGER<img id = ""stim"" ><div class = green_square id = ""topsquare"" ></div><img id = ""stim"" ><div class = green_square  id = ""bottomsquare"" ></div>",32,word_square,response,1,Space,true,,,
html-keyboard-response,568,1552410,null,"FINGER",null,word,,,,, 'FINGER',,
html-keyboard-response,569,1552923,null,"TREAT<img id = ""stim"" ><div class = red_square id = ""topsquare"" ></div><img id = ""stim"" ><div class = red_square  id = ""bottomsquare"" ></div>",null,word_square,response,0,none,true,,,
html-keyboard-response,570,1554440,null,"TREAT",null,word,,,,, 'TREAT',,
html-keyboard-response,571,1554755,313.5199999669567,"OINTMENT<img id = ""stim"" ><div class = green_square id = ""topsquare"" ></div><img id = ""stim"" ><div class = green_square  id = ""bottomsquare"" ></div>",32,word_square,response,1,Space,true,,,
html-keyboard-response,572,1556258,null,"OINTMENT",null,word,,,,, 'OINTMENT',,
call-function,573,1556259,,"",,,,,,,,,
html-keyboard-response,574,1556361,null,"",null,,,,,,,,
math-period,575,1565018,17144.33000003919,"",,,,,,,,,2
html-keyboard-response,576,1565119,null,"",null,,,,,,,,
math-period,577,1566586,2681.7100000334904,"",,,,,,,,,4
html-keyboard-response,578,1566688,null,"",null,,,,,,,,
math-period,579,1568674,3865.0800000177696,"",,,,,,,,,3
html-keyboard-response,580,1568785,null,"",null,,,,,,,,
math-period,581,1571810,5829.970000020694,"",,,,,,,,,2
html-keyboard-response,582,1571913,null,"",null,,,,,,,,
math-period,583,1580261,null,"",,,,,,,,,
html-keyboard-response,584,1581264,null,"Recall Period!",null,,,,,,,,
call-function,585,1581265,,"",,,,,,,,,
html-keyboard-response,586,1581367,null,"",null,,,,,,,,
recall-period,587,1584882,16499.1049998207,"",,,,,,,,,priest
html-keyboard-response,588,1584995,null,"",null,,,,,,,,
recall-period,589,1590123,35382.98499985831,"",,,,,,,,,prairie
html-keyboard-response,590,1590228,null,"",null,,,,,,,,
recall-period,591,1594938,29388.594999851193,"",,,,,,,,,coffin
html-keyboard-response,592,1595045,null,"",null,,,,,,,,
recall-period,593,1656268,null,"",,,,,,,,,
html-keyboard-response,594,1656770,null,"Time's Up!",null,,,,,,,,
html-keyboard-response,595,1669233,12461.284999968484,"<p> Good job! You responded correctly to 91% of the GREEN squares.</p>
                  <p>Be sure to keep your accuracy above 80%</p>
                  <p>Press any key to continue the experiment. Thank you!</p>",13,,,,,,,,
html-keyboard-response,596,1670041,806.5300000016578,"<div style=""font-size:48px;"">Press any key to begin list 7 of 24 </div>",32,,,,,,,,
html-keyboard-response,597,1672548,null,"<div style=""font-size:60px;"">+</div>",null,,,,,,,,
html-keyboard-response,598,1673050,null,"PAVEMENT<img id = ""stim"" ><div class = red_square id = ""topsquare"" ></div><img id = ""stim"" ><div class = red_square  id = ""bottomsquare"" ></div>",null,word_square,response,0,none,true,,,
html-keyboard-response,599,1674553,null,"PAVEMENT",null,word,,,,, 'PAVEMENT',,
html-keyboard-response,600,1675055,null,"CANDY<img id = ""stim"" ><div class = red_square id = ""topsquare"" ></div><img id = ""stim"" ><div class = red_square  id = ""bottomsquare"" ></div>",null,word_square,response,0,none,true,,,
html-keyboard-response,601,1676557,null,"CANDY",null,word,,,,, 'CANDY',,
html-keyboard-response,602,1677059,null,"BISON<img id = ""stim"" ><div class = red_square id = ""topsquare"" ></div><img id = ""stim"" ><div class = red_square  id = ""bottomsquare"" ></div>",null,word_square,response,0,none,true,,,
html-keyboard-response,603,1678563,null,"BISON",null,word,,,,, 'BISON',,
html-keyboard-response,604,1679064,null,"PISTOL<img id = ""stim"" ><div class = green_square id = ""topsquare"" ></div><img id = ""stim"" ><div class = green_square  id = ""bottomsquare"" ></div>",null,word_square,response,1,Space,false,,,
html-keyboard-response,605,1680567,null,"PISTOL",null,word,,,,, 'PISTOL',,
html-keyboard-response,606,1681018,449.0999999688938,"RIFLE<img id = ""stim"" ><div class = green_square id = ""topsquare"" ></div><img id = ""stim"" ><div class = green_square  id = ""bottomsquare"" ></div>",32,word_square,response,1,Space,true,,,
html-keyboard-response,607,1682519,null,"RIFLE",null,word,,,,, 'RIFLE',,
html-keyboard-response,608,1683020,null,"CLERK<img id = ""stim"" ><div class = red_square id = ""topsquare"" ></div><img id = ""stim"" ><div class = red_square  id = ""bottomsquare"" ></div>",null,word_square,response,0,none,true,,,
html-keyboard-response,609,1684522,null,"CLERK",null,word,,,,, 'CLERK',,
html-keyboard-response,610,1684929,404.9949999898672,"TRIBE<img id = ""stim"" ><div class = green_square id = ""topsquare"" ></div><img id = ""stim"" ><div class = green_square  id = ""bottomsquare"" ></div>",32,word_square,response,1,Space,true,,,
html-keyboard-response,611,1686430,null,"TRIBE",null,word,,,,, 'TRIBE',,
html-keyboard-response,612,1686769,336.9700000039302,"TIGER<img id = ""stim"" ><div class = green_square id = ""topsquare"" ></div><img id = ""stim"" ><div class = green_square  id = ""bottomsquare"" ></div>",32,word_square,response,1,Space,true,,,
html-keyboard-response,613,1688278,null,"TIGER",null,word,,,,, 'TIGER',,
html-keyboard-response,614,1688780,null,"VILLAIN<img id = ""stim"" ><div class = red_square id = ""topsquare"" ></div><img id = ""stim"" ><div class = red_square  id = ""bottomsquare"" ></div>",null,word_square,response,0,none,true,,,
html-keyboard-response,615,1690282,null,"VILLAIN",null,word,,,,, 'VILLAIN',,
html-keyboard-response,616,1690673,388.89999996172264,"GARDEN<img id = ""stim"" ><div class = green_square id = ""topsquare"" ></div><img id = ""stim"" ><div class = green_square  id = ""bottomsquare"" ></div>",32,word_square,response,1,Space,true,,,
html-keyboard-response,617,1692175,null,"GARDEN",null,word,,,,, 'GARDEN',,
html-keyboard-response,618,1692648,470.8600000012666,"MASK<img id = ""stim"" ><div class = green_square id = ""topsquare"" ></div><img id = ""stim"" ><div class = green_square  id = ""bottomsquare"" ></div>",32,word_square,response,1,Space,true,,,
html-keyboard-response,619,1694168,null,"MASK",null,word,,,,, 'MASK',,
html-keyboard-response,620,1694670,null,"LOVER<img id = ""stim"" ><div class = red_square id = ""topsquare"" ></div><img id = ""stim"" ><div class = red_square  id = ""bottomsquare"" ></div>",null,word_square,response,0,none,true,,,
html-keyboard-response,621,1696173,null,"LOVER",null,word,,,,, 'LOVER',,
html-keyboard-response,622,1696472,298.2600000104867,"FLOWER<img id = ""stim"" ><div class = green_square id = ""topsquare"" ></div><img id = ""stim"" ><div class = green_square  id = ""bottomsquare"" ></div>",32,word_square,response,1,Space,true,,,
html-keyboard-response,623,1697975,null,"FLOWER",null,word,,,,, 'FLOWER',,
html-keyboard-response,624,1698477,null,"RUST<img id = ""stim"" ><div class = red_square id = ""topsquare"" ></div><img id = ""stim"" ><div class = red_square  id = ""bottomsquare"" ></div>",null,word_square,response,0,none,true,,,
html-keyboard-response,625,1699979,null,"RUST",null,word,,,,, 'RUST',,
html-keyboard-response,626,1700304,323.2900000293739,"PEDAL<img id = ""stim"" ><div class = green_square id = ""topsquare"" ></div><img id = ""stim"" ><div class = green_square  id = ""bottomsquare"" ></div>",32,word_square,response,1,Space,true,,,
html-keyboard-response,627,1701806,null,"PEDAL",null,word,,,,, 'PEDAL',,
html-keyboard-response,628,1702308,null,"SCALLOP<img id = ""stim"" ><div class = red_square id = ""topsquare"" ></div><img id = ""stim"" ><div class = red_square  id = ""bottomsquare"" ></div>",null,word_square,response,0,none,true,,,
html-keyboard-response,629,1703810,null,"SCALLOP",null,word,,,,, 'SCALLOP',,
html-keyboard-response,630,1704152,341.30999998888,"HOOK<img id = ""stim"" ><div class = green_square id = ""topsquare"" ></div><img id = ""stim"" ><div class = green_square  id = ""bottomsquare"" ></div>",32,word_square,response,1,Space,true,,,
html-keyboard-response,631,1705654,null,"HOOK",null,word,,,,, 'HOOK',,
html-keyboard-response,632,1706157,null,"SPARROW<img id = ""stim"" ><div class = red_square id = ""topsquare"" ></div><img id = ""stim"" ><div class = red_square  id = ""bottomsquare"" ></div>",null,word_square,response,0,none,true,,,
html-keyboard-response,633,1707660,null,"SPARROW",null,word,,,,, 'SPARROW',,
call-function,634,1707661,,"",,,,,,,,,
html-keyboard-response,635,1707763,null,"",null,,,,,,,,
math-period,636,1709232,2775.1699999789707,"",,,,,,,,,3
html-keyboard-response,637,1709334,null,"",null,,,,,,,,
math-period,638,1711968,5129.580000007991,"",,,,,,,,,1
html-keyboard-response,639,1712070,null,"",null,,,,,,,,
math-period,640,1713704,3142.330000002403,"",,,,,,,,,1
html-keyboard-response,641,1713807,null,"",null,,,,,,,,
math-period,642,1716224,4703.080000006594,"",,,,,,,,,1
html-keyboard-response,643,1716325,null,"",null,,,,,,,,
math-period,644,1719024,5290.63500004122,"",,,,,,,,,3
html-keyboard-response,645,1719134,null,"",null,,,,,,,,
math-period,646,1721232,4031.760000041686,"",,,,,,,,,1
html-keyboard-response,647,1721335,null,"",null,,,,,,,,
math-period,648,1723088,3414.325000019744,"",,,,,,,,,5
html-keyboard-response,649,1723195,null,"",null,,,,,,,,
math-period,650,1728144,9735.620000050403,"",,,,,,,,,2
html-keyboard-response,651,1728245,null,"",null,,,,,,,,
math-period,652,1730208,3801.969999971334,"",,,,,,,,,3
html-keyboard-response,653,1730309,null,"",null,,,,,,,,
math-period,654,1731632,2522.990000026766,"",,,,,,,,,2
html-keyboard-response,655,1731733,null,"",null,,,,,,,,
math-period,656,1731736,null,"",,,,,,,,,
html-keyboard-response,657,1732739,null,"Recall Period!",null,,,,,,,,
call-function,658,1732740,,"",,,,,,,,,
html-keyboard-response,659,1732842,null,"",null,,,,,,,,
recall-period,660,1737232,23179.005000158213,"",,,,,,,,,lover
html-keyboard-response,661,1737334,null,"",null,,,,,,,,
recall-period,662,1739024,7128.700000059325,"",,,,,,,,,tribe
html-keyboard-response,663,1739125,null,"",null,,,,,,,,
recall-period,664,1740688,7988.140000088606,"",,,,,,,,,tiger
html-keyboard-response,665,1740791,null,"",null,,,,,,,,
recall-period,666,1742136,5133.440000005066,"",,,,,,,,,clerk
html-keyboard-response,667,1742239,null,"",null,,,,,,,,
recall-period,668,1743408,4696.050000085961,"",,,,,,,,,pistol
html-keyboard-response,669,1743509,null,"",null,,,,,,,,
recall-period,670,1744872,3941.6949998703785,"",,,,,,,,,rifle
html-keyboard-response,671,1744976,null,"",null,,,,,,,,
recall-period,672,1747224,10981.18499998236,"",,,,,,,,,bison
html-keyboard-response,673,1747335,null,"",null,,,,,,,,
recall-period,674,1749784,19964.61499965517,"",,,,,,,,,pavement
html-keyboard-response,675,1749893,null,"",null,,,,,,,,
recall-period,676,1751280,3903.4999999566935,"",,,,,,,,,candy
html-keyboard-response,677,1751394,null,"",null,,,,,,,,
recall-period,678,1807742,null,"",,,,,,,,,
html-keyboard-response,679,1808245,null,"Time's Up!",null,,,,,,,,
html-keyboard-response,680,1820152,11905.144999967888,"<p> Good job! You responded correctly to 92% of the GREEN squares.</p>
                  <p>Be sure to keep your accuracy above 80%</p>
                  <p>Press any key to continue the experiment. Thank you!</p>",32,,,,,,,,
html-keyboard-response,681,1820815,662.769999995362,"<div style=""font-size:48px;"">Press any key to begin list 8 of 24 </div>",32,,,,,,,,
html-keyboard-response,682,1823319,null,"<div style=""font-size:60px;"">+</div>",null,,,,,,,,
html-keyboard-response,683,1823821,null,"SLUG<img id = ""stim"" ><div class = red_square id = ""topsquare"" ></div><img id = ""stim"" ><div class = red_square  id = ""bottomsquare"" ></div>",null,word_square,response,0,none,true,,,
html-keyboard-response,684,1825323,null,"SLUG",null,word,,,,, 'SLUG',,
html-keyboard-response,685,1825825,null,"TORTOISE<img id = ""stim"" ><div class = red_square id = ""topsquare"" ></div><img id = ""stim"" ><div class = red_square  id = ""bottomsquare"" ></div>",null,word_square,response,0,none,true,,,
html-keyboard-response,686,1827328,null,"TORTOISE",null,word,,,,, 'TORTOISE',,
html-keyboard-response,687,1827831,null,"BASEBALL<img id = ""stim"" ><div class = red_square id = ""topsquare"" ></div><img id = ""stim"" ><div class = red_square  id = ""bottomsquare"" ></div>",null,word_square,response,0,none,true,,,
html-keyboard-response,688,1829333,null,"BASEBALL",null,word,,,,, 'BASEBALL',,
html-keyboard-response,689,1829800,465.08000005269423,"PERFUME<img id = ""stim"" ><div class = green_square id = ""topsquare"" ></div><img id = ""stim"" ><div class = green_square  id = ""bottomsquare"" ></div>",32,word_square,response,1,Space,true,,,
html-keyboard-response,690,1831306,null,"PERFUME",null,word,,,,, 'PERFUME',,
html-keyboard-response,691,1831689,380.6299999705516,"MILDEW<img id = ""stim"" ><div class = green_square id = ""topsquare"" ></div><img id = ""stim"" ><div class = green_square  id = ""bottomsquare"" ></div>",32,word_square,response,1,Space,true,,,
html-keyboard-response,692,1833191,null,"MILDEW",null,word,,,,, 'MILDEW',,
html-keyboard-response,693,1833694,null,"BEDROOM<img id = ""stim"" ><div class = red_square id = ""topsquare"" ></div><img id = ""stim"" ><div class = red_square  id = ""bottomsquare"" ></div>",null,word_square,response,0,none,true,,,
html-keyboard-response,694,1835196,null,"BEDROOM",null,word,,,,, 'BEDROOM',,
html-keyboard-response,695,1835560,362.43999999715015,"GODDESS<img id = ""stim"" ><div class = green_square id = ""topsquare"" ></div><img id = ""stim"" ><div class = green_square  id = ""bottomsquare"" ></div>",32,word_square,response,1,Space,true,,,
html-keyboard-response,696,1837063,null,"GODDESS",null,word,,,,, 'GODDESS',,
html-keyboard-response,697,1837552,486.960000009276,"SHAMPOO<img id = ""stim"" ><div class = green_square id = ""topsquare"" ></div><img id = ""stim"" ><div class = green_square  id = ""bottomsquare"" ></div>",32,word_square,response,1,Space,true,,,
html-keyboard-response,698,1839054,null,"SHAMPOO",null,word,,,,, 'SHAMPOO',,
html-keyboard-response,699,1839557,null,"PEOPLE<img id = ""stim"" ><div class = red_square id = ""topsquare"" ></div><img id = ""stim"" ><div class = red_square  id = ""bottomsquare"" ></div>",null,word_square,response,0,none,true,,,
html-keyboard-response,700,1841059,null,"PEOPLE",null,word,,,,, 'PEOPLE',,
html-keyboard-response,701,1841511,451.2349999858998,"CLIMBER<img id = ""stim"" ><div class = green_square id = ""topsquare"" ></div><img id = ""stim"" ><div class = green_square  id = ""bottomsquare"" ></div>",32,word_square,response,1,Space,true,,,
html-keyboard-response,702,1843013,null,"CLIMBER",null,word,,,,, 'CLIMBER',,
html-keyboard-response,703,1843512,498.070000030566,"BUREAU<img id = ""stim"" ><div class = green_square id = ""topsquare"" ></div><img id = ""stim"" ><div class = green_square  id = ""bottomsquare"" ></div>",32,word_square,response,1,Space,true,,,
html-keyboard-response,704,1845015,null,"BUREAU",null,word,,,,, 'BUREAU',,
html-keyboard-response,705,1845520,null,"FRIES<img id = ""stim"" ><div class = red_square id = ""topsquare"" ></div><img id = ""stim"" ><div class = red_square  id = ""bottomsquare"" ></div>",null,word_square,response,0,none,true,,,
html-keyboard-response,706,1847022,null,"FRIES",null,word,,,,, 'FRIES',,
html-keyboard-response,707,1847512,487.7250000135973,"BRIEFCASE<img id = ""stim"" ><div class = green_square id = ""topsquare"" ></div><img id = ""stim"" ><div class = green_square  id = ""bottomsquare"" ></div>",32,word_square,response,1,Space,true,,,
html-keyboard-response,708,1849014,null,"BRIEFCASE",null,word,,,,, 'BRIEFCASE',,
html-keyboard-response,709,1849516,null,"PUDDLE<img id = ""stim"" ><div class = red_square id = ""topsquare"" ></div><img id = ""stim"" ><div class = red_square  id = ""bottomsquare"" ></div>",null,word_square,response,0,none,true,,,
html-keyboard-response,710,1851018,null,"PUDDLE",null,word,,,,, 'PUDDLE',,
html-keyboard-response,711,1851415,395.53999999770895,"PONY<img id = ""stim"" ><div class = green_square id = ""topsquare"" ></div><img id = ""stim"" ><div class = green_square  id = ""bottomsquare"" ></div>",32,word_square,response,1,Space,true,,,
html-keyboard-response,712,1852917,null,"PONY",null,word,,,,, 'PONY',,
html-keyboard-response,713,1853427,null,"ZIPPER<img id = ""stim"" ><div class = red_square id = ""topsquare"" ></div><img id = ""stim"" ><div class = red_square  id = ""bottomsquare"" ></div>",null,word_square,response,0,none,true,,,
html-keyboard-response,714,1854939,null,"ZIPPER",null,word,,,,, 'ZIPPER',,
html-keyboard-response,715,1855408,466.80499997455627,"THIEF<img id = ""stim"" ><div class = green_square id = ""topsquare"" ></div><img id = ""stim"" ><div class = green_square  id = ""bottomsquare"" ></div>",32,word_square,response,1,Space,true,,,
html-keyboard-response,716,1856911,null,"THIEF",null,word,,,,, 'THIEF',,
html-keyboard-response,717,1857413,null,"BISCUIT<img id = ""stim"" ><div class = red_square id = ""topsquare"" ></div><img id = ""stim"" ><div class = red_square  id = ""bottomsquare"" ></div>",null,word_square,response,0,none,true,,,
html-keyboard-response,718,1858916,null,"BISCUIT",null,word,,,,, 'BISCUIT',,
call-function,719,1858917,,"",,,,,,,,,
html-keyboard-response,720,1859020,null,"",null,,,,,,,,
math-period,721,1860671,3003.389999968931,"",,,,,,,,,5
html-keyboard-response,722,1860773,null,"",null,,,,,,,,
math-period,723,1861990,2280.4599999799393,"",,,,,,,,,6
html-keyboard-response,724,1862093,null,"",null,,,,,,,,
math-period,725,1863382,2439.630000037141,"",,,,,,,,,5
html-keyboard-response,726,1863485,null,"",null,,,,,,,,
math-period,727,1866055,5008.689999987837,"",,,,,,,,,1
html-keyboard-response,728,1866158,null,"",null,,,,,,,,
math-period,729,1867902,3405.735000036657,"",,,,,,,,,5
html-keyboard-response,730,1868004,null,"",null,,,,,,,,
math-period,731,1871446,6713.295000023209,"",,,,,,,,,2
html-keyboard-response,732,1871548,null,"",null,,,,,,,,
math-period,733,1872742,2233.4049999481067,"",,,,,,,,,6
html-keyboard-response,734,1872844,null,"",null,,,,,,,,
math-period,735,1873966,2169.6149999042973,"",,,,,,,,,4
html-keyboard-response,736,1874081,null,"",null,,,,,,,,
math-period,737,1875462,2640.2499999967404,"",,,,,,,,,3
html-keyboard-response,738,1875564,null,"",null,,,,,,,,
math-period,739,1877422,3545.819999941159,"",,,,,,,,,1
html-keyboard-response,740,1877524,null,"",null,,,,,,,,
math-period,741,1878598,2026.0649999254383,"",,,,,,,,,2
html-keyboard-response,742,1878700,null,"",null,,,,,,,,
math-period,743,1879878,2225.510000018403,"",,,,,,,,,3
html-keyboard-response,744,1879981,null,"",null,,,,,,,,
math-period,745,1881046,2016.8599999742582,"",,,,,,,,,3
html-keyboard-response,746,1881154,null,"",null,,,,,,,,
math-period,747,1882334,2219.8849999695085,"",,,,,,,,,4
html-keyboard-response,748,1882445,null,"",null,,,,,,,,
math-period,749,1882918,null,"",,,,,,,,,
html-keyboard-response,750,1883921,null,"Recall Period!",null,,,,,,,,
call-function,751,1883922,,"",,,,,,,,,
html-keyboard-response,752,1884024,null,"",null,,,,,,,,
recall-period,753,1888782,30145.650000253227,"",,,,,,,,,buerau
html-keyboard-response,754,1888895,null,"",null,,,,,,,,
recall-period,755,1894998,38819.55500005279,"",,,,,,,,,puddle
html-keyboard-response,756,1895100,null,"",null,,,,,,,,
recall-period,757,1896438,4031.119999999646,"",,,,,,,,,pony
html-keyboard-response,758,1896552,null,"",null,,,,,,,,
recall-period,759,1909022,72380.69499982521,"",,,,,,,,,fries
html-keyboard-response,760,1909124,null,"",null,,,,,,,,
recall-period,761,1911478,9978.870000108145,"",,,,,,,,,thief
html-keyboard-response,762,1911591,null,"",null,,,,,,,,
recall-period,763,1958923,null,"",,,,,,,,,
html-keyboard-response,764,1959425,null,"Time's Up!",null,,,,,,,,
html-keyboard-response,765,1966158,6730.429999995977,"<p> Good job! You responded correctly to 93% of the GREEN squares.</p>
                  <p>Be sure to keep your accuracy above 80%</p>
                  <p>Press any key to continue the experiment. Thank you!</p>",32,,,,,,,,
html-keyboard-response,766,1966982,822.6900000008754,"<div style=""font-size:48px;"">Press any key to begin list 9 of 24 </div>",32,,,,,,,,
html-keyboard-response,767,1969483,null,"<div style=""font-size:60px;"">+</div>",null,,,,,,,,
html-keyboard-response,768,1969986,null,"RAISIN<img id = ""stim"" ><div class = red_square id = ""topsquare"" ></div><img id = ""stim"" ><div class = red_square  id = ""bottomsquare"" ></div>",null,word_square,response,0,none,true,,,
html-keyboard-response,769,1971489,null,"RAISIN",null,word,,,,, 'RAISIN',,
html-keyboard-response,770,1971991,null,"SCARECROW<img id = ""stim"" ><div class = red_square id = ""topsquare"" ></div><img id = ""stim"" ><div class = red_square  id = ""bottomsquare"" ></div>",null,word_square,response,0,none,true,,,
html-keyboard-response,771,1973494,null,"SCARECROW",null,word,,,,, 'SCARECROW',,
html-keyboard-response,772,1973861,366.1799999536015,"LIZARD<img id = ""stim"" ><div class = green_square id = ""topsquare"" ></div><img id = ""stim"" ><div class = green_square  id = ""bottomsquare"" ></div>",32,word_square,response,1,Space,true,,,
html-keyboard-response,773,1975363,null,"LIZARD",null,word,,,,, 'LIZARD',,
html-keyboard-response,774,1975865,null,"SOCKET<img id = ""stim"" ><div class = red_square id = ""topsquare"" ></div><img id = ""stim"" ><div class = red_square  id = ""bottomsquare"" ></div>",null,word_square,response,0,none,true,,,
html-keyboard-response,775,1977367,null,"SOCKET",null,word,,,,, 'SOCKET',,
html-keyboard-response,776,1977662,294.12999999476597,"PORT<img id = ""stim"" ><div class = green_square id = ""topsquare"" ></div><img id = ""stim"" ><div class = green_square  id = ""bottomsquare"" ></div>",32,word_square,response,1,Space,true,,,
html-keyboard-response,777,1979165,null,"PORT",null,word,,,,, 'PORT',,
html-keyboard-response,778,1979398,231.42000002553686,"MAILMAN<img id = ""stim"" ><div class = green_square id = ""topsquare"" ></div><img id = ""stim"" ><div class = green_square  id = ""bottomsquare"" ></div>",32,word_square,response,1,Space,true,,,
html-keyboard-response,779,1980899,null,"MAILMAN",null,word,,,,, 'MAILMAN',,
html-keyboard-response,780,1981293,392.6699999719858,"BUBBLE<img id = ""stim"" ><div class = green_square id = ""topsquare"" ></div><img id = ""stim"" ><div class = green_square  id = ""bottomsquare"" ></div>",32,word_square,response,1,Space,true,,,
html-keyboard-response,781,1982795,null,"BUBBLE",null,word,,,,, 'BUBBLE',,
html-keyboard-response,782,1983298,null,"BUCKET<img id = ""stim"" ><div class = red_square id = ""topsquare"" ></div><img id = ""stim"" ><div class = red_square  id = ""bottomsquare"" ></div>",null,word_square,response,0,none,true,,,
html-keyboard-response,783,1984800,null,"BUCKET",null,word,,,,, 'BUCKET',,
html-keyboard-response,784,1985303,null,"SLACKS<img id = ""stim"" ><div class = red_square id = ""topsquare"" ></div><img id = ""stim"" ><div class = red_square  id = ""bottomsquare"" ></div>",null,word_square,response,0,none,true,,,
html-keyboard-response,785,1986805,null,"SLACKS",null,word,,,,, 'SLACKS',,
html-keyboard-response,786,1987238,431.20499997166917,"VIRUS<img id = ""stim"" ><div class = green_square id = ""topsquare"" ></div><img id = ""stim"" ><div class = green_square  id = ""bottomsquare"" ></div>",32,word_square,response,1,Space,true,,,
html-keyboard-response,787,1988740,null,"VIRUS",null,word,,,,, 'VIRUS',,
html-keyboard-response,788,1989243,null,"FOSSIL<img id = ""stim"" ><div class = red_square id = ""topsquare"" ></div><img id = ""stim"" ><div class = red_square  id = ""bottomsquare"" ></div>",null,word_square,response,0,none,true,,,
html-keyboard-response,789,1990744,null,"FOSSIL",null,word,,,,, 'FOSSIL',,
html-keyboard-response,790,1991022,277.01999997952953,"TRENCH<img id = ""stim"" ><div class = green_square id = ""topsquare"" ></div><img id = ""stim"" ><div class = green_square  id = ""bottomsquare"" ></div>",32,word_square,response,1,Space,true,,,
html-keyboard-response,791,1992524,null,"TRENCH",null,word,,,,, 'TRENCH',,
html-keyboard-response,792,1993026,null,"MUSTARD<img id = ""stim"" ><div class = red_square id = ""topsquare"" ></div><img id = ""stim"" ><div class = red_square  id = ""bottomsquare"" ></div>",null,word_square,response,0,none,true,,,
html-keyboard-response,793,1994529,null,"MUSTARD",null,word,,,,, 'MUSTARD',,
html-keyboard-response,794,1995031,null,"MONSTER<img id = ""stim"" ><div class = red_square id = ""topsquare"" ></div><img id = ""stim"" ><div class = red_square  id = ""bottomsquare"" ></div>",null,word_square,response,0,none,true,,,
html-keyboard-response,795,1996533,null,"MONSTER",null,word,,,,, 'MONSTER',,
html-keyboard-response,796,1996830,294.6249999804422,"BEAST<img id = ""stim"" ><div class = green_square id = ""topsquare"" ></div><img id = ""stim"" ><div class = green_square  id = ""bottomsquare"" ></div>",32,word_square,response,1,Space,true,,,
html-keyboard-response,797,1998331,null,"BEAST",null,word,,,,, 'BEAST',,
html-keyboard-response,798,1998773,440.50500000594184,"SKUNK<img id = ""stim"" ><div class = green_square id = ""topsquare"" ></div><img id = ""stim"" ><div class = green_square  id = ""bottomsquare"" ></div>",32,word_square,response,1,Space,true,,,
html-keyboard-response,799,2000275,null,"SKUNK",null,word,,,,, 'SKUNK',,
html-keyboard-response,800,2000777,null,"SLIDE<img id = ""stim"" ><div class = red_square id = ""topsquare"" ></div><img id = ""stim"" ><div class = red_square  id = ""bottomsquare"" ></div>",null,word_square,response,0,none,true,,,
html-keyboard-response,801,2002279,null,"SLIDE",null,word,,,,, 'SLIDE',,
html-keyboard-response,802,2002653,373.18500003311783,"SNAKE<img id = ""stim"" ><div class = green_square id = ""topsquare"" ></div><img id = ""stim"" ><div class = green_square  id = ""bottomsquare"" ></div>",32,word_square,response,1,Space,true,,,
html-keyboard-response,803,2004156,null,"SNAKE",null,word,,,,, 'SNAKE',,
call-function,804,2004157,,"",,,,,,,,,
html-keyboard-response,805,2004258,null,"",null,,,,,,,,
math-period,806,2006725,4506.174999929499,"",,,,,,,,,2
html-keyboard-response,807,2006838,null,"",null,,,,,,,,
math-period,808,2007901,1986.7900000535883,"",,,,,,,,,3
html-keyboard-response,809,2008004,null,"",null,,,,,,,,
math-period,810,2009853,3581.6699999850243,"",,,,,,,,,1
html-keyboard-response,811,2009965,null,"",null,,,,,,,,
math-period,812,2011029,2030.3599999751896,"",,,,,,,,,4
html-keyboard-response,813,2011130,null,"",null,,,,,,,,
math-period,814,2013573,4771.03000000352,"",,,,,,,,,2
html-keyboard-response,815,2013685,null,"",null,,,,,,,,
math-period,816,2014797,2099.965000001248,"",,,,,,,,,2
html-keyboard-response,817,2014898,null,"",null,,,,,,,,
math-period,818,2016117,2297.370000043884,"",,,,,,,,,4
html-keyboard-response,819,2016222,null,"",null,,,,,,,,
math-period,820,2017565,2568.9549999660812,"",,,,,,,,,5
html-keyboard-response,821,2017674,null,"",null,,,,,,,,
math-period,822,2018901,2321.7149999691173,"",,,,,,,,,5
html-keyboard-response,823,2019015,null,"",null,,,,,,,,
math-period,824,2020196,2264.355000050273,"",,,,,,,,,3
html-keyboard-response,825,2020299,null,"",null,,,,,,,,
math-period,826,2021549,2338.125000067521,"",,,,,,,,,3
html-keyboard-response,827,2021650,null,"",null,,,,,,,,
math-period,828,2023477,3530.205000017304,"",,,,,,,,,2
html-keyboard-response,829,2023579,null,"",null,,,,,,,,
math-period,830,2025685,4120.04499998875,"",,,,,,,,,1
html-keyboard-response,831,2025786,null,"",null,,,,,,,,
math-period,832,2028157,2360.7000000192784,"",,,,,,,,,5
html-keyboard-response,833,2029159,null,"Recall Period!",null,,,,,,,,
call-function,834,2029161,,"",,,,,,,,,
html-keyboard-response,835,2029262,null,"",null,,,,,,,,
recall-period,836,2037229,93598.76500046812,"",,,,,,,,,scarecrow
html-keyboard-response,837,2037344,null,"",null,,,,,,,,
recall-period,838,2038853,5337.4300001887605,"",,,,,,,,,lizard
html-keyboard-response,839,2038961,null,"",null,,,,,,,,
recall-period,840,2040613,7046.410000068136,"",,,,,,,,,beast
html-keyboard-response,841,2040714,null,"",null,,,,,,,,
recall-period,842,2043381,9640.405000012834,"",,,,,,,,,monster
html-keyboard-response,843,2043483,null,"",null,,,,,,,,
recall-period,844,2093868,347336.22000023024,"",,,,,,,,,trench
html-keyboard-response,845,2094018,null,"",null,,,,,,,,
recall-period,846,2104165,null,"",,,,,,,,,
html-keyboard-response,847,2104667,null,"Time's Up!",null,,,,,,,,
html-keyboard-response,848,2136316,31646.3399999775,"<p> Good job! You responded correctly to 93% of the GREEN squares.</p>
                  <p>Be sure to keep your accuracy above 80%</p>
                  <p>Press any key to continue the experiment. Thank you!</p>",13,,,,,,,,
html-keyboard-response,849,2148580,12262.745000014547,"<div style=""font-size:48px;"">Press any key to begin list 10 of 24 </div>",32,,,,,,,,
html-keyboard-response,850,2151085,null,"<div style=""font-size:60px;"">+</div>",null,,,,,,,,
html-keyboard-response,851,2151588,null,"RAILROAD<img id = ""stim"" ><div class = red_square id = ""topsquare"" ></div><img id = ""stim"" ><div class = red_square  id = ""bottomsquare"" ></div>",null,word_square,response,0,none,true,,,
html-keyboard-response,852,2153092,null,"RAILROAD",null,word,,,,, 'RAILROAD',,
html-keyboard-response,853,2153594,null,"LOFT<img id = ""stim"" ><div class = red_square id = ""topsquare"" ></div><img id = ""stim"" ><div class = red_square  id = ""bottomsquare"" ></div>",null,word_square,response,0,none,true,,,
html-keyboard-response,854,2155097,null,"LOFT",null,word,,,,, 'LOFT',,
html-keyboard-response,855,2155485,386.2749999971129,"SERVANT<img id = ""stim"" ><div class = green_square id = ""topsquare"" ></div><img id = ""stim"" ><div class = green_square  id = ""bottomsquare"" ></div>",32,word_square,response,1,Space,true,,,
html-keyboard-response,856,2156988,null,"SERVANT",null,word,,,,, 'SERVANT',,
html-keyboard-response,857,2157491,null,"POSTAGE<img id = ""stim"" ><div class = red_square id = ""topsquare"" ></div><img id = ""stim"" ><div class = red_square  id = ""bottomsquare"" ></div>",null,word_square,response,0,none,true,,,
html-keyboard-response,858,2158993,null,"POSTAGE",null,word,,,,, 'POSTAGE',,
html-keyboard-response,859,2159318,321.56499999109656,"CAPTIVE<img id = ""stim"" ><div class = green_square id = ""topsquare"" ></div><img id = ""stim"" ><div class = green_square  id = ""bottomsquare"" ></div>",32,word_square,response,1,Space,true,,,
html-keyboard-response,860,2160822,null,"CAPTIVE",null,word,,,,, 'CAPTIVE',,
html-keyboard-response,861,2161229,405.510000011418,"PATIENT<img id = ""stim"" ><div class = green_square id = ""topsquare"" ></div><img id = ""stim"" ><div class = green_square  id = ""bottomsquare"" ></div>",32,word_square,response,1,Space,true,,,
html-keyboard-response,862,2162732,null,"PATIENT",null,word,,,,, 'PATIENT',,
html-keyboard-response,863,2162989,256.0049999738112,"HAYSTACK<img id = ""stim"" ><div class = green_square id = ""topsquare"" ></div><img id = ""stim"" ><div class = green_square  id = ""bottomsquare"" ></div>",32,word_square,response,1,Space,true,,,
html-keyboard-response,864,2164492,null,"HAYSTACK",null,word,,,,, 'HAYSTACK',,
html-keyboard-response,865,2164995,null,"CAMEL<img id = ""stim"" ><div class = red_square id = ""topsquare"" ></div><img id = ""stim"" ><div class = red_square  id = ""bottomsquare"" ></div>",null,word_square,response,0,none,true,,,
html-keyboard-response,866,2166498,null,"CAMEL",null,word,,,,, 'CAMEL',,
html-keyboard-response,867,2167000,null,"CIGAR<img id = ""stim"" ><div class = red_square id = ""topsquare"" ></div><img id = ""stim"" ><div class = red_square  id = ""bottomsquare"" ></div>",null,word_square,response,0,none,true,,,
html-keyboard-response,868,2168502,null,"CIGAR",null,word,,,,, 'CIGAR',,
html-keyboard-response,869,2168781,276.9049999769777,"WINDSHIELD<img id = ""stim"" ><div class = green_square id = ""topsquare"" ></div><img id = ""stim"" ><div class = green_square  id = ""bottomsquare"" ></div>",32,word_square,response,1,Space,true,,,
html-keyboard-response,870,2170283,null,"WINDSHIELD",null,word,,,,, 'WINDSHIELD',,
html-keyboard-response,871,2170786,null,"ROBIN<img id = ""stim"" ><div class = red_square id = ""topsquare"" ></div><img id = ""stim"" ><div class = red_square  id = ""bottomsquare"" ></div>",null,word_square,response,0,none,true,,,
html-keyboard-response,872,2172288,null,"ROBIN",null,word,,,,, 'ROBIN',,
html-keyboard-response,873,2172605,315.4550000326708,"FIGHTER<img id = ""stim"" ><div class = green_square id = ""topsquare"" ></div><img id = ""stim"" ><div class = green_square  id = ""bottomsquare"" ></div>",32,word_square,response,1,Space,true,,,
html-keyboard-response,874,2174109,null,"FIGHTER",null,word,,,,, 'FIGHTER',,
html-keyboard-response,875,2174613,null,"WAIST<img id = ""stim"" ><div class = red_square id = ""topsquare"" ></div><img id = ""stim"" ><div class = red_square  id = ""bottomsquare"" ></div>",null,word_square,response,0,none,true,,,
html-keyboard-response,876,2176147,null,"WAIST",null,word,,,,, 'WAIST',,
html-keyboard-response,877,2176650,null,"SCAPEGOAT<img id = ""stim"" ><div class = red_square id = ""topsquare"" ></div><img id = ""stim"" ><div class = red_square  id = ""bottomsquare"" ></div>",null,word_square,response,0,none,true,,,
html-keyboard-response,878,2178153,null,"SCAPEGOAT",null,word,,,,, 'SCAPEGOAT',,
html-keyboard-response,879,2178485,330.1849999697879,"DORM<img id = ""stim"" ><div class = green_square id = ""topsquare"" ></div><img id = ""stim"" ><div class = green_square  id = ""bottomsquare"" ></div>",32,word_square,response,1,Space,true,,,
html-keyboard-response,880,2179987,null,"DORM",null,word,,,,, 'DORM',,
html-keyboard-response,881,2180324,335.6550000025891,"PLASTER<img id = ""stim"" ><div class = green_square id = ""topsquare"" ></div><img id = ""stim"" ><div class = green_square  id = ""bottomsquare"" ></div>",32,word_square,response,1,Space,true,,,
html-keyboard-response,882,2181826,null,"PLASTER",null,word,,,,, 'PLASTER',,
html-keyboard-response,883,2182329,null,"ZEBRA<img id = ""stim"" ><div class = red_square id = ""topsquare"" ></div><img id = ""stim"" ><div class = red_square  id = ""bottomsquare"" ></div>",null,word_square,response,0,none,true,,,
html-keyboard-response,884,2183831,null,"ZEBRA",null,word,,,,, 'ZEBRA',,
html-keyboard-response,885,2184252,419.3749999976717,"OX<img id = ""stim"" ><div class = green_square id = ""topsquare"" ></div><img id = ""stim"" ><div class = green_square  id = ""bottomsquare"" ></div>",32,word_square,response,1,Space,true,,,
html-keyboard-response,886,2185754,null,"OX",null,word,,,,, 'OX',,
call-function,887,2185756,,"",,,,,,,,,
html-keyboard-response,888,2185858,null,"",null,,,,,,,,
math-period,889,2190700,6104.670000029728,"",,,,,,,,,2
html-keyboard-response,890,2190803,null,"",null,,,,,,,,
math-period,891,2191876,1942.975000012666,"",,,,,,,,,3
html-keyboard-response,892,2191990,null,"",null,,,,,,,,
math-period,893,2193260,2361.044999968726,"",,,,,,,,,5
html-keyboard-response,894,2193371,null,"",null,,,,,,,,
math-period,895,2194676,2480.184999993071,"",,,,,,,,,5
html-keyboard-response,896,2194779,null,"",null,,,,,,,,
math-period,897,2196188,2598.3900000574067,"",,,,,,,,,6
html-keyboard-response,898,2196295,null,"",null,,,,,,,,
math-period,899,2197620,2534.7850000252947,"",,,,,,,,,4
html-keyboard-response,900,2197722,null,"",null,,,,,,,,
math-period,901,2198804,2072.6500000455417,"",,,,,,,,,4
html-keyboard-response,902,2198906,null,"",null,,,,,,,,
math-period,903,2199820,1663.509999983944,"",,,,,,,,,4
html-keyboard-response,904,2199922,null,"",null,,,,,,,,
math-period,905,2202004,4030.579999962356,"",,,,,,,,,2
html-keyboard-response,906,2202106,null,"",null,,,,,,,,
math-period,907,2203652,2929.165000037756,"",,,,,,,,,4
