trial_type,trial_index,time_elapsed,rt,stimulus,key_press,test_part,task,targ_cond,correctKeyCode,correct,word,value,response
pavlovia,0,800,,"",,,,,,,,,
external-html,1,6074,5133,"",,,,,,,,,
html-keyboard-response,2,7592,1513,"Welcome to the experiment. Press any key to begin.",32,,,,,,,,
html-keyboard-response,3,16823,9229,"<p>You will see a list of words and colored squares in the following task.<p><p>Press the spacebar whenever you see a red square.<p><p>Do not press a key if the square is green<p><p>Press the spacebar to continue.</p>",32,,,,,,,,
html-keyboard-response,4,26415,9088,"<p>Please try to remember as many of the words as you can, and try to think about the meaning of each word as it appears.<p><p>After the detection and encoding task you will be asked to solve some math problems for 24 seconds.<p> Please solve as many problems as you can in the time given. <p>",32,,,,,,,,
html-keyboard-response,5,36367,9448,"After solving the math problems, you will be asked to type in as many words <p>from the previous list as you can remember for 75 seconds.<p> If you finish recalling before the 75 seconds are up,<p> just sit tight and try to think of any more words you could have missed. <p><p>We will begin with a brief practice session<p>Press the spacebar to begin the practice.</p>",32,,,,,,,,
html-keyboard-response,6,38875,null,"<div style=""font-size:60px;"">+</div>",null,,,,,,,,
html-keyboard-response,7,39380,null,"HAPPY<img id = ""stim"" ><div class = green_square id = ""topsquare"" ></div><img id = ""stim"" ><div class = green_square  id = ""bottomsquare"" ></div>",null,word_square,prac_response,0,none,true,,,
html-keyboard-response,8,40884,null,"HAPPY",null,word,,,,,HAPPY,,
html-keyboard-response,9,41385,null,"COLD<img id = ""stim"" ><div class = red_square id = ""topsquare"" ></div><img id = ""stim"" ><div class = red_square  id = ""bottomsquare"" ></div>",null,word_square,prac_response,1,Space,false,,,
html-keyboard-response,10,42889,null,"COLD",null,word,,,,,COLD,,
html-keyboard-response,11,43391,null,"HEAVY<img id = ""stim"" ><div class = red_square id = ""topsquare"" ></div><img id = ""stim"" ><div class = red_square  id = ""bottomsquare"" ></div>",null,word_square,prac_response,1,Space,false,,,
html-keyboard-response,12,44898,null,"HEAVY",null,word,,,,,HEAVY,,
html-keyboard-response,13,45400,null,"FUNNY<img id = ""stim"" ><div class = green_square id = ""topsquare"" ></div><img id = ""stim"" ><div class = green_square  id = ""bottomsquare"" ></div>",null,word_square,prac_response,0,none,true,,,
html-keyboard-response,14,46903,null,"FUNNY",null,word,,,,,FUNNY,,
html-keyboard-response,15,47409,495,"SCARY<img id = ""stim"" ><div class = red_square id = ""topsquare"" ></div><img id = ""stim"" ><div class = red_square  id = ""bottomsquare"" ></div>",32,word_square,prac_response,1,Space,true,,,
html-keyboard-response,16,48912,null,"SCARY",null,word,,,,,SCARY,,
html-keyboard-response,17,49415,null,"PEACEFUL<img id = ""stim"" ><div class = red_square id = ""topsquare"" ></div><img id = ""stim"" ><div class = red_square  id = ""bottomsquare"" ></div>",null,word_square,prac_response,1,Space,false,,,
html-keyboard-response,18,50921,null,"PEACEFUL",null,word,,,,,PEACEFUL,,
html-keyboard-response,19,51426,null,"LITTLE<img id = ""stim"" ><div class = green_square id = ""topsquare"" ></div><img id = ""stim"" ><div class = green_square  id = ""bottomsquare"" ></div>",null,word_square,prac_response,0,none,true,,,
html-keyboard-response,20,52932,null,"LITTLE",null,word,,,,,LITTLE,,
html-keyboard-response,21,53434,null,"TIRED<img id = ""stim"" ><div class = green_square id = ""topsquare"" ></div><img id = ""stim"" ><div class = green_square  id = ""bottomsquare"" ></div>",null,word_square,prac_response,0,none,true,,,
html-keyboard-response,22,54941,null,"TIRED",null,word,,,,,TIRED,,
html-keyboard-response,23,55445,null,"ENTERTAINING<img id = ""stim"" ><div class = green_square id = ""topsquare"" ></div><img id = ""stim"" ><div class = green_square  id = ""bottomsquare"" ></div>",null,word_square,prac_response,0,none,true,,,
html-keyboard-response,24,56950,null,"ENTERTAINING",null,word,,,,,ENTERTAINING,,
html-keyboard-response,25,57454,391,"GRATEFUL<img id = ""stim"" ><div class = red_square id = ""topsquare"" ></div><img id = ""stim"" ><div class = red_square  id = ""bottomsquare"" ></div>",32,word_square,prac_response,1,Space,true,,,
html-keyboard-response,26,58960,null,"GRATEFUL",null,word,,,,,GRATEFUL,,
html-keyboard-response,27,59463,null,"LOUD<img id = ""stim"" ><div class = green_square id = ""topsquare"" ></div><img id = ""stim"" ><div class = green_square  id = ""bottomsquare"" ></div>",null,word_square,prac_response,0,none,true,,,
html-keyboard-response,28,60969,null,"LOUD",null,word,,,,,LOUD,,
html-keyboard-response,29,61474,485,"SMART<img id = ""stim"" ><div class = red_square id = ""topsquare"" ></div><img id = ""stim"" ><div class = red_square  id = ""bottomsquare"" ></div>",32,word_square,prac_response,1,Space,true,,,
html-keyboard-response,30,62978,null,"SMART",null,word,,,,,SMART,,
html-keyboard-response,31,63480,null,"SMOOTH<img id = ""stim"" ><div class = red_square id = ""topsquare"" ></div><img id = ""stim"" ><div class = red_square  id = ""bottomsquare"" ></div>",null,word_square,prac_response,1,Space,false,,,
html-keyboard-response,32,64986,null,"SMOOTH",null,word,,,,,SMOOTH,,
html-keyboard-response,33,65489,null,"DISHONEST<img id = ""stim"" ><div class = green_square id = ""topsquare"" ></div><img id = ""stim"" ><div class = green_square  id = ""bottomsquare"" ></div>",null,word_square,prac_response,0,none,true,,,
html-keyboard-response,34,66995,null,"DISHONEST",null,word,,,,,DISHONEST,,
html-keyboard-response,35,67498,387,"WEALTHY<img id = ""stim"" ><div class = red_square id = ""topsquare"" ></div><img id = ""stim"" ><div class = red_square  id = ""bottomsquare"" ></div>",32,word_square,prac_response,1,Space,true,,,
html-keyboard-response,36,69001,null,"WEALTHY",null,word,,,,,WEALTHY,,
html-keyboard-response,37,69506,null,"BEAUTIFUL<img id = ""stim"" ><div class = green_square id = ""topsquare"" ></div><img id = ""stim"" ><div class = green_square  id = ""bottomsquare"" ></div>",null,word_square,prac_response,0,none,true,,,
html-keyboard-response,38,71009,null,"BEAUTIFUL",null,word,,,,,BEAUTIFUL,,
html-keyboard-response,39,71517,null,"DREARY<img id = ""stim"" ><div class = green_square id = ""topsquare"" ></div><img id = ""stim"" ><div class = green_square  id = ""bottomsquare"" ></div>",null,word_square,prac_response,0,none,true,,,
html-keyboard-response,40,73023,null,"DREARY",null,word,,,,,DREARY,,
html-keyboard-response,41,73528,390,"PLAYFUL<img id = ""stim"" ><div class = red_square id = ""topsquare"" ></div><img id = ""stim"" ><div class = red_square  id = ""bottomsquare"" ></div>",32,word_square,prac_response,1,Space,true,,,
html-keyboard-response,42,75035,null,"PLAYFUL",null,word,,,,,PLAYFUL,,
html-keyboard-response,43,81033,5995,"<p> Uh oh. You responded correctly on 78% of the red squares.</p>
                  <p>We need you keep your accuracy above 80%</p>
                  <p>We're going to try once more to make sure you understand the task. press any key to continue.</p>",32,,,,,,,,
html-keyboard-response,44,83897,2862,"<p>You will see a list of words and colored squares in the following task.<p><p>Press the spacebar whenever you see a red square.<p><p>Do not press a key if the square is green<p><p>Press the spacebar to continue.</p>",32,,,,,,,,
html-keyboard-response,45,86405,null,"<div style=""font-size:60px;"">+</div>",null,,,,,,,,
html-keyboard-response,46,86909,null,"HAPPY<img id = ""stim"" ><div class = green_square id = ""topsquare"" ></div><img id = ""stim"" ><div class = green_square  id = ""bottomsquare"" ></div>",null,word_square,response,0,none,true,,,
html-keyboard-response,47,88413,null,"HAPPY",null,word,,,,,HAPPY,,
html-keyboard-response,48,88794,378,"COLD<img id = ""stim"" ><div class = red_square id = ""topsquare"" ></div><img id = ""stim"" ><div class = red_square  id = ""bottomsquare"" ></div>",32,word_square,response,1,Space,true,,,
html-keyboard-response,49,90296,null,"COLD",null,word,,,,,COLD,,
html-keyboard-response,50,90641,343,"HEAVY<img id = ""stim"" ><div class = red_square id = ""topsquare"" ></div><img id = ""stim"" ><div class = red_square  id = ""bottomsquare"" ></div>",32,word_square,response,1,Space,true,,,
html-keyboard-response,51,92146,null,"HEAVY",null,word,,,,,HEAVY,,
html-keyboard-response,52,92648,null,"FUNNY<img id = ""stim"" ><div class = green_square id = ""topsquare"" ></div><img id = ""stim"" ><div class = green_square  id = ""bottomsquare"" ></div>",null,word_square,response,0,none,true,,,
html-keyboard-response,53,94152,null,"FUNNY",null,word,,,,,FUNNY,,
html-keyboard-response,54,94512,360,"SCARY<img id = ""stim"" ><div class = red_square id = ""topsquare"" ></div><img id = ""stim"" ><div class = red_square  id = ""bottomsquare"" ></div>",32,word_square,response,1,Space,true,,,
html-keyboard-response,55,96018,null,"SCARY",null,word,,,,,SCARY,,
html-keyboard-response,56,96408,389,"PEACEFUL<img id = ""stim"" ><div class = red_square id = ""topsquare"" ></div><img id = ""stim"" ><div class = red_square  id = ""bottomsquare"" ></div>",32,word_square,response,1,Space,true,,,
html-keyboard-response,57,97911,null,"PEACEFUL",null,word,,,,,PEACEFUL,,
html-keyboard-response,58,98415,null,"LITTLE<img id = ""stim"" ><div class = green_square id = ""topsquare"" ></div><img id = ""stim"" ><div class = green_square  id = ""bottomsquare"" ></div>",null,word_square,response,0,none,true,,,
html-keyboard-response,59,99921,null,"LITTLE",null,word,,,,,LITTLE,,
html-keyboard-response,60,100427,null,"TIRED<img id = ""stim"" ><div class = green_square id = ""topsquare"" ></div><img id = ""stim"" ><div class = green_square  id = ""bottomsquare"" ></div>",null,word_square,response,0,none,true,,,
html-keyboard-response,61,101931,null,"TIRED",null,word,,,,,TIRED,,
html-keyboard-response,62,102437,null,"ENTERTAINING<img id = ""stim"" ><div class = green_square id = ""topsquare"" ></div><img id = ""stim"" ><div class = green_square  id = ""bottomsquare"" ></div>",null,word_square,response,0,none,true,,,
html-keyboard-response,63,103942,null,"ENTERTAINING",null,word,,,,,ENTERTAINING,,
html-keyboard-response,64,104334,390,"GRATEFUL<img id = ""stim"" ><div class = red_square id = ""topsquare"" ></div><img id = ""stim"" ><div class = red_square  id = ""bottomsquare"" ></div>",32,word_square,response,1,Space,true,,,
html-keyboard-response,65,105840,null,"GRATEFUL",null,word,,,,,GRATEFUL,,
html-keyboard-response,66,106346,null,"LOUD<img id = ""stim"" ><div class = green_square id = ""topsquare"" ></div><img id = ""stim"" ><div class = green_square  id = ""bottomsquare"" ></div>",null,word_square,response,0,none,true,,,
html-keyboard-response,67,107849,null,"LOUD",null,word,,,,,LOUD,,
html-keyboard-response,68,108219,369,"SMART<img id = ""stim"" ><div class = red_square id = ""topsquare"" ></div><img id = ""stim"" ><div class = red_square  id = ""bottomsquare"" ></div>",32,word_square,response,1,Space,true,,,
html-keyboard-response,69,109724,null,"SMART",null,word,,,,,SMART,,
html-keyboard-response,70,110099,373,"SMOOTH<img id = ""stim"" ><div class = red_square id = ""topsquare"" ></div><img id = ""stim"" ><div class = red_square  id = ""bottomsquare"" ></div>",32,word_square,response,1,Space,true,,,
html-keyboard-response,71,111602,null,"SMOOTH",null,word,,,,,SMOOTH,,
html-keyboard-response,72,112104,null,"DISHONEST<img id = ""stim"" ><div class = green_square id = ""topsquare"" ></div><img id = ""stim"" ><div class = green_square  id = ""bottomsquare"" ></div>",null,word_square,response,0,none,true,,,
html-keyboard-response,73,113607,null,"DISHONEST",null,word,,,,,DISHONEST,,
html-keyboard-response,74,114013,403,"WEALTHY<img id = ""stim"" ><div class = red_square id = ""topsquare"" ></div><img id = ""stim"" ><div class = red_square  id = ""bottomsquare"" ></div>",32,word_square,response,1,Space,true,,,
html-keyboard-response,75,115517,null,"WEALTHY",null,word,,,,,WEALTHY,,
html-keyboard-response,76,116023,null,"BEAUTIFUL<img id = ""stim"" ><div class = green_square id = ""topsquare"" ></div><img id = ""stim"" ><div class = green_square  id = ""bottomsquare"" ></div>",null,word_square,response,0,none,true,,,
html-keyboard-response,77,117526,null,"BEAUTIFUL",null,word,,,,,BEAUTIFUL,,
html-keyboard-response,78,118031,null,"DREARY<img id = ""stim"" ><div class = green_square id = ""topsquare"" ></div><img id = ""stim"" ><div class = green_square  id = ""bottomsquare"" ></div>",null,word_square,response,0,none,true,,,
html-keyboard-response,79,119534,null,"DREARY",null,word,,,,,DREARY,,
html-keyboard-response,80,119828,291,"PLAYFUL<img id = ""stim"" ><div class = red_square id = ""topsquare"" ></div><img id = ""stim"" ><div class = red_square  id = ""bottomsquare"" ></div>",32,word_square,response,1,Space,true,,,
html-keyboard-response,81,121332,null,"PLAYFUL",null,word,,,,,PLAYFUL,,
html-keyboard-response,82,126015,4681,"<p> Good job! You responded correctly to 100% of the red squares.</p>
                  <p>Be sure to keep your accuracy above 80%</p>
                  <p>Press any key to begin the math and recall sections. Thank you!</p>",32,,,,,,,,
call-function,83,126017,,"",,,,,,,,,
html-keyboard-response,84,126124,null,"",null,,,,,,,,
math-period,85,130513,8180,"",,,,,,,,,1
html-keyboard-response,86,130619,null,"",null,,,,,,,,
math-period,87,136154,10655,"",,,,,,,,,0
html-keyboard-response,88,136259,null,"",null,,,,,,,,
math-period,89,138242,3672,"",,,,,,,,,4
html-keyboard-response,90,138346,null,"",null,,,,,,,,
math-period,91,140625,4204,"",,,,,,,,,2
html-keyboard-response,92,140732,null,"",null,,,,,,,,
math-period,93,144983,8092,"",,,,,,,,,1
html-keyboard-response,94,145085,null,"",null,,,,,,,,
math-period,95,148223,5263,"",,,,,,,,,4
html-keyboard-response,96,148328,null,"",null,,,,,,,,
math-period,97,150023,1308,"",,,,,,,,,4
html-keyboard-response,98,151030,null,"Recall Period!",null,,,,,,,,
call-function,99,151031,,"",,,,,,,,,
html-keyboard-response,100,151133,null,"",null,,,,,,,,
recall-period,101,155775,22334,"",,,,,,,,,happy
html-keyboard-response,102,155877,null,"",null,,,,,,,,
recall-period,103,159031,10798,"",,,,,,,,,dreary
html-keyboard-response,104,159137,null,"",null,,,,,,,,
recall-period,105,161055,7618,"",,,,,,,,,joyful
html-keyboard-response,106,161160,null,"",null,,,,,,,,
recall-period,107,164119,12170,"",,,,,,,,,peaceful
html-keyboard-response,108,164226,null,"",null,,,,,,,,
recall-period,109,165320,3138,"",,,,,,,,,sad
html-keyboard-response,110,165422,null,"",null,,,,,,,,
recall-period,111,166568,3967,"",,,,,,,,,smart
html-keyboard-response,112,166673,null,"",null,,,,,,,,
recall-period,113,169151,15415,"",,,,,,,,,beautiful
html-keyboard-response,114,169254,null,"",null,,,,,,,,
recall-period,115,176905,68576,"",,,,,,,,,smooth
html-keyboard-response,116,177009,null,"",null,,,,,,,,
recall-period,117,181104,21888,"",,,,,,,,,little
html-keyboard-response,118,181209,null,"",null,,,,,,,,
recall-period,119,184312,16968,"",,,,,,,,,pretty
html-keyboard-response,120,184416,null,"",null,,,,,,,,
recall-period,121,189783,39186,"",,,,,,,,,grateful
html-keyboard-response,122,189887,null,"",null,,,,,,,,
recall-period,123,200449,226464,"",,,,,,,,,knowledgable
html-keyboard-response,124,200551,null,"",null,,,,,,,,
recall-period,125,212356,67027,"",,,,,,,,,nasty
html-keyboard-response,126,212460,null,"",null,,,,,,,,
recall-period,127,214820,8647,"",,,,,,,,,edgy
html-keyboard-response,128,214923,null,"",null,,,,,,,,
recall-period,129,218733,16450,"",,,,,,,,,perky
html-keyboard-response,130,218835,null,"",null,,,,,,,,
recall-period,131,222920,18105,"",,,,,,,,,loud
html-keyboard-response,132,223027,null,"",null,,,,,,,,
recall-period,133,224968,9228,"",,,,,,,,,great
html-keyboard-response,134,225074,null,"",null,,,,,,,,
recall-period,135,226036,null,"",,,,,,,,,
html-keyboard-response,136,226540,null,"Time's Up!",null,,,,,,,,
html-keyboard-response,137,226608,67,"<p>We will now begin the experiment!<p><p>Please try to remember all words from each list.<p><p>Press the spacebar whenever you see a red square.<p><p><p><p>Press the spacebar to begin.</p>",65,,,,,,,,
html-keyboard-response,138,230353,3238,"<div style=""font-size:48px;"">Press any key to begin list 1 of 24 </div>",13,,,,,,,,
html-keyboard-response,139,232860,null,"<div style=""font-size:60px;"">+</div>",null,,,,,,,,
html-keyboard-response,140,233273,410,"SAPPHIRE<img id = ""stim"" ><div class = red_square id = ""topsquare"" ></div><img id = ""stim"" ><div class = red_square  id = ""bottomsquare"" ></div>",32,word_square,response,1,Space,true,,,
html-keyboard-response,141,234779,null,"SAPPHIRE",null,word,,,,, 'SAPPHIRE',,
html-keyboard-response,142,235185,403,"BEAVER<img id = ""stim"" ><div class = red_square id = ""topsquare"" ></div><img id = ""stim"" ><div class = red_square  id = ""bottomsquare"" ></div>",32,word_square,response,1,Space,true,,,
html-keyboard-response,143,236689,null,"BEAVER",null,word,,,,, 'BEAVER',,
html-keyboard-response,144,237194,null,"CHILD<img id = ""stim"" ><div class = green_square id = ""topsquare"" ></div><img id = ""stim"" ><div class = green_square  id = ""bottomsquare"" ></div>",null,word_square,response,0,none,true,,,
html-keyboard-response,145,238698,null,"CHILD",null,word,,,,, 'CHILD',,
html-keyboard-response,146,239111,412,"INFANT<img id = ""stim"" ><div class = red_square id = ""topsquare"" ></div><img id = ""stim"" ><div class = red_square  id = ""bottomsquare"" ></div>",32,word_square,response,1,Space,true,,,
html-keyboard-response,147,240613,null,"INFANT",null,word,,,,, 'INFANT',,
html-keyboard-response,148,241118,null,"JAPAN<img id = ""stim"" ><div class = green_square id = ""topsquare"" ></div><img id = ""stim"" ><div class = green_square  id = ""bottomsquare"" ></div>",null,word_square,response,0,none,true,,,
html-keyboard-response,149,242622,null,"JAPAN",null,word,,,,, 'JAPAN',,
html-keyboard-response,150,243126,null,"COUNTY<img id = ""stim"" ><div class = green_square id = ""topsquare"" ></div><img id = ""stim"" ><div class = green_square  id = ""bottomsquare"" ></div>",null,word_square,response,0,none,true,,,
html-keyboard-response,151,244630,null,"COUNTY",null,word,,,,, 'COUNTY',,
html-keyboard-response,152,244990,358,"AUTHOR<img id = ""stim"" ><div class = red_square id = ""topsquare"" ></div><img id = ""stim"" ><div class = red_square  id = ""bottomsquare"" ></div>",32,word_square,response,1,Space,true,,,
html-keyboard-response,153,246493,null,"AUTHOR",null,word,,,,, 'AUTHOR',,
html-keyboard-response,154,246996,null,"JUNGLE<img id = ""stim"" ><div class = green_square id = ""topsquare"" ></div><img id = ""stim"" ><div class = green_square  id = ""bottomsquare"" ></div>",null,word_square,response,0,none,true,,,
html-keyboard-response,155,248499,null,"JUNGLE",null,word,,,,, 'JUNGLE',,
html-keyboard-response,156,248881,381,"SHINGLE<img id = ""stim"" ><div class = red_square id = ""topsquare"" ></div><img id = ""stim"" ><div class = red_square  id = ""bottomsquare"" ></div>",32,word_square,response,1,Space,true,,,
html-keyboard-response,157,250383,null,"SHINGLE",null,word,,,,, 'SHINGLE',,
html-keyboard-response,158,250793,408,"NEWSSTAND<img id = ""stim"" ><div class = red_square id = ""topsquare"" ></div><img id = ""stim"" ><div class = red_square  id = ""bottomsquare"" ></div>",32,word_square,response,1,Space,true,,,
html-keyboard-response,159,252296,null,"NEWSSTAND",null,word,,,,, 'NEWSSTAND',,
html-keyboard-response,160,252797,null,"QUAIL<img id = ""stim"" ><div class = green_square id = ""topsquare"" ></div><img id = ""stim"" ><div class = green_square  id = ""bottomsquare"" ></div>",null,word_square,response,0,none,true,,,
html-keyboard-response,161,254301,null,"QUAIL",null,word,,,,, 'QUAIL',,
html-keyboard-response,162,254807,null,"FRAGRANCE<img id = ""stim"" ><div class = green_square id = ""topsquare"" ></div><img id = ""stim"" ><div class = green_square  id = ""bottomsquare"" ></div>",null,word_square,response,0,none,true,,,
html-keyboard-response,163,256310,null,"FRAGRANCE",null,word,,,,, 'FRAGRANCE',,
html-keyboard-response,164,256682,371,"PERFUME<img id = ""stim"" ><div class = red_square id = ""topsquare"" ></div><img id = ""stim"" ><div class = red_square  id = ""bottomsquare"" ></div>",32,word_square,response,1,Space,true,,,
html-keyboard-response,165,258188,null,"PERFUME",null,word,,,,, 'PERFUME',,
html-keyboard-response,166,258693,null,"BATHTUB<img id = ""stim"" ><div class = green_square id = ""topsquare"" ></div><img id = ""stim"" ><div class = green_square  id = ""bottomsquare"" ></div>",null,word_square,response,0,none,true,,,
html-keyboard-response,167,260199,null,"BATHTUB",null,word,,,,, 'BATHTUB',,
html-keyboard-response,168,260535,334,"CARTON<img id = ""stim"" ><div class = red_square id = ""topsquare"" ></div><img id = ""stim"" ><div class = red_square  id = ""bottomsquare"" ></div>",32,word_square,response,1,Space,true,,,
html-keyboard-response,169,262040,null,"CARTON",null,word,,,,, 'CARTON',,
html-keyboard-response,170,262545,null,"BULLET<img id = ""stim"" ><div class = green_square id = ""topsquare"" ></div><img id = ""stim"" ><div class = green_square  id = ""bottomsquare"" ></div>",null,word_square,response,0,none,true,,,
html-keyboard-response,171,264048,null,"BULLET",null,word,,,,, 'BULLET',,
html-keyboard-response,172,264551,null,"PIRATE<img id = ""stim"" ><div class = green_square id = ""topsquare"" ></div><img id = ""stim"" ><div class = green_square  id = ""bottomsquare"" ></div>",null,word_square,response,0,none,true,,,
html-keyboard-response,173,266054,null,"PIRATE",null,word,,,,, 'PIRATE',,
html-keyboard-response,174,266415,358,"FOREHEAD<img id = ""stim"" ><div class = red_square id = ""topsquare"" ></div><img id = ""stim"" ><div class = red_square  id = ""bottomsquare"" ></div>",32,word_square,response,1,Space,true,,,
html-keyboard-response,175,267920,null,"FOREHEAD",null,word,,,,, 'FOREHEAD',,
call-function,176,267921,,"",,,,,,,,,
html-keyboard-response,177,268027,null,"",null,,,,,,,,
math-period,178,272298,8178,"",,,,,,,,,3
html-keyboard-response,179,272404,null,"",null,,,,,,,,
math-period,180,274162,3192,"",,,,,,,,,3
html-keyboard-response,181,274268,null,"",null,,,,,,,,
math-period,182,276178,3528,"",,,,,,,,,6
html-keyboard-response,183,276284,null,"",null,,,,,,,,
math-period,184,278579,4328,"",,,,,,,,,2
html-keyboard-response,185,278685,null,"",null,,,,,,,,
math-period,186,280442,3166,"",,,,,,,,,6
html-keyboard-response,187,280547,null,"",null,,,,,,,,
math-period,188,282938,4476,"",,,,,,,,,0
html-keyboard-response,189,283045,null,"",null,,,,,,,,
math-period,190,284731,2998,"",,,,,,,,,5
html-keyboard-response,191,284835,null,"",null,,,,,,,,
math-period,192,286683,3381,"",,,,,,,,,1
html-keyboard-response,193,286787,null,"",null,,,,,,,,
math-period,194,288883,3956,"",,,,,,,,,2
html-keyboard-response,195,288986,null,"",null,,,,,,,,
math-period,196,290515,2727,"",,,,,,,,,4
html-keyboard-response,197,290619,null,"",null,,,,,,,,
math-period,198,291851,2180,"",,,,,,,,,3
html-keyboard-response,199,291953,null,"",null,,,,,,,,
math-period,200,291955,null,"",,,,,,,,,
html-keyboard-response,201,292958,null,"Recall Period!",null,,,,,,,,
call-function,202,292959,,"",,,,,,,,,
html-keyboard-response,203,293061,null,"",null,,,,,,,,
recall-period,204,295019,11259,"",,,,,,,,,forehead
html-keyboard-response,205,295123,null,"",null,,,,,,,,
recall-period,206,296811,7210,"",,,,,,,,,pirate
html-keyboard-response,207,296915,null,"",null,,,,,,,,
recall-period,208,298363,5635,"",,,,,,,,,bullet
html-keyboard-response,209,298467,null,"",null,,,,,,,,
recall-period,210,305478,51496,"",,,,,,,,,carton
html-keyboard-response,211,305584,null,"",null,,,,,,,,
recall-period,212,308451,13871,"",,,,,,,,,quail
html-keyboard-response,213,308556,null,"",null,,,,,,,,
recall-period,214,313788,41054,"",,,,,,,,,sapphire
html-keyboard-response,215,313891,null,"",null,,,,,,,,
recall-period,216,324487,69982,"",,,,,,,,,jungle
html-keyboard-response,217,324593,null,"",null,,,,,,,,
recall-period,218,333216,62848,"",,,,,,,,,bathtub
html-keyboard-response,219,333319,null,"",null,,,,,,,,
recall-period,220,344069,101112,"",,,,,,,,,fireplace
html-keyboard-response,221,344171,null,"",null,,,,,,,,
recall-period,222,367963,null,"",,,,,,,,,
html-keyboard-response,223,368468,null,"Time's Up!",null,,,,,,,,
html-keyboard-response,224,393951,25479,"<p> Good job! You responded correctly to 100% of the red squares.</p>
                  <p>Be sure to keep your accuracy above 80%</p>
                  <p>Press any key to continue the experiment. Thank you!</p>",13,,,,,,,,
html-keyboard-response,225,395670,1718,"<div style=""font-size:48px;"">Press any key to begin list 2 of 24 </div>",32,,,,,,,,
html-keyboard-response,226,398179,null,"<div style=""font-size:60px;"">+</div>",null,,,,,,,,
html-keyboard-response,227,398655,473,"AIRCRAFT<img id = ""stim"" ><div class = red_square id = ""topsquare"" ></div><img id = ""stim"" ><div class = red_square  id = ""bottomsquare"" ></div>",32,word_square,response,1,Space,true,,,
html-keyboard-response,228,400159,null,"AIRCRAFT",null,word,,,,, 'AIRCRAFT',,
html-keyboard-response,229,400654,494,"STONE<img id = ""stim"" ><div class = red_square id = ""topsquare"" ></div><img id = ""stim"" ><div class = red_square  id = ""bottomsquare"" ></div>",32,word_square,response,1,Space,true,,,
html-keyboard-response,230,402159,null,"STONE",null,word,,,,, 'STONE',,
html-keyboard-response,231,402664,null,"NEUTRON<img id = ""stim"" ><div class = green_square id = ""topsquare"" ></div><img id = ""stim"" ><div class = green_square  id = ""bottomsquare"" ></div>",null,word_square,response,0,none,true,,,
html-keyboard-response,232,404170,null,"NEUTRON",null,word,,,,, 'NEUTRON',,
html-keyboard-response,233,404636,463,"BRIEFCASE<img id = ""stim"" ><div class = red_square id = ""topsquare"" ></div><img id = ""stim"" ><div class = red_square  id = ""bottomsquare"" ></div>",32,word_square,response,1,Space,true,,,
html-keyboard-response,234,406141,null,"BRIEFCASE",null,word,,,,, 'BRIEFCASE',,
html-keyboard-response,235,406643,null,"BLOCKADE<img id = ""stim"" ><div class = green_square id = ""topsquare"" ></div><img id = ""stim"" ><div class = green_square  id = ""bottomsquare"" ></div>",null,word_square,response,0,none,true,,,
html-keyboard-response,236,408147,null,"BLOCKADE",null,word,,,,, 'BLOCKADE',,
html-keyboard-response,237,408649,null,"PROTON<img id = ""stim"" ><div class = green_square id = ""topsquare"" ></div><img id = ""stim"" ><div class = green_square  id = ""bottomsquare"" ></div>",null,word_square,response,0,none,true,,,
html-keyboard-response,238,410153,null,"PROTON",null,word,,,,, 'PROTON',,
html-keyboard-response,239,410578,423,"ATOM<img id = ""stim"" ><div class = red_square id = ""topsquare"" ></div><img id = ""stim"" ><div class = red_square  id = ""bottomsquare"" ></div>",32,word_square,response,1,Space,true,,,
html-keyboard-response,240,412083,null,"ATOM",null,word,,,,, 'ATOM',,
html-keyboard-response,241,412588,null,"OFFICE<img id = ""stim"" ><div class = green_square id = ""topsquare"" ></div><img id = ""stim"" ><div class = green_square  id = ""bottomsquare"" ></div>",null,word_square,response,0,none,true,,,
html-keyboard-response,242,414091,null,"OFFICE",null,word,,,,, 'OFFICE',,
html-keyboard-response,243,414472,378,"KLEENEX<img id = ""stim"" ><div class = red_square id = ""topsquare"" ></div><img id = ""stim"" ><div class = red_square  id = ""bottomsquare"" ></div>",32,word_square,response,1,Space,true,,,
html-keyboard-response,244,415975,null,"KLEENEX",null,word,,,,, 'KLEENEX',,
html-keyboard-response,245,416456,479,"PEOPLE<img id = ""stim"" ><div class = red_square id = ""topsquare"" ></div><img id = ""stim"" ><div class = red_square  id = ""bottomsquare"" ></div>",32,word_square,response,1,Space,true,,,
html-keyboard-response,246,417961,null,"PEOPLE",null,word,,,,, 'PEOPLE',,
html-keyboard-response,247,418465,null,"BLOSSOM<img id = ""stim"" ><div class = green_square id = ""topsquare"" ></div><img id = ""stim"" ><div class = green_square  id = ""bottomsquare"" ></div>",null,word_square,response,0,none,true,,,
html-keyboard-response,248,419969,null,"BLOSSOM",null,word,,,,, 'BLOSSOM',,
html-keyboard-response,249,420471,null,"APRON<img id = ""stim"" ><div class = green_square id = ""topsquare"" ></div><img id = ""stim"" ><div class = green_square  id = ""bottomsquare"" ></div>",null,word_square,response,0,none,true,,,
html-keyboard-response,250,421977,null,"APRON",null,word,,,,, 'APRON',,
html-keyboard-response,251,422361,382,"DUST<img id = ""stim"" ><div class = red_square id = ""topsquare"" ></div><img id = ""stim"" ><div class = red_square  id = ""bottomsquare"" ></div>",32,word_square,response,1,Space,true,,,
html-keyboard-response,252,423867,null,"DUST",null,word,,,,, 'DUST',,
html-keyboard-response,253,424372,null,"PRAIRIE<img id = ""stim"" ><div class = green_square id = ""topsquare"" ></div><img id = ""stim"" ><div class = green_square  id = ""bottomsquare"" ></div>",null,word_square,response,0,none,true,,,
html-keyboard-response,254,425879,null,"PRAIRIE",null,word,,,,, 'PRAIRIE',,
html-keyboard-response,255,426283,403,"SCARF<img id = ""stim"" ><div class = red_square id = ""topsquare"" ></div><img id = ""stim"" ><div class = red_square  id = ""bottomsquare"" ></div>",32,word_square,response,1,Space,true,,,
html-keyboard-response,256,427786,null,"SCARF",null,word,,,,, 'SCARF',,
html-keyboard-response,257,428291,null,"STAIRS<img id = ""stim"" ><div class = green_square id = ""topsquare"" ></div><img id = ""stim"" ><div class = green_square  id = ""bottomsquare"" ></div>",null,word_square,response,0,none,true,,,
html-keyboard-response,258,429794,null,"STAIRS",null,word,,,,, 'STAIRS',,
html-keyboard-response,259,430300,null,"MONKEY<img id = ""stim"" ><div class = green_square id = ""topsquare"" ></div><img id = ""stim"" ><div class = green_square  id = ""bottomsquare"" ></div>",null,word_square,response,0,none,true,,,
html-keyboard-response,260,431805,null,"MONKEY",null,word,,,,, 'MONKEY',,
html-keyboard-response,261,432253,445,"CHEMIST<img id = ""stim"" ><div class = red_square id = ""topsquare"" ></div><img id = ""stim"" ><div class = red_square  id = ""bottomsquare"" ></div>",32,word_square,response,1,Space,true,,,
html-keyboard-response,262,433758,null,"CHEMIST",null,word,,,,, 'CHEMIST',,
call-function,263,433758,,"",,,,,,,,,
html-keyboard-response,264,433861,null,"",null,,,,,,,,
math-period,265,436105,4119,"",,,,,,,,,1
html-keyboard-response,266,436211,null,"",null,,,,,,,,
math-period,267,437817,2897,"",,,,,,,,,1
html-keyboard-response,268,437920,null,"",null,,,,,,,,
math-period,269,439482,2799,"",,,,,,,,,3
html-keyboard-response,270,439584,null,"",null,,,,,,,,
math-period,271,441041,2615,"",,,,,,,,,1
html-keyboard-response,272,441146,null,"",null,,,,,,,,
math-period,273,442433,2252,"",,,,,,,,,3
html-keyboard-response,274,442538,null,"",null,,,,,,,,
math-period,275,445378,5451,"",,,,,,,,,3
html-keyboard-response,276,445482,null,"",null,,,,,,,,
math-period,277,446922,2625,"",,,,,,,,,5
html-keyboard-response,278,447026,null,"",null,,,,,,,,
math-period,279,448249,2241,"",,,,,,,,,3
html-keyboard-response,280,448353,null,"",null,,,,,,,,
math-period,281,449250,1572,"",,,,,,,,,3
html-keyboard-response,282,449355,null,"",null,,,,,,,,
math-period,283,452170,5324,"",,,,,,,,,1
html-keyboard-response,284,452274,null,"",null,,,,,,,,
math-period,285,454937,4995,"",,,,,,,,,0
html-keyboard-response,286,455043,null,"",null,,,,,,,,
math-period,287,456274,2265,"",,,,,,,,,4
html-keyboard-response,288,456376,null,"",null,,,,,,,,
math-period,289,457761,null,"",,,,,,,,,
html-keyboard-response,290,458766,null,"Recall Period!",null,,,,,,,,
call-function,291,458767,,"",,,,,,,,,
html-keyboard-response,292,458872,null,"",null,,,,,,,,
recall-period,293,460986,12063,"",,,,,,,,,chemist
html-keyboard-response,294,461089,null,"",null,,,,,,,,
recall-period,295,462578,5705,"",,,,,,,,,monkey
html-keyboard-response,296,462683,null,"",null,,,,,,,,
recall-period,297,464283,5377,"",,,,,,,,,stairs
html-keyboard-response,298,464387,null,"",null,,,,,,,,
recall-period,299,465995,4268,"",,,,,,,,,scarf
html-keyboard-response,300,466100,null,"",null,,,,,,,,
recall-period,301,467882,7850,"",,,,,,,,,proton
html-keyboard-response,302,467989,null,"",null,,,,,,,,
recall-period,303,469570,5540,"",,,,,,,,,atom
html-keyboard-response,304,469672,null,"",null,,,,,,,,
recall-period,305,471234,6843,"",,,,,,,,,neutron
html-keyboard-response,306,471339,null,"",null,,,,,,,,
recall-period,307,484992,104855,"",,,,,,,,,chemist
html-keyboard-response,308,485097,null,"",null,,,,,,,,
recall-period,309,504515,223856,"",,,,,,,,,prairie
html-keyboard-response,310,504620,null,"",null,,,,,,,,
recall-period,311,521189,111623,"",,,,,,,,,closet
html-keyboard-response,312,521295,null,"",null,,,,,,,,
recall-period,313,531355,67360,"",,,,,,,,,flower
html-keyboard-response,314,531460,null,"",null,,,,,,,,
recall-period,315,533770,null,"",,,,,,,,,
html-keyboard-response,316,534276,null,"Time's Up!",null,,,,,,,,
html-keyboard-response,317,536583,2306,"<p> Good job! You responded correctly to 100% of the red squares.</p>
                  <p>Be sure to keep your accuracy above 80%</p>
                  <p>Press any key to continue the experiment. Thank you!</p>",13,,,,,,,,
html-keyboard-response,318,537456,871,"<div style=""font-size:48px;"">Press any key to begin list 3 of 24 </div>",32,,,,,,,,
html-keyboard-response,319,539965,null,"<div style=""font-size:60px;"">+</div>",null,,,,,,,,
html-keyboard-response,320,540466,null,"ADULT<img id = ""stim"" ><div class = green_square id = ""topsquare"" ></div><img id = ""stim"" ><div class = green_square  id = ""bottomsquare"" ></div>",null,word_square,response,0,none,true,,,
html-keyboard-response,321,541974,null,"ADULT",null,word,,,,, 'ADULT',,
html-keyboard-response,322,542478,null,"SCALLOP<img id = ""stim"" ><div class = green_square id = ""topsquare"" ></div><img id = ""stim"" ><div class = green_square  id = ""bottomsquare"" ></div>",null,word_square,response,0,none,true,,,
html-keyboard-response,323,543981,null,"SCALLOP",null,word,,,,, 'SCALLOP',,
html-keyboard-response,324,544411,427,"ZEBRA<img id = ""stim"" ><div class = red_square id = ""topsquare"" ></div><img id = ""stim"" ><div class = red_square  id = ""bottomsquare"" ></div>",32,word_square,response,1,Space,true,,,
html-keyboard-response,325,545915,null,"ZEBRA",null,word,,,,, 'ZEBRA',,
html-keyboard-response,326,546420,null,"SUBWAY<img id = ""stim"" ><div class = green_square id = ""topsquare"" ></div><img id = ""stim"" ><div class = green_square  id = ""bottomsquare"" ></div>",null,word_square,response,0,none,true,,,
html-keyboard-response,327,547923,null,"SUBWAY",null,word,,,,, 'SUBWAY',,
html-keyboard-response,328,548368,442,"SNACK<img id = ""stim"" ><div class = red_square id = ""topsquare"" ></div><img id = ""stim"" ><div class = red_square  id = ""bottomsquare"" ></div>",32,word_square,response,1,Space,true,,,
html-keyboard-response,329,549871,null,"SNACK",null,word,,,,, 'SNACK',,
html-keyboard-response,330,550328,454,"SEAFOOD<img id = ""stim"" ><div class = red_square id = ""topsquare"" ></div><img id = ""stim"" ><div class = red_square  id = ""bottomsquare"" ></div>",32,word_square,response,1,Space,true,,,
html-keyboard-response,331,551829,null,"SEAFOOD",null,word,,,,, 'SEAFOOD',,
html-keyboard-response,332,552332,null,"CONCRETE<img id = ""stim"" ><div class = green_square id = ""topsquare"" ></div><img id = ""stim"" ><div class = green_square  id = ""bottomsquare"" ></div>",null,word_square,response,0,none,true,,,
html-keyboard-response,333,553836,null,"CONCRETE",null,word,,,,, 'CONCRETE',,
html-keyboard-response,334,554264,426,"COLUMN<img id = ""stim"" ><div class = red_square id = ""topsquare"" ></div><img id = ""stim"" ><div class = red_square  id = ""bottomsquare"" ></div>",32,word_square,response,1,Space,true,,,
html-keyboard-response,335,555768,null,"COLUMN",null,word,,,,, 'COLUMN',,
html-keyboard-response,336,556275,null,"CREATURE<img id = ""stim"" ><div class = green_square id = ""topsquare"" ></div><img id = ""stim"" ><div class = green_square  id = ""bottomsquare"" ></div>",null,word_square,response,0,none,true,,,
html-keyboard-response,337,557781,null,"CREATURE",null,word,,,,, 'CREATURE',,
html-keyboard-response,338,558283,null,"ORGAN<img id = ""stim"" ><div class = green_square id = ""topsquare"" ></div><img id = ""stim"" ><div class = green_square  id = ""bottomsquare"" ></div>",null,word_square,response,0,none,true,,,
html-keyboard-response,339,559789,null,"ORGAN",null,word,,,,, 'ORGAN',,
html-keyboard-response,340,560295,null,"CANAL<img id = ""stim"" ><div class = red_square id = ""topsquare"" ></div><img id = ""stim"" ><div class = red_square  id = ""bottomsquare"" ></div>",null,word_square,response,1,Space,false,,,
html-keyboard-response,341,561798,null,"CANAL",null,word,,,,, 'CANAL',,
html-keyboard-response,342,562259,459,"ISLAND<img id = ""stim"" ><div class = red_square id = ""topsquare"" ></div><img id = ""stim"" ><div class = red_square  id = ""bottomsquare"" ></div>",32,word_square,response,1,Space,true,,,
html-keyboard-response,343,563762,null,"ISLAND",null,word,,,,, 'ISLAND',,
html-keyboard-response,344,564264,null,"CRAB<img id = ""stim"" ><div class = green_square id = ""topsquare"" ></div><img id = ""stim"" ><div class = green_square  id = ""bottomsquare"" ></div>",null,word_square,response,0,none,true,,,
html-keyboard-response,345,565771,null,"CRAB",null,word,,,,, 'CRAB',,
html-keyboard-response,346,566156,383,"DRAGON<img id = ""stim"" ><div class = red_square id = ""topsquare"" ></div><img id = ""stim"" ><div class = red_square  id = ""bottomsquare"" ></div>",32,word_square,response,1,Space,true,,,
html-keyboard-response,347,567661,null,"DRAGON",null,word,,,,, 'DRAGON',,
html-keyboard-response,348,568164,null,"SLUG<img id = ""stim"" ><div class = green_square id = ""topsquare"" ></div><img id = ""stim"" ><div class = green_square  id = ""bottomsquare"" ></div>",null,word_square,response,0,none,true,,,
html-keyboard-response,349,569667,null,"SLUG",null,word,,,,, 'SLUG',,
html-keyboard-response,350,570072,402,"GAZELLE<img id = ""stim"" ><div class = red_square id = ""topsquare"" ></div><img id = ""stim"" ><div class = red_square  id = ""bottomsquare"" ></div>",32,word_square,response,1,Space,true,,,
html-keyboard-response,351,571577,null,"GAZELLE",null,word,,,,, 'GAZELLE',,
html-keyboard-response,352,571967,390,"BASEBALL<img id = ""stim"" ><div class = red_square id = ""topsquare"" ></div><img id = ""stim"" ><div class = red_square  id = ""bottomsquare"" ></div>",32,word_square,response,1,Space,true,,,
html-keyboard-response,353,573472,null,"BASEBALL",null,word,,,,, 'BASEBALL',,
html-keyboard-response,354,573974,null,"FROG<img id = ""stim"" ><div class = green_square id = ""topsquare"" ></div><img id = ""stim"" ><div class = green_square  id = ""bottomsquare"" ></div>",null,word_square,response,0,none,true,,,
html-keyboard-response,355,575480,null,"FROG",null,word,,,,, 'FROG',,
call-function,356,575482,,"",,,,,,,,,
html-keyboard-response,357,575588,null,"",null,,,,,,,,
math-period,358,577750,3751,"",,,,,,,,,3
html-keyboard-response,359,577854,null,"",null,,,,,,,,
math-period,360,579077,2130,"",,,,,,,,,2
html-keyboard-response,361,579181,null,"",null,,,,,,,,
math-period,362,580677,2676,"",,,,,,,,,2
html-keyboard-response,363,580779,null,"",null,,,,,,,,
math-period,364,582941,3831,"",,,,,,,,,5
html-keyboard-response,365,583045,null,"",null,,,,,,,,
math-period,366,585637,4942,"",,,,,,,,,3
html-keyboard-response,367,585740,null,"",null,,,,,,,,
math-period,368,587357,2864,"",,,,,,,,,1
html-keyboard-response,369,587459,null,"",null,,,,,,,,
math-period,370,588973,2720,"",,,,,,,,,4
html-keyboard-response,371,589079,null,"",null,,,,,,,,
math-period,372,590638,2823,"",,,,,,,,,1
html-keyboard-response,373,590740,null,"",null,,,,,,,,
math-period,374,593133,4422,"",,,,,,,,,4
html-keyboard-response,375,593236,null,"",null,,,,,,,,
math-period,376,595813,4766,"",,,,,,,,,5
html-keyboard-response,377,595917,null,"",null,,,,,,,,
math-period,378,597542,2836,"",,,,,,,,,3
html-keyboard-response,379,597647,null,"",null,,,,,,,,
math-period,380,599189,2680,"",,,,,,,,,5
html-keyboard-response,381,599296,null,"",null,,,,,,,,
math-period,382,599485,null,"",,,,,,,,,
html-keyboard-response,383,600490,null,"Recall Period!",null,,,,,,,,
call-function,384,600490,,"",,,,,,,,,
html-keyboard-response,385,600596,null,"",null,,,,,,,,
recall-period,386,602838,11511,"",,,,,,,,,gorilla
html-keyboard-response,387,602941,null,"",null,,,,,,,,
recall-period,388,603861,2510,"",,,,,,,,,slug
html-keyboard-response,389,603966,null,"",null,,,,,,,,
recall-period,390,605030,4323,"",,,,,,,,,island
html-keyboard-response,391,605136,null,"",null,,,,,,,,
recall-period,392,606630,6747,"",,,,,,,,,baseball
html-keyboard-response,393,606732,null,"",null,,,,,,,,
recall-period,394,609438,19544,"",,,,,,,,,creature
html-keyboard-response,395,609542,null,"",null,,,,,,,,
recall-period,396,610894,3805,"",,,,,,,,,canal
html-keyboard-response,397,610999,null,"",null,,,,,,,,
recall-period,398,613871,17167,"",,,,,,,,,seafood
html-keyboard-response,399,613974,null,"",null,,,,,,,,
recall-period,400,615814,9241,"",,,,,,,,,scallop
html-keyboard-response,401,615916,null,"",null,,,,,,,,
recall-period,402,617190,4464,"",,,,,,,,,sebra
html-keyboard-response,403,617297,null,"",null,,,,,,,,
recall-period,404,619214,8159,"",,,,,,,,,zebra
html-keyboard-response,405,619318,null,"",null,,,,,,,,
recall-period,406,620687,5524,"",,,,,,,,,adult
html-keyboard-response,407,620792,null,"",null,,,,,,,,
recall-period,408,627646,55031,"",,,,,,,,,concrete
html-keyboard-response,409,627750,null,"",null,,,,,,,,
recall-period,410,633887,47630,"",,,,,,,,,stallion
html-keyboard-response,411,633989,null,"",null,,,,,,,,
recall-period,412,675497,285318,"",,,,,,,,,orang
html-keyboard-response,413,676000,null,"Time's Up!",null,,,,,,,,
html-keyboard-response,414,677587,1585,"<p> Good job! You responded correctly to 99% of the red squares.</p>
                  <p>Be sure to keep your accuracy above 80%</p>
                  <p>Press any key to continue the experiment. Thank you!</p>",32,,,,,,,,
html-keyboard-response,415,678579,991,"<div style=""font-size:48px;"">Press any key to begin list 4 of 24 </div>",32,,,,,,,,
html-keyboard-response,416,681091,null,"<div style=""font-size:60px;"">+</div>",null,,,,,,,,
html-keyboard-response,417,681594,null,"SKILLET<img id = ""stim"" ><div class = green_square id = ""topsquare"" ></div><img id = ""stim"" ><div class = green_square  id = ""bottomsquare"" ></div>",null,word_square,response,0,none,true,,,
html-keyboard-response,418,683100,null,"SKILLET",null,word,,,,, 'SKILLET',,
html-keyboard-response,419,683604,null,"PUPIL<img id = ""stim"" ><div class = green_square id = ""topsquare"" ></div><img id = ""stim"" ><div class = green_square  id = ""bottomsquare"" ></div>",null,word_square,response,0,none,true,,,
html-keyboard-response,420,685108,null,"PUPIL",null,word,,,,, 'PUPIL',,
html-keyboard-response,421,685537,427,"STOCKING<img id = ""stim"" ><div class = red_square id = ""topsquare"" ></div><img id = ""stim"" ><div class = red_square  id = ""bottomsquare"" ></div>",32,word_square,response,1,Space,true,,,
html-keyboard-response,422,687041,null,"STOCKING",null,word,,,,, 'STOCKING',,
html-keyboard-response,423,687543,null,"BIBLE<img id = ""stim"" ><div class = green_square id = ""topsquare"" ></div><img id = ""stim"" ><div class = green_square  id = ""bottomsquare"" ></div>",null,word_square,response,0,none,true,,,
html-keyboard-response,424,689049,null,"BIBLE",null,word,,,,, 'BIBLE',,
html-keyboard-response,425,689483,431,"TORCH<img id = ""stim"" ><div class = red_square id = ""topsquare"" ></div><img id = ""stim"" ><div class = red_square  id = ""bottomsquare"" ></div>",32,word_square,response,1,Space,true,,,
html-keyboard-response,426,690989,null,"TORCH",null,word,,,,, 'TORCH',,
html-keyboard-response,427,691419,429,"LASER<img id = ""stim"" ><div class = red_square id = ""topsquare"" ></div><img id = ""stim"" ><div class = red_square  id = ""bottomsquare"" ></div>",32,word_square,response,1,Space,true,,,
html-keyboard-response,428,692922,null,"LASER",null,word,,,,, 'LASER',,
html-keyboard-response,429,693424,null,"GRIZZLY<img id = ""stim"" ><div class = green_square id = ""topsquare"" ></div><img id = ""stim"" ><div class = green_square  id = ""bottomsquare"" ></div>",null,word_square,response,0,none,true,,,
html-keyboard-response,430,694931,null,"GRIZZLY",null,word,,,,, 'GRIZZLY',,
html-keyboard-response,431,695337,406,"LEOPARD<img id = ""stim"" ><div class = red_square id = ""topsquare"" ></div><img id = ""stim"" ><div class = red_square  id = ""bottomsquare"" ></div>",32,word_square,response,1,Space,true,,,
html-keyboard-response,432,696843,null,"LEOPARD",null,word,,,,, 'LEOPARD',,
html-keyboard-response,433,697345,null,"STOMACH<img id = ""stim"" ><div class = green_square id = ""topsquare"" ></div><img id = ""stim"" ><div class = green_square  id = ""bottomsquare"" ></div>",null,word_square,response,0,none,true,,,
html-keyboard-response,434,698849,null,"STOMACH",null,word,,,,, 'STOMACH',,
html-keyboard-response,435,699351,null,"CHAUFFEUR<img id = ""stim"" ><div class = green_square id = ""topsquare"" ></div><img id = ""stim"" ><div class = green_square  id = ""bottomsquare"" ></div>",null,word_square,response,0,none,true,,,
html-keyboard-response,436,700858,null,"CHAUFFEUR",null,word,,,,, 'CHAUFFEUR',,
html-keyboard-response,437,701309,449,"BELT<img id = ""stim"" ><div class = red_square id = ""topsquare"" ></div><img id = ""stim"" ><div class = red_square  id = ""bottomsquare"" ></div>",32,word_square,response,1,Space,true,,,
html-keyboard-response,438,702813,null,"BELT",null,word,,,,, 'BELT',,
html-keyboard-response,439,703221,406,"YOLK<img id = ""stim"" ><div class = red_square id = ""topsquare"" ></div><img id = ""stim"" ><div class = red_square  id = ""bottomsquare"" ></div>",32,word_square,response,1,Space,true,,,
html-keyboard-response,440,704727,null,"YOLK",null,word,,,,, 'YOLK',,
html-keyboard-response,441,705231,null,"UMPIRE<img id = ""stim"" ><div class = green_square id = ""topsquare"" ></div><img id = ""stim"" ><div class = green_square  id = ""bottomsquare"" ></div>",null,word_square,response,0,none,true,,,
html-keyboard-response,442,706738,null,"UMPIRE",null,word,,,,, 'UMPIRE',,
html-keyboard-response,443,707131,391,"TOOTHPASTE<img id = ""stim"" ><div class = red_square id = ""topsquare"" ></div><img id = ""stim"" ><div class = red_square  id = ""bottomsquare"" ></div>",32,word_square,response,1,Space,true,,,
html-keyboard-response,444,708636,null,"TOOTHPASTE",null,word,,,,, 'TOOTHPASTE',,
html-keyboard-response,445,709139,null,"COURSE<img id = ""stim"" ><div class = green_square id = ""topsquare"" ></div><img id = ""stim"" ><div class = green_square  id = ""bottomsquare"" ></div>",null,word_square,response,0,none,true,,,
html-keyboard-response,446,710645,null,"COURSE",null,word,,,,, 'COURSE',,
html-keyboard-response,447,711045,397,"SWITCH<img id = ""stim"" ><div class = red_square id = ""topsquare"" ></div><img id = ""stim"" ><div class = red_square  id = ""bottomsquare"" ></div>",32,word_square,response,1,Space,true,,,
html-keyboard-response,448,712549,null,"SWITCH",null,word,,,,, 'SWITCH',,
html-keyboard-response,449,712964,413,"PENCIL<img id = ""stim"" ><div class = red_square id = ""topsquare"" ></div><img id = ""stim"" ><div class = red_square  id = ""bottomsquare"" ></div>",32,word_square,response,1,Space,true,,,
html-keyboard-response,450,714471,null,"PENCIL",null,word,,,,, 'PENCIL',,
html-keyboard-response,451,714973,null,"HAMPER<img id = ""stim"" ><div class = green_square id = ""topsquare"" ></div><img id = ""stim"" ><div class = green_square  id = ""bottomsquare"" ></div>",null,word_square,response,0,none,true,,,
html-keyboard-response,452,716479,null,"HAMPER",null,word,,,,, 'HAMPER',,
call-function,453,716480,,"",,,,,,,,,
html-keyboard-response,454,716583,null,"",null,,,,,,,,
math-period,455,718612,3590,"",,,,,,,,,5
html-keyboard-response,456,718715,null,"",null,,,,,,,,
math-period,457,720107,2565,"",,,,,,,,,6
html-keyboard-response,458,720212,null,"",null,,,,,,,,
math-period,459,721500,2389,"",,,,,,,,,4
html-keyboard-response,460,721605,null,"",null,,,,,,,,
math-period,461,722692,1833,"",,,,,,,,,4
html-keyboard-response,462,722795,null,"",null,,,,,,,,
math-period,463,724331,2854,"",,,,,,,,,5
html-keyboard-response,464,724435,null,"",null,,,,,,,,
math-period,465,725756,2399,"",,,,,,,,,2
html-keyboard-response,466,725862,null,"",null,,,,,,,,
math-period,467,727116,2241,"",,,,,,,,,4
html-keyboard-response,468,727221,null,"",null,,,,,,,,
math-period,469,728412,2146,"",,,,,,,,,3
html-keyboard-response,470,728514,null,"",null,,,,,,,,
math-period,471,729716,2215,"",,,,,,,,,4
html-keyboard-response,472,729823,null,"",null,,,,,,,,
math-period,473,731172,2392,"",,,,,,,,,3
html-keyboard-response,474,731277,null,"",null,,,,,,,,
math-period,475,733668,4603,"",,,,,,,,,1
html-keyboard-response,476,733773,null,"",null,,,,,,,,
math-period,477,736628,5491,"",,,,,,,,,0
html-keyboard-response,478,736733,null,"",null,,,,,,,,
math-period,479,738276,2744,"",,,,,,,,,6
html-keyboard-response,480,738379,null,"",null,,,,,,,,
math-period,481,740486,null,"",,,,,,,,,
html-keyboard-response,482,741491,null,"Recall Period!",null,,,,,,,,
call-function,483,741492,,"",,,,,,,,,
html-keyboard-response,484,741598,null,"",null,,,,,,,,
recall-period,485,743902,8688,"",,,,,,,,,yolk
html-keyboard-response,486,744004,null,"",null,,,,,,,,
recall-period,487,745333,5280,"",,,,,,,,,pencil
html-keyboard-response,488,745436,null,"",null,,,,,,,,
recall-period,489,746909,5311,"",,,,,,,,,hamper
html-keyboard-response,490,747014,null,"",null,,,,,,,,
recall-period,491,748389,5007,"",,,,,,,,,switch
html-keyboard-response,492,748494,null,"",null,,,,,,,,
recall-period,493,749949,6242,"",,,,,,,,,stocking
html-keyboard-response,494,750054,null,"",null,,,,,,,,
recall-period,495,756181,32999,"",,,,,,,,,pupil
html-keyboard-response,496,756288,null,"",null,,,,,,,,
recall-period,497,761426,52328,"",,,,,,,,,teacher
html-keyboard-response,498,761533,null,"",null,,,,,,,,
recall-period,499,795379,265528,"",,,,,,,,,station
html-keyboard-response,500,795487,null,"",null,,,,,,,,
recall-period,501,816496,null,"",,,,,,,,,
html-keyboard-response,502,816999,null,"Time's Up!",null,,,,,,,,
html-keyboard-response,503,818450,1451,"<p> Good job! You responded correctly to 99% of the red squares.</p>
                  <p>Be sure to keep your accuracy above 80%</p>
                  <p>Press any key to continue the experiment. Thank you!</p>",32,,,,,,,,
html-keyboard-response,504,819162,709,"<div style=""font-size:48px;"">Press any key to begin list 5 of 24 </div>",32,,,,,,,,
html-keyboard-response,505,821669,null,"<div style=""font-size:60px;"">+</div>",null,,,,,,,,
html-keyboard-response,506,822090,420,"CARRIAGE<img id = ""stim"" ><div class = red_square id = ""topsquare"" ></div><img id = ""stim"" ><div class = red_square  id = ""bottomsquare"" ></div>",32,word_square,response,1,Space,true,,,
html-keyboard-response,507,823593,null,"CARRIAGE",null,word,,,,, 'CARRIAGE',,
html-keyboard-response,508,824098,504,"SPINACH<img id = ""stim"" ><div class = green_square id = ""topsquare"" ></div><img id = ""stim"" ><div class = green_square  id = ""bottomsquare"" ></div>",32,word_square,response,0,none,false,,,
html-keyboard-response,509,825605,null,"SPINACH",null,word,,,,, 'SPINACH',,
html-keyboard-response,510,826107,null,"GERM<img id = ""stim"" ><div class = green_square id = ""topsquare"" ></div><img id = ""stim"" ><div class = green_square  id = ""bottomsquare"" ></div>",null,word_square,response,0,none,true,,,
html-keyboard-response,511,827611,null,"GERM",null,word,,,,, 'GERM',,
html-keyboard-response,512,828080,467,"DRUG<img id = ""stim"" ><div class = red_square id = ""topsquare"" ></div><img id = ""stim"" ><div class = red_square  id = ""bottomsquare"" ></div>",32,word_square,response,1,Space,true,,,
html-keyboard-response,513,829584,null,"DRUG",null,word,,,,, 'DRUG',,
html-keyboard-response,514,830089,null,"POISON<img id = ""stim"" ><div class = green_square id = ""topsquare"" ></div><img id = ""stim"" ><div class = green_square  id = ""bottomsquare"" ></div>",null,word_square,response,0,none,true,,,
html-keyboard-response,515,831593,null,"POISON",null,word,,,,, 'POISON',,
html-keyboard-response,516,832099,null,"GIRAFFE<img id = ""stim"" ><div class = green_square id = ""topsquare"" ></div><img id = ""stim"" ><div class = green_square  id = ""bottomsquare"" ></div>",null,word_square,response,0,none,true,,,
html-keyboard-response,517,833604,null,"GIRAFFE",null,word,,,,, 'GIRAFFE',,
html-keyboard-response,518,833972,364,"POCKET<img id = ""stim"" ><div class = red_square id = ""topsquare"" ></div><img id = ""stim"" ><div class = red_square  id = ""bottomsquare"" ></div>",32,word_square,response,1,Space,true,,,
html-keyboard-response,519,835474,null,"POCKET",null,word,,,,, 'POCKET',,
html-keyboard-response,520,835976,null,"OUTFIT<img id = ""stim"" ><div class = green_square id = ""topsquare"" ></div><img id = ""stim"" ><div class = green_square  id = ""bottomsquare"" ></div>",null,word_square,response,0,none,true,,,
html-keyboard-response,521,837482,null,"OUTFIT",null,word,,,,, 'OUTFIT',,
html-keyboard-response,522,837856,372,"ACTOR<img id = ""stim"" ><div class = red_square id = ""topsquare"" ></div><img id = ""stim"" ><div class = red_square  id = ""bottomsquare"" ></div>",32,word_square,response,1,Space,true,,,
html-keyboard-response,523,839360,null,"ACTOR",null,word,,,,, 'ACTOR',,
html-keyboard-response,524,839862,null,"SEASHORE<img id = ""stim"" ><div class = green_square id = ""topsquare"" ></div><img id = ""stim"" ><div class = green_square  id = ""bottomsquare"" ></div>",null,word_square,response,0,none,true,,,
html-keyboard-response,525,841366,null,"SEASHORE",null,word,,,,, 'SEASHORE',,
html-keyboard-response,526,841868,null,"WARDROBE<img id = ""stim"" ><div class = green_square id = ""topsquare"" ></div><img id = ""stim"" ><div class = green_square  id = ""bottomsquare"" ></div>",null,word_square,response,0,none,true,,,
html-keyboard-response,527,843374,null,"WARDROBE",null,word,,,,, 'WARDROBE',,
html-keyboard-response,528,843773,397,"FUNGUS<img id = ""stim"" ><div class = red_square id = ""topsquare"" ></div><img id = ""stim"" ><div class = red_square  id = ""bottomsquare"" ></div>",32,word_square,response,1,Space,true,,,
html-keyboard-response,529,845275,null,"FUNGUS",null,word,,,,, 'FUNGUS',,
html-keyboard-response,530,845780,null,"MILDEW<img id = ""stim"" ><div class = green_square id = ""topsquare"" ></div><img id = ""stim"" ><div class = green_square  id = ""bottomsquare"" ></div>",null,word_square,response,0,none,true,,,
html-keyboard-response,531,847287,null,"MILDEW",null,word,,,,, 'MILDEW',,
html-keyboard-response,532,847719,431,"ROBOT<img id = ""stim"" ><div class = red_square id = ""topsquare"" ></div><img id = ""stim"" ><div class = red_square  id = ""bottomsquare"" ></div>",32,word_square,response,1,Space,true,,,
html-keyboard-response,533,849223,null,"ROBOT",null,word,,,,, 'ROBOT',,
html-keyboard-response,534,849728,null,"WASHER<img id = ""stim"" ><div class = red_square id = ""topsquare"" ></div><img id = ""stim"" ><div class = red_square  id = ""bottomsquare"" ></div>",null,word_square,response,1,Space,false,,,
html-keyboard-response,535,851232,null,"WASHER",null,word,,,,, 'WASHER',,
html-keyboard-response,536,851631,399,"KNUCKLE<img id = ""stim"" ><div class = red_square id = ""topsquare"" ></div><img id = ""stim"" ><div class = red_square  id = ""bottomsquare"" ></div>",32,word_square,response,1,Space,true,,,
html-keyboard-response,537,853135,null,"KNUCKLE",null,word,,,,, 'KNUCKLE',,
html-keyboard-response,538,853641,null,"BLUEPRINT<img id = ""stim"" ><div class = green_square id = ""topsquare"" ></div><img id = ""stim"" ><div class = green_square  id = ""bottomsquare"" ></div>",null,word_square,response,0,none,true,,,
html-keyboard-response,539,855147,null,"BLUEPRINT",null,word,,,,, 'BLUEPRINT',,
html-keyboard-response,540,855492,343,"STAR<img id = ""stim"" ><div class = red_square id = ""topsquare"" ></div><img id = ""stim"" ><div class = red_square  id = ""bottomsquare"" ></div>",32,word_square,response,1,Space,true,,,
html-keyboard-response,541,856996,null,"STAR",null,word,,,,, 'STAR',,
call-function,542,856997,,"",,,,,,,,,
html-keyboard-response,543,857099,null,"",null,,,,,,,,
math-period,544,861344,8222,"",,,,,,,,,3
html-keyboard-response,545,861449,null,"",null,,,,,,,,
math-period,546,863050,2837,"",,,,,,,,,5
html-keyboard-response,547,863154,null,"",null,,,,,,,,
math-period,548,864360,2119,"",,,,,,,,,3
html-keyboard-response,549,864464,null,"",null,,,,,,,,
math-period,550,865440,1700,"",,,,,,,,,3
html-keyboard-response,551,865543,null,"",null,,,,,,,,
math-period,552,867841,4343,"",,,,,,,,,1
html-keyboard-response,553,867944,null,"",null,,,,,,,,
math-period,554,870408,4532,"",,,,,,,,,0
html-keyboard-response,555,870511,null,"",null,,,,,,,,
math-period,556,872616,3991,"",,,,,,,,,1
html-keyboard-response,557,872720,null,"",null,,,,,,,,
math-period,558,874889,4022,"",,,,,,,,,2
html-keyboard-response,559,874995,null,"",null,,,,,,,,
math-period,560,875904,1560,"",,,,,,,,,2
html-keyboard-response,561,876011,null,"",null,,,,,,,,
math-period,562,878497,4609,"",,,,,,,,,1
html-keyboard-response,563,878603,null,"",null,,,,,,,,
math-period,564,879808,2170,"",,,,,,,,,3
html-keyboard-response,565,879915,null,"",null,,,,,,,,
math-period,566,881000,null,"",,,,,,,,,
html-keyboard-response,567,882005,null,"Recall Period!",null,,,,,,,,
call-function,568,882007,,"",,,,,,,,,
html-keyboard-response,569,882111,null,"",null,,,,,,,,
recall-period,570,883465,4338,"",,,,,,,,,star
html-keyboard-response,571,883569,null,"",null,,,,,,,,
recall-period,572,885825,12062,"",,,,,,,,,knuckle
html-keyboard-response,573,885928,null,"",null,,,,,,,,
recall-period,574,887673,9585,"",,,,,,,,,blueprint
html-keyboard-response,575,887778,null,"",null,,,,,,,,
recall-period,576,889369,6058,"",,,,,,,,,robot
html-keyboard-response,577,889473,null,"",null,,,,,,,,
recall-period,578,890729,5623,"",,,,,,,,,washer
html-keyboard-response,579,890831,null,"",null,,,,,,,,
recall-period,580,902143,75561,"",,,,,,,,,fungus
html-keyboard-response,581,902246,null,"",null,,,,,,,,
recall-period,582,904119,8314,"",,,,,,,,,mildew
html-keyboard-response,583,904224,null,"",null,,,,,,,,
recall-period,584,905512,3454,"",,,,,,,,,drug
html-keyboard-response,585,905617,null,"",null,,,,,,,,
recall-period,586,912747,63679,"",,,,,,,,,handprint
html-keyboard-response,587,912853,null,"",null,,,,,,,,
recall-period,588,932880,173415,"",,,,,,,,,seashore
html-keyboard-response,589,932982,null,"",null,,,,,,,,
recall-period,590,937001,22342,"",,,,,,,,,gallop
html-keyboard-response,591,937104,null,"",null,,,,,,,,
recall-period,592,957007,null,"",,,,,,,,,
html-keyboard-response,593,957513,null,"Time's Up!",null,,,,,,,,
html-keyboard-response,594,959506,1991,"<p> Good job! You responded correctly to 97% of the red squares.</p>
                  <p>Be sure to keep your accuracy above 80%</p>
                  <p>Press any key to continue the experiment. Thank you!</p>",13,,,,,,,,
html-keyboard-response,595,960305,798,"<div style=""font-size:48px;"">Press any key to begin list 6 of 24 </div>",32,,,,,,,,
html-keyboard-response,596,962813,null,"<div style=""font-size:60px;"">+</div>",null,,,,,,,,
html-keyboard-response,597,963146,330,"CLIFF<img id = ""stim"" ><div class = red_square id = ""topsquare"" ></div><img id = ""stim"" ><div class = red_square  id = ""bottomsquare"" ></div>",32,word_square,response,1,Space,true,,,
html-keyboard-response,598,964652,null,"CLIFF",null,word,,,,, 'CLIFF',,
html-keyboard-response,599,965158,null,"VAMPIRE<img id = ""stim"" ><div class = green_square id = ""topsquare"" ></div><img id = ""stim"" ><div class = green_square  id = ""bottomsquare"" ></div>",null,word_square,response,0,none,true,,,
html-keyboard-response,600,966664,null,"VAMPIRE",null,word,,,,, 'VAMPIRE',,
html-keyboard-response,601,967166,null,"YACHT<img id = ""stim"" ><div class = green_square id = ""topsquare"" ></div><img id = ""stim"" ><div class = green_square  id = ""bottomsquare"" ></div>",null,word_square,response,0,none,true,,,
html-keyboard-response,602,968670,null,"YACHT",null,word,,,,, 'YACHT',,
html-keyboard-response,603,969070,399,"CATTLE<img id = ""stim"" ><div class = red_square id = ""topsquare"" ></div><img id = ""stim"" ><div class = red_square  id = ""bottomsquare"" ></div>",32,word_square,response,1,Space,true,,,
html-keyboard-response,604,970573,null,"CATTLE",null,word,,,,, 'CATTLE',,
html-keyboard-response,605,971076,null,"PARTY<img id = ""stim"" ><div class = green_square id = ""topsquare"" ></div><img id = ""stim"" ><div class = green_square  id = ""bottomsquare"" ></div>",null,word_square,response,0,none,true,,,
html-keyboard-response,606,972582,null,"PARTY",null,word,,,,, 'PARTY',,
html-keyboard-response,607,973088,null,"PAIL<img id = ""stim"" ><div class = green_square id = ""topsquare"" ></div><img id = ""stim"" ><div class = green_square  id = ""bottomsquare"" ></div>",null,word_square,response,0,none,true,,,
html-keyboard-response,608,974594,null,"PAIL",null,word,,,,, 'PAIL',,
html-keyboard-response,609,974995,398,"SHORTCAKE<img id = ""stim"" ><div class = red_square id = ""topsquare"" ></div><img id = ""stim"" ><div class = red_square  id = ""bottomsquare"" ></div>",32,word_square,response,1,Space,true,,,
html-keyboard-response,610,976501,null,"SHORTCAKE",null,word,,,,, 'SHORTCAKE',,
html-keyboard-response,611,977006,null,"FRUIT<img id = ""stim"" ><div class = green_square id = ""topsquare"" ></div><img id = ""stim"" ><div class = green_square  id = ""bottomsquare"" ></div>",null,word_square,response,0,none,true,,,
html-keyboard-response,612,978509,null,"FRUIT",null,word,,,,, 'FRUIT',,
html-keyboard-response,613,978879,368,"OUTDOORS<img id = ""stim"" ><div class = red_square id = ""topsquare"" ></div><img id = ""stim"" ><div class = red_square  id = ""bottomsquare"" ></div>",32,word_square,response,1,Space,true,,,
html-keyboard-response,614,980385,null,"OUTDOORS",null,word,,,,, 'OUTDOORS',,
html-keyboard-response,615,980891,null,"MOUNTAIN<img id = ""stim"" ><div class = green_square id = ""topsquare"" ></div><img id = ""stim"" ><div class = green_square  id = ""bottomsquare"" ></div>",null,word_square,response,0,none,true,,,
html-keyboard-response,616,982397,null,"MOUNTAIN",null,word,,,,, 'MOUNTAIN',,
html-keyboard-response,617,982898,null,"SHRUB<img id = ""stim"" ><div class = green_square id = ""topsquare"" ></div><img id = ""stim"" ><div class = green_square  id = ""bottomsquare"" ></div>",null,word_square,response,0,none,true,,,
html-keyboard-response,618,984405,null,"SHRUB",null,word,,,,, 'SHRUB',,
html-keyboard-response,619,984805,399,"MAPLE<img id = ""stim"" ><div class = red_square id = ""topsquare"" ></div><img id = ""stim"" ><div class = red_square  id = ""bottomsquare"" ></div>",32,word_square,response,1,Space,true,,,
html-keyboard-response,620,986312,null,"MAPLE",null,word,,,,, 'MAPLE',,
html-keyboard-response,621,986817,null,"HORNET<img id = ""stim"" ><div class = green_square id = ""topsquare"" ></div><img id = ""stim"" ><div class = green_square  id = ""bottomsquare"" ></div>",null,word_square,response,0,none,true,,,
html-keyboard-response,622,988320,null,"HORNET",null,word,,,,, 'HORNET',,
html-keyboard-response,623,988687,365,"MARINE<img id = ""stim"" ><div class = red_square id = ""topsquare"" ></div><img id = ""stim"" ><div class = red_square  id = ""bottomsquare"" ></div>",32,word_square,response,1,Space,true,,,
html-keyboard-response,624,990192,null,"MARINE",null,word,,,,, 'MARINE',,
html-keyboard-response,625,990697,null,"SUSPECT<img id = ""stim"" ><div class = red_square id = ""topsquare"" ></div><img id = ""stim"" ><div class = red_square  id = ""bottomsquare"" ></div>",null,word_square,response,1,Space,false,,,
html-keyboard-response,626,992201,null,"SUSPECT",null,word,,,,, 'SUSPECT',,
html-keyboard-response,627,992658,455,"JURY<img id = ""stim"" ><div class = red_square id = ""topsquare"" ></div><img id = ""stim"" ><div class = red_square  id = ""bottomsquare"" ></div>",32,word_square,response,1,Space,true,,,
html-keyboard-response,628,994163,null,"JURY",null,word,,,,, 'JURY',,
html-keyboard-response,629,994665,null,"JOKER<img id = ""stim"" ><div class = green_square id = ""topsquare"" ></div><img id = ""stim"" ><div class = green_square  id = ""bottomsquare"" ></div>",null,word_square,response,0,none,true,,,
html-keyboard-response,630,996171,null,"JOKER",null,word,,,,, 'JOKER',,
html-keyboard-response,631,996543,369,"SALESMAN<img id = ""stim"" ><div class = red_square id = ""topsquare"" ></div><img id = ""stim"" ><div class = red_square  id = ""bottomsquare"" ></div>",32,word_square,response,1,Space,true,,,
html-keyboard-response,632,998046,null,"SALESMAN",null,word,,,,, 'SALESMAN',,
call-function,633,998048,,"",,,,,,,,,
html-keyboard-response,634,998151,null,"",null,,,,,,,,
math-period,635,1000311,3730,"",,,,,,,,,3
html-keyboard-response,636,1000413,null,"",null,,,,,,,,
math-period,637,1002711,4328,"",,,,,,,,,3
html-keyboard-response,638,1002816,null,"",null,,,,,,,,
math-period,639,1003887,1866,"",,,,,,,,,2
html-keyboard-response,640,1003991,null,"",null,,,,,,,,
math-period,641,1005199,2196,"",,,,,,,,,1
html-keyboard-response,642,1005303,null,"",null,,,,,,,,
math-period,643,1007583,4130,"",,,,,,,,,1
html-keyboard-response,644,1007685,null,"",null,,,,,,,,
math-period,645,1009335,3070,"",,,,,,,,,2
html-keyboard-response,646,1009440,null,"",null,,,,,,,,
math-period,647,1011063,3028,"",,,,,,,,,4
html-keyboard-response,648,1011167,null,"",null,,,,,,,,
math-period,649,1012400,2238,"",,,,,,,,,3
html-keyboard-response,650,1012504,null,"",null,,,,,,,,
math-period,651,1013790,2297,"",,,,,,,,,1
html-keyboard-response,652,1013897,null,"",null,,,,,,,,
math-period,653,1015110,2126,"",,,,,,,,,3
html-keyboard-response,654,1015215,null,"",null,,,,,,,,
math-period,655,1017031,3348,"",,,,,,,,,4
html-keyboard-response,656,1017137,null,"",null,,,,,,,,
math-period,657,1018431,2256,"",,,,,,,,,4
html-keyboard-response,658,1018534,null,"",null,,,,,,,,
math-period,659,1020015,2776,"",,,,,,,,,5
html-keyboard-response,660,1020118,null,"",null,,,,,,,,
math-period,661,1021319,2158,"",,,,,,,,,4
html-keyboard-response,662,1021421,null,"",null,,,,,,,,
math-period,663,1022051,null,"",,,,,,,,,
html-keyboard-response,664,1023056,null,"Recall Period!",null,,,,,,,,
call-function,665,1023057,,"",,,,,,,,,
html-keyboard-response,666,1023160,null,"",null,,,,,,,,
recall-period,667,1026095,17291,"",,,,,,,,,salesman
html-keyboard-response,668,1026198,null,"",null,,,,,,,,
recall-period,669,1027632,5690,"",,,,,,,,,joker
html-keyboard-response,670,1027737,null,"",null,,,,,,,,
recall-period,671,1029296,4217,"",,,,,,,,,jury
html-keyboard-response,672,1029401,null,"",null,,,,,,,,
recall-period,673,1031272,9418,"",,,,,,,,,marine
html-keyboard-response,674,1031374,null,"",null,,,,,,,,
recall-period,675,1038406,51096,"",,,,,,,,,suspect
html-keyboard-response,676,1038509,null,"",null,,,,,,,,
recall-period,677,1040814,11025,"",,,,,,,,,pilot
html-keyboard-response,678,1040921,null,"",null,,,,,,,,
recall-period,679,1045486,35876,"",,,,,,,,,carriage
html-keyboard-response,680,1045591,null,"",null,,,,,,,,
recall-period,681,1062046,112069,"",,,,,,,,,finger
html-keyboard-response,682,1062151,null,"",null,,,,,,,,
recall-period,683,1064583,14340,"",,,,,,,,,driver
html-keyboard-response,684,1064687,null,"",null,,,,,,,,
recall-period,685,1098064,null,"",,,,,,,,,
html-keyboard-response,686,1098570,null,"Time's Up!",null,,,,,,,,
html-keyboard-response,687,1099876,1304,"<p> Good job! You responded correctly to 97% of the red squares.</p>
                  <p>Be sure to keep your accuracy above 80%</p>
                  <p>Press any key to continue the experiment. Thank you!</p>",32,,,,,,,,
html-keyboard-response,688,1100547,670,"<div style=""font-size:48px;"">Press any key to begin list 7 of 24 </div>",32,,,,,,,,
html-keyboard-response,689,1103056,null,"<div style=""font-size:60px;"">+</div>",null,,,,,,,,
html-keyboard-response,690,1103559,null,"BISCUIT<img id = ""stim"" ><div class = green_square id = ""topsquare"" ></div><img id = ""stim"" ><div class = green_square  id = ""bottomsquare"" ></div>",null,word_square,response,0,none,true,,,
html-keyboard-response,691,1105065,null,"BISCUIT",null,word,,,,, 'BISCUIT',,
html-keyboard-response,692,1105514,447,"MISTER<img id = ""stim"" ><div class = red_square id = ""topsquare"" ></div><img id = ""stim"" ><div class = red_square  id = ""bottomsquare"" ></div>",32,word_square,response,1,Space,true,,,
html-keyboard-response,693,1107019,null,"MISTER",null,word,,,,, 'MISTER',,
html-keyboard-response,694,1107418,397,"WIDOW<img id = ""stim"" ><div class = red_square id = ""topsquare"" ></div><img id = ""stim"" ><div class = red_square  id = ""bottomsquare"" ></div>",32,word_square,response,1,Space,true,,,
html-keyboard-response,695,1108923,null,"WIDOW",null,word,,,,, 'WIDOW',,
html-keyboard-response,696,1109424,null,"ORCHID<img id = ""stim"" ><div class = green_square id = ""topsquare"" ></div><img id = ""stim"" ><div class = green_square  id = ""bottomsquare"" ></div>",null,word_square,response,0,none,true,,,
html-keyboard-response,697,1110928,null,"ORCHID",null,word,,,,, 'ORCHID',,
html-keyboard-response,698,1111274,343,"FRECKLE<img id = ""stim"" ><div class = red_square id = ""topsquare"" ></div><img id = ""stim"" ><div class = red_square  id = ""bottomsquare"" ></div>",32,word_square,response,1,Space,true,,,
html-keyboard-response,699,1112781,null,"FRECKLE",null,word,,,,, 'FRECKLE',,
html-keyboard-response,700,1113163,378,"CHAMBER<img id = ""stim"" ><div class = red_square id = ""topsquare"" ></div><img id = ""stim"" ><div class = red_square  id = ""bottomsquare"" ></div>",32,word_square,response,1,Space,true,,,
html-keyboard-response,701,1114666,null,"CHAMBER",null,word,,,,, 'CHAMBER',,
html-keyboard-response,702,1115172,null,"POND<img id = ""stim"" ><div class = green_square id = ""topsquare"" ></div><img id = ""stim"" ><div class = green_square  id = ""bottomsquare"" ></div>",null,word_square,response,0,none,true,,,
html-keyboard-response,703,1116675,null,"POND",null,word,,,,, 'POND',,
html-keyboard-response,704,1117041,363,"PAINTING<img id = ""stim"" ><div class = red_square id = ""topsquare"" ></div><img id = ""stim"" ><div class = red_square  id = ""bottomsquare"" ></div>",32,word_square,response,1,Space,true,,,
html-keyboard-response,705,1118548,null,"PAINTING",null,word,,,,, 'PAINTING',,
html-keyboard-response,706,1119053,null,"RIVER<img id = ""stim"" ><div class = green_square id = ""topsquare"" ></div><img id = ""stim"" ><div class = green_square  id = ""bottomsquare"" ></div>",null,word_square,response,0,none,true,,,
html-keyboard-response,707,1120556,null,"RIVER",null,word,,,,, 'RIVER',,
html-keyboard-response,708,1120950,391,"POWDER<img id = ""stim"" ><div class = red_square id = ""topsquare"" ></div><img id = ""stim"" ><div class = red_square  id = ""bottomsquare"" ></div>",32,word_square,response,1,Space,true,,,
html-keyboard-response,709,1122454,null,"POWDER",null,word,,,,, 'POWDER',,
html-keyboard-response,710,1122837,380,"SUNRISE<img id = ""stim"" ><div class = red_square id = ""topsquare"" ></div><img id = ""stim"" ><div class = red_square  id = ""bottomsquare"" ></div>",32,word_square,response,1,Space,true,,,
html-keyboard-response,711,1124341,null,"SUNRISE",null,word,,,,, 'SUNRISE',,
html-keyboard-response,712,1124843,null,"BANJO<img id = ""stim"" ><div class = green_square id = ""topsquare"" ></div><img id = ""stim"" ><div class = green_square  id = ""bottomsquare"" ></div>",null,word_square,response,0,none,true,,,
html-keyboard-response,713,1126350,null,"BANJO",null,word,,,,, 'BANJO',,
html-keyboard-response,714,1126731,379,"PACKAGE<img id = ""stim"" ><div class = red_square id = ""topsquare"" ></div><img id = ""stim"" ><div class = red_square  id = ""bottomsquare"" ></div>",32,word_square,response,1,Space,true,,,
html-keyboard-response,715,1128233,null,"PACKAGE",null,word,,,,, 'PACKAGE',,
html-keyboard-response,716,1128740,null,"GIFT<img id = ""stim"" ><div class = green_square id = ""topsquare"" ></div><img id = ""stim"" ><div class = green_square  id = ""bottomsquare"" ></div>",null,word_square,response,0,none,true,,,
html-keyboard-response,717,1130242,null,"GIFT",null,word,,,,, 'GIFT',,
html-keyboard-response,718,1130609,365,"PIGEON<img id = ""stim"" ><div class = green_square id = ""topsquare"" ></div><img id = ""stim"" ><div class = green_square  id = ""bottomsquare"" ></div>",32,word_square,response,0,none,false,,,
html-keyboard-response,719,1132114,null,"PIGEON",null,word,,,,, 'PIGEON',,
html-keyboard-response,720,1132617,null,"GARDEN<img id = ""stim"" ><div class = green_square id = ""topsquare"" ></div><img id = ""stim"" ><div class = green_square  id = ""bottomsquare"" ></div>",null,word_square,response,0,none,true,,,
html-keyboard-response,721,1134123,null,"GARDEN",null,word,,,,, 'GARDEN',,
html-keyboard-response,722,1134489,362,"STRANGER<img id = ""stim"" ><div class = red_square id = ""topsquare"" ></div><img id = ""stim"" ><div class = red_square  id = ""bottomsquare"" ></div>",32,word_square,response,1,Space,true,,,
html-keyboard-response,723,1135995,null,"STRANGER",null,word,,,,, 'STRANGER',,
html-keyboard-response,724,1136497,null,"TURKEY<img id = ""stim"" ><div class = green_square id = ""topsquare"" ></div><img id = ""stim"" ><div class = green_square  id = ""bottomsquare"" ></div>",null,word_square,response,0,none,true,,,
html-keyboard-response,725,1138004,null,"TURKEY",null,word,,,,, 'TURKEY',,
call-function,726,1138005,,"",,,,,,,,,
html-keyboard-response,727,1138108,null,"",null,,,,,,,,
math-period,728,1140480,4444,"",,,,,,,,,1
html-keyboard-response,729,1140583,null,"",null,,,,,,,,
math-period,730,1141928,2430,"",,,,,,,,,4
html-keyboard-response,731,1142032,null,"",null,,,,,,,,
math-period,732,1143304,2235,"",,,,,,,,,2
html-keyboard-response,733,1143408,null,"",null,,,,,,,,
math-period,734,1145321,3548,"",,,,,,,,,2
html-keyboard-response,735,1145425,null,"",null,,,,,,,,
math-period,736,1146807,2448,"",,,,,,,,,4
html-keyboard-response,737,1146912,null,"",null,,,,,,,,
math-period,738,1148208,2350,"",,,,,,,,,3
html-keyboard-response,739,1148313,null,"",null,,,,,,,,
math-period,740,1149575,2242,"",,,,,,,,,1
html-keyboard-response,741,1149680,null,"",null,,,,,,,,
math-period,742,1150800,2010,"",,,,,,,,,4
html-keyboard-response,743,1150905,null,"",null,,,,,,,,
math-period,744,1152063,2113,"",,,,,,,,,4
html-keyboard-response,745,1152168,null,"",null,,,,,,,,
math-period,746,1153831,3122,"",,,,,,,,,2
html-keyboard-response,747,1153935,null,"",null,,,,,,,,
math-period,748,1156088,4102,"",,,,,,,,,4
html-keyboard-response,749,1156193,null,"",null,,,,,,,,
math-period,750,1157560,2496,"",,,,,,,,,4
html-keyboard-response,751,1157665,null,"",null,,,,,,,,
math-period,752,1160024,7514,"",,,,,,,,,5
html-keyboard-response,753,1160126,null,"",null,,,,,,,,
math-period,754,1161696,2911,"",,,,,,,,,2
html-keyboard-response,755,1161802,null,"",null,,,,,,,,
math-period,756,1162007,null,"",,,,,,,,,
html-keyboard-response,757,1163011,null,"Recall Period!",null,,,,,,,,
call-function,758,1163012,,"",,,,,,,,,
html-keyboard-response,759,1163116,null,"",null,,,,,,,,
recall-period,760,1165096,7884,"",,,,,,,,,turkey
html-keyboard-response,761,1165203,null,"",null,,,,,,,,
recall-period,762,1167984,22204,"",,,,,,,,,stranger
html-keyboard-response,763,1168088,null,"",null,,,,,,,,
recall-period,764,1170561,12388,"",,,,,,,,,garden
html-keyboard-response,765,1170666,null,"",null,,,,,,,,
recall-period,766,1178229,59196,"",,,,,,,,,backyard
html-keyboard-response,767,1178332,null,"",null,,,,,,,,
recall-period,768,1180997,20613,"",,,,,,,,,pigeon
html-keyboard-response,769,1181101,null,"",null,,,,,,,,
recall-period,770,1187667,47171,"",,,,,,,,,planter
html-keyboard-response,771,1187769,null,"",null,,,,,,,,
recall-period,772,1190715,17867,"",,,,,,,,,pumpkin
html-keyboard-response,773,1190821,null,"",null,,,,,,,,
recall-period,774,1207341,126451,"",,,,,,,,,biscuit
html-keyboard-response,775,1207448,null,"",null,,,,,,,,
recall-period,776,1210582,15225,"",,,,,,,,,gravy
html-keyboard-response,777,1210684,null,"",null,,,,,,,,
recall-period,778,1238015,null,"",,,,,,,,,
html-keyboard-response,779,1238522,null,"Time's Up!",null,,,,,,,,
html-keyboard-response,780,1239786,1262,"<p> Good job! You responded correctly to 97% of the red squares.</p>
                  <p>Be sure to keep your accuracy above 80%</p>
                  <p>Press any key to continue the experiment. Thank you!</p>",13,,,,,,,,
html-keyboard-response,781,1240594,807,"<div style=""font-size:48px;"">Press any key to begin list 8 of 24 </div>",32,,,,,,,,
html-keyboard-response,782,1243104,null,"<div style=""font-size:60px;"">+</div>",null,,,,,,,,
html-keyboard-response,783,1243608,null,"INMATE<img id = ""stim"" ><div class = green_square id = ""topsquare"" ></div><img id = ""stim"" ><div class = green_square  id = ""bottomsquare"" ></div>",null,word_square,response,0,none,true,,,
html-keyboard-response,784,1245114,null,"INMATE",null,word,,,,, 'INMATE',,
html-keyboard-response,785,1245524,407,"VICTIM<img id = ""stim"" ><div class = red_square id = ""topsquare"" ></div><img id = ""stim"" ><div class = red_square  id = ""bottomsquare"" ></div>",32,word_square,response,1,Space,true,,,
html-keyboard-response,786,1247027,null,"VICTIM",null,word,,,,, 'VICTIM',,
html-keyboard-response,787,1247413,383,"SMOG<img id = ""stim"" ><div class = red_square id = ""topsquare"" ></div><img id = ""stim"" ><div class = red_square  id = ""bottomsquare"" ></div>",32,word_square,response,1,Space,true,,,
html-keyboard-response,788,1248917,null,"SMOG",null,word,,,,, 'SMOG',,
html-keyboard-response,789,1249419,null,"REPTILE<img id = ""stim"" ><div class = green_square id = ""topsquare"" ></div><img id = ""stim"" ><div class = green_square  id = ""bottomsquare"" ></div>",null,word_square,response,0,none,true,,,
html-keyboard-response,790,1250925,null,"REPTILE",null,word,,,,, 'REPTILE',,
html-keyboard-response,791,1251305,379,"PLATE<img id = ""stim"" ><div class = red_square id = ""topsquare"" ></div><img id = ""stim"" ><div class = red_square  id = ""bottomsquare"" ></div>",32,word_square,response,1,Space,true,,,
html-keyboard-response,792,1252812,null,"PLATE",null,word,,,,, 'PLATE',,
html-keyboard-response,793,1253257,442,"WRENCH<img id = ""stim"" ><div class = red_square id = ""topsquare"" ></div><img id = ""stim"" ><div class = red_square  id = ""bottomsquare"" ></div>",32,word_square,response,1,Space,true,,,
html-keyboard-response,794,1254760,null,"WRENCH",null,word,,,,, 'WRENCH',,
html-keyboard-response,795,1255262,null,"SPONGE<img id = ""stim"" ><div class = green_square id = ""topsquare"" ></div><img id = ""stim"" ><div class = green_square  id = ""bottomsquare"" ></div>",null,word_square,response,0,none,true,,,
html-keyboard-response,796,1256766,null,"SPONGE",null,word,,,,, 'SPONGE',,
html-keyboard-response,797,1257176,408,"TOOTHBRUSH<img id = ""stim"" ><div class = red_square id = ""topsquare"" ></div><img id = ""stim"" ><div class = red_square  id = ""bottomsquare"" ></div>",32,word_square,response,1,Space,true,,,
html-keyboard-response,798,1258682,null,"TOOTHBRUSH",null,word,,,,, 'TOOTHBRUSH',,
html-keyboard-response,799,1259183,null,"PEANUT<img id = ""stim"" ><div class = green_square id = ""topsquare"" ></div><img id = ""stim"" ><div class = green_square  id = ""bottomsquare"" ></div>",null,word_square,response,0,none,true,,,
html-keyboard-response,800,1260690,null,"PEANUT",null,word,,,,, 'PEANUT',,
html-keyboard-response,801,1261070,379,"GLASS<img id = ""stim"" ><div class = red_square id = ""topsquare"" ></div><img id = ""stim"" ><div class = red_square  id = ""bottomsquare"" ></div>",32,word_square,response,1,Space,true,,,
html-keyboard-response,802,1262576,null,"GLASS",null,word,,,,, 'GLASS',,
html-keyboard-response,803,1262990,412,"CLIPPERS<img id = ""stim"" ><div class = red_square id = ""topsquare"" ></div><img id = ""stim"" ><div class = red_square  id = ""bottomsquare"" ></div>",32,word_square,response,1,Space,true,,,
html-keyboard-response,804,1264495,null,"CLIPPERS",null,word,,,,, 'CLIPPERS',,
html-keyboard-response,805,1265000,null,"TURNIP<img id = ""stim"" ><div class = green_square id = ""topsquare"" ></div><img id = ""stim"" ><div class = green_square  id = ""bottomsquare"" ></div>",null,word_square,response,0,none,true,,,
html-keyboard-response,806,1266504,null,"TURNIP",null,word,,,,, 'TURNIP',,
html-keyboard-response,807,1266913,408,"KNAPSACK<img id = ""stim"" ><div class = red_square id = ""topsquare"" ></div><img id = ""stim"" ><div class = red_square  id = ""bottomsquare"" ></div>",32,word_square,response,1,Space,true,,,
html-keyboard-response,808,1268416,null,"KNAPSACK",null,word,,,,, 'KNAPSACK',,
html-keyboard-response,809,1268922,null,"HANDBAG<img id = ""stim"" ><div class = green_square id = ""topsquare"" ></div><img id = ""stim"" ><div class = green_square  id = ""bottomsquare"" ></div>",null,word_square,response,0,none,true,,,
html-keyboard-response,810,1270424,null,"HANDBAG",null,word,,,,, 'HANDBAG',,
html-keyboard-response,811,1270927,null,"ARTIST<img id = ""stim"" ><div class = green_square id = ""topsquare"" ></div><img id = ""stim"" ><div class = green_square  id = ""bottomsquare"" ></div>",null,word_square,response,0,none,true,,,
html-keyboard-response,812,1272431,null,"ARTIST",null,word,,,,, 'ARTIST',,
html-keyboard-response,813,1272933,null,"CASHEW<img id = ""stim"" ><div class = green_square id = ""topsquare"" ></div><img id = ""stim"" ><div class = green_square  id = ""bottomsquare"" ></div>",null,word_square,response,0,none,true,,,
html-keyboard-response,814,1274436,null,"CASHEW",null,word,,,,, 'CASHEW',,
html-keyboard-response,815,1274861,422,"HUSBAND<img id = ""stim"" ><div class = red_square id = ""topsquare"" ></div><img id = ""stim"" ><div class = red_square  id = ""bottomsquare"" ></div>",32,word_square,response,1,Space,true,,,
html-keyboard-response,816,1276366,null,"HUSBAND",null,word,,,,, 'HUSBAND',,
html-keyboard-response,817,1276872,null,"SPOUSE<img id = ""stim"" ><div class = green_square id = ""topsquare"" ></div><img id = ""stim"" ><div class = green_square  id = ""bottomsquare"" ></div>",null,word_square,response,0,none,true,,,
html-keyboard-response,818,1278378,null,"SPOUSE",null,word,,,,, 'SPOUSE',,
call-function,819,1278379,,"",,,,,,,,,
html-keyboard-response,820,1278482,null,"",null,,,,,,,,
math-period,821,1280811,4332,"",,,,,,,,,5
html-keyboard-response,822,1280918,null,"",null,,,,,,,,
math-period,823,1283443,4645,"",,,,,,,,,2
html-keyboard-response,824,1283547,null,"",null,,,,,,,,
math-period,825,1285307,3196,"",,,,,,,,,2
html-keyboard-response,826,1285409,null,"",null,,,,,,,,
math-period,827,1288162,5144,"",,,,,,,,,0
html-keyboard-response,828,1288266,null,"",null,,,,,,,,
math-period,829,1289971,2948,"",,,,,,,,,2
html-keyboard-response,830,1290075,null,"",null,,,,,,,,
math-period,831,1291563,2571,"",,,,,,,,,3
html-keyboard-response,832,1291669,null,"",null,,,,,,,,
math-period,833,1292739,1738,"",,,,,,,,,3
html-keyboard-response,834,1292841,null,"",null,,,,,,,,
math-period,835,1294995,3967,"",,,,,,,,,4
html-keyboard-response,836,1295097,null,"",null,,,,,,,,
math-period,837,1297587,4736,"",,,,,,,,,1
html-keyboard-response,838,1297692,null,"",null,,,,,,,,
math-period,839,1299323,2971,"",,,,,,,,,1
html-keyboard-response,840,1299430,null,"",null,,,,,,,,
math-period,841,1301508,3711,"",,,,,,,,,4
html-keyboard-response,842,1301610,null,"",null,,,,,,,,
math-period,843,1302382,null,"",,,,,,,,,
html-keyboard-response,844,1303387,null,"Recall Period!",null,,,,,,,,
call-function,845,1303388,,"",,,,,,,,,
html-keyboard-response,846,1303493,null,"",null,,,,,,,,
recall-period,847,1305603,9891,"",,,,,,,,,turnip
html-keyboard-response,848,1305706,null,"",null,,,,,,,,
recall-period,849,1306907,5384,"",,,,,,,,,husband
html-keyboard-response,850,1307012,null,"",null,,,,,,,,
recall-period,851,1308372,4977,"",,,,,,,,,spouse
html-keyboard-response,852,1308477,null,"",null,,,,,,,,
recall-period,853,1314380,60171,"",,,,,,,,,cashew
html-keyboard-response,854,1314486,null,"",null,,,,,,,,
recall-period,855,1317916,19211,"",,,,,,,,,victim
html-keyboard-response,856,1318018,null,"",null,,,,,,,,
recall-period,857,1322044,24272,"",,,,,,,,,inmate
html-keyboard-response,858,1322149,null,"",null,,,,,,,,
recall-period,859,1327442,24823,"",,,,,,,,,smog
html-keyboard-response,860,1327547,null,"",null,,,,,,,,
recall-period,861,1331043,15860,"",,,,,,,,,frog
html-keyboard-response,862,1331147,null,"",null,,,,,,,,
recall-period,863,1333763,15222,"",,,,,,,,,peanut
html-keyboard-response,864,1333866,null,"",null,,,,,,,,
recall-period,865,1346486,84423,"",,,,,,,,,turtle
html-keyboard-response,866,1346589,null,"",null,,,,,,,,
recall-period,867,1370524,337689,"",,,,,,,,,toothbrush
html-keyboard-response,868,1370626,null,"",null,,,,,,,,
recall-period,869,1377517,48490,"",,,,,,,,,kleenex
html-keyboard-response,870,1377619,null,"",null,,,,,,,,
recall-period,871,1378392,1885,"",,,,,,,,,vamp
html-keyboard-response,872,1378899,null,"Time's Up!",null,,,,,,,,
html-keyboard-response,873,1380140,1239,"<p> Good job! You responded correctly to 97% of the red squares.</p>
                  <p>Be sure to keep your accuracy above 80%</p>
                  <p>Press any key to continue the experiment. Thank you!</p>",32,,,,,,,,
html-keyboard-response,874,1380716,574,"<div style=""font-size:48px;"">Press any key to begin list 9 of 24 </div>",32,,,,,,,,
html-keyboard-response,875,1383225,null,"<div style=""font-size:60px;"">+</div>",null,,,,,,,,
html-keyboard-response,876,1383727,null,"RAILROAD<img id = ""stim"" ><div class = green_square id = ""topsquare"" ></div><img id = ""stim"" ><div class = green_square  id = ""bottomsquare"" ></div>",null,word_square,response,0,none,true,,,
html-keyboard-response,877,1385231,null,"RAILROAD",null,word,,,,, 'RAILROAD',,
html-keyboard-response,878,1385670,438,"TIMBER<img id = ""stim"" ><div class = red_square id = ""topsquare"" ></div><img id = ""stim"" ><div class = red_square  id = ""bottomsquare"" ></div>",32,word_square,response,1,Space,true,,,
html-keyboard-response,879,1387177,null,"TIMBER",null,word,,,,, 'TIMBER',,
html-keyboard-response,880,1387680,null,"CANYON<img id = ""stim"" ><div class = green_square id = ""topsquare"" ></div><img id = ""stim"" ><div class = green_square  id = ""bottomsquare"" ></div>",null,word_square,response,0,none,true,,,
html-keyboard-response,881,1389184,null,"CANYON",null,word,,,,, 'CANYON',,
html-keyboard-response,882,1389687,null,"PLUMBER<img id = ""stim"" ><div class = green_square id = ""topsquare"" ></div><img id = ""stim"" ><div class = green_square  id = ""bottomsquare"" ></div>",null,word_square,response,0,none,true,,,
html-keyboard-response,883,1391190,null,"PLUMBER",null,word,,,,, 'PLUMBER',,
html-keyboard-response,884,1391635,444,"PIZZA<img id = ""stim"" ><div class = red_square id = ""topsquare"" ></div><img id = ""stim"" ><div class = red_square  id = ""bottomsquare"" ></div>",32,word_square,response,1,Space,true,,,
html-keyboard-response,885,1393141,null,"PIZZA",null,word,,,,, 'PIZZA',,
html-keyboard-response,886,1393579,437,"LAKE<img id = ""stim"" ><div class = red_square id = ""topsquare"" ></div><img id = ""stim"" ><div class = red_square  id = ""bottomsquare"" ></div>",32,word_square,response,1,Space,true,,,
html-keyboard-response,887,1395085,null,"LAKE",null,word,,,,, 'LAKE',,
html-keyboard-response,888,1395588,null,"TROUT<img id = ""stim"" ><div class = green_square id = ""topsquare"" ></div><img id = ""stim"" ><div class = green_square  id = ""bottomsquare"" ></div>",null,word_square,response,0,none,true,,,
html-keyboard-response,889,1397091,null,"TROUT",null,word,,,,, 'TROUT',,
html-keyboard-response,890,1397596,null,"TOMBSTONE<img id = ""stim"" ><div class = red_square id = ""topsquare"" ></div><img id = ""stim"" ><div class = red_square  id = ""bottomsquare"" ></div>",null,word_square,response,1,Space,false,,,
html-keyboard-response,891,1399100,null,"TOMBSTONE",null,word,,,,, 'TOMBSTONE',,
html-keyboard-response,892,1399527,426,"MEAT<img id = ""stim"" ><div class = red_square id = ""topsquare"" ></div><img id = ""stim"" ><div class = red_square  id = ""bottomsquare"" ></div>",32,word_square,response,1,Space,true,,,
html-keyboard-response,893,1401033,null,"MEAT",null,word,,,,, 'MEAT',,
html-keyboard-response,894,1401538,null,"STAPLER<img id = ""stim"" ><div class = green_square id = ""topsquare"" ></div><img id = ""stim"" ><div class = green_square  id = ""bottomsquare"" ></div>",null,word_square,response,0,none,true,,,
html-keyboard-response,895,1403042,null,"STAPLER",null,word,,,,, 'STAPLER',,
html-keyboard-response,896,1403546,null,"PORPOISE<img id = ""stim"" ><div class = green_square id = ""topsquare"" ></div><img id = ""stim"" ><div class = green_square  id = ""bottomsquare"" ></div>",null,word_square,response,0,none,true,,,
html-keyboard-response,897,1405050,null,"PORPOISE",null,word,,,,, 'PORPOISE',,
html-keyboard-response,898,1405444,392,"BEEF<img id = ""stim"" ><div class = red_square id = ""topsquare"" ></div><img id = ""stim"" ><div class = red_square  id = ""bottomsquare"" ></div>",32,word_square,response,1,Space,true,,,
html-keyboard-response,899,1406948,null,"BEEF",null,word,,,,, 'BEEF',,
html-keyboard-response,900,1407348,396,"OATMEAL<img id = ""stim"" ><div class = red_square id = ""topsquare"" ></div><img id = ""stim"" ><div class = red_square  id = ""bottomsquare"" ></div>",32,word_square,response,1,Space,true,,,
html-keyboard-response,901,1408855,null,"OATMEAL",null,word,,,,, 'OATMEAL',,
html-keyboard-response,902,1409357,null,"WASP<img id = ""stim"" ><div class = green_square id = ""topsquare"" ></div><img id = ""stim"" ><div class = green_square  id = ""bottomsquare"" ></div>",null,word_square,response,0,none,true,,,
html-keyboard-response,903,1410863,null,"WASP",null,word,,,,, 'WASP',,
html-keyboard-response,904,1411366,null,"LAVA<img id = ""stim"" ><div class = green_square id = ""topsquare"" ></div><img id = ""stim"" ><div class = green_square  id = ""bottomsquare"" ></div>",null,word_square,response,0,none,true,,,
html-keyboard-response,905,1412873,null,"LAVA",null,word,,,,, 'LAVA',,
html-keyboard-response,906,1413274,400,"CRATER<img id = ""stim"" ><div class = red_square id = ""topsquare"" ></div><img id = ""stim"" ><div class = red_square  id = ""bottomsquare"" ></div>",32,word_square,response,1,Space,true,,,
html-keyboard-response,907,1414779,null,"CRATER",null,word,,,,, 'CRATER',,
html-keyboard-response,908,1415285,null,"ZIPPER<img id = ""stim"" ><div class = green_square id = ""topsquare"" ></div><img id = ""stim"" ><div class = green_square  id = ""bottomsquare"" ></div>",null,word_square,response,0,none,true,,,
html-keyboard-response,909,1416791,null,"ZIPPER",null,word,,,,, 'ZIPPER',,
html-keyboard-response,910,1417197,405,"FOOT<img id = ""stim"" ><div class = red_square id = ""topsquare"" ></div><img id = ""stim"" ><div class = red_square  id = ""bottomsquare"" ></div>",32,word_square,response,1,Space,true,,,
html-keyboard-response,911,1418700,null,"FOOT",null,word,,,,, 'FOOT',,
call-function,912,1418701,,"",,,,,,,,,
html-keyboard-response,913,1418805,null,"",null,,,,,,,,
math-period,914,1420862,3405,"",,,,,,,,,1
html-keyboard-response,915,1420967,null,"",null,,,,,,,,
math-period,916,1422270,2222,"",,,,,,,,,3
html-keyboard-response,917,1422375,null,"",null,,,,,,,,
math-period,918,1423806,2617,"",,,,,,,,,5
html-keyboard-response,919,1423911,null,"",null,,,,,,,,
math-period,920,1425351,2572,"",,,,,,,,,4
html-keyboard-response,921,1425455,null,"",null,,,,,,,,
math-period,922,1426806,2354,"",,,,,,,,,2
html-keyboard-response,923,1426912,null,"",null,,,,,,,,
math-period,924,1428463,2554,"",,,,,,,,,3
html-keyboard-response,925,1428566,null,"",null,,,,,,,,
math-period,926,1429885,2307,"",,,,,,,,,5
html-keyboard-response,927,1429989,null,"",null,,,,,,,,
math-period,928,1432966,5631,"",,,,,,,,,0
html-keyboard-response,929,1433071,null,"",null,,,,,,,,
math-period,930,1434414,2372,"",,,,,,,,,4
html-keyboard-response,931,1434519,null,"",null,,,,,,,,
math-period,932,1435751,2223,"",,,,,,,,,2
html-keyboard-response,933,1435854,null,"",null,,,,,,,,
math-period,934,1436966,1972,"",,,,,,,,,2
html-keyboard-response,935,1437070,null,"",null,,,,,,,,
math-period,936,1438351,2314,"",,,,,,,,,4
html-keyboard-response,937,1438455,null,"",null,,,,,,,,
math-period,938,1439774,2329,"",,,,,,,,,5
html-keyboard-response,939,1439877,null,"",null,,,,,,,,
math-period,940,1441311,2478,"",,,,,,,,,3
html-keyboard-response,941,1441413,null,"",null,,,,,,,,
math-period,942,1442702,null,"",,,,,,,,,
html-keyboard-response,943,1443706,null,"Recall Period!",null,,,,,,,,
call-function,944,1443707,,"",,,,,,,,,
html-keyboard-response,945,1443813,null,"",null,,,,,,,,
recall-period,946,1446110,12492,"",,,,,,,,,porpoise
html-keyboard-response,947,1446214,null,"",null,,,,,,,,
recall-period,948,1447247,3066,"",,,,,,,,,lava
html-keyboard-response,949,1447351,null,"",null,,,,,,,,
recall-period,950,1449079,6490,"",,,,,,,,,crater
html-keyboard-response,951,1449182,null,"",null,,,,,,,,
recall-period,952,1450303,3130,"",,,,,,,,,foot
html-keyboard-response,953,1450408,null,"",null,,,,,,,,
recall-period,954,1452262,9398,"",,,,,,,,,stapler
html-keyboard-response,955,1452367,null,"",null,,,,,,,,
recall-period,956,1459139,38206,"",,,,,,,,,river
html-keyboard-response,957,1459246,null,"",null,,,,,,,,
recall-period,958,1460131,2327,"",,,,,,,,,lake
html-keyboard-response,959,1460234,null,"",null,,,,,,,,
recall-period,960,1462851,13576,"",,,,,,,,,meat
html-keyboard-response,961,1462956,null,"",null,,,,,,,,
recall-period,962,1464235,3977,"",,,,,,,,,beef
html-keyboard-response,963,1464342,null,"",null,,,,,,,,
recall-period,964,1465692,5231,"",,,,,,,,,trouth
html-keyboard-response,965,1465797,null,"",null,,,,,,,,
recall-period,966,1467787,9130,"",,,,,,,,,trout
html-keyboard-response,967,1467893,null,"",null,,,,,,,,
recall-period,968,1468923,3673,"",,,,,,,,,lake
html-keyboard-response,969,1469028,null,"",null,,,,,,,,
recall-period,970,1478362,118845,"",,,,,,,,,timber
html-keyboard-response,971,1478467,null,"",null,,,,,,,,
recall-period,972,1487992,61942,"",,,,,,,,,turnip
html-keyboard-response,973,1488098,null,"",null,,,,,,,,
recall-period,974,1518713,null,"",,,,,,,,,
html-keyboard-response,975,1519220,null,"Time's Up!",null,,,,,,,,
html-keyboard-response,976,1546841,27618,"<p> Good job! You responded correctly to 97% of the red squares.</p>
                  <p>Be sure to keep your accuracy above 80%</p>
                  <p>Press any key to continue the experiment. Thank you!</p>",13,,,,,,,,
html-keyboard-response,977,1547825,982,"<div style=""font-size:48px;"">Press any key to begin list 10 of 24 </div>",32,,,,,,,,
html-keyboard-response,978,1550330,null,"<div style=""font-size:60px;"">+</div>",null,,,,,,,,
html-keyboard-response,979,1550832,null,"PALACE<img id = ""stim"" ><div class = green_square id = ""topsquare"" ></div><img id = ""stim"" ><div class = green_square  id = ""bottomsquare"" ></div>",null,word_square,response,0,none,true,,,
html-keyboard-response,980,1552334,null,"PALACE",null,word,,,,, 'PALACE',,
html-keyboard-response,981,1552717,381,"COFFIN<img id = ""stim"" ><div class = red_square id = ""topsquare"" ></div><img id = ""stim"" ><div class = red_square  id = ""bottomsquare"" ></div>",32,word_square,response,1,Space,true,,,
html-keyboard-response,982,1554221,null,"COFFIN",null,word,,,,, 'COFFIN',,
html-keyboard-response,983,1554726,null,"PARCEL<img id = ""stim"" ><div class = green_square id = ""topsquare"" ></div><img id = ""stim"" ><div class = green_square  id = ""bottomsquare"" ></div>",null,word_square,response,0,none,true,,,
html-keyboard-response,984,1556231,null,"PARCEL",null,word,,,,, 'PARCEL',,
html-keyboard-response,985,1556736,null,"SERVANT<img id = ""stim"" ><div class = green_square id = ""topsquare"" ></div><img id = ""stim"" ><div class = green_square  id = ""bottomsquare"" ></div>",null,word_square,response,0,none,true,,,
html-keyboard-response,986,1558242,null,"SERVANT",null,word,,,,, 'SERVANT',,
html-keyboard-response,987,1558673,430,"TOILET<img id = ""stim"" ><div class = red_square id = ""topsquare"" ></div><img id = ""stim"" ><div class = red_square  id = ""bottomsquare"" ></div>",32,word_square,response,1,Space,true,,,
html-keyboard-response,988,1560178,null,"TOILET",null,word,,,,, 'TOILET',,
html-keyboard-response,989,1560680,null,"VILLAGE<img id = ""stim"" ><div class = red_square id = ""topsquare"" ></div><img id = ""stim"" ><div class = red_square  id = ""bottomsquare"" ></div>",null,word_square,response,1,Space,false,,,
html-keyboard-response,990,1562183,null,"VILLAGE",null,word,,,,, 'VILLAGE',,
html-keyboard-response,991,1562689,null,"WAX<img id = ""stim"" ><div class = green_square id = ""topsquare"" ></div><img id = ""stim"" ><div class = green_square  id = ""bottomsquare"" ></div>",null,word_square,response,0,none,true,,,
html-keyboard-response,992,1564195,null,"WAX",null,word,,,,, 'WAX',,
html-keyboard-response,993,1564586,389,"BEDROOM<img id = ""stim"" ><div class = red_square id = ""topsquare"" ></div><img id = ""stim"" ><div class = red_square  id = ""bottomsquare"" ></div>",32,word_square,response,1,Space,true,,,
html-keyboard-response,994,1566090,null,"BEDROOM",null,word,,,,, 'BEDROOM',,
html-keyboard-response,995,1566496,403,"WAITER<img id = ""stim"" ><div class = red_square id = ""topsquare"" ></div><img id = ""stim"" ><div class = red_square  id = ""bottomsquare"" ></div>",32,word_square,response,1,Space,true,,,
html-keyboard-response,996,1567999,null,"WAITER",null,word,,,,, 'WAITER',,
html-keyboard-response,997,1568503,null,"DAGGER<img id = ""stim"" ><div class = green_square id = ""topsquare"" ></div><img id = ""stim"" ><div class = green_square  id = ""bottomsquare"" ></div>",null,word_square,response,0,none,true,,,
html-keyboard-response,998,1570009,null,"DAGGER",null,word,,,,, 'DAGGER',,
html-keyboard-response,999,1570514,null,"LABEL<img id = ""stim"" ><div class = green_square id = ""topsquare"" ></div><img id = ""stim"" ><div class = green_square  id = ""bottomsquare"" ></div>",null,word_square,response,0,none,true,,,
html-keyboard-response,1000,1572018,null,"LABEL",null,word,,,,, 'LABEL',,
html-keyboard-response,1001,1572435,415,"VICTOR<img id = ""stim"" ><div class = red_square id = ""topsquare"" ></div><img id = ""stim"" ><div class = red_square  id = ""bottomsquare"" ></div>",32,word_square,response,1,Space,true,,,
html-keyboard-response,1002,1573939,null,"VICTOR",null,word,,,,, 'VICTOR',,
html-keyboard-response,1003,1574363,421,"SWIMMER<img id = ""stim"" ><div class = red_square id = ""topsquare"" ></div><img id = ""stim"" ><div class = red_square  id = ""bottomsquare"" ></div>",32,word_square,response,1,Space,true,,,
html-keyboard-response,1004,1575867,null,"SWIMMER",null,word,,,,, 'SWIMMER',,
html-keyboard-response,1005,1576368,null,"SWAMP<img id = ""stim"" ><div class = green_square id = ""topsquare"" ></div><img id = ""stim"" ><div class = green_square  id = ""bottomsquare"" ></div>",null,word_square,response,0,none,true,,,
html-keyboard-response,1006,1577872,null,"SWAMP",null,word,,,,, 'SWAMP',,
