trial_type,trial_index,time_elapsed,rt,stimulus,key_press,test_part,task,targ_cond,correctKeyCode,correct,word,value,response
pavlovia,0,2949,,"",,,,,,,,,
external-html,1,530690,527231.3899998553,"",,,,,,,,,
html-keyboard-response,2,533099,2402.8500001877546,"Welcome to the experiment. Press any key to begin.",86,,,,,,,,
html-keyboard-response,3,553048,19944.42000007257,"<p>You will see a list of words and colored squares in the following task.<p><p>Press the spacebar whenever you see a red square.<p><p>Do not press a key if the square is green<p><p>Press the spacebar to continue.</p>",32,,,,,,,,
html-keyboard-response,4,580661,27103.899999987334,"<p>Please try to remember as many of the words as you can, and try to think about the meaning of each word as it appears.<p><p>After the detection and encoding task you will be asked to solve some math problems for 24 seconds.<p> Please solve as many problems as you can in the time given. <p>",32,,,,,,,,
html-keyboard-response,5,595121,13950.600000098348,"After solving the math problems, you will be asked to type in as many words <p>from the previous list as you can remember for 75 seconds.<p> If you finish recalling before the 75 seconds are up,<p> just sit tight and try to think of any more words you could have missed. <p><p>We will begin with a brief practice session<p>Press the spacebar to begin the practice.</p>",32,,,,,,,,
html-keyboard-response,6,597641,null,"<div style=""font-size:60px;"">+</div>",null,,,,,,,,
html-keyboard-response,7,598150,null,"HAPPY<img id = ""stim"" ><div class = green_square id = ""topsquare"" ></div><img id = ""stim"" ><div class = green_square  id = ""bottomsquare"" ></div>",null,word_square,prac_response,0,none,true,,,
html-keyboard-response,8,599660,null,"HAPPY",null,word,,,,,HAPPY,,
html-keyboard-response,9,600169,null,"COLD<img id = ""stim"" ><div class = red_square id = ""topsquare"" ></div><img id = ""stim"" ><div class = red_square  id = ""bottomsquare"" ></div>",null,word_square,prac_response,1,Space,false,,,
html-keyboard-response,10,601674,null,"COLD",null,word,,,,,COLD,,
html-keyboard-response,11,602181,null,"HEAVY<img id = ""stim"" ><div class = red_square id = ""topsquare"" ></div><img id = ""stim"" ><div class = red_square  id = ""bottomsquare"" ></div>",null,word_square,prac_response,1,Space,false,,,
html-keyboard-response,12,603691,null,"HEAVY",null,word,,,,,HEAVY,,
html-keyboard-response,13,604196,null,"FUNNY<img id = ""stim"" ><div class = green_square id = ""topsquare"" ></div><img id = ""stim"" ><div class = green_square  id = ""bottomsquare"" ></div>",null,word_square,prac_response,0,none,true,,,
html-keyboard-response,14,605703,null,"FUNNY",null,word,,,,,FUNNY,,
html-keyboard-response,15,606209,322.9449999053031,"SCARY<img id = ""stim"" ><div class = red_square id = ""topsquare"" ></div><img id = ""stim"" ><div class = red_square  id = ""bottomsquare"" ></div>",32,word_square,prac_response,1,Space,true,,,
html-keyboard-response,16,607718,null,"SCARY",null,word,,,,,SCARY,,
html-keyboard-response,17,608229,null,"PEACEFUL<img id = ""stim"" ><div class = red_square id = ""topsquare"" ></div><img id = ""stim"" ><div class = red_square  id = ""bottomsquare"" ></div>",null,word_square,prac_response,1,Space,false,,,
html-keyboard-response,18,609738,null,"PEACEFUL",null,word,,,,,PEACEFUL,,
html-keyboard-response,19,610248,null,"LITTLE<img id = ""stim"" ><div class = green_square id = ""topsquare"" ></div><img id = ""stim"" ><div class = green_square  id = ""bottomsquare"" ></div>",null,word_square,prac_response,0,none,true,,,
html-keyboard-response,20,611754,null,"LITTLE",null,word,,,,,LITTLE,,
html-keyboard-response,21,612262,null,"TIRED<img id = ""stim"" ><div class = green_square id = ""topsquare"" ></div><img id = ""stim"" ><div class = green_square  id = ""bottomsquare"" ></div>",null,word_square,prac_response,0,none,true,,,
html-keyboard-response,22,613766,null,"TIRED",null,word,,,,,TIRED,,
html-keyboard-response,23,614271,null,"ENTERTAINING<img id = ""stim"" ><div class = green_square id = ""topsquare"" ></div><img id = ""stim"" ><div class = green_square  id = ""bottomsquare"" ></div>",null,word_square,prac_response,0,none,true,,,
html-keyboard-response,24,615777,null,"ENTERTAINING",null,word,,,,,ENTERTAINING,,
html-keyboard-response,25,616280,null,"GRATEFUL<img id = ""stim"" ><div class = red_square id = ""topsquare"" ></div><img id = ""stim"" ><div class = red_square  id = ""bottomsquare"" ></div>",null,word_square,prac_response,1,Space,false,,,
html-keyboard-response,26,617798,null,"GRATEFUL",null,word,,,,,GRATEFUL,,
html-keyboard-response,27,618307,null,"LOUD<img id = ""stim"" ><div class = green_square id = ""topsquare"" ></div><img id = ""stim"" ><div class = green_square  id = ""bottomsquare"" ></div>",null,word_square,prac_response,0,none,true,,,
html-keyboard-response,28,619813,null,"LOUD",null,word,,,,,LOUD,,
html-keyboard-response,29,620324,null,"SMART<img id = ""stim"" ><div class = red_square id = ""topsquare"" ></div><img id = ""stim"" ><div class = red_square  id = ""bottomsquare"" ></div>",null,word_square,prac_response,1,Space,false,,,
html-keyboard-response,30,621831,null,"SMART",null,word,,,,,SMART,,
html-keyboard-response,31,622336,null,"SMOOTH<img id = ""stim"" ><div class = red_square id = ""topsquare"" ></div><img id = ""stim"" ><div class = red_square  id = ""bottomsquare"" ></div>",null,word_square,prac_response,1,Space,false,,,
html-keyboard-response,32,623846,null,"SMOOTH",null,word,,,,,SMOOTH,,
html-keyboard-response,33,624356,null,"DISHONEST<img id = ""stim"" ><div class = green_square id = ""topsquare"" ></div><img id = ""stim"" ><div class = green_square  id = ""bottomsquare"" ></div>",null,word_square,prac_response,0,none,true,,,
html-keyboard-response,34,625861,null,"DISHONEST",null,word,,,,,DISHONEST,,
html-keyboard-response,35,626368,null,"WEALTHY<img id = ""stim"" ><div class = red_square id = ""topsquare"" ></div><img id = ""stim"" ><div class = red_square  id = ""bottomsquare"" ></div>",null,word_square,prac_response,1,Space,false,,,
html-keyboard-response,36,627875,null,"WEALTHY",null,word,,,,,WEALTHY,,
html-keyboard-response,37,628380,null,"BEAUTIFUL<img id = ""stim"" ><div class = green_square id = ""topsquare"" ></div><img id = ""stim"" ><div class = green_square  id = ""bottomsquare"" ></div>",null,word_square,prac_response,0,none,true,,,
html-keyboard-response,38,629888,null,"BEAUTIFUL",null,word,,,,,BEAUTIFUL,,
html-keyboard-response,39,630393,null,"DREARY<img id = ""stim"" ><div class = green_square id = ""topsquare"" ></div><img id = ""stim"" ><div class = green_square  id = ""bottomsquare"" ></div>",null,word_square,prac_response,0,none,true,,,
html-keyboard-response,40,631900,null,"DREARY",null,word,,,,,DREARY,,
html-keyboard-response,41,632409,null,"PLAYFUL<img id = ""stim"" ><div class = red_square id = ""topsquare"" ></div><img id = ""stim"" ><div class = red_square  id = ""bottomsquare"" ></div>",null,word_square,prac_response,1,Space,false,,,
html-keyboard-response,42,633917,null,"PLAYFUL",null,word,,,,,PLAYFUL,,
html-keyboard-response,43,648209,14290.635000215843,"<p> Uh oh. You responded correctly on 56% of the red squares.</p>
                  <p>We need you keep your accuracy above 80%</p>
                  <p>We're going to try once more to make sure you understand the task. press any key to continue.</p>",32,,,,,,,,
html-keyboard-response,44,662087,13875.179999973625,"<p>You will see a list of words and colored squares in the following task.<p><p>Press the spacebar whenever you see a red square.<p><p>Do not press a key if the square is green<p><p>Press the spacebar to continue.</p>",32,,,,,,,,
html-keyboard-response,45,664597,null,"<div style=""font-size:60px;"">+</div>",null,,,,,,,,
html-keyboard-response,46,665103,null,"HAPPY<img id = ""stim"" ><div class = green_square id = ""topsquare"" ></div><img id = ""stim"" ><div class = green_square  id = ""bottomsquare"" ></div>",null,word_square,response,0,none,true,,,
html-keyboard-response,47,666606,null,"HAPPY",null,word,,,,,HAPPY,,
html-keyboard-response,48,666893,284.1349998489022,"COLD<img id = ""stim"" ><div class = red_square id = ""topsquare"" ></div><img id = ""stim"" ><div class = red_square  id = ""bottomsquare"" ></div>",32,word_square,response,1,Space,true,,,
html-keyboard-response,49,668400,null,"COLD",null,word,,,,,COLD,,
html-keyboard-response,50,668768,365.6350001692772,"HEAVY<img id = ""stim"" ><div class = red_square id = ""topsquare"" ></div><img id = ""stim"" ><div class = red_square  id = ""bottomsquare"" ></div>",32,word_square,response,1,Space,true,,,
html-keyboard-response,51,670278,null,"HEAVY",null,word,,,,,HEAVY,,
html-keyboard-response,52,670788,null,"FUNNY<img id = ""stim"" ><div class = green_square id = ""topsquare"" ></div><img id = ""stim"" ><div class = green_square  id = ""bottomsquare"" ></div>",null,word_square,response,0,none,true,,,
html-keyboard-response,53,672293,null,"FUNNY",null,word,,,,,FUNNY,,
html-keyboard-response,54,672625,328.87499989010394,"SCARY<img id = ""stim"" ><div class = red_square id = ""topsquare"" ></div><img id = ""stim"" ><div class = red_square  id = ""bottomsquare"" ></div>",32,word_square,response,1,Space,true,,,
html-keyboard-response,55,674132,null,"SCARY",null,word,,,,,SCARY,,
html-keyboard-response,56,674534,399.4650000240654,"PEACEFUL<img id = ""stim"" ><div class = red_square id = ""topsquare"" ></div><img id = ""stim"" ><div class = red_square  id = ""bottomsquare"" ></div>",32,word_square,response,1,Space,true,,,
html-keyboard-response,57,676041,null,"PEACEFUL",null,word,,,,,PEACEFUL,,
html-keyboard-response,58,676550,null,"LITTLE<img id = ""stim"" ><div class = green_square id = ""topsquare"" ></div><img id = ""stim"" ><div class = green_square  id = ""bottomsquare"" ></div>",null,word_square,response,0,none,true,,,
html-keyboard-response,59,678060,null,"LITTLE",null,word,,,,,LITTLE,,
html-keyboard-response,60,678567,null,"TIRED<img id = ""stim"" ><div class = green_square id = ""topsquare"" ></div><img id = ""stim"" ><div class = green_square  id = ""bottomsquare"" ></div>",null,word_square,response,0,none,true,,,
html-keyboard-response,61,680075,null,"TIRED",null,word,,,,,TIRED,,
html-keyboard-response,62,680585,null,"ENTERTAINING<img id = ""stim"" ><div class = green_square id = ""topsquare"" ></div><img id = ""stim"" ><div class = green_square  id = ""bottomsquare"" ></div>",null,word_square,response,0,none,true,,,
html-keyboard-response,63,682090,null,"ENTERTAINING",null,word,,,,,ENTERTAINING,,
html-keyboard-response,64,682435,341.6849998757243,"GRATEFUL<img id = ""stim"" ><div class = red_square id = ""topsquare"" ></div><img id = ""stim"" ><div class = red_square  id = ""bottomsquare"" ></div>",32,word_square,response,1,Space,true,,,
html-keyboard-response,65,683944,null,"GRATEFUL",null,word,,,,,GRATEFUL,,
html-keyboard-response,66,684448,null,"LOUD<img id = ""stim"" ><div class = green_square id = ""topsquare"" ></div><img id = ""stim"" ><div class = green_square  id = ""bottomsquare"" ></div>",null,word_square,response,0,none,true,,,
html-keyboard-response,67,685955,null,"LOUD",null,word,,,,,LOUD,,
html-keyboard-response,68,686270,312.2250000014901,"SMART<img id = ""stim"" ><div class = red_square id = ""topsquare"" ></div><img id = ""stim"" ><div class = red_square  id = ""bottomsquare"" ></div>",32,word_square,response,1,Space,true,,,
html-keyboard-response,69,687778,null,"SMART",null,word,,,,,SMART,,
html-keyboard-response,70,688155,373.9300000015646,"SMOOTH<img id = ""stim"" ><div class = red_square id = ""topsquare"" ></div><img id = ""stim"" ><div class = red_square  id = ""bottomsquare"" ></div>",32,word_square,response,1,Space,true,,,
html-keyboard-response,71,689666,null,"SMOOTH",null,word,,,,,SMOOTH,,
html-keyboard-response,72,690174,null,"DISHONEST<img id = ""stim"" ><div class = green_square id = ""topsquare"" ></div><img id = ""stim"" ><div class = green_square  id = ""bottomsquare"" ></div>",null,word_square,response,0,none,true,,,
html-keyboard-response,73,691683,null,"DISHONEST",null,word,,,,,DISHONEST,,
html-keyboard-response,74,692036,348.1299998238683,"WEALTHY<img id = ""stim"" ><div class = red_square id = ""topsquare"" ></div><img id = ""stim"" ><div class = red_square  id = ""bottomsquare"" ></div>",32,word_square,response,1,Space,true,,,
html-keyboard-response,75,693541,null,"WEALTHY",null,word,,,,,WEALTHY,,
html-keyboard-response,76,694051,null,"BEAUTIFUL<img id = ""stim"" ><div class = green_square id = ""topsquare"" ></div><img id = ""stim"" ><div class = green_square  id = ""bottomsquare"" ></div>",null,word_square,response,0,none,true,,,
html-keyboard-response,77,695558,null,"BEAUTIFUL",null,word,,,,,BEAUTIFUL,,
html-keyboard-response,78,696067,null,"DREARY<img id = ""stim"" ><div class = green_square id = ""topsquare"" ></div><img id = ""stim"" ><div class = green_square  id = ""bottomsquare"" ></div>",null,word_square,response,0,none,true,,,
html-keyboard-response,79,697585,null,"DREARY",null,word,,,,,DREARY,,
html-keyboard-response,80,697895,304.94000017642975,"PLAYFUL<img id = ""stim"" ><div class = red_square id = ""topsquare"" ></div><img id = ""stim"" ><div class = red_square  id = ""bottomsquare"" ></div>",32,word_square,response,1,Space,true,,,
html-keyboard-response,81,699404,null,"PLAYFUL",null,word,,,,,PLAYFUL,,
html-keyboard-response,82,702272,2863.24999993667,"<p> Good job! You responded correctly to 100% of the red squares.</p>
                  <p>Be sure to keep your accuracy above 80%</p>
                  <p>Press any key to begin the math and recall sections. Thank you!</p>",32,,,,,,,,
call-function,83,702275,,"",,,,,,,,,
html-keyboard-response,84,702380,null,"",null,,,,,,,,
math-period,85,709427,12066.83999975212,"",,,,,,,,,2
html-keyboard-response,86,709535,null,"",null,,,,,,,,
math-period,87,716128,12609.085000120103,"",,,,,,,,,1
html-keyboard-response,88,716231,null,"",null,,,,,,,,
math-period,89,721294,9952.550000045449,"",,,,,,,,,0
html-keyboard-response,90,721400,null,"",null,,,,,,,,
math-period,91,724541,6117.850000271574,"",,,,,,,,,5
html-keyboard-response,92,724649,null,"",null,,,,,,,,
math-period,93,726283,null,"",,,,,,,,,
html-keyboard-response,94,727292,null,"Recall Period!",null,,,,,,,,
call-function,95,727295,,"",,,,,,,,,
html-keyboard-response,96,727398,null,"",null,,,,,,,,
recall-period,97,746726,427521.58999675885,"",,,,,,,,,tired
html-keyboard-response,98,746830,null,"",null,,,,,,,,
recall-period,99,752089,26064.8850009311,"",,,,,,,,,peaceful
html-keyboard-response,100,752200,null,"",null,,,,,,,,
recall-period,101,754655,8082.225000252947,"",,,,,,,,,loud
html-keyboard-response,102,754757,null,"",null,,,,,,,,
recall-period,103,758741,19427.16500000097,"",,,,,,,,,smart
html-keyboard-response,104,758851,null,"",null,,,,,,,,
recall-period,105,762011,16131.984999636188,"",,,,,,,,,wealthy
html-keyboard-response,106,762117,null,"",null,,,,,,,,
recall-period,107,768567,33657.07500069402,"",,,,,,,,,scary
html-keyboard-response,108,768680,null,"",null,,,,,,,,
recall-period,109,772295,18949.709999840707,"",,,,,,,,,smooth
html-keyboard-response,110,772403,null,"",null,,,,,,,,
recall-period,111,777707,34006.09499914572,"",,,,,,,,,beautiful
html-keyboard-response,112,777815,null,"",null,,,,,,,,
recall-period,113,802302,null,"",,,,,,,,,
html-keyboard-response,114,802811,null,"Time's Up!",null,,,,,,,,
html-keyboard-response,115,830510,27696.66999997571,"<p>We will now begin the experiment!<p><p>Please try to remember all words from each list.<p><p>Press the spacebar whenever you see a red square.<p><p><p><p>Press the spacebar to begin.</p>",32,,,,,,,,
html-keyboard-response,116,837682,6667.370000155643,"<div style=""font-size:48px;"">Press any key to begin list 1 of 24 </div>",49,,,,,,,,
html-keyboard-response,117,840192,null,"<div style=""font-size:60px;"">+</div>",null,,,,,,,,
html-keyboard-response,118,840704,null,"DRAWING<img id = ""stim"" ><div class = green_square id = ""topsquare"" ></div><img id = ""stim"" ><div class = green_square  id = ""bottomsquare"" ></div>",null,word_square,response,0,none,true,,,
html-keyboard-response,119,842214,null,"DRAWING",null,word,,,,, 'DRAWING',,
html-keyboard-response,120,842747,null,"LODGE<img id = ""stim"" ><div class = green_square id = ""topsquare"" ></div><img id = ""stim"" ><div class = green_square  id = ""bottomsquare"" ></div>",null,word_square,response,0,none,true,,,
html-keyboard-response,121,844253,null,"LODGE",null,word,,,,, 'LODGE',,
html-keyboard-response,122,844759,null,"CABOOSE<img id = ""stim"" ><div class = red_square id = ""topsquare"" ></div><img id = ""stim"" ><div class = red_square  id = ""bottomsquare"" ></div>",null,word_square,response,1,Space,false,,,
html-keyboard-response,123,846264,null,"CABOOSE",null,word,,,,, 'CABOOSE',,
html-keyboard-response,124,846795,null,"TYPIST<img id = ""stim"" ><div class = green_square id = ""topsquare"" ></div><img id = ""stim"" ><div class = green_square  id = ""bottomsquare"" ></div>",null,word_square,response,0,none,true,,,
html-keyboard-response,125,848300,null,"TYPIST",null,word,,,,, 'TYPIST',,
html-keyboard-response,126,848804,null,"OFFICE<img id = ""stim"" ><div class = green_square id = ""topsquare"" ></div><img id = ""stim"" ><div class = green_square  id = ""bottomsquare"" ></div>",null,word_square,response,0,none,true,,,
html-keyboard-response,127,850308,null,"OFFICE",null,word,,,,, 'OFFICE',,
html-keyboard-response,128,850806,494.63500012643635,"SCULPTURE<img id = ""stim"" ><div class = red_square id = ""topsquare"" ></div><img id = ""stim"" ><div class = red_square  id = ""bottomsquare"" ></div>",32,word_square,response,1,Space,true,,,
html-keyboard-response,129,852315,null,"SCULPTURE",null,word,,,,, 'SCULPTURE',,
html-keyboard-response,130,852819,null,"IDOL<img id = ""stim"" ><div class = red_square id = ""topsquare"" ></div><img id = ""stim"" ><div class = red_square  id = ""bottomsquare"" ></div>",null,word_square,response,1,Space,false,,,
html-keyboard-response,131,854329,null,"IDOL",null,word,,,,, 'IDOL',,
html-keyboard-response,132,854839,null,"SWORD<img id = ""stim"" ><div class = green_square id = ""topsquare"" ></div><img id = ""stim"" ><div class = green_square  id = ""bottomsquare"" ></div>",null,word_square,response,0,none,true,,,
html-keyboard-response,133,856345,null,"SWORD",null,word,,,,, 'SWORD',,
html-keyboard-response,134,856824,475.73999990709126,"LAGOON<img id = ""stim"" ><div class = red_square id = ""topsquare"" ></div><img id = ""stim"" ><div class = red_square  id = ""bottomsquare"" ></div>",32,word_square,response,1,Space,true,,,
html-keyboard-response,135,858336,null,"LAGOON",null,word,,,,, 'LAGOON',,
html-keyboard-response,136,858845,null,"STAKE<img id = ""stim"" ><div class = green_square id = ""topsquare"" ></div><img id = ""stim"" ><div class = green_square  id = ""bottomsquare"" ></div>",null,word_square,response,0,none,true,,,
html-keyboard-response,137,860349,null,"STAKE",null,word,,,,, 'STAKE',,
html-keyboard-response,138,860859,null,"CABIN<img id = ""stim"" ><div class = green_square id = ""topsquare"" ></div><img id = ""stim"" ><div class = green_square  id = ""bottomsquare"" ></div>",null,word_square,response,0,none,true,,,
html-keyboard-response,139,862366,null,"CABIN",null,word,,,,, 'CABIN',,
html-keyboard-response,140,862703,333.9100000448525,"SHAMPOO<img id = ""stim"" ><div class = red_square id = ""topsquare"" ></div><img id = ""stim"" ><div class = red_square  id = ""bottomsquare"" ></div>",32,word_square,response,1,Space,true,,,
html-keyboard-response,141,864215,null,"SHAMPOO",null,word,,,,, 'SHAMPOO',,
html-keyboard-response,142,864698,478.63500006496906,"BLANKET<img id = ""stim"" ><div class = red_square id = ""topsquare"" ></div><img id = ""stim"" ><div class = red_square  id = ""bottomsquare"" ></div>",32,word_square,response,1,Space,true,,,
html-keyboard-response,143,866204,null,"BLANKET",null,word,,,,, 'BLANKET',,
html-keyboard-response,144,866710,null,"HARP<img id = ""stim"" ><div class = green_square id = ""topsquare"" ></div><img id = ""stim"" ><div class = green_square  id = ""bottomsquare"" ></div>",null,word_square,response,0,none,true,,,
html-keyboard-response,145,868220,null,"HARP",null,word,,,,, 'HARP',,
html-keyboard-response,146,868572,349.50500004924834,"PARCEL<img id = ""stim"" ><div class = red_square id = ""topsquare"" ></div><img id = ""stim"" ><div class = red_square  id = ""bottomsquare"" ></div>",32,word_square,response,1,Space,true,,,
html-keyboard-response,147,870082,null,"PARCEL",null,word,,,,, 'PARCEL',,
html-keyboard-response,148,870580,494.6349998936057,"MOTEL<img id = ""stim"" ><div class = red_square id = ""topsquare"" ></div><img id = ""stim"" ><div class = red_square  id = ""bottomsquare"" ></div>",32,word_square,response,1,Space,true,,,
html-keyboard-response,149,872092,null,"MOTEL",null,word,,,,, 'MOTEL',,
html-keyboard-response,150,872598,null,"CRAYON<img id = ""stim"" ><div class = green_square id = ""topsquare"" ></div><img id = ""stim"" ><div class = green_square  id = ""bottomsquare"" ></div>",null,word_square,response,0,none,true,,,
html-keyboard-response,151,874109,null,"CRAYON",null,word,,,,, 'CRAYON',,
html-keyboard-response,152,874503,389.5350000821054,"DANDRUFF<img id = ""stim"" ><div class = red_square id = ""topsquare"" ></div><img id = ""stim"" ><div class = red_square  id = ""bottomsquare"" ></div>",32,word_square,response,1,Space,true,,,
html-keyboard-response,153,876012,null,"DANDRUFF",null,word,,,,, 'DANDRUFF',,
call-function,154,876016,,"",,,,,,,,,
html-keyboard-response,155,876127,null,"",null,,,,,,,,
math-period,156,883170,13801.275000208989,"",,,,,,,,,2
html-keyboard-response,157,883280,null,"",null,,,,,,,,
math-period,158,885430,4057.445000158623,"",,,,,,,,,2
html-keyboard-response,159,885540,null,"",null,,,,,,,,
math-period,160,888115,4916.045000078157,"",,,,,,,,,6
html-keyboard-response,161,888222,null,"",null,,,,,,,,
math-period,162,890987,5394.6050000377,"",,,,,,,,,2
html-keyboard-response,163,891094,null,"",null,,,,,,,,
math-period,164,893053,3773.2449998147786,"",,,,,,,,,5
html-keyboard-response,165,893158,null,"",null,,,,,,,,
math-period,166,895290,4133.479999843985,"",,,,,,,,,1
html-keyboard-response,167,895395,null,"",null,,,,,,,,
math-period,168,897160,3352.855000179261,"",,,,,,,,,3
html-keyboard-response,169,897269,null,"",null,,,,,,,,
math-period,170,898798,2867.9100000299513,"",,,,,,,,,5
html-keyboard-response,171,898905,null,"",null,,,,,,,,
math-period,172,900021,null,"",,,,,,,,,
html-keyboard-response,173,901028,null,"Recall Period!",null,,,,,,,,
call-function,174,901030,,"",,,,,,,,,
html-keyboard-response,175,901137,null,"",null,,,,,,,,
recall-period,176,909796,52006.88500050455,"",,,,,,,,,parcel
html-keyboard-response,177,909904,null,"",null,,,,,,,,
recall-period,178,912676,15312.189999269322,"",,,,,,,,,blanket
html-keyboard-response,179,912783,null,"",null,,,,,,,,
recall-period,180,924128,85720.04499915056,"",,,,,,,,,dandruff
html-keyboard-response,181,924238,null,"",null,,,,,,,,
recall-period,182,929896,38109.43000018597,"",,,,,,,,,blanket
html-keyboard-response,183,930006,null,"",null,,,,,,,,
recall-period,184,976039,null,"",,,,,,,,,
html-keyboard-response,185,976553,null,"Time's Up!",null,,,,,,,,
html-keyboard-response,186,990538,13981.840000022203,"<p> Good job! You responded correctly to 94% of the red squares.</p>
                  <p>Be sure to keep your accuracy above 80%</p>
                  <p>Press any key to continue the experiment. Thank you!</p>",32,,,,,,,,
html-keyboard-response,187,997915,7374.294999986887,"<div style=""font-size:48px;"">Press any key to begin list 2 of 24 </div>",32,,,,,,,,
html-keyboard-response,188,1000428,null,"<div style=""font-size:60px;"">+</div>",null,,,,,,,,
html-keyboard-response,189,1000933,null,"RODENT<img id = ""stim"" ><div class = green_square id = ""topsquare"" ></div><img id = ""stim"" ><div class = green_square  id = ""bottomsquare"" ></div>",null,word_square,response,0,none,true,,,
html-keyboard-response,190,1002442,null,"RODENT",null,word,,,,, 'RODENT',,
html-keyboard-response,191,1002954,null,"THIMBLE<img id = ""stim"" ><div class = green_square id = ""topsquare"" ></div><img id = ""stim"" ><div class = green_square  id = ""bottomsquare"" ></div>",null,word_square,response,0,none,true,,,
html-keyboard-response,192,1004458,null,"THIMBLE",null,word,,,,, 'THIMBLE',,
html-keyboard-response,193,1004948,487.05000011250377,"COSTUME<img id = ""stim"" ><div class = red_square id = ""topsquare"" ></div><img id = ""stim"" ><div class = red_square  id = ""bottomsquare"" ></div>",32,word_square,response,1,Space,true,,,
html-keyboard-response,194,1006458,null,"COSTUME",null,word,,,,, 'COSTUME',,
html-keyboard-response,195,1006970,null,"JUGGLER<img id = ""stim"" ><div class = green_square id = ""topsquare"" ></div><img id = ""stim"" ><div class = green_square  id = ""bottomsquare"" ></div>",null,word_square,response,0,none,true,,,
html-keyboard-response,196,1008474,null,"JUGGLER",null,word,,,,, 'JUGGLER',,
html-keyboard-response,197,1008980,null,"NAPKIN<img id = ""stim"" ><div class = green_square id = ""topsquare"" ></div><img id = ""stim"" ><div class = green_square  id = ""bottomsquare"" ></div>",null,word_square,response,0,none,true,,,
html-keyboard-response,198,1010485,null,"NAPKIN",null,word,,,,, 'NAPKIN',,
html-keyboard-response,199,1010990,null,"PATROL<img id = ""stim"" ><div class = red_square id = ""topsquare"" ></div><img id = ""stim"" ><div class = red_square  id = ""bottomsquare"" ></div>",null,word_square,response,1,Space,false,,,
html-keyboard-response,200,1012496,null,"PATROL",null,word,,,,, 'PATROL',,
html-keyboard-response,201,1013005,null,"COLUMN<img id = ""stim"" ><div class = red_square id = ""topsquare"" ></div><img id = ""stim"" ><div class = red_square  id = ""bottomsquare"" ></div>",null,word_square,response,1,Space,false,,,
html-keyboard-response,202,1014515,null,"COLUMN",null,word,,,,, 'COLUMN',,
html-keyboard-response,203,1015027,null,"ANKLE<img id = ""stim"" ><div class = green_square id = ""topsquare"" ></div><img id = ""stim"" ><div class = green_square  id = ""bottomsquare"" ></div>",null,word_square,response,0,none,true,,,
html-keyboard-response,204,1016533,null,"ANKLE",null,word,,,,, 'ANKLE',,
html-keyboard-response,205,1016949,413.0150000564754,"CIGAR<img id = ""stim"" ><div class = red_square id = ""topsquare"" ></div><img id = ""stim"" ><div class = red_square  id = ""bottomsquare"" ></div>",32,word_square,response,1,Space,true,,,
html-keyboard-response,206,1018459,null,"CIGAR",null,word,,,,, 'CIGAR',,
html-keyboard-response,207,1018966,null,"MAILMAN<img id = ""stim"" ><div class = green_square id = ""topsquare"" ></div><img id = ""stim"" ><div class = green_square  id = ""bottomsquare"" ></div>",null,word_square,response,0,none,true,,,
html-keyboard-response,208,1020476,null,"MAILMAN",null,word,,,,, 'MAILMAN',,
html-keyboard-response,209,1020981,null,"FRIES<img id = ""stim"" ><div class = green_square id = ""topsquare"" ></div><img id = ""stim"" ><div class = green_square  id = ""bottomsquare"" ></div>",null,word_square,response,0,none,true,,,
html-keyboard-response,210,1022486,null,"FRIES",null,word,,,,, 'FRIES',,
html-keyboard-response,211,1022942,452.19000009819865,"NICKEL<img id = ""stim"" ><div class = red_square id = ""topsquare"" ></div><img id = ""stim"" ><div class = red_square  id = ""bottomsquare"" ></div>",32,word_square,response,1,Space,true,,,
html-keyboard-response,212,1024446,null,"NICKEL",null,word,,,,, 'NICKEL',,
html-keyboard-response,213,1024833,385.8600000385195,"KNAPSACK<img id = ""stim"" ><div class = red_square id = ""topsquare"" ></div><img id = ""stim"" ><div class = red_square  id = ""bottomsquare"" ></div>",32,word_square,response,1,Space,true,,,
html-keyboard-response,214,1026342,null,"KNAPSACK",null,word,,,,, 'KNAPSACK',,
html-keyboard-response,215,1026851,null,"GUARD<img id = ""stim"" ><div class = green_square id = ""topsquare"" ></div><img id = ""stim"" ><div class = green_square  id = ""bottomsquare"" ></div>",null,word_square,response,0,none,true,,,
html-keyboard-response,216,1028355,null,"GUARD",null,word,,,,, 'GUARD',,
html-keyboard-response,217,1028768,410.8399997930974,"ACTRESS<img id = ""stim"" ><div class = red_square id = ""topsquare"" ></div><img id = ""stim"" ><div class = red_square  id = ""bottomsquare"" ></div>",32,word_square,response,1,Space,true,,,
html-keyboard-response,218,1030274,null,"ACTRESS",null,word,,,,, 'ACTRESS',,
html-keyboard-response,219,1030795,null,"PADDING<img id = ""stim"" ><div class = red_square id = ""topsquare"" ></div><img id = ""stim"" ><div class = red_square  id = ""bottomsquare"" ></div>",null,word_square,response,1,Space,false,,,
html-keyboard-response,220,1032304,null,"PADDING",null,word,,,,, 'PADDING',,
html-keyboard-response,221,1032815,null,"VELVET<img id = ""stim"" ><div class = green_square id = ""topsquare"" ></div><img id = ""stim"" ><div class = green_square  id = ""bottomsquare"" ></div>",null,word_square,response,0,none,true,,,
html-keyboard-response,222,1034320,null,"VELVET",null,word,,,,, 'VELVET',,
html-keyboard-response,223,1034779,456.20999997481704,"BIBLE<img id = ""stim"" ><div class = red_square id = ""topsquare"" ></div><img id = ""stim"" ><div class = red_square  id = ""bottomsquare"" ></div>",32,word_square,response,1,Space,true,,,
html-keyboard-response,224,1036290,null,"BIBLE",null,word,,,,, 'BIBLE',,
call-function,225,1036292,,"",,,,,,,,,
html-keyboard-response,226,1036402,null,"",null,,,,,,,,
math-period,227,1038962,4316.459999652579,"",,,,,,,,,3
html-keyboard-response,228,1039068,null,"",null,,,,,,,,
math-period,229,1040428,2461.4399999845773,"",,,,,,,,,3
html-keyboard-response,230,1040534,null,"",null,,,,,,,,
math-period,231,1042887,4378.995000151917,"",,,,,,,,,2
html-keyboard-response,232,1042998,null,"",null,,,,,,,,
math-period,233,1045001,3575.1199999358505,"",,,,,,,,,5
html-keyboard-response,234,1045109,null,"",null,,,,,,,,
math-period,235,1047443,4342.6050003618,"",,,,,,,,,1
html-keyboard-response,236,1047551,null,"",null,,,,,,,,
math-period,237,1049711,4084.7100000828505,"",,,,,,,,,3
html-keyboard-response,238,1049814,null,"",null,,,,,,,,
math-period,239,1056120,12231.110000051558,"",,,,,,,,,1
html-keyboard-response,240,1056230,null,"",null,,,,,,,,
math-period,241,1058519,4394.005000125617,"",,,,,,,,,2
html-keyboard-response,242,1058622,null,"",null,,,,,,,,
math-period,243,1060297,1663.664999883622,"",,,,,,,,,4
html-keyboard-response,244,1061304,null,"Recall Period!",null,,,,,,,,
call-function,245,1061306,,"",,,,,,,,,
html-keyboard-response,246,1061410,null,"",null,,,,,,,,
recall-period,247,1071127,63908.49999943748,"",,,,,,,,,rodent
html-keyboard-response,248,1071233,null,"",null,,,,,,,,
recall-period,249,1078847,30424.400000832975,"",,,,,,,,,napkin
html-keyboard-response,250,1078950,null,"",null,,,,,,,,
recall-period,251,1085632,30201.249999925494,"",,,,,,,,,column
html-keyboard-response,252,1085737,null,"",null,,,,,,,,
recall-period,253,1091210,14879.78499988094,"",,,,,,,,,cigar
html-keyboard-response,254,1091314,null,"",null,,,,,,,,
recall-period,255,1099764,26330.804999917746,"",,,,,,,,,ankle
html-keyboard-response,256,1099869,null,"",null,,,,,,,,
recall-period,257,1104550,21749.589999904856,"",,,,,,,,,guard
html-keyboard-response,258,1104661,null,"",null,,,,,,,,
recall-period,259,1136317,null,"",,,,,,,,,
html-keyboard-response,260,1136829,null,"Time's Up!",null,,,,,,,,
html-keyboard-response,261,1144293,7460.079999873415,"<p> Good job! You responded correctly to 91% of the red squares.</p>
                  <p>Be sure to keep your accuracy above 80%</p>
                  <p>Press any key to continue the experiment. Thank you!</p>",32,,,,,,,,
html-keyboard-response,262,1146825,2529.185000108555,"<div style=""font-size:48px;"">Press any key to begin list 3 of 24 </div>",32,,,,,,,,
html-keyboard-response,263,1149335,null,"<div style=""font-size:60px;"">+</div>",null,,,,,,,,
html-keyboard-response,264,1149793,453.9649998769164,"NEPHEW<img id = ""stim"" ><div class = red_square id = ""topsquare"" ></div><img id = ""stim"" ><div class = red_square  id = ""bottomsquare"" ></div>",32,word_square,response,1,Space,true,,,
html-keyboard-response,265,1151299,null,"NEPHEW",null,word,,,,, 'NEPHEW',,
html-keyboard-response,266,1151809,null,"DESSERT<img id = ""stim"" ><div class = red_square id = ""topsquare"" ></div><img id = ""stim"" ><div class = red_square  id = ""bottomsquare"" ></div>",null,word_square,response,1,Space,false,,,
html-keyboard-response,267,1153319,null,"DESSERT",null,word,,,,, 'DESSERT',,
html-keyboard-response,268,1153829,null,"BOYFRIEND<img id = ""stim"" ><div class = green_square id = ""topsquare"" ></div><img id = ""stim"" ><div class = green_square  id = ""bottomsquare"" ></div>",null,word_square,response,0,none,true,,,
html-keyboard-response,269,1155337,null,"BOYFRIEND",null,word,,,,, 'BOYFRIEND',,
html-keyboard-response,270,1155799,458.48999987356365,"WIFE<img id = ""stim"" ><div class = red_square id = ""topsquare"" ></div><img id = ""stim"" ><div class = red_square  id = ""bottomsquare"" ></div>",32,word_square,response,1,Space,true,,,
html-keyboard-response,271,1157306,null,"WIFE",null,word,,,,, 'WIFE',,
html-keyboard-response,272,1157814,null,"GAUZE<img id = ""stim"" ><div class = red_square id = ""topsquare"" ></div><img id = ""stim"" ><div class = red_square  id = ""bottomsquare"" ></div>",null,word_square,response,1,Space,false,,,
html-keyboard-response,273,1159324,null,"GAUZE",null,word,,,,, 'GAUZE',,
html-keyboard-response,274,1159833,null,"NOMAD<img id = ""stim"" ><div class = green_square id = ""topsquare"" ></div><img id = ""stim"" ><div class = green_square  id = ""bottomsquare"" ></div>",null,word_square,response,0,none,true,,,
html-keyboard-response,275,1161340,null,"NOMAD",null,word,,,,, 'NOMAD',,
html-keyboard-response,276,1161850,null,"PECAN<img id = ""stim"" ><div class = green_square id = ""topsquare"" ></div><img id = ""stim"" ><div class = green_square  id = ""bottomsquare"" ></div>",null,word_square,response,0,none,true,,,
html-keyboard-response,277,1163359,null,"PECAN",null,word,,,,, 'PECAN',,
html-keyboard-response,278,1163864,null,"FLASK<img id = ""stim"" ><div class = red_square id = ""topsquare"" ></div><img id = ""stim"" ><div class = red_square  id = ""bottomsquare"" ></div>",null,word_square,response,1,Space,false,,,
html-keyboard-response,279,1165374,null,"FLASK",null,word,,,,, 'FLASK',,
html-keyboard-response,280,1165877,null,"AIRPORT<img id = ""stim"" ><div class = green_square id = ""topsquare"" ></div><img id = ""stim"" ><div class = green_square  id = ""bottomsquare"" ></div>",null,word_square,response,0,none,true,,,
html-keyboard-response,281,1167384,null,"AIRPORT",null,word,,,,, 'AIRPORT',,
html-keyboard-response,282,1167860,474.17999990284443,"UMPIRE<img id = ""stim"" ><div class = red_square id = ""topsquare"" ></div><img id = ""stim"" ><div class = red_square  id = ""bottomsquare"" ></div>",32,word_square,response,1,Space,true,,,
html-keyboard-response,283,1169364,null,"UMPIRE",null,word,,,,, 'UMPIRE',,
html-keyboard-response,284,1169872,null,"CATCHER<img id = ""stim"" ><div class = red_square id = ""topsquare"" ></div><img id = ""stim"" ><div class = red_square  id = ""bottomsquare"" ></div>",null,word_square,response,1,Space,false,,,
html-keyboard-response,285,1171376,null,"CATCHER",null,word,,,,, 'CATCHER',,
html-keyboard-response,286,1171880,null,"LOVER<img id = ""stim"" ><div class = green_square id = ""topsquare"" ></div><img id = ""stim"" ><div class = green_square  id = ""bottomsquare"" ></div>",null,word_square,response,0,none,true,,,
html-keyboard-response,287,1173390,null,"LOVER",null,word,,,,, 'LOVER',,
html-keyboard-response,288,1173898,null,"BOULDER<img id = ""stim"" ><div class = green_square id = ""topsquare"" ></div><img id = ""stim"" ><div class = green_square  id = ""bottomsquare"" ></div>",null,word_square,response,0,none,true,,,
html-keyboard-response,289,1175406,null,"BOULDER",null,word,,,,, 'BOULDER',,
html-keyboard-response,290,1175836,427.79999994672835,"TRANSPLANT<img id = ""stim"" ><div class = red_square id = ""topsquare"" ></div><img id = ""stim"" ><div class = red_square  id = ""bottomsquare"" ></div>",32,word_square,response,1,Space,true,,,
html-keyboard-response,291,1177342,null,"TRANSPLANT",null,word,,,,, 'TRANSPLANT',,
html-keyboard-response,292,1177850,null,"THRONE<img id = ""stim"" ><div class = green_square id = ""topsquare"" ></div><img id = ""stim"" ><div class = green_square  id = ""bottomsquare"" ></div>",null,word_square,response,0,none,true,,,
html-keyboard-response,293,1179361,null,"THRONE",null,word,,,,, 'THRONE',,
html-keyboard-response,294,1179869,null,"PRINCESS<img id = ""stim"" ><div class = green_square id = ""topsquare"" ></div><img id = ""stim"" ><div class = green_square  id = ""bottomsquare"" ></div>",null,word_square,response,0,none,true,,,
html-keyboard-response,295,1181375,null,"PRINCESS",null,word,,,,, 'PRINCESS',,
html-keyboard-response,296,1181711,332.99500006251037,"COCKTAIL<img id = ""stim"" ><div class = red_square id = ""topsquare"" ></div><img id = ""stim"" ><div class = red_square  id = ""bottomsquare"" ></div>",32,word_square,response,1,Space,true,,,
html-keyboard-response,297,1183215,null,"COCKTAIL",null,word,,,,, 'COCKTAIL',,
html-keyboard-response,298,1183721,null,"CRADLE<img id = ""stim"" ><div class = green_square id = ""topsquare"" ></div><img id = ""stim"" ><div class = green_square  id = ""bottomsquare"" ></div>",null,word_square,response,0,none,true,,,
html-keyboard-response,299,1185227,null,"CRADLE",null,word,,,,, 'CRADLE',,
call-function,300,1185228,,"",,,,,,,,,
html-keyboard-response,301,1185335,null,"",null,,,,,,,,
math-period,302,1187390,3880.979999899864,"",,,,,,,,,3
html-keyboard-response,303,1187501,null,"",null,,,,,,,,
math-period,304,1189148,3130.3000000771135,"",,,,,,,,,5
html-keyboard-response,305,1189253,null,"",null,,,,,,,,
math-period,306,1191400,4127.7000000700355,"",,,,,,,,,6
html-keyboard-response,307,1191508,null,"",null,,,,,,,,
math-period,308,1193298,3425.5750000011176,"",,,,,,,,,5
html-keyboard-response,309,1193404,null,"",null,,,,,,,,
math-period,310,1195250,3388.0150001496077,"",,,,,,,,,3
html-keyboard-response,311,1195362,null,"",null,,,,,,,,
math-period,312,1201124,10705.069999909028,"",,,,,,,,,0
html-keyboard-response,313,1201227,null,"",null,,,,,,,,
math-period,314,1204672,5862.390000140294,"",,,,,,,,,0
html-keyboard-response,315,1204782,null,"",null,,,,,,,,
math-period,316,1207040,4195.7499999552965,"",,,,,,,,,3
html-keyboard-response,317,1207152,null,"",null,,,,,,,,
math-period,318,1208035,1607.9949997365475,"",,,,,,,,,3
html-keyboard-response,319,1208140,null,"",null,,,,,,,,
math-period,320,1209240,null,"",,,,,,,,,
html-keyboard-response,321,1210247,null,"Recall Period!",null,,,,,,,,
call-function,322,1210250,,"",,,,,,,,,
html-keyboard-response,323,1210359,null,"",null,,,,,,,,
recall-period,324,1216677,44641.84500020929,"",,,,,,,,,princess
html-keyboard-response,325,1216786,null,"",null,,,,,,,,
recall-period,326,1220546,19023.474999703467,"",,,,,,,,,airport
html-keyboard-response,327,1220651,null,"",null,,,,,,,,
recall-period,328,1223351,8979.529999895021,"",,,,,,,,,lover
html-keyboard-response,329,1223456,null,"",null,,,,,,,,
recall-period,330,1231738,36290.21499957889,"",,,,,,,,,wife
html-keyboard-response,331,1231840,null,"",null,,,,,,,,
recall-period,332,1235807,18924.789999146014,"",,,,,,,,,nephew
html-keyboard-response,333,1235911,null,"",null,,,,,,,,
recall-period,334,1285262,null,"",,,,,,,,,
html-keyboard-response,335,1285768,null,"Time's Up!",null,,,,,,,,
html-keyboard-response,336,1292760,6988.454999867827,"<p> Good job! You responded correctly to 88% of the red squares.</p>
                  <p>Be sure to keep your accuracy above 80%</p>
                  <p>Press any key to continue the experiment. Thank you!</p>",32,,,,,,,,
html-keyboard-response,337,1293560,797.1550000365824,"<div style=""font-size:48px;"">Press any key to begin list 4 of 24 </div>",32,,,,,,,,
html-keyboard-response,338,1296074,null,"<div style=""font-size:60px;"">+</div>",null,,,,,,,,
html-keyboard-response,339,1296446,368.38000011630356,"BRAKE<img id = ""stim"" ><div class = red_square id = ""topsquare"" ></div><img id = ""stim"" ><div class = red_square  id = ""bottomsquare"" ></div>",32,word_square,response,1,Space,true,,,
html-keyboard-response,340,1297955,null,"BRAKE",null,word,,,,, 'BRAKE',,
html-keyboard-response,341,1298418,459.5049999188632,"WASP<img id = ""stim"" ><div class = red_square id = ""topsquare"" ></div><img id = ""stim"" ><div class = red_square  id = ""bottomsquare"" ></div>",32,word_square,response,1,Space,true,,,
html-keyboard-response,342,1299927,null,"WASP",null,word,,,,, 'WASP',,
html-keyboard-response,343,1300433,null,"SHRIMP<img id = ""stim"" ><div class = green_square id = ""topsquare"" ></div><img id = ""stim"" ><div class = green_square  id = ""bottomsquare"" ></div>",null,word_square,response,0,none,true,,,
html-keyboard-response,344,1301951,null,"SHRIMP",null,word,,,,, 'SHRIMP',,
html-keyboard-response,345,1302461,null,"CLIMBER<img id = ""stim"" ><div class = red_square id = ""topsquare"" ></div><img id = ""stim"" ><div class = red_square  id = ""bottomsquare"" ></div>",null,word_square,response,1,Space,false,,,
html-keyboard-response,346,1303968,null,"CLIMBER",null,word,,,,, 'CLIMBER',,
html-keyboard-response,347,1304398,427.1150000859052,"BRANCH<img id = ""stim"" ><div class = red_square id = ""topsquare"" ></div><img id = ""stim"" ><div class = red_square  id = ""bottomsquare"" ></div>",32,word_square,response,1,Space,true,,,
html-keyboard-response,348,1305904,null,"BRANCH",null,word,,,,, 'BRANCH',,
html-keyboard-response,349,1306412,null,"HEART<img id = ""stim"" ><div class = green_square id = ""topsquare"" ></div><img id = ""stim"" ><div class = green_square  id = ""bottomsquare"" ></div>",null,word_square,response,0,none,true,,,
html-keyboard-response,350,1307922,null,"HEART",null,word,,,,, 'HEART',,
html-keyboard-response,351,1308432,null,"BRUNETTE<img id = ""stim"" ><div class = green_square id = ""topsquare"" ></div><img id = ""stim"" ><div class = green_square  id = ""bottomsquare"" ></div>",null,word_square,response,0,none,true,,,
html-keyboard-response,352,1309944,null,"BRUNETTE",null,word,,,,, 'BRUNETTE',,
html-keyboard-response,353,1310442,493.37000004015863,"TULIP<img id = ""stim"" ><div class = red_square id = ""topsquare"" ></div><img id = ""stim"" ><div class = red_square  id = ""bottomsquare"" ></div>",32,word_square,response,1,Space,true,,,
html-keyboard-response,354,1311951,null,"TULIP",null,word,,,,, 'TULIP',,
html-keyboard-response,355,1312457,null,"FAUCET<img id = ""stim"" ><div class = green_square id = ""topsquare"" ></div><img id = ""stim"" ><div class = green_square  id = ""bottomsquare"" ></div>",null,word_square,response,0,none,true,,,
html-keyboard-response,356,1313967,null,"FAUCET",null,word,,,,, 'FAUCET',,
html-keyboard-response,357,1314319,347.9600001592189,"PATIENT<img id = ""stim"" ><div class = red_square id = ""topsquare"" ></div><img id = ""stim"" ><div class = red_square  id = ""bottomsquare"" ></div>",32,word_square,response,1,Space,true,,,
html-keyboard-response,358,1315826,null,"PATIENT",null,word,,,,, 'PATIENT',,
html-keyboard-response,359,1316188,358.0699998419732,"NURSE<img id = ""stim"" ><div class = red_square id = ""topsquare"" ></div><img id = ""stim"" ><div class = red_square  id = ""bottomsquare"" ></div>",32,word_square,response,1,Space,true,,,
html-keyboard-response,360,1317697,null,"NURSE",null,word,,,,, 'NURSE',,
html-keyboard-response,361,1318205,null,"TRIGGER<img id = ""stim"" ><div class = green_square id = ""topsquare"" ></div><img id = ""stim"" ><div class = green_square  id = ""bottomsquare"" ></div>",null,word_square,response,0,none,true,,,
html-keyboard-response,362,1319710,null,"TRIGGER",null,word,,,,, 'TRIGGER',,
html-keyboard-response,363,1320220,null,"NEPTUNE<img id = ""stim"" ><div class = green_square id = ""topsquare"" ></div><img id = ""stim"" ><div class = green_square  id = ""bottomsquare"" ></div>",null,word_square,response,0,none,true,,,
html-keyboard-response,364,1321726,null,"NEPTUNE",null,word,,,,, 'NEPTUNE',,
html-keyboard-response,365,1322087,356.7949999123812,"FLASHLIGHT<img id = ""stim"" ><div class = red_square id = ""topsquare"" ></div><img id = ""stim"" ><div class = red_square  id = ""bottomsquare"" ></div>",32,word_square,response,1,Space,true,,,
html-keyboard-response,366,1323591,null,"FLASHLIGHT",null,word,,,,, 'FLASHLIGHT',,
html-keyboard-response,367,1324101,null,"FRECKLE<img id = ""stim"" ><div class = green_square id = ""topsquare"" ></div><img id = ""stim"" ><div class = green_square  id = ""bottomsquare"" ></div>",null,word_square,response,0,none,true,,,
html-keyboard-response,368,1325605,null,"FRECKLE",null,word,,,,, 'FRECKLE',,
html-keyboard-response,369,1326114,null,"POLICE<img id = ""stim"" ><div class = green_square id = ""topsquare"" ></div><img id = ""stim"" ><div class = green_square  id = ""bottomsquare"" ></div>",null,word_square,response,0,none,true,,,
html-keyboard-response,370,1327623,null,"POLICE",null,word,,,,, 'POLICE',,
html-keyboard-response,371,1327952,325.36500017158687,"AGENT<img id = ""stim"" ><div class = red_square id = ""topsquare"" ></div><img id = ""stim"" ><div class = red_square  id = ""bottomsquare"" ></div>",32,word_square,response,1,Space,true,,,
html-keyboard-response,372,1329457,null,"AGENT",null,word,,,,, 'AGENT',,
html-keyboard-response,373,1329963,null,"DONOR<img id = ""stim"" ><div class = green_square id = ""topsquare"" ></div><img id = ""stim"" ><div class = green_square  id = ""bottomsquare"" ></div>",null,word_square,response,0,none,true,,,
html-keyboard-response,374,1331477,null,"DONOR",null,word,,,,, 'DONOR',,
call-function,375,1331480,,"",,,,,,,,,
html-keyboard-response,376,1331584,null,"",null,,,,,,,,
math-period,377,1333878,4327.450000215322,"",,,,,,,,,5
html-keyboard-response,378,1333988,null,"",null,,,,,,,,
math-period,379,1338327,8521.729999920353,"",,,,,,,,,2
html-keyboard-response,380,1338434,null,"",null,,,,,,,,
math-period,381,1340758,4414.29500002414,"",,,,,,,,,4
html-keyboard-response,382,1340861,null,"",null,,,,,,,,
math-period,383,1342492,3138.19000008516,"",,,,,,,,,6
html-keyboard-response,384,1342603,null,"",null,,,,,,,,
math-period,385,1347188,8996.004999848083,"",,,,,,,,,0
html-keyboard-response,386,1347292,null,"",null,,,,,,,,
math-period,387,1351100,7478.9050000254065,"",,,,,,,,,2
html-keyboard-response,388,1351212,null,"",null,,,,,,,,
math-period,389,1353212,3841.5850000455976,"",,,,,,,,,4
html-keyboard-response,390,1353321,null,"",null,,,,,,,,
math-period,391,1354821,2813.3450001478195,"",,,,,,,,,2
html-keyboard-response,392,1354927,null,"",null,,,,,,,,
math-period,393,1355488,null,"",,,,,,,,,
html-keyboard-response,394,1356496,null,"Recall Period!",null,,,,,,,,
call-function,395,1356498,,"",,,,,,,,,
html-keyboard-response,396,1356603,null,"",null,,,,,,,,
recall-period,397,1365507,55263.139999471605,"",,,,,,,,,tulip
html-keyboard-response,398,1365614,null,"",null,,,,,,,,
recall-period,399,1369026,11416.380000533536,"",,,,,,,,,heart
html-keyboard-response,400,1369128,null,"",null,,,,,,,,
recall-period,401,1372721,17405.5050003808,"",,,,,,,,,trigger
html-keyboard-response,402,1372827,null,"",null,,,,,,,,
recall-period,403,1431500,null,"",,,,,,,,,
html-keyboard-response,404,1432008,null,"Time's Up!",null,,,,,,,,
html-keyboard-response,405,1435548,3539.450000040233,"<p> Good job! You responded correctly to 89% of the red squares.</p>
                  <p>Be sure to keep your accuracy above 80%</p>
                  <p>Press any key to continue the experiment. Thank you!</p>",32,,,,,,,,
html-keyboard-response,406,1436307,754.9349998589605,"<div style=""font-size:48px;"">Press any key to begin list 5 of 24 </div>",32,,,,,,,,
html-keyboard-response,407,1438821,null,"<div style=""font-size:60px;"">+</div>",null,,,,,,,,
html-keyboard-response,408,1439321,495.6149999052286,"PUMPKIN<img id = ""stim"" ><div class = green_square id = ""topsquare"" ></div><img id = ""stim"" ><div class = green_square  id = ""bottomsquare"" ></div>",32,word_square,response,0,none,false,,,
html-keyboard-response,409,1440827,null,"PUMPKIN",null,word,,,,, 'PUMPKIN',,
html-keyboard-response,410,1441332,null,"TEAPOT<img id = ""stim"" ><div class = green_square id = ""topsquare"" ></div><img id = ""stim"" ><div class = green_square  id = ""bottomsquare"" ></div>",null,word_square,response,0,none,true,,,
html-keyboard-response,411,1442835,null,"TEAPOT",null,word,,,,, 'TEAPOT',,
html-keyboard-response,412,1443249,411.12500010058284,"TRUCK<img id = ""stim"" ><div class = red_square id = ""topsquare"" ></div><img id = ""stim"" ><div class = red_square  id = ""bottomsquare"" ></div>",32,word_square,response,1,Space,true,,,
html-keyboard-response,413,1444753,null,"TRUCK",null,word,,,,, 'TRUCK',,
html-keyboard-response,414,1445263,null,"GARBAGE<img id = ""stim"" ><div class = red_square id = ""topsquare"" ></div><img id = ""stim"" ><div class = red_square  id = ""bottomsquare"" ></div>",null,word_square,response,1,Space,false,,,
html-keyboard-response,415,1446772,null,"GARBAGE",null,word,,,,, 'GARBAGE',,
html-keyboard-response,416,1447228,452.97499978914857,"CLERK<img id = ""stim"" ><div class = red_square id = ""topsquare"" ></div><img id = ""stim"" ><div class = red_square  id = ""bottomsquare"" ></div>",32,word_square,response,1,Space,true,,,
html-keyboard-response,417,1448732,null,"CLERK",null,word,,,,, 'CLERK',,
html-keyboard-response,418,1449237,null,"VIRUS<img id = ""stim"" ><div class = green_square id = ""topsquare"" ></div><img id = ""stim"" ><div class = green_square  id = ""bottomsquare"" ></div>",null,word_square,response,0,none,true,,,
html-keyboard-response,419,1450742,null,"VIRUS",null,word,,,,, 'VIRUS',,
html-keyboard-response,420,1451169,424.5549999177456,"CRIB<img id = ""stim"" ><div class = red_square id = ""topsquare"" ></div><img id = ""stim"" ><div class = red_square  id = ""bottomsquare"" ></div>",32,word_square,response,1,Space,true,,,
html-keyboard-response,421,1452679,null,"CRIB",null,word,,,,, 'CRIB',,
html-keyboard-response,422,1453187,null,"BRICK<img id = ""stim"" ><div class = green_square id = ""topsquare"" ></div><img id = ""stim"" ><div class = green_square  id = ""bottomsquare"" ></div>",null,word_square,response,0,none,true,,,
html-keyboard-response,423,1454696,null,"BRICK",null,word,,,,, 'BRICK',,
html-keyboard-response,424,1455147,447.5549999624491,"FARMER<img id = ""stim"" ><div class = red_square id = ""topsquare"" ></div><img id = ""stim"" ><div class = red_square  id = ""bottomsquare"" ></div>",32,word_square,response,1,Space,true,,,
html-keyboard-response,425,1456659,null,"FARMER",null,word,,,,, 'FARMER',,
html-keyboard-response,426,1457172,null,"HEDGE<img id = ""stim"" ><div class = green_square id = ""topsquare"" ></div><img id = ""stim"" ><div class = green_square  id = ""bottomsquare"" ></div>",null,word_square,response,0,none,true,,,
html-keyboard-response,427,1458678,null,"HEDGE",null,word,,,,, 'HEDGE',,
html-keyboard-response,428,1459183,null,"STABLE<img id = ""stim"" ><div class = green_square id = ""topsquare"" ></div><img id = ""stim"" ><div class = green_square  id = ""bottomsquare"" ></div>",null,word_square,response,0,none,true,,,
html-keyboard-response,429,1460693,null,"STABLE",null,word,,,,, 'STABLE',,
html-keyboard-response,430,1461017,321.9000000972301,"WIDOW<img id = ""stim"" ><div class = red_square id = ""topsquare"" ></div><img id = ""stim"" ><div class = red_square  id = ""bottomsquare"" ></div>",32,word_square,response,1,Space,true,,,
html-keyboard-response,431,1462525,null,"WIDOW",null,word,,,,, 'WIDOW',,
html-keyboard-response,432,1463036,null,"GLACIER<img id = ""stim"" ><div class = green_square id = ""topsquare"" ></div><img id = ""stim"" ><div class = green_square  id = ""bottomsquare"" ></div>",null,word_square,response,0,none,true,,,
html-keyboard-response,433,1464545,null,"GLACIER",null,word,,,,, 'GLACIER',,
html-keyboard-response,434,1465054,null,"FREEZER<img id = ""stim"" ><div class = green_square id = ""topsquare"" ></div><img id = ""stim"" ><div class = green_square  id = ""bottomsquare"" ></div>",null,word_square,response,0,none,true,,,
html-keyboard-response,435,1466563,null,"FREEZER",null,word,,,,, 'FREEZER',,
html-keyboard-response,436,1466966,401.1150000151247,"SQUIRREL<img id = ""stim"" ><div class = red_square id = ""topsquare"" ></div><img id = ""stim"" ><div class = red_square  id = ""bottomsquare"" ></div>",32,word_square,response,1,Space,true,,,
html-keyboard-response,437,1468470,null,"SQUIRREL",null,word,,,,, 'SQUIRREL',,
html-keyboard-response,438,1468890,416.8750001117587,"ZIPPER<img id = ""stim"" ><div class = red_square id = ""topsquare"" ></div><img id = ""stim"" ><div class = red_square  id = ""bottomsquare"" ></div>",32,word_square,response,1,Space,true,,,
html-keyboard-response,439,1470396,null,"ZIPPER",null,word,,,,, 'ZIPPER',,
html-keyboard-response,440,1470907,null,"SKIRT<img id = ""stim"" ><div class = green_square id = ""topsquare"" ></div><img id = ""stim"" ><div class = green_square  id = ""bottomsquare"" ></div>",null,word_square,response,0,none,true,,,
html-keyboard-response,441,1472414,null,"SKIRT",null,word,,,,, 'SKIRT',,
html-keyboard-response,442,1472786,369.43999980576336,"BANDIT<img id = ""stim"" ><div class = red_square id = ""topsquare"" ></div><img id = ""stim"" ><div class = red_square  id = ""bottomsquare"" ></div>",32,word_square,response,1,Space,true,,,
html-keyboard-response,443,1474292,null,"BANDIT",null,word,,,,, 'BANDIT',,
call-function,444,1474294,,"",,,,,,,,,
html-keyboard-response,445,1474397,null,"",null,,,,,,,,
math-period,446,1477617,6256.904999958351,"",,,,,,,,,1
html-keyboard-response,447,1477734,null,"",null,,,,,,,,
math-period,448,1483864,11821.000000229105,"",,,,,,,,,1
html-keyboard-response,449,1483973,null,"",null,,,,,,,,
math-period,450,1487524,6997.974999947473,"",,,,,,,,,1
html-keyboard-response,451,1487632,null,"",null,,,,,,,,
math-period,452,1492796,10196.590000065044,"",,,,,,,,,3
html-keyboard-response,453,1492904,null,"",null,,,,,,,,
math-period,454,1495172,4290.050000185147,"",,,,,,,,,2
html-keyboard-response,455,1495281,null,"",null,,,,,,,,
math-period,456,1497263,3615.779999876395,"",,,,,,,,,1
html-keyboard-response,457,1497368,null,"",null,,,,,,,,
math-period,458,1498297,null,"",,,,,,,,,
html-keyboard-response,459,1499307,null,"Recall Period!",null,,,,,,,,
call-function,460,1499309,,"",,,,,,,,,
html-keyboard-response,461,1499418,null,"",null,,,,,,,,
recall-period,462,1508056,45489.19500038028,"",,,,,,,,,clerk
html-keyboard-response,463,1508163,null,"",null,,,,,,,,
recall-period,464,1511829,14332.920000189915,"",,,,,,,,,crib
html-keyboard-response,465,1511932,null,"",null,,,,,,,,
recall-period,466,1514434,9555.19499978982,"",,,,,,,,,widow
html-keyboard-response,467,1514537,null,"",null,,,,,,,,
recall-period,468,1522930,49076.02499937639,"",,,,,,,,,teapot
html-keyboard-response,469,1523037,null,"",null,,,,,,,,
recall-period,470,1574317,null,"",,,,,,,,,
html-keyboard-response,471,1574823,null,"Time's Up!",null,,,,,,,,
html-keyboard-response,472,1577670,2843.345000175759,"<p> Good job! You responded correctly to 89% of the red squares.</p>
                  <p>Be sure to keep your accuracy above 80%</p>
                  <p>Press any key to continue the experiment. Thank you!</p>",32,,,,,,,,
html-keyboard-response,473,1579226,1553.0499999877065,"<div style=""font-size:48px;"">Press any key to begin list 6 of 24 </div>",32,,,,,,,,
html-keyboard-response,474,1581743,null,"<div style=""font-size:60px;"">+</div>",null,,,,,,,,
html-keyboard-response,475,1582253,null,"ROBBER<img id = ""stim"" ><div class = green_square id = ""topsquare"" ></div><img id = ""stim"" ><div class = green_square  id = ""bottomsquare"" ></div>",null,word_square,response,0,none,true,,,
html-keyboard-response,476,1583776,null,"ROBBER",null,word,,,,, 'ROBBER',,
html-keyboard-response,477,1584280,null,"BANK<img id = ""stim"" ><div class = green_square id = ""topsquare"" ></div><img id = ""stim"" ><div class = green_square  id = ""bottomsquare"" ></div>",null,word_square,response,0,none,true,,,
html-keyboard-response,478,1585793,null,"BANK",null,word,,,,, 'BANK',,
html-keyboard-response,479,1586251,453.3949999604374,"MOTHER<img id = ""stim"" ><div class = red_square id = ""topsquare"" ></div><img id = ""stim"" ><div class = red_square  id = ""bottomsquare"" ></div>",32,word_square,response,1,Space,true,,,
html-keyboard-response,480,1587767,null,"MOTHER",null,word,,,,, 'MOTHER',,
html-keyboard-response,481,1588277,null,"WITNESS<img id = ""stim"" ><div class = red_square id = ""topsquare"" ></div><img id = ""stim"" ><div class = red_square  id = ""bottomsquare"" ></div>",null,word_square,response,1,Space,false,,,
html-keyboard-response,482,1589806,null,"WITNESS",null,word,,,,, 'WITNESS',,
html-keyboard-response,483,1590164,355.08499993011355,"OUTLAW<img id = ""stim"" ><div class = red_square id = ""topsquare"" ></div><img id = ""stim"" ><div class = red_square  id = ""bottomsquare"" ></div>",32,word_square,response,1,Space,true,,,
html-keyboard-response,484,1591670,null,"OUTLAW",null,word,,,,, 'OUTLAW',,
html-keyboard-response,485,1592180,null,"SQUID<img id = ""stim"" ><div class = green_square id = ""topsquare"" ></div><img id = ""stim"" ><div class = green_square  id = ""bottomsquare"" ></div>",null,word_square,response,0,none,true,,,
html-keyboard-response,486,1593685,null,"SQUID",null,word,,,,, 'SQUID',,
html-keyboard-response,487,1594192,null,"GLOVE<img id = ""stim"" ><div class = red_square id = ""topsquare"" ></div><img id = ""stim"" ><div class = red_square  id = ""bottomsquare"" ></div>",null,word_square,response,1,Space,false,,,
html-keyboard-response,488,1595697,null,"GLOVE",null,word,,,,, 'GLOVE',,
html-keyboard-response,489,1596207,null,"CONTRACT<img id = ""stim"" ><div class = green_square id = ""topsquare"" ></div><img id = ""stim"" ><div class = green_square  id = ""bottomsquare"" ></div>",null,word_square,response,0,none,true,,,
html-keyboard-response,490,1597713,null,"CONTRACT",null,word,,,,, 'CONTRACT',,
html-keyboard-response,491,1598037,322.61000014841557,"VILLAGE<img id = ""stim"" ><div class = red_square id = ""topsquare"" ></div><img id = ""stim"" ><div class = red_square  id = ""bottomsquare"" ></div>",32,word_square,response,1,Space,true,,,
html-keyboard-response,492,1599547,null,"VILLAGE",null,word,,,,, 'VILLAGE',,
html-keyboard-response,493,1600054,null,"LOBBY<img id = ""stim"" ><div class = green_square id = ""topsquare"" ></div><img id = ""stim"" ><div class = green_square  id = ""bottomsquare"" ></div>",null,word_square,response,0,none,true,,,
html-keyboard-response,494,1601565,null,"LOBBY",null,word,,,,, 'LOBBY',,
html-keyboard-response,495,1602070,null,"NOVEL<img id = ""stim"" ><div class = green_square id = ""topsquare"" ></div><img id = ""stim"" ><div class = green_square  id = ""bottomsquare"" ></div>",null,word_square,response,0,none,true,,,
html-keyboard-response,496,1603580,null,"NOVEL",null,word,,,,, 'NOVEL',,
html-keyboard-response,497,1603907,325.79999999143183,"GUITAR<img id = ""stim"" ><div class = red_square id = ""topsquare"" ></div><img id = ""stim"" ><div class = red_square  id = ""bottomsquare"" ></div>",32,word_square,response,1,Space,true,,,
html-keyboard-response,498,1605417,null,"GUITAR",null,word,,,,, 'GUITAR',,
html-keyboard-response,499,1605924,null,"FOOTBALL<img id = ""stim"" ><div class = green_square id = ""topsquare"" ></div><img id = ""stim"" ><div class = green_square  id = ""bottomsquare"" ></div>",null,word_square,response,0,none,true,,,
html-keyboard-response,500,1607429,null,"FOOTBALL",null,word,,,,, 'FOOTBALL',,
html-keyboard-response,501,1607936,null,"SOFTBALL<img id = ""stim"" ><div class = green_square id = ""topsquare"" ></div><img id = ""stim"" ><div class = green_square  id = ""bottomsquare"" ></div>",null,word_square,response,0,none,true,,,
html-keyboard-response,502,1609443,null,"SOFTBALL",null,word,,,,, 'SOFTBALL',,
html-keyboard-response,503,1609783,337.3199999332428,"CAFE<img id = ""stim"" ><div class = red_square id = ""topsquare"" ></div><img id = ""stim"" ><div class = red_square  id = ""bottomsquare"" ></div>",32,word_square,response,1,Space,true,,,
html-keyboard-response,504,1611291,null,"CAFE",null,word,,,,, 'CAFE',,
html-keyboard-response,505,1611795,null,"CREEK<img id = ""stim"" ><div class = red_square id = ""topsquare"" ></div><img id = ""stim"" ><div class = red_square  id = ""bottomsquare"" ></div>",null,word_square,response,1,Space,false,,,
html-keyboard-response,506,1613312,null,"CREEK",null,word,,,,, 'CREEK',,
html-keyboard-response,507,1613819,null,"DRESS<img id = ""stim"" ><div class = green_square id = ""topsquare"" ></div><img id = ""stim"" ><div class = green_square  id = ""bottomsquare"" ></div>",null,word_square,response,0,none,true,,,
html-keyboard-response,508,1615329,null,"DRESS",null,word,,,,, 'DRESS',,
html-keyboard-response,509,1615723,390.0450000073761,"SICKLE<img id = ""stim"" ><div class = red_square id = ""topsquare"" ></div><img id = ""stim"" ><div class = red_square  id = ""bottomsquare"" ></div>",32,word_square,response,1,Space,true,,,
html-keyboard-response,510,1617233,null,"SICKLE",null,word,,,,, 'SICKLE',,
call-function,511,1617235,,"",,,,,,,,,
html-keyboard-response,512,1617340,null,"",null,,,,,,,,
math-period,513,1620554,6058.489999966696,"",,,,,,,,,2
html-keyboard-response,514,1620659,null,"",null,,,,,,,,
math-period,515,1622055,2493.934999918565,"",,,,,,,,,3
html-keyboard-response,516,1622166,null,"",null,,,,,,,,
math-period,517,1623345,2055.354999843985,"",,,,,,,,,3
html-keyboard-response,518,1623448,null,"",null,,,,,,,,
math-period,519,1624393,1674.705000128597,"",,,,,,,,,3
html-keyboard-response,520,1624499,null,"",null,,,,,,,,
math-period,521,1625957,2569.9950002599508,"",,,,,,,,,5
html-keyboard-response,522,1626062,null,"",null,,,,,,,,
math-period,523,1627904,3514.7450000513345,"",,,,,,,,,4
html-keyboard-response,524,1628012,null,"",null,,,,,,,,
math-period,525,1629949,3488.4400002192706,"",,,,,,,,,1
html-keyboard-response,526,1630052,null,"",null,,,,,,,,
math-period,527,1631576,2682.2700002230704,"",,,,,,,,,5
html-keyboard-response,528,1631688,null,"",null,,,,,,,,
math-period,529,1632905,2287.779999896884,"",,,,,,,,,2
html-keyboard-response,530,1633009,null,"",null,,,,,,,,
math-period,531,1635798,8483.174999943003,"",,,,,,,,,4
html-keyboard-response,532,1635909,null,"",null,,,,,,,,
math-period,533,1636949,1905.1749999634922,"",,,,,,,,,5
html-keyboard-response,534,1637060,null,"",null,,,,,,,,
math-period,535,1638674,2911.8950001429766,"",,,,,,,,,6
html-keyboard-response,536,1638780,null,"",null,,,,,,,,
math-period,537,1641016,4287.810000125319,"",,,,,,,,,5
html-keyboard-response,538,1641127,null,"",null,,,,,,,,
math-period,539,1641242,null,"",,,,,,,,,
html-keyboard-response,540,1642252,null,"Recall Period!",null,,,,,,,,
call-function,541,1642255,,"",,,,,,,,,
html-keyboard-response,542,1642360,null,"",null,,,,,,,,
recall-period,543,1651858,52529.504999984056,"",,,,,,,,,lobby
html-keyboard-response,544,1651964,null,"",null,,,,,,,,
recall-period,545,1656770,19310.84999977611,"",,,,,,,,,robber
html-keyboard-response,546,1656879,null,"",null,,,,,,,,
recall-period,547,1659688,7649.9299998395145,"",,,,,,,,,bank
html-keyboard-response,548,1659794,null,"",null,,,,,,,,
recall-period,549,1717259,null,"",,,,,,,,,
html-keyboard-response,550,1717786,null,"Time's Up!",null,,,,,,,,
html-keyboard-response,551,1720697,2906.5050000790507,"<p> Good job! You responded correctly to 88% of the red squares.</p>
                  <p>Be sure to keep your accuracy above 80%</p>
                  <p>Press any key to continue the experiment. Thank you!</p>",32,,,,,,,,
html-keyboard-response,552,1721302,601.6599999275059,"<div style=""font-size:48px;"">Press any key to begin list 7 of 24 </div>",32,,,,,,,,
html-keyboard-response,553,1723808,null,"<div style=""font-size:60px;"">+</div>",null,,,,,,,,
html-keyboard-response,554,1724219,407.6549999881536,"PACKAGE<img id = ""stim"" ><div class = red_square id = ""topsquare"" ></div><img id = ""stim"" ><div class = red_square  id = ""bottomsquare"" ></div>",32,word_square,response,1,Space,true,,,
html-keyboard-response,555,1725727,null,"PACKAGE",null,word,,,,, 'PACKAGE',,
html-keyboard-response,556,1726216,483.8649998418987,"GIFT<img id = ""stim"" ><div class = red_square id = ""topsquare"" ></div><img id = ""stim"" ><div class = red_square  id = ""bottomsquare"" ></div>",32,word_square,response,1,Space,true,,,
html-keyboard-response,557,1727724,null,"GIFT",null,word,,,,, 'GIFT',,
html-keyboard-response,558,1728236,null,"ADULT<img id = ""stim"" ><div class = green_square id = ""topsquare"" ></div><img id = ""stim"" ><div class = green_square  id = ""bottomsquare"" ></div>",null,word_square,response,0,none,true,,,
html-keyboard-response,559,1729745,null,"ADULT",null,word,,,,, 'ADULT',,
html-keyboard-response,560,1730257,null,"JOURNAL<img id = ""stim"" ><div class = green_square id = ""topsquare"" ></div><img id = ""stim"" ><div class = green_square  id = ""bottomsquare"" ></div>",null,word_square,response,0,none,true,,,
html-keyboard-response,561,1731764,null,"JOURNAL",null,word,,,,, 'JOURNAL',,
html-keyboard-response,562,1732275,null,"LUGGAGE<img id = ""stim"" ><div class = green_square id = ""topsquare"" ></div><img id = ""stim"" ><div class = green_square  id = ""bottomsquare"" ></div>",null,word_square,response,0,none,true,,,
html-keyboard-response,563,1733779,null,"LUGGAGE",null,word,,,,, 'LUGGAGE',,
html-keyboard-response,564,1734283,null,"BASKET<img id = ""stim"" ><div class = red_square id = ""topsquare"" ></div><img id = ""stim"" ><div class = red_square  id = ""bottomsquare"" ></div>",null,word_square,response,1,Space,false,,,
html-keyboard-response,565,1735792,null,"BASKET",null,word,,,,, 'BASKET',,
html-keyboard-response,566,1736302,null,"LIVER<img id = ""stim"" ><div class = green_square id = ""topsquare"" ></div><img id = ""stim"" ><div class = green_square  id = ""bottomsquare"" ></div>",null,word_square,response,0,none,true,,,
html-keyboard-response,567,1737811,null,"LIVER",null,word,,,,, 'LIVER',,
html-keyboard-response,568,1738141,325.999999884516,"TOOTHBRUSH<img id = ""stim"" ><div class = red_square id = ""topsquare"" ></div><img id = ""stim"" ><div class = red_square  id = ""bottomsquare"" ></div>",32,word_square,response,1,Space,true,,,
html-keyboard-response,569,1739653,null,"TOOTHBRUSH",null,word,,,,, 'TOOTHBRUSH',,
html-keyboard-response,570,1740162,null,"WARDROBE<img id = ""stim"" ><div class = green_square id = ""topsquare"" ></div><img id = ""stim"" ><div class = green_square  id = ""bottomsquare"" ></div>",null,word_square,response,0,none,true,,,
html-keyboard-response,571,1741668,null,"WARDROBE",null,word,,,,, 'WARDROBE',,
html-keyboard-response,572,1742027,354.6549999155104,"KETTLE<img id = ""stim"" ><div class = red_square id = ""topsquare"" ></div><img id = ""stim"" ><div class = red_square  id = ""bottomsquare"" ></div>",32,word_square,response,1,Space,true,,,
html-keyboard-response,573,1743539,null,"KETTLE",null,word,,,,, 'KETTLE',,
html-keyboard-response,574,1744046,null,"COBWEB<img id = ""stim"" ><div class = red_square id = ""topsquare"" ></div><img id = ""stim"" ><div class = red_square  id = ""bottomsquare"" ></div>",null,word_square,response,1,Space,false,,,
html-keyboard-response,575,1745553,null,"COBWEB",null,word,,,,, 'COBWEB',,
html-keyboard-response,576,1746066,null,"BUTLER<img id = ""stim"" ><div class = green_square id = ""topsquare"" ></div><img id = ""stim"" ><div class = green_square  id = ""bottomsquare"" ></div>",null,word_square,response,0,none,true,,,
html-keyboard-response,577,1747570,null,"BUTLER",null,word,,,,, 'BUTLER',,
html-keyboard-response,578,1747899,324.91000019945204,"BEEF<img id = ""stim"" ><div class = red_square id = ""topsquare"" ></div><img id = ""stim"" ><div class = red_square  id = ""bottomsquare"" ></div>",32,word_square,response,1,Space,true,,,
html-keyboard-response,579,1749403,null,"BEEF",null,word,,,,, 'BEEF',,
html-keyboard-response,580,1749908,null,"STAPLE<img id = ""stim"" ><div class = red_square id = ""topsquare"" ></div><img id = ""stim"" ><div class = red_square  id = ""bottomsquare"" ></div>",null,word_square,response,1,Space,false,,,
html-keyboard-response,581,1751416,null,"STAPLE",null,word,,,,, 'STAPLE',,
html-keyboard-response,582,1751924,null,"NOTEBOOK<img id = ""stim"" ><div class = green_square id = ""topsquare"" ></div><img id = ""stim"" ><div class = green_square  id = ""bottomsquare"" ></div>",null,word_square,response,0,none,true,,,
html-keyboard-response,583,1753433,null,"NOTEBOOK",null,word,,,,, 'NOTEBOOK',,
html-keyboard-response,584,1753940,null,"POND<img id = ""stim"" ><div class = green_square id = ""topsquare"" ></div><img id = ""stim"" ><div class = green_square  id = ""bottomsquare"" ></div>",null,word_square,response,0,none,true,,,
html-keyboard-response,585,1755447,null,"POND",null,word,,,,, 'POND',,
html-keyboard-response,586,1755840,390.0950001552701,"RADISH<img id = ""stim"" ><div class = red_square id = ""topsquare"" ></div><img id = ""stim"" ><div class = red_square  id = ""bottomsquare"" ></div>",32,word_square,response,1,Space,true,,,
html-keyboard-response,587,1757349,null,"RADISH",null,word,,,,, 'RADISH',,
html-keyboard-response,588,1757855,null,"BINDER<img id = ""stim"" ><div class = green_square id = ""topsquare"" ></div><img id = ""stim"" ><div class = green_square  id = ""bottomsquare"" ></div>",null,word_square,response,0,none,true,,,
html-keyboard-response,589,1759364,null,"BINDER",null,word,,,,, 'BINDER',,
call-function,590,1759366,,"",,,,,,,,,
html-keyboard-response,591,1759476,null,"",null,,,,,,,,
math-period,592,1764972,9517.439999850467,"",,,,,,,,,2
html-keyboard-response,593,1765079,null,"",null,,,,,,,,
math-period,594,1765979,1639.9250000249594,"",,,,,,,,,2
html-keyboard-response,595,1766087,null,"",null,,,,,,,,
math-period,596,1768366,4459.159999853,"",,,,,,,,,2
html-keyboard-response,597,1768474,null,"",null,,,,,,,,
math-period,598,1769803,2390.2000000234693,"",,,,,,,,,3
html-keyboard-response,599,1769914,null,"",null,,,,,,,,
math-period,600,1771828,5572.190000442788,"",,,,,,,,,5
html-keyboard-response,601,1771931,null,"",null,,,,,,,,
math-period,602,1773202,2192.445000167936,"",,,,,,,,,6
html-keyboard-response,603,1773309,null,"",null,,,,,,,,
math-period,604,1774994,3238.6449999175966,"",,,,,,,,,2
html-keyboard-response,605,1775105,null,"",null,,,,,,,,
math-period,606,1778215,6072.634999873117,"",,,,,,,,,0
html-keyboard-response,607,1778324,null,"",null,,,,,,,,
math-period,608,1780172,3532.4999999720603,"",,,,,,,,,3
html-keyboard-response,609,1780278,null,"",null,,,,,,,,
math-period,610,1781315,1906.724999891594,"",,,,,,,,,3
html-keyboard-response,611,1781424,null,"",null,,,,,,,,
math-period,612,1783372,null,"",,,,,,,,,
html-keyboard-response,613,1784381,null,"Recall Period!",null,,,,,,,,
call-function,614,1784385,,"",,,,,,,,,
html-keyboard-response,615,1784496,null,"",null,,,,,,,,
recall-period,616,1790676,19826.859999913722,"",,,,,,,,,gift
html-keyboard-response,617,1790780,null,"",null,,,,,,,,
recall-period,618,1795761,20200.355000328273,"",,,,,,,,,package
html-keyboard-response,619,1795868,null,"",null,,,,,,,,
recall-period,620,1799313,17374.6199994348,"",,,,,,,,,basket
html-keyboard-response,621,1799419,null,"",null,,,,,,,,
recall-period,622,1806354,41244.95500023477,"",,,,,,,,,kettle
html-keyboard-response,623,1806464,null,"",null,,,,,,,,
recall-period,624,1815610,48430.0200000871,"",,,,,,,,,radish
html-keyboard-response,625,1815744,null,"",null,,,,,,,,
recall-period,626,1818859,12600.600000005215,"",,,,,,,,,gift
html-keyboard-response,627,1818964,null,"",null,,,,,,,,
recall-period,628,1859390,null,"",,,,,,,,,
html-keyboard-response,629,1859900,null,"Time's Up!",null,,,,,,,,
html-keyboard-response,630,1862585,2680.600000079721,"<p> Good job! You responded correctly to 88% of the red squares.</p>
                  <p>Be sure to keep your accuracy above 80%</p>
                  <p>Press any key to continue the experiment. Thank you!</p>",32,,,,,,,,
html-keyboard-response,631,1863625,1036.0149999614805,"<div style=""font-size:48px;"">Press any key to begin list 8 of 24 </div>",32,,,,,,,,
html-keyboard-response,632,1866139,null,"<div style=""font-size:60px;"">+</div>",null,,,,,,,,
html-keyboard-response,633,1866648,null,"ACTOR<img id = ""stim"" ><div class = red_square id = ""topsquare"" ></div><img id = ""stim"" ><div class = red_square  id = ""bottomsquare"" ></div>",null,word_square,response,1,Space,false,,,
html-keyboard-response,634,1868152,null,"ACTOR",null,word,,,,, 'ACTOR',,
html-keyboard-response,635,1868637,482.4349998962134,"FILM<img id = ""stim"" ><div class = red_square id = ""topsquare"" ></div><img id = ""stim"" ><div class = red_square  id = ""bottomsquare"" ></div>",32,word_square,response,1,Space,true,,,
html-keyboard-response,636,1870144,null,"FILM",null,word,,,,, 'FILM',,
html-keyboard-response,637,1870656,null,"PLANET<img id = ""stim"" ><div class = green_square id = ""topsquare"" ></div><img id = ""stim"" ><div class = green_square  id = ""bottomsquare"" ></div>",null,word_square,response,0,none,true,,,
html-keyboard-response,638,1872162,null,"PLANET",null,word,,,,, 'PLANET',,
html-keyboard-response,639,1872670,null,"SERPENT<img id = ""stim"" ><div class = green_square id = ""topsquare"" ></div><img id = ""stim"" ><div class = green_square  id = ""bottomsquare"" ></div>",null,word_square,response,0,none,true,,,
html-keyboard-response,640,1874175,null,"SERPENT",null,word,,,,, 'SERPENT',,
html-keyboard-response,641,1874680,null,"MUFFIN<img id = ""stim"" ><div class = green_square id = ""topsquare"" ></div><img id = ""stim"" ><div class = green_square  id = ""bottomsquare"" ></div>",null,word_square,response,0,none,true,,,
html-keyboard-response,642,1876185,null,"MUFFIN",null,word,,,,, 'MUFFIN',,
html-keyboard-response,643,1876689,501.3950001448393,"FATHER<img id = ""stim"" ><div class = red_square id = ""topsquare"" ></div><img id = ""stim"" ><div class = red_square  id = ""bottomsquare"" ></div>",32,word_square,response,1,Space,true,,,
html-keyboard-response,644,1878194,null,"FATHER",null,word,,,,, 'FATHER',,
html-keyboard-response,645,1878704,null,"COLLEGE<img id = ""stim"" ><div class = green_square id = ""topsquare"" ></div><img id = ""stim"" ><div class = green_square  id = ""bottomsquare"" ></div>",null,word_square,response,0,none,true,,,
html-keyboard-response,646,1880216,null,"COLLEGE",null,word,,,,, 'COLLEGE',,
html-keyboard-response,647,1880546,326.6150001436472,"NIGHTGOWN<img id = ""stim"" ><div class = red_square id = ""topsquare"" ></div><img id = ""stim"" ><div class = red_square  id = ""bottomsquare"" ></div>",32,word_square,response,1,Space,true,,,
html-keyboard-response,648,1882057,null,"NIGHTGOWN",null,word,,,,, 'NIGHTGOWN',,
html-keyboard-response,649,1882565,null,"BANKER<img id = ""stim"" ><div class = green_square id = ""topsquare"" ></div><img id = ""stim"" ><div class = green_square  id = ""bottomsquare"" ></div>",null,word_square,response,0,none,true,,,
html-keyboard-response,650,1884069,null,"BANKER",null,word,,,,, 'BANKER',,
html-keyboard-response,651,1884466,393.09999998658895,"COIN<img id = ""stim"" ><div class = red_square id = ""topsquare"" ></div><img id = ""stim"" ><div class = red_square  id = ""bottomsquare"" ></div>",32,word_square,response,1,Space,true,,,
html-keyboard-response,652,1885978,null,"COIN",null,word,,,,, 'COIN',,
html-keyboard-response,653,1886483,null,"PARTNER<img id = ""stim"" ><div class = red_square id = ""topsquare"" ></div><img id = ""stim"" ><div class = red_square  id = ""bottomsquare"" ></div>",null,word_square,response,1,Space,false,,,
html-keyboard-response,654,1887994,null,"PARTNER",null,word,,,,, 'PARTNER',,
html-keyboard-response,655,1888501,null,"PEOPLE<img id = ""stim"" ><div class = green_square id = ""topsquare"" ></div><img id = ""stim"" ><div class = green_square  id = ""bottomsquare"" ></div>",null,word_square,response,0,none,true,,,
html-keyboard-response,656,1890006,null,"PEOPLE",null,word,,,,, 'PEOPLE',,
html-keyboard-response,657,1890448,437.26000003516674,"PENCIL<img id = ""stim"" ><div class = red_square id = ""topsquare"" ></div><img id = ""stim"" ><div class = red_square  id = ""bottomsquare"" ></div>",32,word_square,response,1,Space,true,,,
html-keyboard-response,658,1891953,null,"PENCIL",null,word,,,,, 'PENCIL',,
html-keyboard-response,659,1892452,496.2150000501424,"FRIEND<img id = ""stim"" ><div class = red_square id = ""topsquare"" ></div><img id = ""stim"" ><div class = red_square  id = ""bottomsquare"" ></div>",32,word_square,response,1,Space,true,,,
html-keyboard-response,660,1893957,null,"FRIEND",null,word,,,,, 'FRIEND',,
html-keyboard-response,661,1894467,null,"SPONGE<img id = ""stim"" ><div class = green_square id = ""topsquare"" ></div><img id = ""stim"" ><div class = green_square  id = ""bottomsquare"" ></div>",null,word_square,response,0,none,true,,,
html-keyboard-response,662,1895979,null,"SPONGE",null,word,,,,, 'SPONGE',,
html-keyboard-response,663,1896486,null,"ISLAND<img id = ""stim"" ><div class = green_square id = ""topsquare"" ></div><img id = ""stim"" ><div class = green_square  id = ""bottomsquare"" ></div>",null,word_square,response,0,none,true,,,
html-keyboard-response,664,1897997,null,"ISLAND",null,word,,,,, 'ISLAND',,
html-keyboard-response,665,1898423,421.94500006735325,"PIMPLE<img id = ""stim"" ><div class = red_square id = ""topsquare"" ></div><img id = ""stim"" ><div class = red_square  id = ""bottomsquare"" ></div>",32,word_square,response,1,Space,true,,,
html-keyboard-response,666,1899932,null,"PIMPLE",null,word,,,,, 'PIMPLE',,
html-keyboard-response,667,1900441,null,"RAFT<img id = ""stim"" ><div class = green_square id = ""topsquare"" ></div><img id = ""stim"" ><div class = green_square  id = ""bottomsquare"" ></div>",null,word_square,response,0,none,true,,,
html-keyboard-response,668,1901945,null,"RAFT",null,word,,,,, 'RAFT',,
call-function,669,1901946,,"",,,,,,,,,
html-keyboard-response,670,1902056,null,"",null,,,,,,,,
math-period,671,1904121,3899.275000207126,"",,,,,,,,,3
html-keyboard-response,672,1904229,null,"",null,,,,,,,,
math-period,673,1905472,2368.5050001367927,"",,,,,,,,,3
html-keyboard-response,674,1905580,null,"",null,,,,,,,,
math-period,675,1907468,3608.229999896139,"",,,,,,,,,4
html-keyboard-response,676,1907571,null,"",null,,,,,,,,
math-period,677,1909560,3741.5899999905378,"",,,,,,,,,6
html-keyboard-response,678,1909667,null,"",null,,,,,,,,
math-period,679,1912032,4573.0550000444055,"",,,,,,,,,2
html-keyboard-response,680,1912135,null,"",null,,,,,,,,
math-period,681,1913250,2025.3799997735769,"",,,,,,,,,3
html-keyboard-response,682,1913361,null,"",null,,,,,,,,
math-period,683,1914874,2880.7550000492483,"",,,,,,,,,6
html-keyboard-response,684,1914982,null,"",null,,,,,,,,
math-period,685,1916351,2580.970000009984,"",,,,,,,,,5
html-keyboard-response,686,1916462,null,"",null,,,,,,,,
math-period,687,1918252,3439.0400000847876,"",,,,,,,,,4
html-keyboard-response,688,1918356,null,"",null,,,,,,,,
math-period,689,1919971,3133.0600001383573,"",,,,,,,,,2
html-keyboard-response,690,1920080,null,"",null,,,,,,,,
math-period,691,1921490,2654.9500001128763,"",,,,,,,,,5
html-keyboard-response,692,1921601,null,"",null,,,,,,,,
math-period,693,1922661,1953.5099999047816,"",,,,,,,,,5
html-keyboard-response,694,1922768,null,"",null,,,,,,,,
math-period,695,1924941,6792.379999766126,"",,,,,,,,,3
html-keyboard-response,696,1925048,null,"",null,,,,,,,,
math-period,697,1925957,null,"",,,,,,,,,
html-keyboard-response,698,1926965,null,"Recall Period!",null,,,,,,,,
call-function,699,1926969,,"",,,,,,,,,
html-keyboard-response,700,1927077,null,"",null,,,,,,,,
recall-period,701,1931587,16566.155000356957,"",,,,,,,,,pimple
html-keyboard-response,702,1931691,null,"",null,,,,,,,,
recall-period,703,1934438,12557.470000116155,"",,,,,,,,,friend
html-keyboard-response,704,1934548,null,"",null,,,,,,,,
recall-period,705,1940106,27780.89499962516,"",,,,,,,,,actor
html-keyboard-response,706,1940215,null,"",null,,,,,,,,
recall-period,707,1944980,19832.63999945484,"",,,,,,,,,film
html-keyboard-response,708,1945089,null,"",null,,,,,,,,
recall-period,709,1947276,10528.674999484792,"",,,,,,,,,father
html-keyboard-response,710,1947382,null,"",null,,,,,,,,
recall-period,711,1950056,9075.77499980107,"",,,,,,,,,coin
html-keyboard-response,712,1950168,null,"",null,,,,,,,,
recall-period,713,1954256,25260.0500008557,"",,,,,,,,,partner
html-keyboard-response,714,1954364,null,"",null,,,,,,,,
recall-period,715,1958348,20896.104999585077,"",,,,,,,,,pencil
html-keyboard-response,716,1958458,null,"",null,,,,,,,,
recall-period,717,1966342,48959.48000065982,"",,,,,,,,,father
html-keyboard-response,718,1966446,null,"",null,,,,,,,,
recall-period,719,2001978,null,"",,,,,,,,,
html-keyboard-response,720,2002483,null,"Time's Up!",null,,,,,,,,
html-keyboard-response,721,2005845,3359.2149999458343,"<p> Good job! You responded correctly to 88% of the red squares.</p>
                  <p>Be sure to keep your accuracy above 80%</p>
                  <p>Press any key to continue the experiment. Thank you!</p>",32,,,,,,,,
html-keyboard-response,722,2006550,701.8600001465529,"<div style=""font-size:48px;"">Press any key to begin list 9 of 24 </div>",32,,,,,,,,
html-keyboard-response,723,2009063,null,"<div style=""font-size:60px;"">+</div>",null,,,,,,,,
html-keyboard-response,724,2009575,null,"HORSE<img id = ""stim"" ><div class = green_square id = ""topsquare"" ></div><img id = ""stim"" ><div class = green_square  id = ""bottomsquare"" ></div>",null,word_square,response,0,none,true,,,
html-keyboard-response,725,2011086,null,"HORSE",null,word,,,,, 'HORSE',,
html-keyboard-response,726,2011589,null,"PARSLEY<img id = ""stim"" ><div class = green_square id = ""topsquare"" ></div><img id = ""stim"" ><div class = green_square  id = ""bottomsquare"" ></div>",null,word_square,response,0,none,true,,,
html-keyboard-response,727,2013094,null,"PARSLEY",null,word,,,,, 'PARSLEY',,
html-keyboard-response,728,2013517,419.77000003680587,"CRAB<img id = ""stim"" ><div class = red_square id = ""topsquare"" ></div><img id = ""stim"" ><div class = red_square  id = ""bottomsquare"" ></div>",32,word_square,response,1,Space,true,,,
html-keyboard-response,729,2015022,null,"CRAB",null,word,,,,, 'CRAB',,
html-keyboard-response,730,2015492,465.5999999959022,"PLIERS<img id = ""stim"" ><div class = red_square id = ""topsquare"" ></div><img id = ""stim"" ><div class = red_square  id = ""bottomsquare"" ></div>",32,word_square,response,1,Space,true,,,
html-keyboard-response,731,2017004,null,"PLIERS",null,word,,,,, 'PLIERS',,
html-keyboard-response,732,2017513,null,"SHEPHERD<img id = ""stim"" ><div class = green_square id = ""topsquare"" ></div><img id = ""stim"" ><div class = green_square  id = ""bottomsquare"" ></div>",null,word_square,response,0,none,true,,,
html-keyboard-response,733,2019023,null,"SHEPHERD",null,word,,,,, 'SHEPHERD',,
html-keyboard-response,734,2019378,350.83500016480684,"PLASTER<img id = ""stim"" ><div class = red_square id = ""topsquare"" ></div><img id = ""stim"" ><div class = red_square  id = ""bottomsquare"" ></div>",32,word_square,response,1,Space,true,,,
html-keyboard-response,735,2020886,null,"PLASTER",null,word,,,,, 'PLASTER',,
html-keyboard-response,736,2021397,null,"CEILING<img id = ""stim"" ><div class = green_square id = ""topsquare"" ></div><img id = ""stim"" ><div class = green_square  id = ""bottomsquare"" ></div>",null,word_square,response,0,none,true,,,
html-keyboard-response,737,2022904,null,"CEILING",null,word,,,,, 'CEILING',,
html-keyboard-response,738,2023233,325.14999993145466,"SNAKE<img id = ""stim"" ><div class = red_square id = ""topsquare"" ></div><img id = ""stim"" ><div class = red_square  id = ""bottomsquare"" ></div>",32,word_square,response,1,Space,true,,,
html-keyboard-response,739,2024743,null,"SNAKE",null,word,,,,, 'SNAKE',,
html-keyboard-response,740,2025249,null,"COBRA<img id = ""stim"" ><div class = green_square id = ""topsquare"" ></div><img id = ""stim"" ><div class = green_square  id = ""bottomsquare"" ></div>",null,word_square,response,0,none,true,,,
html-keyboard-response,741,2026760,null,"COBRA",null,word,,,,, 'COBRA',,
html-keyboard-response,742,2027098,334.82999983243644,"CHICKEN<img id = ""stim"" ><div class = red_square id = ""topsquare"" ></div><img id = ""stim"" ><div class = red_square  id = ""bottomsquare"" ></div>",32,word_square,response,1,Space,true,,,
html-keyboard-response,743,2028610,null,"CHICKEN",null,word,,,,, 'CHICKEN',,
html-keyboard-response,744,2029117,null,"BISON<img id = ""stim"" ><div class = red_square id = ""topsquare"" ></div><img id = ""stim"" ><div class = red_square  id = ""bottomsquare"" ></div>",null,word_square,response,1,Space,false,,,
html-keyboard-response,745,2030626,null,"BISON",null,word,,,,, 'BISON',,
html-keyboard-response,746,2031133,null,"RUBY<img id = ""stim"" ><div class = green_square id = ""topsquare"" ></div><img id = ""stim"" ><div class = green_square  id = ""bottomsquare"" ></div>",null,word_square,response,0,none,true,,,
html-keyboard-response,747,2032638,null,"RUBY",null,word,,,,, 'RUBY',,
html-keyboard-response,748,2033147,null,"GANGSTER<img id = ""stim"" ><div class = green_square id = ""topsquare"" ></div><img id = ""stim"" ><div class = green_square  id = ""bottomsquare"" ></div>",null,word_square,response,0,none,true,,,
html-keyboard-response,749,2034657,null,"GANGSTER",null,word,,,,, 'GANGSTER',,
html-keyboard-response,750,2035059,397.30000006966293,"BUSH<img id = ""stim"" ><div class = red_square id = ""topsquare"" ></div><img id = ""stim"" ><div class = red_square  id = ""bottomsquare"" ></div>",32,word_square,response,1,Space,true,,,
html-keyboard-response,751,2036570,null,"BUSH",null,word,,,,, 'BUSH',,
html-keyboard-response,752,2037077,null,"WRENCH<img id = ""stim"" ><div class = red_square id = ""topsquare"" ></div><img id = ""stim"" ><div class = red_square  id = ""bottomsquare"" ></div>",null,word_square,response,1,Space,false,,,
html-keyboard-response,753,2038581,null,"WRENCH",null,word,,,,, 'WRENCH',,
html-keyboard-response,754,2039089,null,"LACE<img id = ""stim"" ><div class = green_square id = ""topsquare"" ></div><img id = ""stim"" ><div class = green_square  id = ""bottomsquare"" ></div>",null,word_square,response,0,none,true,,,
html-keyboard-response,755,2040600,null,"LACE",null,word,,,,, 'LACE',,
html-keyboard-response,756,2041109,null,"PRIEST<img id = ""stim"" ><div class = green_square id = ""topsquare"" ></div><img id = ""stim"" ><div class = green_square  id = ""bottomsquare"" ></div>",null,word_square,response,0,none,true,,,
html-keyboard-response,757,2042617,null,"PRIEST",null,word,,,,, 'PRIEST',,
html-keyboard-response,758,2042945,323.5299999359995,"SAUCER<img id = ""stim"" ><div class = red_square id = ""topsquare"" ></div><img id = ""stim"" ><div class = red_square  id = ""bottomsquare"" ></div>",32,word_square,response,1,Space,true,,,
html-keyboard-response,759,2044456,null,"SAUCER",null,word,,,,, 'SAUCER',,
call-function,760,2044458,,"",,,,,,,,,
html-keyboard-response,761,2044567,null,"",null,,,,,,,,
math-period,762,2046728,4069.4799998309463,"",,,,,,,,,4
html-keyboard-response,763,2046831,null,"",null,,,,,,,,
math-period,764,2047862,1925.3800001461059,"",,,,,,,,,3
html-keyboard-response,765,2047966,null,"",null,,,,,,,,
math-period,766,2052613,9116.625000257045,"",,,,,,,,,1
html-keyboard-response,767,2052720,null,"",null,,,,,,,,
math-period,768,2054560,3579.249999951571,"",,,,,,,,,2
html-keyboard-response,769,2054665,null,"",null,,,,,,,,
math-period,770,2055984,2536.610000068322,"",,,,,,,,,6
html-keyboard-response,771,2056093,null,"",null,,,,,,,,
math-period,772,2058120,3917.5149998627603,"",,,,,,,,,1
html-keyboard-response,773,2058227,null,"",null,,,,,,,,
math-period,774,2060500,4389.910000376403,"",,,,,,,,,1
html-keyboard-response,775,2060610,null,"",null,,,,,,,,
math-period,776,2062637,3905.025000218302,"",,,,,,,,,4
html-keyboard-response,777,2062742,null,"",null,,,,,,,,
math-period,778,2064013,2379.8900002148002,"",,,,,,,,,5
html-keyboard-response,779,2064125,null,"",null,,,,,,,,
math-period,780,2065873,3340.950000099838,"",,,,,,,,,1
html-keyboard-response,781,2065986,null,"",null,,,,,,,,
math-period,782,2067689,3216.270000208169,"",,,,,,,,,1
html-keyboard-response,783,2067794,null,"",null,,,,,,,,
math-period,784,2068463,null,"",,,,,,,,,
html-keyboard-response,785,2069470,null,"Recall Period!",null,,,,,,,,
call-function,786,2069473,,"",,,,,,,,,
html-keyboard-response,787,2069601,null,"",null,,,,,,,,
recall-period,788,2079222,43999.61500009522,"",,,,,,,,,crab
html-keyboard-response,789,2079330,null,"",null,,,,,,,,
recall-period,790,2083081,18294.26999995485,"",,,,,,,,,pliers
html-keyboard-response,791,2083188,null,"",null,,,,,,,,
recall-period,792,2087696,18859.425000613555,"",,,,,,,,,plaster
html-keyboard-response,793,2087806,null,"",null,,,,,,,,
recall-period,794,2092511,23049.424999859184,"",,,,,,,,,cobra
html-keyboard-response,795,2092621,null,"",null,,,,,,,,
recall-period,796,2096222,17859.18500018306,"",,,,,,,,,horse
html-keyboard-response,797,2096332,null,"",null,,,,,,,,
recall-period,798,2105670,42849.38000049442,"",,,,,,,,,bush
html-keyboard-response,799,2105785,null,"",null,,,,,,,,
recall-period,800,2144490,null,"",,,,,,,,,
html-keyboard-response,801,2145000,null,"Time's Up!",null,,,,,,,,
html-keyboard-response,802,2147479,2474.8400000389665,"<p> Good job! You responded correctly to 88% of the red squares.</p>
                  <p>Be sure to keep your accuracy above 80%</p>
                  <p>Press any key to continue the experiment. Thank you!</p>",32,,,,,,,,
html-keyboard-response,803,2153388,5905.239999992773,"<div style=""font-size:48px;"">Press any key to begin list 10 of 24 </div>",32,,,,,,,,
html-keyboard-response,804,2155899,null,"<div style=""font-size:60px;"">+</div>",null,,,,,,,,
html-keyboard-response,805,2156404,null,"JEEP<img id = ""stim"" ><div class = green_square id = ""topsquare"" ></div><img id = ""stim"" ><div class = green_square  id = ""bottomsquare"" ></div>",null,word_square,response,0,none,true,,,
html-keyboard-response,806,2157912,null,"JEEP",null,word,,,,, 'JEEP',,
html-keyboard-response,807,2158419,null,"DWARF<img id = ""stim"" ><div class = green_square id = ""topsquare"" ></div><img id = ""stim"" ><div class = green_square  id = ""bottomsquare"" ></div>",null,word_square,response,0,none,true,,,
html-keyboard-response,808,2159923,null,"DWARF",null,word,,,,, 'DWARF',,
html-keyboard-response,809,2160358,430.40499999187887,"CLOTHES<img id = ""stim"" ><div class = red_square id = ""topsquare"" ></div><img id = ""stim"" ><div class = red_square  id = ""bottomsquare"" ></div>",32,word_square,response,1,Space,true,,,
html-keyboard-response,810,2161866,null,"CLOTHES",null,word,,,,, 'CLOTHES',,
html-keyboard-response,811,2162307,437.84500006586313,"BLOUSE<img id = ""stim"" ><div class = red_square id = ""topsquare"" ></div><img id = ""stim"" ><div class = red_square  id = ""bottomsquare"" ></div>",32,word_square,response,1,Space,true,,,
html-keyboard-response,812,2163817,null,"BLOUSE",null,word,,,,, 'BLOUSE',,
html-keyboard-response,813,2164327,null,"MUMMY<img id = ""stim"" ><div class = green_square id = ""topsquare"" ></div><img id = ""stim"" ><div class = green_square  id = ""bottomsquare"" ></div>",null,word_square,response,0,none,true,,,
html-keyboard-response,814,2165837,null,"MUMMY",null,word,,,,, 'MUMMY',,
html-keyboard-response,815,2166185,343.6699998565018,"CRYSTAL<img id = ""stim"" ><div class = red_square id = ""topsquare"" ></div><img id = ""stim"" ><div class = red_square  id = ""bottomsquare"" ></div>",32,word_square,response,1,Space,true,,,
html-keyboard-response,816,2167694,null,"CRYSTAL",null,word,,,,, 'CRYSTAL',,
html-keyboard-response,817,2168200,null,"KNUCKLE<img id = ""stim"" ><div class = green_square id = ""topsquare"" ></div><img id = ""stim"" ><div class = green_square  id = ""bottomsquare"" ></div>",null,word_square,response,0,none,true,,,
html-keyboard-response,818,2169706,null,"KNUCKLE",null,word,,,,, 'KNUCKLE',,
html-keyboard-response,819,2170035,325.14999993145466,"TOMBSTONE<img id = ""stim"" ><div class = red_square id = ""topsquare"" ></div><img id = ""stim"" ><div class = red_square  id = ""bottomsquare"" ></div>",32,word_square,response,1,Space,true,,,
html-keyboard-response,820,2171540,null,"TOMBSTONE",null,word,,,,, 'TOMBSTONE',,
html-keyboard-response,821,2172049,null,"MARROW<img id = ""stim"" ><div class = green_square id = ""topsquare"" ></div><img id = ""stim"" ><div class = green_square  id = ""bottomsquare"" ></div>",null,word_square,response,0,none,true,,,
html-keyboard-response,822,2173554,null,"MARROW",null,word,,,,, 'MARROW',,
html-keyboard-response,823,2173899,340.204999782145,"SWATTER<img id = ""stim"" ><div class = red_square id = ""topsquare"" ></div><img id = ""stim"" ><div class = red_square  id = ""bottomsquare"" ></div>",32,word_square,response,1,Space,true,,,
html-keyboard-response,824,2175411,null,"SWATTER",null,word,,,,, 'SWATTER',,
html-keyboard-response,825,2175800,385.22999989800155,"CANVAS<img id = ""stim"" ><div class = red_square id = ""topsquare"" ></div><img id = ""stim"" ><div class = red_square  id = ""bottomsquare"" ></div>",32,word_square,response,1,Space,true,,,
html-keyboard-response,826,2177304,null,"CANVAS",null,word,,,,, 'CANVAS',,
html-keyboard-response,827,2177815,null,"SUITE<img id = ""stim"" ><div class = green_square id = ""topsquare"" ></div><img id = ""stim"" ><div class = green_square  id = ""bottomsquare"" ></div>",null,word_square,response,0,none,true,,,
html-keyboard-response,828,2179326,null,"SUITE",null,word,,,,, 'SUITE',,
html-keyboard-response,829,2179838,null,"QUEEN<img id = ""stim"" ><div class = green_square id = ""topsquare"" ></div><img id = ""stim"" ><div class = green_square  id = ""bottomsquare"" ></div>",null,word_square,response,0,none,true,,,
html-keyboard-response,830,2181344,null,"QUEEN",null,word,,,,, 'QUEEN',,
html-keyboard-response,831,2181710,362.1100001037121,"OMELET<img id = ""stim"" ><div class = red_square id = ""topsquare"" ></div><img id = ""stim"" ><div class = red_square  id = ""bottomsquare"" ></div>",32,word_square,response,1,Space,true,,,
html-keyboard-response,832,2183216,null,"OMELET",null,word,,,,, 'OMELET',,
html-keyboard-response,833,2183636,415.57499999180436,"BACON<img id = ""stim"" ><div class = red_square id = ""topsquare"" ></div><img id = ""stim"" ><div class = red_square  id = ""bottomsquare"" ></div>",32,word_square,response,1,Space,true,,,
html-keyboard-response,834,2185149,null,"BACON",null,word,,,,, 'BACON',,
html-keyboard-response,835,2185661,null,"SWIMMER<img id = ""stim"" ><div class = green_square id = ""topsquare"" ></div><img id = ""stim"" ><div class = green_square  id = ""bottomsquare"" ></div>",null,word_square,response,0,none,true,,,
html-keyboard-response,836,2187167,null,"SWIMMER",null,word,,,,, 'SWIMMER',,
html-keyboard-response,837,2187677,null,"SWAMP<img id = ""stim"" ><div class = green_square id = ""topsquare"" ></div><img id = ""stim"" ><div class = green_square  id = ""bottomsquare"" ></div>",null,word_square,response,0,none,true,,,
html-keyboard-response,838,2189189,null,"SWAMP",null,word,,,,, 'SWAMP',,
html-keyboard-response,839,2189552,358.7299999780953,"BEAKER<img id = ""stim"" ><div class = red_square id = ""topsquare"" ></div><img id = ""stim"" ><div class = red_square  id = ""bottomsquare"" ></div>",32,word_square,response,1,Space,true,,,
html-keyboard-response,840,2191062,null,"BEAKER",null,word,,,,, 'BEAKER',,
call-function,841,2191064,,"",,,,,,,,,
html-keyboard-response,842,2191168,null,"",null,,,,,,,,
math-period,843,2199018,17129.51000011526,"",,,,,,,,,66
html-keyboard-response,844,2199125,null,"",null,,,,,,,,
math-period,845,2207021,15583.675000118092,"",,,,,,,,,3
html-keyboard-response,846,2207131,null,"",null,,,,,,,,
math-period,847,2209147,3670.8649997599423,"",,,,,,,,,2
html-keyboard-response,848,2209258,null,"",null,,,,,,,,
math-period,849,2211007,3328.359999926761,"",,,,,,,,,5
html-keyboard-response,850,2211118,null,"",null,,,,,,,,
math-period,851,2215076,null,"",,,,,,,,,
html-keyboard-response,852,2216088,null,"Recall Period!",null,,,,,,,,
call-function,853,2216090,,"",,,,,,,,,
html-keyboard-response,854,2216199,null,"",null,,,,,,,,
recall-period,855,2220694,21380.895000183955,"",,,,,,,,,bacon
html-keyboard-response,856,2220811,null,"",null,,,,,,,,
recall-period,857,2223463,10145.374999614432,"",,,,,,,,,jeep
html-keyboard-response,858,2223570,null,"",null,,,,,,,,
recall-period,859,2228514,19353.17000001669,"",,,,,,,,,dwarf
html-keyboard-response,860,2228621,null,"",null,,,,,,,,
recall-period,861,2235689,41506.59500062466,"",,,,,,,,,beaker
html-keyboard-response,862,2235794,null,"",null,,,,,,,,
recall-period,863,2291100,null,"",,,,,,,,,
html-keyboard-response,864,2291612,null,"Time's Up!",null,,,,,,,,
html-keyboard-response,865,2294813,3197.2999998833984,"<p> Good job! You responded correctly to 89% of the red squares.</p>
                  <p>Be sure to keep your accuracy above 80%</p>
                  <p>Press any key to continue the experiment. Thank you!</p>",32,,,,,,,,
html-keyboard-response,866,2295685,868.6100000049919,"<div style=""font-size:48px;"">Press any key to begin list 11 of 24 </div>",32,,,,,,,,
html-keyboard-response,867,2298196,null,"<div style=""font-size:60px;"">+</div>",null,,,,,,,,
html-keyboard-response,868,2298700,499.76499984040856,"COUNTRY<img id = ""stim"" ><div class = red_square id = ""topsquare"" ></div><img id = ""stim"" ><div class = red_square  id = ""bottomsquare"" ></div>",32,word_square,response,1,Space,true,,,
html-keyboard-response,869,2300209,null,"COUNTRY",null,word,,,,, 'COUNTRY',,
html-keyboard-response,870,2300712,499.96000016108155,"CHARCOAL<img id = ""stim"" ><div class = red_square id = ""topsquare"" ></div><img id = ""stim"" ><div class = red_square  id = ""bottomsquare"" ></div>",32,word_square,response,1,Space,true,,,
html-keyboard-response,871,2302217,null,"CHARCOAL",null,word,,,,, 'CHARCOAL',,
html-keyboard-response,872,2302730,null,"FOSSIL<img id = ""stim"" ><div class = green_square id = ""topsquare"" ></div><img id = ""stim"" ><div class = green_square  id = ""bottomsquare"" ></div>",null,word_square,response,0,none,true,,,
html-keyboard-response,873,2304240,null,"FOSSIL",null,word,,,,, 'FOSSIL',,
html-keyboard-response,874,2304753,null,"STRANGER<img id = ""stim"" ><div class = green_square id = ""topsquare"" ></div><img id = ""stim"" ><div class = green_square  id = ""bottomsquare"" ></div>",null,word_square,response,0,none,true,,,
html-keyboard-response,875,2306262,null,"STRANGER",null,word,,,,, 'STRANGER',,
html-keyboard-response,876,2306775,null,"SALMON<img id = ""stim"" ><div class = red_square id = ""topsquare"" ></div><img id = ""stim"" ><div class = red_square  id = ""bottomsquare"" ></div>",null,word_square,response,1,Space,false,,,
html-keyboard-response,877,2308280,null,"SALMON",null,word,,,,, 'SALMON',,
html-keyboard-response,878,2308801,null,"SCAPEGOAT<img id = ""stim"" ><div class = green_square id = ""topsquare"" ></div><img id = ""stim"" ><div class = green_square  id = ""bottomsquare"" ></div>",null,word_square,response,0,none,true,,,
html-keyboard-response,879,2310305,null,"SCAPEGOAT",null,word,,,,, 'SCAPEGOAT',,
