trial_type,trial_index,time_elapsed,rt,stimulus,key_press,test_part,task,targ_cond,correctKeyCode,correct,word,value,response
pavlovia,0,670,,"",,,,,,,,,
external-html,1,30516,29691.474999999627,"",,,,,,,,,
html-keyboard-response,2,32796,2277.9600000358187,"Welcome to the experiment. Press any key to begin.",32,,,,,,,,
html-keyboard-response,3,48124,15326.835000014398,"<p>You will see a list of words and colored squares in the following task.<p><p>Press the spacebar whenever you see a GREEN square.<p><p>Do not press a key if the square is RED<p><p>Press the spacebar to continue.</p>",32,,,,,,,,
html-keyboard-response,4,56788,8162.694999948144,"<p>Please try to remember as many of the words as you can, and try to think about the meaning of each word as it appears.<p><p>After the detection and encoding task you will be asked to solve some math problems for 24 seconds.<p> Please solve as many problems as you can in the time given. <p>",32,,,,,,,,
html-keyboard-response,5,64724,7434.805000026245,"After solving the math problems, you will be asked to type in as many words <p>from the previous list as you can remember for 75 seconds.<p> If you finish recalling before the 75 seconds are up,<p> just sit tight and try to think of any more words you could have missed. <p><p>We will begin with a brief practice session<p>Press the spacebar to begin the practice.</p>",32,,,,,,,,
html-keyboard-response,6,67226,null,"<div style=""font-size:60px;"">+</div>",null,,,,,,,,
html-keyboard-response,7,67729,null,"HAPPY<img id = ""stim"" ><div class = red_square id = ""topsquare"" ></div><img id = ""stim"" ><div class = red_square  id = ""bottomsquare"" ></div>",null,word_square,prac_response,0,none,true,,,
html-keyboard-response,8,69232,null,"HAPPY",null,word,,,,,HAPPY,,
html-keyboard-response,9,69734,410.9100000350736,"COLD<img id = ""stim"" ><div class = green_square id = ""topsquare"" ></div><img id = ""stim"" ><div class = green_square  id = ""bottomsquare"" ></div>",32,word_square,prac_response,1,Space,true,,,
html-keyboard-response,10,71236,null,"COLD",null,word,,,,,COLD,,
html-keyboard-response,11,71739,null,"HEAVY<img id = ""stim"" ><div class = green_square id = ""topsquare"" ></div><img id = ""stim"" ><div class = green_square  id = ""bottomsquare"" ></div>",null,word_square,prac_response,1,Space,false,,,
html-keyboard-response,12,73244,null,"HEAVY",null,word,,,,,HEAVY,,
html-keyboard-response,13,73747,null,"FUNNY<img id = ""stim"" ><div class = red_square id = ""topsquare"" ></div><img id = ""stim"" ><div class = red_square  id = ""bottomsquare"" ></div>",null,word_square,prac_response,0,none,true,,,
html-keyboard-response,14,75248,null,"FUNNY",null,word,,,,,FUNNY,,
html-keyboard-response,15,75751,388.10499996179715,"SCARY<img id = ""stim"" ><div class = green_square id = ""topsquare"" ></div><img id = ""stim"" ><div class = green_square  id = ""bottomsquare"" ></div>",32,word_square,prac_response,1,Space,true,,,
html-keyboard-response,16,77253,null,"SCARY",null,word,,,,,SCARY,,
html-keyboard-response,17,77756,422.2600000211969,"PEACEFUL<img id = ""stim"" ><div class = green_square id = ""topsquare"" ></div><img id = ""stim"" ><div class = green_square  id = ""bottomsquare"" ></div>",32,word_square,prac_response,1,Space,true,,,
html-keyboard-response,18,79258,null,"PEACEFUL",null,word,,,,,PEACEFUL,,
html-keyboard-response,19,79760,null,"LITTLE<img id = ""stim"" ><div class = red_square id = ""topsquare"" ></div><img id = ""stim"" ><div class = red_square  id = ""bottomsquare"" ></div>",null,word_square,prac_response,0,none,true,,,
html-keyboard-response,20,81262,null,"LITTLE",null,word,,,,,LITTLE,,
html-keyboard-response,21,81764,null,"TIRED<img id = ""stim"" ><div class = red_square id = ""topsquare"" ></div><img id = ""stim"" ><div class = red_square  id = ""bottomsquare"" ></div>",null,word_square,prac_response,0,none,true,,,
html-keyboard-response,22,83266,null,"TIRED",null,word,,,,,TIRED,,
html-keyboard-response,23,83768,null,"ENTERTAINING<img id = ""stim"" ><div class = red_square id = ""topsquare"" ></div><img id = ""stim"" ><div class = red_square  id = ""bottomsquare"" ></div>",null,word_square,prac_response,0,none,true,,,
html-keyboard-response,24,85272,null,"ENTERTAINING",null,word,,,,,ENTERTAINING,,
html-keyboard-response,25,85775,null,"GRATEFUL<img id = ""stim"" ><div class = green_square id = ""topsquare"" ></div><img id = ""stim"" ><div class = green_square  id = ""bottomsquare"" ></div>",null,word_square,prac_response,1,Space,false,,,
html-keyboard-response,26,87278,null,"GRATEFUL",null,word,,,,,GRATEFUL,,
html-keyboard-response,27,87780,null,"LOUD<img id = ""stim"" ><div class = red_square id = ""topsquare"" ></div><img id = ""stim"" ><div class = red_square  id = ""bottomsquare"" ></div>",null,word_square,prac_response,0,none,true,,,
html-keyboard-response,28,89283,null,"LOUD",null,word,,,,,LOUD,,
html-keyboard-response,29,89786,424.21500000637025,"SMART<img id = ""stim"" ><div class = green_square id = ""topsquare"" ></div><img id = ""stim"" ><div class = green_square  id = ""bottomsquare"" ></div>",32,word_square,prac_response,1,Space,true,,,
html-keyboard-response,30,91288,null,"SMART",null,word,,,,,SMART,,
html-keyboard-response,31,91790,475.1649999525398,"SMOOTH<img id = ""stim"" ><div class = green_square id = ""topsquare"" ></div><img id = ""stim"" ><div class = green_square  id = ""bottomsquare"" ></div>",32,word_square,prac_response,1,Space,true,,,
html-keyboard-response,32,93292,null,"SMOOTH",null,word,,,,,SMOOTH,,
html-keyboard-response,33,93794,null,"DISHONEST<img id = ""stim"" ><div class = red_square id = ""topsquare"" ></div><img id = ""stim"" ><div class = red_square  id = ""bottomsquare"" ></div>",null,word_square,prac_response,0,none,true,,,
html-keyboard-response,34,95296,null,"DISHONEST",null,word,,,,,DISHONEST,,
html-keyboard-response,35,95799,467.8449999773875,"WEALTHY<img id = ""stim"" ><div class = green_square id = ""topsquare"" ></div><img id = ""stim"" ><div class = green_square  id = ""bottomsquare"" ></div>",32,word_square,prac_response,1,Space,true,,,
html-keyboard-response,36,97302,null,"WEALTHY",null,word,,,,,WEALTHY,,
html-keyboard-response,37,97804,null,"BEAUTIFUL<img id = ""stim"" ><div class = red_square id = ""topsquare"" ></div><img id = ""stim"" ><div class = red_square  id = ""bottomsquare"" ></div>",null,word_square,prac_response,0,none,true,,,
html-keyboard-response,38,99306,null,"BEAUTIFUL",null,word,,,,,BEAUTIFUL,,
html-keyboard-response,39,99808,null,"DREARY<img id = ""stim"" ><div class = red_square id = ""topsquare"" ></div><img id = ""stim"" ><div class = red_square  id = ""bottomsquare"" ></div>",null,word_square,prac_response,0,none,true,,,
html-keyboard-response,40,101310,null,"DREARY",null,word,,,,,DREARY,,
html-keyboard-response,41,101812,null,"PLAYFUL<img id = ""stim"" ><div class = green_square id = ""topsquare"" ></div><img id = ""stim"" ><div class = green_square  id = ""bottomsquare"" ></div>",null,word_square,prac_response,1,Space,false,,,
html-keyboard-response,42,103314,null,"PLAYFUL",null,word,,,,,PLAYFUL,,
html-keyboard-response,43,107813,4495.679999992717,"<p> Good job! You responded correctly to 83% of the GREEN squares.</p>
                  <p>Be sure to keep your accuracy above 80%</p>
                  <p>We're going to try once more to make sure you understand  the task. press any key to continue. </p>",32,,,,,,,,
html-keyboard-response,44,112437,4623.164999997243,"<p>You will see a list of words and colored squares in the following task.<p><p>Press the spacebar whenever you see a GREEN square.<p><p>Do not press a key if the square is RED<p><p>Press the spacebar to continue.</p>",32,,,,,,,,
html-keyboard-response,45,114941,null,"<div style=""font-size:60px;"">+</div>",null,,,,,,,,
html-keyboard-response,46,115444,null,"HAPPY<img id = ""stim"" ><div class = red_square id = ""topsquare"" ></div><img id = ""stim"" ><div class = red_square  id = ""bottomsquare"" ></div>",null,word_square,response,0,none,true,,,
html-keyboard-response,47,116947,null,"HAPPY",null,word,,,,,HAPPY,,
html-keyboard-response,48,117356,408.12999999616295,"COLD<img id = ""stim"" ><div class = green_square id = ""topsquare"" ></div><img id = ""stim"" ><div class = green_square  id = ""bottomsquare"" ></div>",32,word_square,response,1,Space,true,,,
html-keyboard-response,49,118857,null,"COLD",null,word,,,,,COLD,,
html-keyboard-response,50,119301,442.02499999664724,"HEAVY<img id = ""stim"" ><div class = green_square id = ""topsquare"" ></div><img id = ""stim"" ><div class = green_square  id = ""bottomsquare"" ></div>",32,word_square,response,1,Space,true,,,
html-keyboard-response,51,120804,null,"HEAVY",null,word,,,,,HEAVY,,
html-keyboard-response,52,121307,null,"FUNNY<img id = ""stim"" ><div class = red_square id = ""topsquare"" ></div><img id = ""stim"" ><div class = red_square  id = ""bottomsquare"" ></div>",null,word_square,response,0,none,true,,,
html-keyboard-response,53,122809,null,"FUNNY",null,word,,,,,FUNNY,,
html-keyboard-response,54,123229,418.3650000486523,"SCARY<img id = ""stim"" ><div class = green_square id = ""topsquare"" ></div><img id = ""stim"" ><div class = green_square  id = ""bottomsquare"" ></div>",32,word_square,response,1,Space,true,,,
html-keyboard-response,55,124731,null,"SCARY",null,word,,,,,SCARY,,
html-keyboard-response,56,125093,360.20999995525926,"PEACEFUL<img id = ""stim"" ><div class = green_square id = ""topsquare"" ></div><img id = ""stim"" ><div class = green_square  id = ""bottomsquare"" ></div>",32,word_square,response,1,Space,true,,,
html-keyboard-response,57,126596,null,"PEACEFUL",null,word,,,,,PEACEFUL,,
html-keyboard-response,58,127098,null,"LITTLE<img id = ""stim"" ><div class = red_square id = ""topsquare"" ></div><img id = ""stim"" ><div class = red_square  id = ""bottomsquare"" ></div>",null,word_square,response,0,none,true,,,
html-keyboard-response,59,128600,null,"LITTLE",null,word,,,,,LITTLE,,
html-keyboard-response,60,129103,null,"TIRED<img id = ""stim"" ><div class = red_square id = ""topsquare"" ></div><img id = ""stim"" ><div class = red_square  id = ""bottomsquare"" ></div>",null,word_square,response,0,none,true,,,
html-keyboard-response,61,130606,null,"TIRED",null,word,,,,,TIRED,,
html-keyboard-response,62,131108,null,"ENTERTAINING<img id = ""stim"" ><div class = red_square id = ""topsquare"" ></div><img id = ""stim"" ><div class = red_square  id = ""bottomsquare"" ></div>",null,word_square,response,0,none,true,,,
html-keyboard-response,63,132611,null,"ENTERTAINING",null,word,,,,,ENTERTAINING,,
html-keyboard-response,64,132957,344.09000002779067,"GRATEFUL<img id = ""stim"" ><div class = green_square id = ""topsquare"" ></div><img id = ""stim"" ><div class = green_square  id = ""bottomsquare"" ></div>",32,word_square,response,1,Space,true,,,
html-keyboard-response,65,134458,null,"GRATEFUL",null,word,,,,,GRATEFUL,,
html-keyboard-response,66,134961,null,"LOUD<img id = ""stim"" ><div class = red_square id = ""topsquare"" ></div><img id = ""stim"" ><div class = red_square  id = ""bottomsquare"" ></div>",null,word_square,response,0,none,true,,,
html-keyboard-response,67,136463,null,"LOUD",null,word,,,,,LOUD,,
html-keyboard-response,68,136846,380.42500003939494,"SMART<img id = ""stim"" ><div class = green_square id = ""topsquare"" ></div><img id = ""stim"" ><div class = green_square  id = ""bottomsquare"" ></div>",32,word_square,response,1,Space,true,,,
html-keyboard-response,69,138349,null,"SMART",null,word,,,,,SMART,,
html-keyboard-response,70,138741,390.3649999992922,"SMOOTH<img id = ""stim"" ><div class = green_square id = ""topsquare"" ></div><img id = ""stim"" ><div class = green_square  id = ""bottomsquare"" ></div>",32,word_square,response,1,Space,true,,,
html-keyboard-response,71,140245,null,"SMOOTH",null,word,,,,,SMOOTH,,
html-keyboard-response,72,140748,null,"DISHONEST<img id = ""stim"" ><div class = red_square id = ""topsquare"" ></div><img id = ""stim"" ><div class = red_square  id = ""bottomsquare"" ></div>",null,word_square,response,0,none,true,,,
html-keyboard-response,73,142250,null,"DISHONEST",null,word,,,,,DISHONEST,,
html-keyboard-response,74,142621,369.074999995064,"WEALTHY<img id = ""stim"" ><div class = green_square id = ""topsquare"" ></div><img id = ""stim"" ><div class = green_square  id = ""bottomsquare"" ></div>",32,word_square,response,1,Space,true,,,
html-keyboard-response,75,144124,null,"WEALTHY",null,word,,,,,WEALTHY,,
html-keyboard-response,76,144626,null,"BEAUTIFUL<img id = ""stim"" ><div class = red_square id = ""topsquare"" ></div><img id = ""stim"" ><div class = red_square  id = ""bottomsquare"" ></div>",null,word_square,response,0,none,true,,,
html-keyboard-response,77,146128,null,"BEAUTIFUL",null,word,,,,,BEAUTIFUL,,
html-keyboard-response,78,146630,null,"DREARY<img id = ""stim"" ><div class = red_square id = ""topsquare"" ></div><img id = ""stim"" ><div class = red_square  id = ""bottomsquare"" ></div>",null,word_square,response,0,none,true,,,
html-keyboard-response,79,148132,null,"DREARY",null,word,,,,,DREARY,,
html-keyboard-response,80,148501,367.18000000109896,"PLAYFUL<img id = ""stim"" ><div class = green_square id = ""topsquare"" ></div><img id = ""stim"" ><div class = green_square  id = ""bottomsquare"" ></div>",32,word_square,response,1,Space,true,,,
html-keyboard-response,81,150003,null,"PLAYFUL",null,word,,,,,PLAYFUL,,
html-keyboard-response,82,151797,1791.129999968689,"<p> Good job! You responded correctly to 100% of the GREEN squares.</p>
                  <p>Be sure to keep your accuracy above 80%</p>
                  <p>Press any key to begin the math and recall sections. Thank you!</p>",32,,,,,,,,
call-function,83,151798,,"",,,,,,,,,
html-keyboard-response,84,151900,null,"",null,,,,,,,,
math-period,85,154220,4020.8550000097603,"",,,,,,,,,3
html-keyboard-response,86,154322,null,"",null,,,,,,,,
math-period,87,155764,2707.235000038054,"",,,,,,,,,5
html-keyboard-response,88,155867,null,"",null,,,,,,,,
math-period,89,157836,3576.359999948181,"",,,,,,,,,0
html-keyboard-response,90,157938,null,"",null,,,,,,,,
math-period,91,159932,3459.190000023227,"",,,,,,,,,0
html-keyboard-response,92,160034,null,"",null,,,,,,,,
math-period,93,161572,2705.2250000997446,"",,,,,,,,,leftarrow
html-keyboard-response,94,161674,null,"",null,,,,,,,,
math-period,95,164652,6892.140000010841,"",,,,,,,,,undefined4numpad
html-keyboard-response,96,164754,null,"",null,,,,,,,,
math-period,97,166348,2994.7699999902397,"",,,,,,,,,5numpad
html-keyboard-response,98,166450,null,"",null,,,,,,,,
math-period,99,169180,4889.64000006672,"",,,,,,,,,5numpad
html-keyboard-response,100,169283,null,"",null,,,,,,,,
math-period,101,171060,3335.419999959413,"",,,,,,,,,1numpad
html-keyboard-response,102,171162,null,"",null,,,,,,,,
math-period,103,173332,3929.5600000186823,"",,,,,,,,,2
html-keyboard-response,104,173435,null,"",null,,,,,,,,
math-period,105,174796,2537.6349999569356,"",,,,,,,,,3
html-keyboard-response,106,174898,null,"",null,,,,,,,,
math-period,107,175799,null,"",,,,,,,,,
html-keyboard-response,108,176801,null,"Recall Period!",null,,,,,,,,
call-function,109,176802,,"",,,,,,,,,
html-keyboard-response,110,176904,null,"",null,,,,,,,,
recall-period,111,181780,41196.835000184365,"",,,,,,,,,Beautiful
html-keyboard-response,112,181883,null,"",null,,,,,,,,
recall-period,113,183028,3570.5649998853914,"",,,,,,,,,happy
html-keyboard-response,114,183130,null,"",null,,,,,,,,
recall-period,115,183860,1531.659999920521,"",,,,,,,,,sad
html-keyboard-response,116,183962,null,"",null,,,,,,,,
recall-period,117,187348,28430.844999849796,"",,,,,,,,,dishonest
html-keyboard-response,118,187450,null,"",null,,,,,,,,
recall-period,119,195620,71471.14499972668,"",,,,,,,,,teary
html-keyboard-response,120,195722,null,"",null,,,,,,,,
recall-period,121,197516,9971.110000275075,"",,,,,,,,,dishonest
html-keyboard-response,122,197619,null,"",null,,,,,,,,
recall-period,123,203164,30537.359999958426,"",,,,,,,,,upset
html-keyboard-response,124,203267,null,"",null,,,,,,,,
recall-period,125,251804,null,"",,,,,,,,,
html-keyboard-response,126,252307,null,"Time's Up!",null,,,,,,,,
html-keyboard-response,127,258775,6465.395000006538,"<p>We will now begin the experiment!<p><p>Please try to remember all words from each list.<p><p>Press the spacebar whenever you see a GREEN square.<p><p><p><p>Press the spacebar to begin.</p>",32,,,,,,,,
html-keyboard-response,128,261278,2000.8900000248104,"<div style=""font-size:48px;"">Press any key to begin list 1 of 24 </div>",32,,,,,,,,
html-keyboard-response,129,263782,null,"<div style=""font-size:60px;"">+</div>",null,,,,,,,,
html-keyboard-response,130,264285,null,"PITCHFORK<img id = ""stim"" ><div class = green_square id = ""topsquare"" ></div><img id = ""stim"" ><div class = green_square  id = ""bottomsquare"" ></div>",null,word_square,response,1,Space,false,,,
html-keyboard-response,131,265789,null,"PITCHFORK",null,word,,,,, 'PITCHFORK',,
html-keyboard-response,132,266292,null,"SPACE<img id = ""stim"" ><div class = red_square id = ""topsquare"" ></div><img id = ""stim"" ><div class = red_square  id = ""bottomsquare"" ></div>",null,word_square,response,0,none,true,,,
html-keyboard-response,133,267795,null,"SPACE",null,word,,,,, 'SPACE',,
html-keyboard-response,134,268238,441.48000003769994,"PARROT<img id = ""stim"" ><div class = green_square id = ""topsquare"" ></div><img id = ""stim"" ><div class = green_square  id = ""bottomsquare"" ></div>",32,word_square,response,1,Space,true,,,
html-keyboard-response,135,269740,null,"PARROT",null,word,,,,, 'PARROT',,
html-keyboard-response,136,270243,null,"SAUSAGE<img id = ""stim"" ><div class = red_square id = ""topsquare"" ></div><img id = ""stim"" ><div class = red_square  id = ""bottomsquare"" ></div>",null,word_square,response,0,none,true,,,
html-keyboard-response,137,271745,null,"SAUSAGE",null,word,,,,, 'SAUSAGE',,
html-keyboard-response,138,272247,null,"CEILING<img id = ""stim"" ><div class = red_square id = ""topsquare"" ></div><img id = ""stim"" ><div class = red_square  id = ""bottomsquare"" ></div>",null,word_square,response,0,none,true,,,
html-keyboard-response,139,273749,null,"CEILING",null,word,,,,, 'CEILING',,
html-keyboard-response,140,274251,null,"TILE<img id = ""stim"" ><div class = green_square id = ""topsquare"" ></div><img id = ""stim"" ><div class = green_square  id = ""bottomsquare"" ></div>",null,word_square,response,1,Space,false,,,
html-keyboard-response,141,275753,null,"TILE",null,word,,,,, 'TILE',,
html-keyboard-response,142,276256,null,"LIPSTICK<img id = ""stim"" ><div class = red_square id = ""topsquare"" ></div><img id = ""stim"" ><div class = red_square  id = ""bottomsquare"" ></div>",null,word_square,response,0,none,true,,,
html-keyboard-response,143,277758,null,"LIPSTICK",null,word,,,,, 'LIPSTICK',,
html-keyboard-response,144,278262,null,"EYELASH<img id = ""stim"" ><div class = green_square id = ""topsquare"" ></div><img id = ""stim"" ><div class = green_square  id = ""bottomsquare"" ></div>",null,word_square,response,1,Space,false,,,
html-keyboard-response,145,279764,null,"EYELASH",null,word,,,,, 'EYELASH',,
html-keyboard-response,146,280125,358.4699999773875,"COSTUME<img id = ""stim"" ><div class = green_square id = ""topsquare"" ></div><img id = ""stim"" ><div class = green_square  id = ""bottomsquare"" ></div>",32,word_square,response,1,Space,true,,,
html-keyboard-response,147,281627,null,"COSTUME",null,word,,,,, 'COSTUME',,
html-keyboard-response,148,282129,null,"BLOSSOM<img id = ""stim"" ><div class = red_square id = ""topsquare"" ></div><img id = ""stim"" ><div class = red_square  id = ""bottomsquare"" ></div>",null,word_square,response,0,none,true,,,
html-keyboard-response,149,283632,null,"BLOSSOM",null,word,,,,, 'BLOSSOM',,
html-keyboard-response,150,284046,412.1850000228733,"SERVER<img id = ""stim"" ><div class = green_square id = ""topsquare"" ></div><img id = ""stim"" ><div class = green_square  id = ""bottomsquare"" ></div>",32,word_square,response,1,Space,true,,,
html-keyboard-response,151,285548,null,"SERVER",null,word,,,,, 'SERVER',,
html-keyboard-response,152,286051,null,"KIWI<img id = ""stim"" ><div class = red_square id = ""topsquare"" ></div><img id = ""stim"" ><div class = red_square  id = ""bottomsquare"" ></div>",null,word_square,response,0,none,true,,,
html-keyboard-response,153,287554,null,"KIWI",null,word,,,,, 'KIWI',,
html-keyboard-response,154,288057,null,"GAVEL<img id = ""stim"" ><div class = red_square id = ""topsquare"" ></div><img id = ""stim"" ><div class = red_square  id = ""bottomsquare"" ></div>",null,word_square,response,0,none,true,,,
html-keyboard-response,155,289559,null,"GAVEL",null,word,,,,, 'GAVEL',,
html-keyboard-response,156,289975,413.5600000154227,"KEYBOARD<img id = ""stim"" ><div class = green_square id = ""topsquare"" ></div><img id = ""stim"" ><div class = green_square  id = ""bottomsquare"" ></div>",32,word_square,response,1,Space,true,,,
html-keyboard-response,157,291478,null,"KEYBOARD",null,word,,,,, 'KEYBOARD',,
html-keyboard-response,158,291951,471.2800000561401,"PLANET<img id = ""stim"" ><div class = green_square id = ""topsquare"" ></div><img id = ""stim"" ><div class = green_square  id = ""bottomsquare"" ></div>",32,word_square,response,1,Space,true,,,
html-keyboard-response,159,293453,null,"PLANET",null,word,,,,, 'PLANET',,
html-keyboard-response,160,293954,null,"KNIFE<img id = ""stim"" ><div class = red_square id = ""topsquare"" ></div><img id = ""stim"" ><div class = red_square  id = ""bottomsquare"" ></div>",null,word_square,response,0,none,true,,,
html-keyboard-response,161,295457,null,"KNIFE",null,word,,,,, 'KNIFE',,
html-keyboard-response,162,295960,null,"ATHLETE<img id = ""stim"" ><div class = red_square id = ""topsquare"" ></div><img id = ""stim"" ><div class = red_square  id = ""bottomsquare"" ></div>",null,word_square,response,0,none,true,,,
html-keyboard-response,163,297461,null,"ATHLETE",null,word,,,,, 'ATHLETE',,
html-keyboard-response,164,297870,407.4499999987893,"DRINK<img id = ""stim"" ><div class = green_square id = ""topsquare"" ></div><img id = ""stim"" ><div class = green_square  id = ""bottomsquare"" ></div>",32,word_square,response,1,Space,true,,,
html-keyboard-response,165,299371,null,"DRINK",null,word,,,,, 'DRINK',,
call-function,166,299372,,"",,,,,,,,,
html-keyboard-response,167,299474,null,"",null,,,,,,,,
math-period,168,301670,4204.939999966882,"",,,,,,,,,5
html-keyboard-response,169,301773,null,"",null,,,,,,,,
math-period,170,303366,2975.730000063777,"",,,,,,,,,4
html-keyboard-response,171,303467,null,"",null,,,,,,,,
math-period,172,304509,1955.465000064578,"",,,,,,,,,2
html-keyboard-response,173,304612,null,"",null,,,,,,,,
math-period,174,305685,2000.8749999688007,"",,,,,,,,,5
html-keyboard-response,175,305787,null,"",null,,,,,,,,
math-period,176,306909,2106.835000042338,"",,,,,,,,,1
html-keyboard-response,177,307012,null,"",null,,,,,,,,
math-period,178,308254,2233.4399999817833,"",,,,,,,,,2
html-keyboard-response,179,308356,null,"",null,,,,,,,,
math-period,180,309261,1657.2099999757484,"",,,,,,,,,3
html-keyboard-response,181,309365,null,"",null,,,,,,,,
math-period,182,310789,2678.5650000092573,"",,,,,,,,,2
html-keyboard-response,183,310892,null,"",null,,,,,,,,
math-period,184,313445,4953.445000050124,"",,,,,,,,,3
html-keyboard-response,185,313548,null,"",null,,,,,,,,
math-period,186,314918,2586.020000046119,"",,,,,,,,,4
html-keyboard-response,187,315020,null,"",null,,,,,,,,
math-period,188,316174,2096.140000037849,"",,,,,,,,,4
html-keyboard-response,189,316277,null,"",null,,,,,,,,
math-period,190,317654,2503.44000000041,"",,,,,,,,,2
html-keyboard-response,191,317756,null,"",null,,,,,,,,
math-period,192,318565,1473.275000054855,"",,,,,,,,,3
html-keyboard-response,193,318667,null,"",null,,,,,,,,
math-period,194,319629,1762.0499999611638,"",,,,,,,,,4
html-keyboard-response,195,319732,null,"",null,,,,,,,,
math-period,196,321037,2408.5099999792874,"",,,,,,,,,1
html-keyboard-response,197,321141,null,"",null,,,,,,,,
math-period,198,323278,6664.744999958202,"",,,,,,,,,3
html-keyboard-response,199,323380,null,"",null,,,,,,,,
math-period,200,323384,null,"",,,,,,,,,
html-keyboard-response,201,324387,null,"Recall Period!",null,,,,,,,,
call-function,202,324388,,"",,,,,,,,,
html-keyboard-response,203,324490,null,"",null,,,,,,,,
recall-period,204,327309,18277.775000198744,"",,,,,,,,,ceiling
html-keyboard-response,205,327413,null,"",null,,,,,,,,
recall-period,206,328374,2716.459999908693,"",,,,,,,,,tile
html-keyboard-response,207,328475,null,"",null,,,,,,,,
recall-period,208,333493,52490.18499982776,"",,,,,,,,,keyboard
html-keyboard-response,209,333596,null,"",null,,,,,,,,
recall-period,210,335606,6450.8500001975335,"",,,,,,,,,drink
html-keyboard-response,211,335708,null,"",null,,,,,,,,
recall-period,212,337781,10427.229999797419,"",,,,,,,,,planet
html-keyboard-response,213,337885,null,"",null,,,,,,,,
recall-period,214,341069,20440.710000286344,"",,,,,,,,,pitchfork
html-keyboard-response,215,341172,null,"",null,,,,,,,,
recall-period,216,349421,60201.11999992514,"",,,,,,,,,blossom
html-keyboard-response,217,349523,null,"",null,,,,,,,,
recall-period,218,399389,null,"",,,,,,,,,
html-keyboard-response,219,399892,null,"Time's Up!",null,,,,,,,,
html-keyboard-response,220,402871,2976.6100000124425,"<p> Good job! You responded correctly to 92% of the GREEN squares.</p>
                  <p>Be sure to keep your accuracy above 80%</p>
                  <p>Press any key to continue the experiment. Thank you!</p>",32,,,,,,,,
html-keyboard-response,221,403518,646.0400000214577,"<div style=""font-size:48px;"">Press any key to begin list 2 of 24 </div>",32,,,,,,,,
html-keyboard-response,222,406022,null,"<div style=""font-size:60px;"">+</div>",null,,,,,,,,
html-keyboard-response,223,406524,null,"SALT<img id = ""stim"" ><div class = green_square id = ""topsquare"" ></div><img id = ""stim"" ><div class = green_square  id = ""bottomsquare"" ></div>",null,word_square,response,1,Space,false,,,
html-keyboard-response,224,408027,null,"SALT",null,word,,,,, 'SALT',,
html-keyboard-response,225,408529,null,"CHISEL<img id = ""stim"" ><div class = red_square id = ""topsquare"" ></div><img id = ""stim"" ><div class = red_square  id = ""bottomsquare"" ></div>",null,word_square,response,0,none,true,,,
html-keyboard-response,226,410031,null,"CHISEL",null,word,,,,, 'CHISEL',,
html-keyboard-response,227,410463,429.17999997735023,"LILY<img id = ""stim"" ><div class = green_square id = ""topsquare"" ></div><img id = ""stim"" ><div class = green_square  id = ""bottomsquare"" ></div>",32,word_square,response,1,Space,true,,,
html-keyboard-response,228,411965,null,"LILY",null,word,,,,, 'LILY',,
html-keyboard-response,229,412468,null,"CONVENT<img id = ""stim"" ><div class = red_square id = ""topsquare"" ></div><img id = ""stim"" ><div class = red_square  id = ""bottomsquare"" ></div>",null,word_square,response,0,none,true,,,
html-keyboard-response,230,413971,null,"CONVENT",null,word,,,,, 'CONVENT',,
html-keyboard-response,231,414474,null,"PEPPER<img id = ""stim"" ><div class = red_square id = ""topsquare"" ></div><img id = ""stim"" ><div class = red_square  id = ""bottomsquare"" ></div>",null,word_square,response,0,none,true,,,
html-keyboard-response,232,415977,null,"PEPPER",null,word,,,,, 'PEPPER',,
html-keyboard-response,233,416343,364.28500001784414,"BUCKLE<img id = ""stim"" ><div class = green_square id = ""topsquare"" ></div><img id = ""stim"" ><div class = green_square  id = ""bottomsquare"" ></div>",32,word_square,response,1,Space,true,,,
html-keyboard-response,234,417845,null,"BUCKLE",null,word,,,,, 'BUCKLE',,
html-keyboard-response,235,418348,null,"MERMAID<img id = ""stim"" ><div class = red_square id = ""topsquare"" ></div><img id = ""stim"" ><div class = red_square  id = ""bottomsquare"" ></div>",null,word_square,response,0,none,true,,,
html-keyboard-response,236,419851,null,"MERMAID",null,word,,,,, 'MERMAID',,
html-keyboard-response,237,420182,330.26499999687076,"PENCIL<img id = ""stim"" ><div class = green_square id = ""topsquare"" ></div><img id = ""stim"" ><div class = green_square  id = ""bottomsquare"" ></div>",32,word_square,response,1,Space,true,,,
html-keyboard-response,238,421685,null,"PENCIL",null,word,,,,, 'PENCIL',,
html-keyboard-response,239,422070,383.9849999640137,"PEDAL<img id = ""stim"" ><div class = green_square id = ""topsquare"" ></div><img id = ""stim"" ><div class = green_square  id = ""bottomsquare"" ></div>",32,word_square,response,1,Space,true,,,
html-keyboard-response,240,423572,null,"PEDAL",null,word,,,,, 'PEDAL',,
html-keyboard-response,241,424075,null,"BIKE<img id = ""stim"" ><div class = red_square id = ""topsquare"" ></div><img id = ""stim"" ><div class = red_square  id = ""bottomsquare"" ></div>",null,word_square,response,0,none,true,,,
html-keyboard-response,242,425578,null,"BIKE",null,word,,,,, 'BIKE',,
html-keyboard-response,243,425943,363.0700000212528,"MACHINE<img id = ""stim"" ><div class = green_square id = ""topsquare"" ></div><img id = ""stim"" ><div class = green_square  id = ""bottomsquare"" ></div>",32,word_square,response,1,Space,true,,,
html-keyboard-response,244,427446,null,"MACHINE",null,word,,,,, 'MACHINE',,
html-keyboard-response,245,427948,null,"TOMBSTONE<img id = ""stim"" ><div class = red_square id = ""topsquare"" ></div><img id = ""stim"" ><div class = red_square  id = ""bottomsquare"" ></div>",null,word_square,response,0,none,true,,,
html-keyboard-response,246,429450,null,"TOMBSTONE",null,word,,,,, 'TOMBSTONE',,
html-keyboard-response,247,429954,null,"FRIAR<img id = ""stim"" ><div class = red_square id = ""topsquare"" ></div><img id = ""stim"" ><div class = red_square  id = ""bottomsquare"" ></div>",null,word_square,response,0,none,true,,,
html-keyboard-response,248,431456,null,"FRIAR",null,word,,,,, 'FRIAR',,
html-keyboard-response,249,431943,485.04500003764406,"MARSH<img id = ""stim"" ><div class = green_square id = ""topsquare"" ></div><img id = ""stim"" ><div class = green_square  id = ""bottomsquare"" ></div>",32,word_square,response,1,Space,true,,,
html-keyboard-response,250,433447,null,"MARSH",null,word,,,,, 'MARSH',,
html-keyboard-response,251,433863,414.3950000288896,"LAGOON<img id = ""stim"" ><div class = green_square id = ""topsquare"" ></div><img id = ""stim"" ><div class = green_square  id = ""bottomsquare"" ></div>",32,word_square,response,1,Space,true,,,
html-keyboard-response,252,435365,null,"LAGOON",null,word,,,,, 'LAGOON',,
html-keyboard-response,253,435867,null,"BARREL<img id = ""stim"" ><div class = red_square id = ""topsquare"" ></div><img id = ""stim"" ><div class = red_square  id = ""bottomsquare"" ></div>",null,word_square,response,0,none,true,,,
html-keyboard-response,254,437368,null,"BARREL",null,word,,,,, 'BARREL',,
html-keyboard-response,255,437871,null,"RADISH<img id = ""stim"" ><div class = red_square id = ""topsquare"" ></div><img id = ""stim"" ><div class = red_square  id = ""bottomsquare"" ></div>",null,word_square,response,0,none,true,,,
html-keyboard-response,256,439374,null,"RADISH",null,word,,,,, 'RADISH',,
html-keyboard-response,257,439791,414.77999999187887,"ZEBRA<img id = ""stim"" ><div class = green_square id = ""topsquare"" ></div><img id = ""stim"" ><div class = green_square  id = ""bottomsquare"" ></div>",32,word_square,response,1,Space,true,,,
html-keyboard-response,258,441294,null,"ZEBRA",null,word,,,,, 'ZEBRA',,
call-function,259,441296,,"",,,,,,,,,
html-keyboard-response,260,441398,null,"",null,,,,,,,,
math-period,261,443622,4293.545000022277,"",,,,,,,,,4
html-keyboard-response,262,443725,null,"",null,,,,,,,,
math-period,263,445054,2552.1350000053644,"",,,,,,,,,3
html-keyboard-response,264,445156,null,"",null,,,,,,,,
math-period,265,446150,1810.7250000466593,"",,,,,,,,,2
html-keyboard-response,266,446251,null,"",null,,,,,,,,
math-period,267,447430,2114.8599999723956,"",,,,,,,,,5
html-keyboard-response,268,447532,null,"",null,,,,,,,,
math-period,269,449294,5283.840000047348,"",,,,,,,,,4
html-keyboard-response,270,449396,null,"",null,,,,,,,,
math-period,271,450334,1688.5300000431016,"",,,,,,,,,4
html-keyboard-response,272,450436,null,"",null,,,,,,,,
math-period,273,451358,1705.28499991633,"",,,,,,,,,4
html-keyboard-response,274,451460,null,"",null,,,,,,,,
math-period,275,452694,2257.1849999949336,"",,,,,,,,,1
html-keyboard-response,276,452796,null,"",null,,,,,,,,
math-period,277,453782,1834.5250000129454,"",,,,,,,,,4
html-keyboard-response,278,453884,null,"",null,,,,,,,,
math-period,279,454894,1840.189999958966,"",,,,,,,,,3
html-keyboard-response,280,454996,null,"",null,,,,,,,,
math-period,281,456398,2648.650000046473,"",,,,,,,,,2
html-keyboard-response,282,456500,null,"",null,,,,,,,,
math-period,283,458166,3169.7600000188686,"",,,,,,,,,1
html-keyboard-response,284,458268,null,"",null,,,,,,,,
math-period,285,461110,5176.959999953397,"",,,,,,,,,0
html-keyboard-response,286,461212,null,"",null,,,,,,,,
math-period,287,462270,1905.8399999630637,"",,,,,,,,,4
html-keyboard-response,288,462372,null,"",null,,,,,,,,
math-period,289,463926,2906.52499999851,"",,,,,,,,,2
html-keyboard-response,290,464028,null,"",null,,,,,,,,
math-period,291,465278,2313.48499993328,"",,,,,,,,,1
html-keyboard-response,292,465379,null,"",null,,,,,,,,
math-period,293,465381,null,"",,,,,,,,,
html-keyboard-response,294,466385,null,"Recall Period!",null,,,,,,,,
call-function,295,466386,,"",,,,,,,,,
html-keyboard-response,296,466488,null,"",null,,,,,,,,
recall-period,297,468398,8483.330000017304,"",,,,,,,,,friar
html-keyboard-response,298,468500,null,"",null,,,,,,,,
recall-period,299,470541,11171.205000078771,"",,,,,,,,,tombstone
html-keyboard-response,300,470644,null,"",null,,,,,,,,
recall-period,301,471877,4802.744999935385,"",,,,,,,,,zebra
html-keyboard-response,302,471980,null,"",null,,,,,,,,
recall-period,303,473717,4585.445000149775,"",,,,,,,,,marsh
html-keyboard-response,304,473820,null,"",null,,,,,,,,
recall-period,305,477021,18476.954999845475,"",,,,,,,,,swamp
html-keyboard-response,306,477124,null,"",null,,,,,,,,
recall-period,307,479989,16371.025000174996,"",,,,,,,,,parrot
html-keyboard-response,308,480092,null,"",null,,,,,,,,
recall-period,309,490357,81758.87500011595,"",,,,,,,,,covenant
html-keyboard-response,310,490459,null,"",null,,,,,,,,
recall-period,311,541388,151816.80000008782,"",,,,,,,,,
html-keyboard-response,312,541891,null,"Time's Up!",null,,,,,,,,
html-keyboard-response,313,644048,102154.84999999171,"<p> Good job! You responded correctly to 93% of the GREEN squares.</p>
                  <p>Be sure to keep your accuracy above 80%</p>
                  <p>Press any key to continue the experiment. Thank you!</p>",32,,,,,,,,
html-keyboard-response,314,644623,574.045000015758,"<div style=""font-size:48px;"">Press any key to begin list 3 of 24 </div>",32,,,,,,,,
html-keyboard-response,315,647127,null,"<div style=""font-size:60px;"">+</div>",null,,,,,,,,
html-keyboard-response,316,647631,null,"FREEWAY<img id = ""stim"" ><div class = red_square id = ""topsquare"" ></div><img id = ""stim"" ><div class = red_square  id = ""bottomsquare"" ></div>",null,word_square,response,0,none,true,,,
html-keyboard-response,317,649133,null,"FREEWAY",null,word,,,,, 'FREEWAY',,
html-keyboard-response,318,649635,null,"WALNUT<img id = ""stim"" ><div class = green_square id = ""topsquare"" ></div><img id = ""stim"" ><div class = green_square  id = ""bottomsquare"" ></div>",null,word_square,response,1,Space,false,,,
html-keyboard-response,319,651138,null,"WALNUT",null,word,,,,, 'WALNUT',,
html-keyboard-response,320,651640,null,"CRATER<img id = ""stim"" ><div class = red_square id = ""topsquare"" ></div><img id = ""stim"" ><div class = red_square  id = ""bottomsquare"" ></div>",null,word_square,response,0,none,true,,,
html-keyboard-response,321,653142,null,"CRATER",null,word,,,,, 'CRATER',,
html-keyboard-response,322,653584,439.7200000239536,"BIBLE<img id = ""stim"" ><div class = green_square id = ""topsquare"" ></div><img id = ""stim"" ><div class = green_square  id = ""bottomsquare"" ></div>",32,word_square,response,1,Space,true,,,
html-keyboard-response,323,655086,null,"BIBLE",null,word,,,,, 'BIBLE',,
html-keyboard-response,324,655496,407.9700000002049,"DANCER<img id = ""stim"" ><div class = green_square id = ""topsquare"" ></div><img id = ""stim"" ><div class = green_square  id = ""bottomsquare"" ></div>",32,word_square,response,1,Space,true,,,
html-keyboard-response,325,656998,null,"DANCER",null,word,,,,, 'DANCER',,
html-keyboard-response,326,657501,null,"GOBLIN<img id = ""stim"" ><div class = red_square id = ""topsquare"" ></div><img id = ""stim"" ><div class = red_square  id = ""bottomsquare"" ></div>",null,word_square,response,0,none,true,,,
html-keyboard-response,327,659003,null,"GOBLIN",null,word,,,,, 'GOBLIN',,
html-keyboard-response,328,659367,362.36500000813976,"FIGHTER<img id = ""stim"" ><div class = green_square id = ""topsquare"" ></div><img id = ""stim"" ><div class = green_square  id = ""bottomsquare"" ></div>",32,word_square,response,1,Space,true,,,
html-keyboard-response,329,660869,null,"FIGHTER",null,word,,,,, 'FIGHTER',,
html-keyboard-response,330,661372,null,"CABLE<img id = ""stim"" ><div class = red_square id = ""topsquare"" ></div><img id = ""stim"" ><div class = red_square  id = ""bottomsquare"" ></div>",null,word_square,response,0,none,true,,,
html-keyboard-response,331,662875,null,"CABLE",null,word,,,,, 'CABLE',,
html-keyboard-response,332,663378,null,"COBWEB<img id = ""stim"" ><div class = red_square id = ""topsquare"" ></div><img id = ""stim"" ><div class = red_square  id = ""bottomsquare"" ></div>",null,word_square,response,0,none,true,,,
html-keyboard-response,333,664880,null,"COBWEB",null,word,,,,, 'COBWEB',,
html-keyboard-response,334,665248,365.60499999905005,"DASHBOARD<img id = ""stim"" ><div class = green_square id = ""topsquare"" ></div><img id = ""stim"" ><div class = green_square  id = ""bottomsquare"" ></div>",32,word_square,response,1,Space,true,,,
html-keyboard-response,335,666750,null,"DASHBOARD",null,word,,,,, 'DASHBOARD',,
html-keyboard-response,336,667253,null,"RUST<img id = ""stim"" ><div class = red_square id = ""topsquare"" ></div><img id = ""stim"" ><div class = red_square  id = ""bottomsquare"" ></div>",null,word_square,response,0,none,true,,,
html-keyboard-response,337,668755,null,"RUST",null,word,,,,, 'RUST',,
html-keyboard-response,338,669151,394.8400000226684,"LUNCH<img id = ""stim"" ><div class = green_square id = ""topsquare"" ></div><img id = ""stim"" ><div class = green_square  id = ""bottomsquare"" ></div>",32,word_square,response,1,Space,true,,,
html-keyboard-response,339,670653,null,"LUNCH",null,word,,,,, 'LUNCH',,
html-keyboard-response,340,671155,null,"RODENT<img id = ""stim"" ><div class = green_square id = ""topsquare"" ></div><img id = ""stim"" ><div class = green_square  id = ""bottomsquare"" ></div>",null,word_square,response,1,Space,false,,,
html-keyboard-response,341,672657,null,"RODENT",null,word,,,,, 'RODENT',,
html-keyboard-response,342,673161,null,"BUTLER<img id = ""stim"" ><div class = red_square id = ""topsquare"" ></div><img id = ""stim"" ><div class = red_square  id = ""bottomsquare"" ></div>",null,word_square,response,0,none,true,,,
html-keyboard-response,343,674663,null,"BUTLER",null,word,,,,, 'BUTLER',,
html-keyboard-response,344,675167,null,"LAVA<img id = ""stim"" ><div class = red_square id = ""topsquare"" ></div><img id = ""stim"" ><div class = red_square  id = ""bottomsquare"" ></div>",null,word_square,response,0,none,true,,,
html-keyboard-response,345,676670,null,"LAVA",null,word,,,,, 'LAVA',,
html-keyboard-response,346,677023,351.6550000058487,"CREATURE<img id = ""stim"" ><div class = green_square id = ""topsquare"" ></div><img id = ""stim"" ><div class = green_square  id = ""bottomsquare"" ></div>",32,word_square,response,1,Space,true,,,
html-keyboard-response,347,678527,null,"CREATURE",null,word,,,,, 'CREATURE',,
html-keyboard-response,348,678863,334.9600000074133,"PICNIC<img id = ""stim"" ><div class = green_square id = ""topsquare"" ></div><img id = ""stim"" ><div class = green_square  id = ""bottomsquare"" ></div>",32,word_square,response,1,Space,true,,,
html-keyboard-response,349,680366,null,"PICNIC",null,word,,,,, 'PICNIC',,
html-keyboard-response,350,680869,null,"DRAGON<img id = ""stim"" ><div class = red_square id = ""topsquare"" ></div><img id = ""stim"" ><div class = red_square  id = ""bottomsquare"" ></div>",null,word_square,response,0,none,true,,,
html-keyboard-response,351,682372,null,"DRAGON",null,word,,,,, 'DRAGON',,
call-function,352,682373,,"",,,,,,,,,
html-keyboard-response,353,682476,null,"",null,,,,,,,,
math-period,354,684518,3833.970000036061,"",,,,,,,,,3
html-keyboard-response,355,684621,null,"",null,,,,,,,,
math-period,356,685815,2184.369999973569,"",,,,,,,,,2
html-keyboard-response,357,685917,null,"",null,,,,,,,,
math-period,358,688102,3697.7049999986775,"",,,,,,,,,0
html-keyboard-response,359,688205,null,"",null,,,,,,,,
math-period,360,689486,2425.7099999231286,"",,,,,,,,,4
html-keyboard-response,361,689588,null,"",null,,,,,,,,
math-period,362,690390,1426.145000034012,"",,,,,,,,,4
html-keyboard-response,363,690491,null,"",null,,,,,,,,
math-period,364,691343,1547.9049999266863,"",,,,,,,,,4
html-keyboard-response,365,691445,null,"",null,,,,,,,,
math-period,366,692182,1338.359999936074,"",,,,,,,,,4
html-keyboard-response,367,692284,null,"",null,,,,,,,,
math-period,368,694246,6436.749999935273,"",,,,,,,,,1
html-keyboard-response,369,694348,null,"",null,,,,,,,,
math-period,370,695678,2604.310000082478,"",,,,,,,,,1
html-keyboard-response,371,695780,null,"",null,,,,,,,,
math-period,372,697038,2377.71500000963,"",,,,,,,,,2
html-keyboard-response,373,697140,null,"",null,,,,,,,,
math-period,374,698614,2835.1350000011735,"",,,,,,,,,6
html-keyboard-response,375,698717,null,"",null,,,,,,,,
math-period,376,700110,2303.8850000011735,"",,,,,,,,,5
html-keyboard-response,377,700213,null,"",null,,,,,,,,
math-period,378,700935,1303.92000003485,"",,,,,,,,,5
html-keyboard-response,379,701037,null,"",null,,,,,,,,
math-period,380,702391,2567.8200000547804,"",,,,,,,,,4
html-keyboard-response,381,702494,null,"",null,,,,,,,,
math-period,382,703359,863.3350000018254,"",,,,,,,,,
html-keyboard-response,383,703461,null,"",null,,,,,,,,
math-period,384,704255,1386.1700000124983,"",,,,,,,,,4
html-keyboard-response,385,704357,null,"",null,,,,,,,,
math-period,386,705999,2977.2650000522844,"",,,,,,,,,3
html-keyboard-response,387,706101,null,"",null,,,,,,,,
math-period,388,706376,null,"",,,,,,,,,
html-keyboard-response,389,707379,null,"Recall Period!",null,,,,,,,,
call-function,390,707380,,"",,,,,,,,,
html-keyboard-response,391,707483,null,"",null,,,,,,,,
recall-period,392,711743,21171.395000070333,"",,,,,,,,,bible
html-keyboard-response,393,711845,null,"",null,,,,,,,,
recall-period,394,714543,20096.685000346042,"",,,,,,,,,dashboard
html-keyboard-response,395,714645,null,"",null,,,,,,,,
recall-period,396,715959,3747.749999864027,"",,,,,,,,,rust
html-keyboard-response,397,716061,null,"",null,,,,,,,,
recall-period,398,718911,21274.715000006836,"",,,,,,,,,keyboard
html-keyboard-response,399,719013,null,"",null,,,,,,,,
recall-period,400,720423,4993.060000124387,"",,,,,,,,,walnut
html-keyboard-response,401,720526,null,"",null,,,,,,,,
recall-period,402,723607,10297.15499986196,"",,,,,,,,,road
html-keyboard-response,403,723710,null,"",null,,,,,,,,
recall-period,404,730591,42361.384999763686,"",,,,,,,,,goblin
html-keyboard-response,405,730693,null,"",null,,,,,,,,
recall-period,406,782381,null,"",,,,,,,,,
html-keyboard-response,407,782885,null,"Time's Up!",null,,,,,,,,
html-keyboard-response,408,790608,7721.519999962766,"<p> Good job! You responded correctly to 92% of the GREEN squares.</p>
                  <p>Be sure to keep your accuracy above 80%</p>
                  <p>Press any key to continue the experiment. Thank you!</p>",32,,,,,,,,
html-keyboard-response,409,792208,1598.3799999812618,"<div style=""font-size:48px;"">Press any key to begin list 4 of 24 </div>",32,,,,,,,,
html-keyboard-response,410,794712,null,"<div style=""font-size:60px;"">+</div>",null,,,,,,,,
html-keyboard-response,411,795215,null,"MAGNET<img id = ""stim"" ><div class = red_square id = ""topsquare"" ></div><img id = ""stim"" ><div class = red_square  id = ""bottomsquare"" ></div>",null,word_square,response,0,none,true,,,
html-keyboard-response,412,796718,null,"MAGNET",null,word,,,,, 'MAGNET',,
html-keyboard-response,413,797184,464.014999975916,"OYSTER<img id = ""stim"" ><div class = green_square id = ""topsquare"" ></div><img id = ""stim"" ><div class = green_square  id = ""bottomsquare"" ></div>",32,word_square,response,1,Space,true,,,
html-keyboard-response,414,798686,null,"OYSTER",null,word,,,,, 'OYSTER',,
html-keyboard-response,415,799188,null,"CLAM<img id = ""stim"" ><div class = red_square id = ""topsquare"" ></div><img id = ""stim"" ><div class = red_square  id = ""bottomsquare"" ></div>",null,word_square,response,0,none,true,,,
html-keyboard-response,416,800691,null,"CLAM",null,word,,,,, 'CLAM',,
html-keyboard-response,417,801087,394.4900000351481,"COOKIE<img id = ""stim"" ><div class = green_square id = ""topsquare"" ></div><img id = ""stim"" ><div class = green_square  id = ""bottomsquare"" ></div>",32,word_square,response,1,Space,true,,,
html-keyboard-response,418,802589,null,"COOKIE",null,word,,,,, 'COOKIE',,
html-keyboard-response,419,803092,null,"MEDAL<img id = ""stim"" ><div class = green_square id = ""topsquare"" ></div><img id = ""stim"" ><div class = green_square  id = ""bottomsquare"" ></div>",null,word_square,response,1,Space,false,,,
html-keyboard-response,420,804595,null,"MEDAL",null,word,,,,, 'MEDAL',,
html-keyboard-response,421,805097,null,"TORCH<img id = ""stim"" ><div class = red_square id = ""topsquare"" ></div><img id = ""stim"" ><div class = red_square  id = ""bottomsquare"" ></div>",null,word_square,response,0,none,true,,,
html-keyboard-response,422,806599,null,"TORCH",null,word,,,,, 'TORCH',,
html-keyboard-response,423,807102,null,"LANDSCAPE<img id = ""stim"" ><div class = green_square id = ""topsquare"" ></div><img id = ""stim"" ><div class = green_square  id = ""bottomsquare"" ></div>",null,word_square,response,1,Space,false,,,
html-keyboard-response,424,808605,null,"LANDSCAPE",null,word,,,,, 'LANDSCAPE',,
html-keyboard-response,425,809108,null,"OFFICE<img id = ""stim"" ><div class = red_square id = ""topsquare"" ></div><img id = ""stim"" ><div class = red_square  id = ""bottomsquare"" ></div>",null,word_square,response,0,none,true,,,
html-keyboard-response,426,810610,null,"OFFICE",null,word,,,,, 'OFFICE',,
html-keyboard-response,427,811112,null,"POND<img id = ""stim"" ><div class = red_square id = ""topsquare"" ></div><img id = ""stim"" ><div class = red_square  id = ""bottomsquare"" ></div>",null,word_square,response,0,none,true,,,
html-keyboard-response,428,812615,null,"POND",null,word,,,,, 'POND',,
html-keyboard-response,429,813024,407.60999999474734,"TRANSPLANT<img id = ""stim"" ><div class = green_square id = ""topsquare"" ></div><img id = ""stim"" ><div class = green_square  id = ""bottomsquare"" ></div>",32,word_square,response,1,Space,true,,,
html-keyboard-response,430,814527,null,"TRANSPLANT",null,word,,,,, 'TRANSPLANT',,
html-keyboard-response,431,815029,null,"BEAVER<img id = ""stim"" ><div class = red_square id = ""topsquare"" ></div><img id = ""stim"" ><div class = red_square  id = ""bottomsquare"" ></div>",null,word_square,response,0,none,true,,,
html-keyboard-response,432,816532,null,"BEAVER",null,word,,,,, 'BEAVER',,
html-keyboard-response,433,816888,353.9100000052713,"SCAPEGOAT<img id = ""stim"" ><div class = green_square id = ""topsquare"" ></div><img id = ""stim"" ><div class = green_square  id = ""bottomsquare"" ></div>",32,word_square,response,1,Space,true,,,
html-keyboard-response,434,818391,null,"SCAPEGOAT",null,word,,,,, 'SCAPEGOAT',,
html-keyboard-response,435,818864,471.53999999864027,"DOLPHIN<img id = ""stim"" ><div class = green_square id = ""topsquare"" ></div><img id = ""stim"" ><div class = green_square  id = ""bottomsquare"" ></div>",32,word_square,response,1,Space,true,,,
html-keyboard-response,436,820366,null,"DOLPHIN",null,word,,,,, 'DOLPHIN',,
html-keyboard-response,437,820868,null,"GAZELLE<img id = ""stim"" ><div class = red_square id = ""topsquare"" ></div><img id = ""stim"" ><div class = red_square  id = ""bottomsquare"" ></div>",null,word_square,response,0,none,true,,,
html-keyboard-response,438,822370,null,"GAZELLE",null,word,,,,, 'GAZELLE',,
html-keyboard-response,439,822873,null,"TULIP<img id = ""stim"" ><div class = red_square id = ""topsquare"" ></div><img id = ""stim"" ><div class = red_square  id = ""bottomsquare"" ></div>",null,word_square,response,0,none,true,,,
html-keyboard-response,440,824376,null,"TULIP",null,word,,,,, 'TULIP',,
html-keyboard-response,441,824865,486.7400000221096,"DONOR<img id = ""stim"" ><div class = green_square id = ""topsquare"" ></div><img id = ""stim"" ><div class = green_square  id = ""bottomsquare"" ></div>",32,word_square,response,1,Space,true,,,
html-keyboard-response,442,826368,null,"DONOR",null,word,,,,, 'DONOR',,
html-keyboard-response,443,826871,null,"PIMPLE<img id = ""stim"" ><div class = green_square id = ""topsquare"" ></div><img id = ""stim"" ><div class = green_square  id = ""bottomsquare"" ></div>",null,word_square,response,1,Space,false,,,
html-keyboard-response,444,828373,null,"PIMPLE",null,word,,,,, 'PIMPLE',,
html-keyboard-response,445,828876,null,"FRECKLE<img id = ""stim"" ><div class = red_square id = ""topsquare"" ></div><img id = ""stim"" ><div class = red_square  id = ""bottomsquare"" ></div>",null,word_square,response,0,none,true,,,
html-keyboard-response,446,830378,null,"FRECKLE",null,word,,,,, 'FRECKLE',,
call-function,447,830379,,"",,,,,,,,,
html-keyboard-response,448,830481,null,"",null,,,,,,,,
math-period,449,831863,2634.165000054054,"",,,,,,,,,1
html-keyboard-response,450,831966,null,"",null,,,,,,,,
math-period,451,832919,1776.3400000985712,"",,,,,,,,,3
html-keyboard-response,452,833021,null,"",null,,,,,,,,
math-period,453,833871,1609.6900000120513,"",,,,,,,,,4
html-keyboard-response,454,833973,null,"",null,,,,,,,,
math-period,455,834831,1595.484999998007,"",,,,,,,,,2
html-keyboard-response,456,834934,null,"",null,,,,,,,,
math-period,457,835751,1496.2750000413507,"",,,,,,,,,1
html-keyboard-response,458,835854,null,"",null,,,,,,,,
math-period,459,837303,4447.675000003073,"",,,,,,,,,5
html-keyboard-response,460,837405,null,"",null,,,,,,,,
math-period,461,838287,1620.0900000403635,"",,,,,,,,,3
html-keyboard-response,462,838390,null,"",null,,,,,,,,
math-period,463,839751,2633.300000044983,"",,,,,,,,,2
html-keyboard-response,464,839854,null,"",null,,,,,,,,
math-period,465,841287,2263.7099999701604,"",,,,,,,,,3
html-keyboard-response,466,841389,null,"",null,,,,,,,,
math-period,467,844487,5739.259999943897,"",,,,,,,,,0
html-keyboard-response,468,844589,null,"",null,,,,,,,,
math-period,469,845695,2073.444999929052,"",,,,,,,,,4
html-keyboard-response,470,845799,null,"",null,,,,,,,,
math-period,471,846591,1543.5850000358187,"",,,,,,,,,4
html-keyboard-response,472,846693,null,"",null,,,,,,,,
math-period,473,847719,1937.5449999934062,"",,,,,,,,,3
html-keyboard-response,474,847822,null,"",null,,,,,,,,
math-period,475,848943,2023.749999993015,"",,,,,,,,,2
html-keyboard-response,476,849046,null,"",null,,,,,,,,
math-period,477,849887,1560.0399999530055,"",,,,,,,,,4
html-keyboard-response,478,849990,null,"",null,,,,,,,,
math-period,479,851167,2209.1849999851547,"",,,,,,,,,1
html-keyboard-response,480,851270,null,"",null,,,,,,,,
math-period,481,852647,2713.480000034906,"",,,,,,,,,1
html-keyboard-response,482,852749,null,"",null,,,,,,,,
math-period,483,853879,2154.195000010077,"",,,,,,,,,5
html-keyboard-response,484,853982,null,"",null,,,,,,,,
math-period,485,854381,null,"",,,,,,,,,
html-keyboard-response,486,855385,null,"Recall Period!",null,,,,,,,,
call-function,487,855386,,"",,,,,,,,,
html-keyboard-response,488,855488,null,"",null,,,,,,,,
recall-period,489,857327,8790.28999991715,"",,,,,,,,,oyster
html-keyboard-response,490,857430,null,"",null,,,,,,,,
recall-period,491,858479,2914.8250000434928,"",,,,,,,,,clam
html-keyboard-response,492,858581,null,"",null,,,,,,,,
recall-period,493,860087,5780.390000145417,"",,,,,,,,,cookie
html-keyboard-response,494,860191,null,"",null,,,,,,,,
recall-period,495,863696,19811.705000058282,"",,,,,,,,,gazelle
html-keyboard-response,496,863798,null,"",null,,,,,,,,
recall-period,497,867575,22421.509999898262,"",,,,,,,,,office
html-keyboard-response,498,867679,null,"",null,,,,,,,,
recall-period,499,930388,null,"",,,,,,,,,
html-keyboard-response,500,930892,null,"Time's Up!",null,,,,,,,,
html-keyboard-response,501,936601,5706.929999985732,"<p> Good job! You responded correctly to 90% of the GREEN squares.</p>
                  <p>Be sure to keep your accuracy above 80%</p>
                  <p>Press any key to continue the experiment. Thank you!</p>",32,,,,,,,,
html-keyboard-response,502,937240,637.6849999651313,"<div style=""font-size:48px;"">Press any key to begin list 5 of 24 </div>",32,,,,,,,,
html-keyboard-response,503,939744,null,"<div style=""font-size:60px;"">+</div>",null,,,,,,,,
html-keyboard-response,504,940248,null,"TIGER<img id = ""stim"" ><div class = red_square id = ""topsquare"" ></div><img id = ""stim"" ><div class = red_square  id = ""bottomsquare"" ></div>",null,word_square,response,0,none,true,,,
html-keyboard-response,505,941752,null,"TIGER",null,word,,,,, 'TIGER',,
html-keyboard-response,506,942255,null,"CRAB<img id = ""stim"" ><div class = red_square id = ""topsquare"" ></div><img id = ""stim"" ><div class = red_square  id = ""bottomsquare"" ></div>",null,word_square,response,0,none,true,,,
html-keyboard-response,507,943758,null,"CRAB",null,word,,,,, 'CRAB',,
html-keyboard-response,508,944184,423.7849999917671,"COD<img id = ""stim"" ><div class = green_square id = ""topsquare"" ></div><img id = ""stim"" ><div class = green_square  id = ""bottomsquare"" ></div>",32,word_square,response,1,Space,true,,,
html-keyboard-response,509,945688,null,"COD",null,word,,,,, 'COD',,
html-keyboard-response,510,946191,null,"DENIM<img id = ""stim"" ><div class = red_square id = ""topsquare"" ></div><img id = ""stim"" ><div class = red_square  id = ""bottomsquare"" ></div>",null,word_square,response,0,none,true,,,
html-keyboard-response,511,947693,null,"DENIM",null,word,,,,, 'DENIM',,
html-keyboard-response,512,948195,null,"COOKBOOK<img id = ""stim"" ><div class = red_square id = ""topsquare"" ></div><img id = ""stim"" ><div class = red_square  id = ""bottomsquare"" ></div>",null,word_square,response,0,none,true,,,
html-keyboard-response,513,949697,null,"COOKBOOK",null,word,,,,, 'COOKBOOK',,
html-keyboard-response,514,950177,478.3949999837205,"BRANCH<img id = ""stim"" ><div class = green_square id = ""topsquare"" ></div><img id = ""stim"" ><div class = green_square  id = ""bottomsquare"" ></div>",32,word_square,response,1,Space,true,,,
html-keyboard-response,515,951680,null,"BRANCH",null,word,,,,, 'BRANCH',,
html-keyboard-response,516,952182,null,"DOORBELL<img id = ""stim"" ><div class = red_square id = ""topsquare"" ></div><img id = ""stim"" ><div class = red_square  id = ""bottomsquare"" ></div>",null,word_square,response,0,none,true,,,
html-keyboard-response,517,953685,null,"DOORBELL",null,word,,,,, 'DOORBELL',,
html-keyboard-response,518,954009,321.95499999215826,"PLAID<img id = ""stim"" ><div class = green_square id = ""topsquare"" ></div><img id = ""stim"" ><div class = green_square  id = ""bottomsquare"" ></div>",32,word_square,response,1,Space,true,,,
html-keyboard-response,519,955511,null,"PLAID",null,word,,,,, 'PLAID',,
html-keyboard-response,520,955985,472.7100000018254,"CRYSTAL<img id = ""stim"" ><div class = green_square id = ""topsquare"" ></div><img id = ""stim"" ><div class = green_square  id = ""bottomsquare"" ></div>",32,word_square,response,1,Space,true,,,
html-keyboard-response,521,957488,null,"CRYSTAL",null,word,,,,, 'CRYSTAL',,
html-keyboard-response,522,957991,null,"CABIN<img id = ""stim"" ><div class = red_square id = ""topsquare"" ></div><img id = ""stim"" ><div class = red_square  id = ""bottomsquare"" ></div>",null,word_square,response,0,none,true,,,
html-keyboard-response,523,959493,null,"CABIN",null,word,,,,, 'CABIN',,
html-keyboard-response,524,959996,null,"SHELTER<img id = ""stim"" ><div class = red_square id = ""topsquare"" ></div><img id = ""stim"" ><div class = red_square  id = ""bottomsquare"" ></div>",null,word_square,response,0,none,true,,,
html-keyboard-response,525,961498,null,"SHELTER",null,word,,,,, 'SHELTER',,
html-keyboard-response,526,961873,373.2099999906495,"PEBBLE<img id = ""stim"" ><div class = green_square id = ""topsquare"" ></div><img id = ""stim"" ><div class = green_square  id = ""bottomsquare"" ></div>",32,word_square,response,1,Space,true,,,
html-keyboard-response,527,963375,null,"PEBBLE",null,word,,,,, 'PEBBLE',,
html-keyboard-response,528,963879,null,"FROST<img id = ""stim"" ><div class = red_square id = ""topsquare"" ></div><img id = ""stim"" ><div class = red_square  id = ""bottomsquare"" ></div>",null,word_square,response,0,none,true,,,
html-keyboard-response,529,965382,null,"FROST",null,word,,,,, 'FROST',,
html-keyboard-response,530,965706,321.1850000079721,"YARD<img id = ""stim"" ><div class = green_square id = ""topsquare"" ></div><img id = ""stim"" ><div class = green_square  id = ""bottomsquare"" ></div>",32,word_square,response,1,Space,true,,,
html-keyboard-response,531,967208,null,"YARD",null,word,,,,, 'YARD',,
html-keyboard-response,532,967553,342.68999996129423,"CABOOSE<img id = ""stim"" ><div class = green_square id = ""topsquare"" ></div><img id = ""stim"" ><div class = green_square  id = ""bottomsquare"" ></div>",32,word_square,response,1,Space,true,,,
html-keyboard-response,533,969056,null,"CABOOSE",null,word,,,,, 'CABOOSE',,
html-keyboard-response,534,969558,null,"STONE<img id = ""stim"" ><div class = red_square id = ""topsquare"" ></div><img id = ""stim"" ><div class = red_square  id = ""bottomsquare"" ></div>",null,word_square,response,0,none,true,,,
html-keyboard-response,535,971060,null,"STONE",null,word,,,,, 'STONE',,
html-keyboard-response,536,971488,426.4299999922514,"DIVER<img id = ""stim"" ><div class = green_square id = ""topsquare"" ></div><img id = ""stim"" ><div class = green_square  id = ""bottomsquare"" ></div>",32,word_square,response,1,Space,true,,,
html-keyboard-response,537,972991,null,"DIVER",null,word,,,,, 'DIVER',,
html-keyboard-response,538,973393,400.2399999881163,"PADDLE<img id = ""stim"" ><div class = green_square id = ""topsquare"" ></div><img id = ""stim"" ><div class = green_square  id = ""bottomsquare"" ></div>",32,word_square,response,1,Space,true,,,
html-keyboard-response,539,974895,null,"PADDLE",null,word,,,,, 'PADDLE',,
call-function,540,974896,,"",,,,,,,,,
html-keyboard-response,541,974998,null,"",null,,,,,,,,
math-period,542,976384,2577.3100000224076,"",,,,,,,,,3
html-keyboard-response,543,976487,null,"",null,,,,,,,,
math-period,544,977800,2519.179999944754,"",,,,,,,,,2
html-keyboard-response,545,977902,null,"",null,,,,,,,,
math-period,546,979184,2432.7199999825098,"",,,,,,,,,5
html-keyboard-response,547,979286,null,"",null,,,,,,,,
math-period,548,980112,1544.7800000547431,"",,,,,,,,,5
html-keyboard-response,549,980214,null,"",null,,,,,,,,
math-period,550,981736,2768.9700000337325,"",,,,,,,,,0
html-keyboard-response,551,981838,null,"",null,,,,,,,,
math-period,552,982712,1641.840000054799,"",,,,,,,,,4
html-keyboard-response,553,982814,null,"",null,,,,,,,,
math-period,554,983832,1818.9049999928102,"",,,,,,,,,3
html-keyboard-response,555,983933,null,"",null,,,,,,,,
math-period,556,985576,3479.6600000117905,"",,,,,,,,,45
html-keyboard-response,557,985678,null,"",null,,,,,,,,
math-period,558,986968,2449.3350000702776,"",,,,,,,,,3
html-keyboard-response,559,987070,null,"",null,,,,,,,,
math-period,560,988152,2009.9049999262206,"",,,,,,,,,2
html-keyboard-response,561,988255,null,"",null,,,,,,,,
math-period,562,989968,3303.2650000532158,"",,,,,,,,,2
html-keyboard-response,563,990071,null,"",null,,,,,,,,
math-period,564,991576,2792.055000027176,"",,,,,,,,,2
html-keyboard-response,565,991679,null,"",null,,,,,,,,
math-period,566,993200,2919.8250000481494,"",,,,,,,,,1
html-keyboard-response,567,993303,null,"",null,,,,,,,,
math-period,568,994104,1376.2400000705384,"",,,,,,,,,1
html-keyboard-response,569,994206,null,"",null,,,,,,,,
math-period,570,995456,2362.500000046566,"",,,,,,,,,2
html-keyboard-response,571,995558,null,"",null,,,,,,,,
math-period,572,996905,2544.500000018161,"",,,,,,,,,1
html-keyboard-response,573,997007,null,"",null,,,,,,,,
math-period,574,998496,2823.059999907855,"",,,,,,,,,2
html-keyboard-response,575,998598,null,"",null,,,,,,,,
math-period,576,998898,null,"",,,,,,,,,
html-keyboard-response,577,999902,null,"Recall Period!",null,,,,,,,,
call-function,578,999903,,"",,,,,,,,,
html-keyboard-response,579,1000004,null,"",null,,,,,,,,
recall-period,580,1002824,16273.900000087451,"",,,,,,,,,caboose
html-keyboard-response,581,1002926,null,"",null,,,,,,,,
recall-period,582,1005360,8433.204999892041,"",,,,,,,,,denim
html-keyboard-response,583,1005462,null,"",null,,,,,,,,
recall-period,584,1009826,16200.374999898486,"",,,,,,,,,crab
html-keyboard-response,585,1009928,null,"",null,,,,,,,,
recall-period,586,1011146,3249.6599999722093,"",,,,,,,,,cod
html-keyboard-response,587,1011249,null,"",null,,,,,,,,
recall-period,588,1013170,5830.6699999957345,"",,,,,,,,,cabin
html-keyboard-response,589,1013274,null,"",null,,,,,,,,
recall-period,590,1022466,83198.5249996651,"",,,,,,,,,plaid
html-keyboard-response,591,1022568,null,"",null,,,,,,,,
recall-period,592,1024026,5231.399999931455,"",,,,,,,,,denim
html-keyboard-response,593,1024129,null,"",null,,,,,,,,
recall-period,594,1026858,13728.23499981314,"",,,,,,,,,tiger
html-keyboard-response,595,1026961,null,"",null,,,,,,,,
recall-period,596,1074907,null,"",,,,,,,,,
html-keyboard-response,597,1075410,null,"Time's Up!",null,,,,,,,,
html-keyboard-response,598,1122934,47521.66999998735,"<p> Good job! You responded correctly to 92% of the GREEN squares.</p>
                  <p>Be sure to keep your accuracy above 80%</p>
                  <p>Press any key to continue the experiment. Thank you!</p>",32,,,,,,,,
html-keyboard-response,599,1123622,686.1550000030547,"<div style=""font-size:48px;"">Press any key to begin list 6 of 24 </div>",32,,,,,,,,
html-keyboard-response,600,1126128,null,"<div style=""font-size:60px;"">+</div>",null,,,,,,,,
html-keyboard-response,601,1126630,null,"CARRIAGE<img id = ""stim"" ><div class = red_square id = ""topsquare"" ></div><img id = ""stim"" ><div class = red_square  id = ""bottomsquare"" ></div>",null,word_square,response,0,none,true,,,
html-keyboard-response,602,1128133,null,"CARRIAGE",null,word,,,,, 'CARRIAGE',,
html-keyboard-response,603,1128636,null,"FRAME<img id = ""stim"" ><div class = red_square id = ""topsquare"" ></div><img id = ""stim"" ><div class = red_square  id = ""bottomsquare"" ></div>",null,word_square,response,0,none,true,,,
html-keyboard-response,604,1130139,null,"FRAME",null,word,,,,, 'FRAME',,
html-keyboard-response,605,1130600,460.16999997664243,"RECORD<img id = ""stim"" ><div class = green_square id = ""topsquare"" ></div><img id = ""stim"" ><div class = green_square  id = ""bottomsquare"" ></div>",32,word_square,response,1,Space,true,,,
html-keyboard-response,606,1132104,null,"RECORD",null,word,,,,, 'RECORD',,
html-keyboard-response,607,1132608,null,"RIVER<img id = ""stim"" ><div class = red_square id = ""topsquare"" ></div><img id = ""stim"" ><div class = red_square  id = ""bottomsquare"" ></div>",null,word_square,response,0,none,true,,,
html-keyboard-response,608,1134113,null,"RIVER",null,word,,,,, 'RIVER',,
html-keyboard-response,609,1134616,null,"THRONE<img id = ""stim"" ><div class = red_square id = ""topsquare"" ></div><img id = ""stim"" ><div class = red_square  id = ""bottomsquare"" ></div>",null,word_square,response,0,none,true,,,
html-keyboard-response,610,1136119,null,"THRONE",null,word,,,,, 'THRONE',,
html-keyboard-response,611,1136569,447.89499999023974,"PROTON<img id = ""stim"" ><div class = green_square id = ""topsquare"" ></div><img id = ""stim"" ><div class = green_square  id = ""bottomsquare"" ></div>",32,word_square,response,1,Space,true,,,
html-keyboard-response,612,1138071,null,"PROTON",null,word,,,,, 'PROTON',,
html-keyboard-response,613,1138573,null,"MAPLE<img id = ""stim"" ><div class = red_square id = ""topsquare"" ></div><img id = ""stim"" ><div class = red_square  id = ""bottomsquare"" ></div>",null,word_square,response,0,none,true,,,
html-keyboard-response,614,1140074,null,"MAPLE",null,word,,,,, 'MAPLE',,
html-keyboard-response,615,1140568,492.97999998088926,"TRENCH<img id = ""stim"" ><div class = green_square id = ""topsquare"" ></div><img id = ""stim"" ><div class = green_square  id = ""bottomsquare"" ></div>",32,word_square,response,1,Space,true,,,
html-keyboard-response,616,1142070,null,"TRENCH",null,word,,,,, 'TRENCH',,
html-keyboard-response,617,1142480,408.25000003678724,"PAIL<img id = ""stim"" ><div class = green_square id = ""topsquare"" ></div><img id = ""stim"" ><div class = green_square  id = ""bottomsquare"" ></div>",32,word_square,response,1,Space,true,,,
html-keyboard-response,618,1143984,null,"PAIL",null,word,,,,, 'PAIL',,
html-keyboard-response,619,1144486,null,"SENATE<img id = ""stim"" ><div class = red_square id = ""topsquare"" ></div><img id = ""stim"" ><div class = red_square  id = ""bottomsquare"" ></div>",null,word_square,response,0,none,true,,,
html-keyboard-response,620,1145989,null,"SENATE",null,word,,,,, 'SENATE',,
html-keyboard-response,621,1146492,null,"HOOD<img id = ""stim"" ><div class = red_square id = ""topsquare"" ></div><img id = ""stim"" ><div class = red_square  id = ""bottomsquare"" ></div>",null,word_square,response,0,none,true,,,
html-keyboard-response,622,1147994,null,"HOOD",null,word,,,,, 'HOOD',,
html-keyboard-response,623,1148313,316.56999996630475,"MOTHER<img id = ""stim"" ><div class = green_square id = ""topsquare"" ></div><img id = ""stim"" ><div class = green_square  id = ""bottomsquare"" ></div>",32,word_square,response,1,Space,true,,,
html-keyboard-response,624,1149815,null,"MOTHER",null,word,,,,, 'MOTHER',,
html-keyboard-response,625,1150318,null,"ADULT<img id = ""stim"" ><div class = red_square id = ""topsquare"" ></div><img id = ""stim"" ><div class = red_square  id = ""bottomsquare"" ></div>",null,word_square,response,0,none,true,,,
html-keyboard-response,626,1151820,null,"ADULT",null,word,,,,, 'ADULT',,
html-keyboard-response,627,1152265,442.5500000361353,"CRADLE<img id = ""stim"" ><div class = green_square id = ""topsquare"" ></div><img id = ""stim"" ><div class = green_square  id = ""bottomsquare"" ></div>",32,word_square,response,1,Space,true,,,
html-keyboard-response,628,1153767,null,"CRADLE",null,word,,,,, 'CRADLE',,
html-keyboard-response,629,1154263,494.5799999986775,"ATLAS<img id = ""stim"" ><div class = green_square id = ""topsquare"" ></div><img id = ""stim"" ><div class = green_square  id = ""bottomsquare"" ></div>",32,word_square,response,1,Space,true,,,
html-keyboard-response,630,1155766,null,"ATLAS",null,word,,,,, 'ATLAS',,
html-keyboard-response,631,1156270,null,"PLAQUE<img id = ""stim"" ><div class = red_square id = ""topsquare"" ></div><img id = ""stim"" ><div class = red_square  id = ""bottomsquare"" ></div>",null,word_square,response,0,none,true,,,
html-keyboard-response,632,1157772,null,"PLAQUE",null,word,,,,, 'PLAQUE',,
html-keyboard-response,633,1158185,410.9199999948032,"MOTOR<img id = ""stim"" ><div class = green_square id = ""topsquare"" ></div><img id = ""stim"" ><div class = green_square  id = ""bottomsquare"" ></div>",32,word_square,response,1,Space,true,,,
html-keyboard-response,634,1159688,null,"MOTOR",null,word,,,,, 'MOTOR',,
html-keyboard-response,635,1160049,358.36999997263774,"CROWN<img id = ""stim"" ><div class = green_square id = ""topsquare"" ></div><img id = ""stim"" ><div class = green_square  id = ""bottomsquare"" ></div>",32,word_square,response,1,Space,true,,,
html-keyboard-response,636,1161551,null,"CROWN",null,word,,,,, 'CROWN',,
call-function,637,1161552,,"",,,,,,,,,
html-keyboard-response,638,1161654,null,"",null,,,,,,,,
math-period,639,1164159,4872.805000049993,"",,,,,,,,,2
html-keyboard-response,640,1164261,null,"",null,,,,,,,,
math-period,641,1165583,2497.7999999537133,"",,,,,,,,,5
html-keyboard-response,642,1165685,null,"",null,,,,,,,,
math-period,643,1167079,2649.9049999401905,"",,,,,,,,,1
html-keyboard-response,644,1167181,null,"",null,,,,,,,,
math-period,645,1168399,2203.139999997802,"",,,,,,,,,5
html-keyboard-response,646,1168501,null,"",null,,,,,,,,
math-period,647,1169600,2011.7550000431947,"",,,,,,,,,5
html-keyboard-response,648,1169701,null,"",null,,,,,,,,
math-period,649,1170839,2185.3499999269843,"",,,,,,,,,2
html-keyboard-response,650,1170942,null,"",null,,,,,,,,
math-period,651,1172111,2151.364999997895,"",,,,,,,,,4
html-keyboard-response,652,1172215,null,"",null,,,,,,,,
math-period,653,1173104,1630.6650000042282,"",,,,,,,,,4
html-keyboard-response,654,1173206,null,"",null,,,,,,,,
math-period,655,1173951,1359.169999952428,"",,,,,,,,,4
html-keyboard-response,656,1174055,null,"",null,,,,,,,,
math-period,657,1174751,1317.855000088457,"",,,,,,,,,4
html-keyboard-response,658,1174855,null,"",null,,,,,,,,
math-period,659,1176271,2266.8200000189245,"",,,,,,,,,2
html-keyboard-response,660,1176374,null,"",null,,,,,,,,
math-period,661,1177263,1568.889999995008,"",,,,,,,,,1
html-keyboard-response,662,1177365,null,"",null,,,,,,,,
math-period,663,1178639,2395.0349999358878,"",,,,,,,,,2
html-keyboard-response,664,1178742,null,"",null,,,,,,,,
math-period,665,1179863,2087.8100000554696,"",,,,,,,,,5
html-keyboard-response,666,1179967,null,"",null,,,,,,,,
math-period,667,1180703,1374.7350000194274,"",,,,,,,,,2
html-keyboard-response,668,1180806,null,"",null,,,,,,,,
math-period,669,1181903,2064.5299999741837,"",,,,,,,,,2
html-keyboard-response,670,1182006,null,"",null,,,,,,,,
math-period,671,1183023,1840.2200000127777,"",,,,,,,,,1
html-keyboard-response,672,1183126,null,"",null,,,,,,,,
math-period,673,1184503,2648.8350000581704,"",,,,,,,,,4
html-keyboard-response,674,1184605,null,"",null,,,,,,,,
math-period,675,1185554,null,"",,,,,,,,,
html-keyboard-response,676,1186561,null,"Recall Period!",null,,,,,,,,
call-function,677,1186562,,"",,,,,,,,,
html-keyboard-response,678,1186664,null,"",null,,,,,,,,
recall-period,679,1188746,9915.91500013601,"",,,,,,,,,mother
html-keyboard-response,680,1188849,null,"",null,,,,,,,,
recall-period,681,1193562,27110.74999993434,"",,,,,,,,,cradle
html-keyboard-response,682,1193665,null,"",null,,,,,,,,
recall-period,683,1207722,95408.90499996021,"",,,,,,,,,throne
html-keyboard-response,684,1207825,null,"",null,,,,,,,,
recall-period,685,1208930,3222.4000000278465,"",,,,,,,,,king
html-keyboard-response,686,1209033,null,"",null,,,,,,,,
recall-period,687,1261566,null,"",,,,,,,,,
html-keyboard-response,688,1262069,null,"Time's Up!",null,,,,,,,,
html-keyboard-response,689,1264718,2647.2950000315905,"<p> Good job! You responded correctly to 93% of the GREEN squares.</p>
                  <p>Be sure to keep your accuracy above 80%</p>
                  <p>Press any key to continue the experiment. Thank you!</p>",32,,,,,,,,
html-keyboard-response,690,1265198,477.1349999937229,"<div style=""font-size:48px;"">Press any key to begin list 7 of 24 </div>",32,,,,,,,,
html-keyboard-response,691,1267702,null,"<div style=""font-size:60px;"">+</div>",null,,,,,,,,
html-keyboard-response,692,1268205,null,"MARKER<img id = ""stim"" ><div class = green_square id = ""topsquare"" ></div><img id = ""stim"" ><div class = green_square  id = ""bottomsquare"" ></div>",null,word_square,response,1,Space,false,,,
html-keyboard-response,693,1269708,null,"MARKER",null,word,,,,, 'MARKER',,
html-keyboard-response,694,1270030,319.54499997664243,"MEADOW<img id = ""stim"" ><div class = green_square id = ""topsquare"" ></div><img id = ""stim"" ><div class = green_square  id = ""bottomsquare"" ></div>",32,word_square,response,1,Space,true,,,
html-keyboard-response,695,1271532,null,"MEADOW",null,word,,,,, 'MEADOW',,
html-keyboard-response,696,1272034,null,"HAWK<img id = ""stim"" ><div class = red_square id = ""topsquare"" ></div><img id = ""stim"" ><div class = red_square  id = ""bottomsquare"" ></div>",null,word_square,response,0,none,true,,,
html-keyboard-response,697,1273536,null,"HAWK",null,word,,,,, 'HAWK',,
html-keyboard-response,698,1274014,475.25499999755993,"ROBIN<img id = ""stim"" ><div class = green_square id = ""topsquare"" ></div><img id = ""stim"" ><div class = green_square  id = ""bottomsquare"" ></div>",32,word_square,response,1,Space,true,,,
html-keyboard-response,699,1275517,null,"ROBIN",null,word,,,,, 'ROBIN',,
html-keyboard-response,700,1275854,334.80000001145527,"PENGUIN<img id = ""stim"" ><div class = green_square id = ""topsquare"" ></div><img id = ""stim"" ><div class = green_square  id = ""bottomsquare"" ></div>",32,word_square,response,1,Space,true,,,
html-keyboard-response,701,1277357,null,"PENGUIN",null,word,,,,, 'PENGUIN',,
html-keyboard-response,702,1277859,null,"FLOWER<img id = ""stim"" ><div class = red_square id = ""topsquare"" ></div><img id = ""stim"" ><div class = red_square  id = ""bottomsquare"" ></div>",null,word_square,response,0,none,true,,,
html-keyboard-response,703,1279361,null,"FLOWER",null,word,,,,, 'FLOWER',,
html-keyboard-response,704,1279710,346.590000030119,"TUNNEL<img id = ""stim"" ><div class = green_square id = ""topsquare"" ></div><img id = ""stim"" ><div class = green_square  id = ""bottomsquare"" ></div>",32,word_square,response,1,Space,true,,,
html-keyboard-response,705,1281213,null,"TUNNEL",null,word,,,,, 'TUNNEL',,
html-keyboard-response,706,1281715,null,"FLAG<img id = ""stim"" ><div class = red_square id = ""topsquare"" ></div><img id = ""stim"" ><div class = red_square  id = ""bottomsquare"" ></div>",null,word_square,response,0,none,true,,,
html-keyboard-response,707,1283218,null,"FLAG",null,word,,,,, 'FLAG',,
html-keyboard-response,708,1283722,null,"PIGMENT<img id = ""stim"" ><div class = red_square id = ""topsquare"" ></div><img id = ""stim"" ><div class = red_square  id = ""bottomsquare"" ></div>",null,word_square,response,0,none,true,,,
html-keyboard-response,709,1285224,null,"PIGMENT",null,word,,,,, 'PIGMENT',,
html-keyboard-response,710,1285590,363.599999982398,"KETTLE<img id = ""stim"" ><div class = green_square id = ""topsquare"" ></div><img id = ""stim"" ><div class = green_square  id = ""bottomsquare"" ></div>",32,word_square,response,1,Space,true,,,
html-keyboard-response,711,1287093,null,"KETTLE",null,word,,,,, 'KETTLE',,
html-keyboard-response,712,1287478,383.3100000047125,"HEDGE<img id = ""stim"" ><div class = green_square id = ""topsquare"" ></div><img id = ""stim"" ><div class = green_square  id = ""bottomsquare"" ></div>",32,word_square,response,1,Space,true,,,
html-keyboard-response,713,1288981,null,"HEDGE",null,word,,,,, 'HEDGE',,
html-keyboard-response,714,1289484,null,"LONDON<img id = ""stim"" ><div class = red_square id = ""topsquare"" ></div><img id = ""stim"" ><div class = red_square  id = ""bottomsquare"" ></div>",null,word_square,response,0,none,true,,,
html-keyboard-response,715,1290985,null,"LONDON",null,word,,,,, 'LONDON',,
html-keyboard-response,716,1291342,354.6150000183843,"RESORT<img id = ""stim"" ><div class = green_square id = ""topsquare"" ></div><img id = ""stim"" ><div class = green_square  id = ""bottomsquare"" ></div>",32,word_square,response,1,Space,true,,,
html-keyboard-response,717,1292845,null,"RESORT",null,word,,,,, 'RESORT',,
html-keyboard-response,718,1293348,null,"STABLE<img id = ""stim"" ><div class = red_square id = ""topsquare"" ></div><img id = ""stim"" ><div class = red_square  id = ""bottomsquare"" ></div>",null,word_square,response,0,none,true,,,
html-keyboard-response,719,1294850,null,"STABLE",null,word,,,,, 'STABLE',,
html-keyboard-response,720,1295353,null,"EUROPE<img id = ""stim"" ><div class = red_square id = ""topsquare"" ></div><img id = ""stim"" ><div class = red_square  id = ""bottomsquare"" ></div>",null,word_square,response,0,none,true,,,
html-keyboard-response,721,1296855,null,"EUROPE",null,word,,,,, 'EUROPE',,
html-keyboard-response,722,1297237,380.31999999657273,"SHRIMP<img id = ""stim"" ><div class = green_square id = ""topsquare"" ></div><img id = ""stim"" ><div class = green_square  id = ""bottomsquare"" ></div>",32,word_square,response,1,Space,true,,,
html-keyboard-response,723,1298740,null,"SHRIMP",null,word,,,,, 'SHRIMP',,
html-keyboard-response,724,1299243,null,"MISTER<img id = ""stim"" ><div class = red_square id = ""topsquare"" ></div><img id = ""stim"" ><div class = red_square  id = ""bottomsquare"" ></div>",null,word_square,response,0,none,true,,,
html-keyboard-response,725,1300745,null,"MISTER",null,word,,,,, 'MISTER',,
html-keyboard-response,726,1301094,346.90999996382743,"SHOELACE<img id = ""stim"" ><div class = red_square id = ""topsquare"" ></div><img id = ""stim"" ><div class = red_square  id = ""bottomsquare"" ></div>",32,word_square,response,0,none,false,,,
html-keyboard-response,727,1302596,null,"SHOELACE",null,word,,,,, 'SHOELACE',,
call-function,728,1302597,,"",,,,,,,,,
html-keyboard-response,729,1302699,null,"",null,,,,,,,,
math-period,730,1304397,3152.674999961164,"",,,,,,,,,2
html-keyboard-response,731,1304499,null,"",null,,,,,,,,
math-period,732,1305612,2071.7599999625236,"",,,,,,,,,5
html-keyboard-response,733,1305715,null,"",null,,,,,,,,
math-period,734,1306599,1568.485000054352,"",,,,,,,,,5
html-keyboard-response,735,1306702,null,"",null,,,,,,,,
math-period,736,1307423,1352.4499999475665,"",,,,,,,,,5
html-keyboard-response,737,1307525,null,"",null,,,,,,,,
math-period,738,1308455,1729.909999994561,"",,,,,,,,,2
html-keyboard-response,739,1308557,null,"",null,,,,,,,,
math-period,740,1309535,1793.3849999681115,"",,,,,,,,,4
html-keyboard-response,741,1309637,null,"",null,,,,,,,,
math-period,742,1310447,1497.7799999178387,"",,,,,,,,,1
html-keyboard-response,743,1310549,null,"",null,,,,,,,,
math-period,744,1311391,1555.789999954868,"",,,,,,,,,4
html-keyboard-response,745,1311493,null,"",null,,,,,,,,
math-period,746,1313247,3328.5649999743327,"",,,,,,,,,2
html-keyboard-response,747,1313348,null,"",null,,,,,,,,
math-period,748,1314663,1314.3500000005588,"",,,,,,,,,
html-keyboard-response,749,1314765,null,"",null,,,,,,,,
math-period,750,1315815,1985.3549998952076,"",,,,,,,,,2
html-keyboard-response,751,1315918,null,"",null,,,,,,,,
math-period,752,1317111,2248.319999955129,"",,,,,,,,,1
html-keyboard-response,753,1317213,null,"",null,,,,,,,,
math-period,754,1318375,2225.225000001956,"",,,,,,,,,3
html-keyboard-response,755,1318477,null,"",null,,,,,,,,
math-period,756,1319495,1905.994999979157,"",,,,,,,,,5
html-keyboard-response,757,1319598,null,"",null,,,,,,,,
math-period,758,1320679,2070.555000042077,"",,,,,,,,,1
html-keyboard-response,759,1320781,null,"",null,,,,,,,,
math-period,760,1321719,1712.96999999322,"",,,,,,,,,2
html-keyboard-response,761,1321823,null,"",null,,,,,,,,
math-period,762,1322991,2269.8749999399297,"",,,,,,,,,3
html-keyboard-response,763,1323093,null,"",null,,,,,,,,
math-period,764,1325631,11434.775000088848,"",,,,,,,,,5
html-keyboard-response,765,1325733,null,"",null,,,,,,,,
math-period,766,1326567,1520.0199999962933,"",,,,,,,,,1
html-keyboard-response,767,1326669,null,"",null,,,,,,,,
math-period,768,1326672,null,"",,,,,,,,,
html-keyboard-response,769,1327676,null,"Recall Period!",null,,,,,,,,
call-function,770,1327677,,"",,,,,,,,,
html-keyboard-response,771,1327780,null,"",null,,,,,,,,
recall-period,772,1330039,11011.80499990005,"",,,,,,,,,londen
html-keyboard-response,773,1330142,null,"",null,,,,,,,,
recall-period,774,1333255,20183.569999760948,"",,,,,,,,,london
html-keyboard-response,775,1333357,null,"",null,,,,,,,,
recall-period,776,1335847,7596.4050001930445,"",,,,,,,,,resort
html-keyboard-response,777,1335949,null,"",null,,,,,,,,
recall-period,778,1339191,13111.464999965392,"",,,,,,,,,mother
html-keyboard-response,779,1339293,null,"",null,,,,,,,,
recall-period,780,1351295,80197.96499982476,"",,,,,,,,,kettle
html-keyboard-response,781,1351398,null,"",null,,,,,,,,
recall-period,782,1356167,24165.119999845047,"",,,,,,,,,tiger
html-keyboard-response,783,1356268,null,"",null,,,,,,,,
recall-period,784,1361599,33410.40499997325,"",,,,,,,,,flower
html-keyboard-response,785,1361702,null,"",null,,,,,,,,
recall-period,786,1366039,15751.010000065435,"",,,,,,,,,pot
html-keyboard-response,787,1366141,null,"",null,,,,,,,,
recall-period,788,1402682,null,"",,,,,,,,,
html-keyboard-response,789,1403185,null,"Time's Up!",null,,,,,,,,
html-keyboard-response,790,1407971,4783.700000029057,"<p> Good job! You responded correctly to 92% of the GREEN squares.</p>
                  <p>Be sure to keep your accuracy above 80%</p>
                  <p>Press any key to continue the experiment. Thank you!</p>",32,,,,,,,,
html-keyboard-response,791,1409323,1349.7199999983422,"<div style=""font-size:48px;"">Press any key to begin list 8 of 24 </div>",32,,,,,,,,
html-keyboard-response,792,1411828,null,"<div style=""font-size:60px;"">+</div>",null,,,,,,,,
html-keyboard-response,793,1412331,null,"PORPOISE<img id = ""stim"" ><div class = green_square id = ""topsquare"" ></div><img id = ""stim"" ><div class = green_square  id = ""bottomsquare"" ></div>",null,word_square,response,1,Space,false,,,
html-keyboard-response,794,1413833,null,"PORPOISE",null,word,,,,, 'PORPOISE',,
html-keyboard-response,795,1414258,423.7449999782257,"TUBA<img id = ""stim"" ><div class = green_square id = ""topsquare"" ></div><img id = ""stim"" ><div class = green_square  id = ""bottomsquare"" ></div>",32,word_square,response,1,Space,true,,,
html-keyboard-response,796,1415761,null,"TUBA",null,word,,,,, 'TUBA',,
html-keyboard-response,797,1416264,null,"PIANO<img id = ""stim"" ><div class = red_square id = ""topsquare"" ></div><img id = ""stim"" ><div class = red_square  id = ""bottomsquare"" ></div>",null,word_square,response,0,none,true,,,
html-keyboard-response,798,1417767,null,"PIANO",null,word,,,,, 'PIANO',,
html-keyboard-response,799,1418270,null,"PLASTER<img id = ""stim"" ><div class = green_square id = ""topsquare"" ></div><img id = ""stim"" ><div class = green_square  id = ""bottomsquare"" ></div>",null,word_square,response,1,Space,false,,,
html-keyboard-response,800,1419772,null,"PLASTER",null,word,,,,, 'PLASTER',,
html-keyboard-response,801,1420170,396.39999996870756,"BRICK<img id = ""stim"" ><div class = green_square id = ""topsquare"" ></div><img id = ""stim"" ><div class = green_square  id = ""bottomsquare"" ></div>",32,word_square,response,1,Space,true,,,
html-keyboard-response,802,1421674,null,"BRICK",null,word,,,,, 'BRICK',,
html-keyboard-response,803,1422177,null,"NEPHEW<img id = ""stim"" ><div class = red_square id = ""topsquare"" ></div><img id = ""stim"" ><div class = red_square  id = ""bottomsquare"" ></div>",null,word_square,response,0,none,true,,,
html-keyboard-response,804,1423679,null,"NEPHEW",null,word,,,,, 'NEPHEW',,
html-keyboard-response,805,1424170,489.2799999797717,"BLENDER<img id = ""stim"" ><div class = green_square id = ""topsquare"" ></div><img id = ""stim"" ><div class = green_square  id = ""bottomsquare"" ></div>",32,word_square,response,1,Space,true,,,
html-keyboard-response,806,1425671,null,"BLENDER",null,word,,,,, 'BLENDER',,
html-keyboard-response,807,1426174,null,"CHECKERS<img id = ""stim"" ><div class = red_square id = ""topsquare"" ></div><img id = ""stim"" ><div class = red_square  id = ""bottomsquare"" ></div>",null,word_square,response,0,none,true,,,
html-keyboard-response,808,1427679,null,"CHECKERS",null,word,,,,, 'CHECKERS',,
html-keyboard-response,809,1428181,null,"FEMALE<img id = ""stim"" ><div class = red_square id = ""topsquare"" ></div><img id = ""stim"" ><div class = red_square  id = ""bottomsquare"" ></div>",null,word_square,response,0,none,true,,,
html-keyboard-response,810,1429684,null,"FEMALE",null,word,,,,, 'FEMALE',,
html-keyboard-response,811,1430158,471.4399999938905,"GLASSES<img id = ""stim"" ><div class = green_square id = ""topsquare"" ></div><img id = ""stim"" ><div class = green_square  id = ""bottomsquare"" ></div>",32,word_square,response,1,Space,true,,,
html-keyboard-response,812,1431661,null,"GLASSES",null,word,,,,, 'GLASSES',,
html-keyboard-response,813,1432069,405.77999997185543,"FROG<img id = ""stim"" ><div class = green_square id = ""topsquare"" ></div><img id = ""stim"" ><div class = green_square  id = ""bottomsquare"" ></div>",32,word_square,response,1,Space,true,,,
html-keyboard-response,814,1433571,null,"FROG",null,word,,,,, 'FROG',,
html-keyboard-response,815,1434074,null,"TOASTER<img id = ""stim"" ><div class = red_square id = ""topsquare"" ></div><img id = ""stim"" ><div class = red_square  id = ""bottomsquare"" ></div>",null,word_square,response,0,none,true,,,
html-keyboard-response,816,1435576,null,"TOASTER",null,word,,,,, 'TOASTER',,
html-keyboard-response,817,1435989,411.9899999932386,"ATTIC<img id = ""stim"" ><div class = green_square id = ""topsquare"" ></div><img id = ""stim"" ><div class = green_square  id = ""bottomsquare"" ></div>",32,word_square,response,1,Space,true,,,
html-keyboard-response,818,1437492,null,"ATTIC",null,word,,,,, 'ATTIC',,
html-keyboard-response,819,1437995,null,"MILDEW<img id = ""stim"" ><div class = red_square id = ""topsquare"" ></div><img id = ""stim"" ><div class = red_square  id = ""bottomsquare"" ></div>",null,word_square,response,0,none,true,,,
html-keyboard-response,820,1439498,null,"MILDEW",null,word,,,,, 'MILDEW',,
html-keyboard-response,821,1439845,345.05499998340383,"LUGGAGE<img id = ""stim"" ><div class = red_square id = ""topsquare"" ></div><img id = ""stim"" ><div class = red_square  id = ""bottomsquare"" ></div>",32,word_square,response,0,none,false,,,
html-keyboard-response,822,1441348,null,"LUGGAGE",null,word,,,,, 'LUGGAGE',,
html-keyboard-response,823,1441750,399.6799999731593,"STAIRS<img id = ""stim"" ><div class = green_square id = ""topsquare"" ></div><img id = ""stim"" ><div class = green_square  id = ""bottomsquare"" ></div>",32,word_square,response,1,Space,true,,,
html-keyboard-response,824,1443253,null,"STAIRS",null,word,,,,, 'STAIRS',,
html-keyboard-response,825,1443756,null,"GERM<img id = ""stim"" ><div class = red_square id = ""topsquare"" ></div><img id = ""stim"" ><div class = red_square  id = ""bottomsquare"" ></div>",null,word_square,response,0,none,true,,,
html-keyboard-response,826,1445259,null,"GERM",null,word,,,,, 'GERM',,
html-keyboard-response,827,1445701,440.2049999916926,"TREAT<img id = ""stim"" ><div class = red_square id = ""topsquare"" ></div><img id = ""stim"" ><div class = red_square  id = ""bottomsquare"" ></div>",32,word_square,response,0,none,false,,,
html-keyboard-response,828,1447205,null,"TREAT",null,word,,,,, 'TREAT',,
call-function,829,1447207,,"",,,,,,,,,
html-keyboard-response,830,1447308,null,"",null,,,,,,,,
math-period,831,1449572,7762.784999911673,"",,,,,,,,,6
html-keyboard-response,832,1449675,null,"",null,,,,,,,,
math-period,833,1450604,1662.8700000001118,"",,,,,,,,,2
html-keyboard-response,834,1450707,null,"",null,,,,,,,,
math-period,835,1452220,2918.630000029225,"",,,,,,,,,6
html-keyboard-response,836,1452323,null,"",null,,,,,,,,
math-period,837,1453548,2262.6600000075996,"",,,,,,,,,3
html-keyboard-response,838,1453651,null,"",null,,,,,,,,
math-period,839,1454836,2183.670000056736,"",,,,,,,,,1
html-keyboard-response,840,1454939,null,"",null,,,,,,,,
math-period,841,1456140,2255.6300000287592,"",,,,,,,,,6
html-keyboard-response,842,1456242,null,"",null,,,,,,,,
math-period,843,1457308,1937.5649999710731,"",,,,,,,,,6
html-keyboard-response,844,1457410,null,"",null,,,,,,,,
math-period,845,1460484,4561.454999959096,"",,,,,,,,,1
html-keyboard-response,846,1460587,null,"",null,,,,,,,,
math-period,847,1463132,4526.814999990165,"",,,,,,,,,0
html-keyboard-response,848,1463235,null,"",null,,,,,,,,
math-period,849,1464444,2301.945000013802,"",,,,,,,,,4
html-keyboard-response,850,1464547,null,"",null,,,,,,,,
math-period,851,1466004,2638.829999952577,"",,,,,,,,,2
html-keyboard-response,852,1466106,null,"",null,,,,,,,,
math-period,853,1467596,2832.984999928158,"",,,,,,,,,5
html-keyboard-response,854,1467699,null,"",null,,,,,,,,
math-period,855,1468900,2254.575000028126,"",,,,,,,,,1
html-keyboard-response,856,1469002,null,"",null,,,,,,,,
math-period,857,1470228,2265.384999976959,"",,,,,,,,,4
html-keyboard-response,858,1470331,null,"",null,,,,,,,,
math-period,859,1471208,791.7349999770522,"",,,,,,,,,3
html-keyboard-response,860,1472211,null,"Recall Period!",null,,,,,,,,
call-function,861,1472212,,"",,,,,,,,,
html-keyboard-response,862,1472314,null,"",null,,,,,,,,
recall-period,863,1474076,6612.494999892078,"",,,,,,,,,tuba
html-keyboard-response,864,1474178,null,"",null,,,,,,,,
recall-period,865,1475468,4522.079999907874,"",,,,,,,,,piano
html-keyboard-response,866,1475571,null,"",null,,,,,,,,
recall-period,867,1477044,7066.615000076126,"",,,,,,,,,plaster
html-keyboard-response,868,1477145,null,"",null,,,,,,,,
recall-period,869,1478788,5444.604999851435,"",,,,,,,,,brick
html-keyboard-response,870,1478890,null,"",null,,,,,,,,
recall-period,871,1480324,6854.939999931958,"",,,,,,,,,toaster
html-keyboard-response,872,1480427,null,"",null,,,,,,,,
recall-period,873,1481588,3118.219999887515,"",,,,,,,,,frog
html-keyboard-response,874,1481690,null,"",null,,,,,,,,
recall-period,875,1490407,105812.02500045765,"",,,,,,,,,onion
html-keyboard-response,876,1490510,null,"",null,,,,,,,,
recall-period,877,1498135,48959.925000031944,"",,,,,,,,,female
html-keyboard-response,878,1498237,null,"",null,,,,,,,,
recall-period,879,1547215,null,"",,,,,,,,,
html-keyboard-response,880,1547718,null,"Time's Up!",null,,,,,,,,
html-keyboard-response,881,1554715,6992.204999958631,"<p> Good job! You responded correctly to 91% of the GREEN squares.</p>
                  <p>Be sure to keep your accuracy above 80%</p>
                  <p>Press any key to continue the experiment. Thank you!</p>",32,,,,,,,,
html-keyboard-response,882,1556963,2246.179999958258,"<div style=""font-size:48px;"">Press any key to begin list 9 of 24 </div>",32,,,,,,,,
html-keyboard-response,883,1559466,null,"<div style=""font-size:60px;"">+</div>",null,,,,,,,,
html-keyboard-response,884,1559970,null,"SHIRT<img id = ""stim"" ><div class = red_square id = ""topsquare"" ></div><img id = ""stim"" ><div class = red_square  id = ""bottomsquare"" ></div>",null,word_square,response,0,none,true,,,
html-keyboard-response,885,1561472,null,"SHIRT",null,word,,,,, 'SHIRT',,
html-keyboard-response,886,1561851,376.7700000316836,"SCULPTURE<img id = ""stim"" ><div class = green_square id = ""topsquare"" ></div><img id = ""stim"" ><div class = green_square  id = ""bottomsquare"" ></div>",32,word_square,response,1,Space,true,,,
html-keyboard-response,887,1563354,null,"SCULPTURE",null,word,,,,, 'SCULPTURE',,
html-keyboard-response,888,1563857,null,"KIDNEY<img id = ""stim"" ><div class = red_square id = ""topsquare"" ></div><img id = ""stim"" ><div class = red_square  id = ""bottomsquare"" ></div>",null,word_square,response,0,none,true,,,
html-keyboard-response,889,1565360,null,"KIDNEY",null,word,,,,, 'KIDNEY',,
html-keyboard-response,890,1565863,null,"PAINTING<img id = ""stim"" ><div class = red_square id = ""topsquare"" ></div><img id = ""stim"" ><div class = red_square  id = ""bottomsquare"" ></div>",null,word_square,response,0,none,true,,,
html-keyboard-response,891,1567366,null,"PAINTING",null,word,,,,, 'PAINTING',,
html-keyboard-response,892,1567748,379.5199999585748,"TART<img id = ""stim"" ><div class = green_square id = ""topsquare"" ></div><img id = ""stim"" ><div class = green_square  id = ""bottomsquare"" ></div>",32,word_square,response,1,Space,true,,,
html-keyboard-response,893,1569250,null,"TART",null,word,,,,, 'TART',,
html-keyboard-response,894,1569666,415.0750000262633,"VIRUS<img id = ""stim"" ><div class = green_square id = ""topsquare"" ></div><img id = ""stim"" ><div class = green_square  id = ""bottomsquare"" ></div>",32,word_square,response,1,Space,true,,,
html-keyboard-response,895,1571168,null,"VIRUS",null,word,,,,, 'VIRUS',,
html-keyboard-response,896,1571671,null,"VILLAGE<img id = ""stim"" ><div class = red_square id = ""topsquare"" ></div><img id = ""stim"" ><div class = red_square  id = ""bottomsquare"" ></div>",null,word_square,response,0,none,true,,,
html-keyboard-response,897,1573174,null,"VILLAGE",null,word,,,,, 'VILLAGE',,
html-keyboard-response,898,1573677,null,"WAX<img id = ""stim"" ><div class = green_square id = ""topsquare"" ></div><img id = ""stim"" ><div class = green_square  id = ""bottomsquare"" ></div>",null,word_square,response,1,Space,false,,,
html-keyboard-response,899,1575179,null,"WAX",null,word,,,,, 'WAX',,
html-keyboard-response,900,1575681,null,"JACKET<img id = ""stim"" ><div class = red_square id = ""topsquare"" ></div><img id = ""stim"" ><div class = red_square  id = ""bottomsquare"" ></div>",null,word_square,response,0,none,true,,,
html-keyboard-response,901,1577184,null,"JACKET",null,word,,,,, 'JACKET',,
html-keyboard-response,902,1577687,null,"PEACH<img id = ""stim"" ><div class = green_square id = ""topsquare"" ></div><img id = ""stim"" ><div class = green_square  id = ""bottomsquare"" ></div>",null,word_square,response,1,Space,false,,,
html-keyboard-response,903,1579189,null,"PEACH",null,word,,,,, 'PEACH',,
html-keyboard-response,904,1579693,null,"CURTAIN<img id = ""stim"" ><div class = red_square id = ""topsquare"" ></div><img id = ""stim"" ><div class = red_square  id = ""bottomsquare"" ></div>",null,word_square,response,0,none,true,,,
html-keyboard-response,905,1581196,null,"CURTAIN",null,word,,,,, 'CURTAIN',,
html-keyboard-response,906,1581699,null,"LEAF<img id = ""stim"" ><div class = red_square id = ""topsquare"" ></div><img id = ""stim"" ><div class = red_square  id = ""bottomsquare"" ></div>",null,word_square,response,0,none,true,,,
html-keyboard-response,907,1583203,null,"LEAF",null,word,,,,, 'LEAF',,
html-keyboard-response,908,1583603,398.56500003952533,"LACE<img id = ""stim"" ><div class = green_square id = ""topsquare"" ></div><img id = ""stim"" ><div class = green_square  id = ""bottomsquare"" ></div>",32,word_square,response,1,Space,true,,,
html-keyboard-response,909,1585106,null,"LACE",null,word,,,,, 'LACE',,
html-keyboard-response,910,1585609,null,"TAVERN<img id = ""stim"" ><div class = red_square id = ""topsquare"" ></div><img id = ""stim"" ><div class = red_square  id = ""bottomsquare"" ></div>",null,word_square,response,0,none,true,,,
html-keyboard-response,911,1587113,null,"TAVERN",null,word,,,,, 'TAVERN',,
html-keyboard-response,912,1587615,null,"RULER<img id = ""stim"" ><div class = red_square id = ""topsquare"" ></div><img id = ""stim"" ><div class = red_square  id = ""bottomsquare"" ></div>",null,word_square,response,0,none,true,,,
html-keyboard-response,913,1589118,null,"RULER",null,word,,,,, 'RULER',,
html-keyboard-response,914,1589491,371.27999996300787,"BANQUET<img id = ""stim"" ><div class = green_square id = ""topsquare"" ></div><img id = ""stim"" ><div class = green_square  id = ""bottomsquare"" ></div>",32,word_square,response,1,Space,true,,,
html-keyboard-response,915,1590994,null,"BANQUET",null,word,,,,, 'BANQUET',,
html-keyboard-response,916,1591498,null,"DENTIST<img id = ""stim"" ><div class = green_square id = ""topsquare"" ></div><img id = ""stim"" ><div class = green_square  id = ""bottomsquare"" ></div>",null,word_square,response,1,Space,false,,,
html-keyboard-response,917,1593000,null,"DENTIST",null,word,,,,, 'DENTIST',,
html-keyboard-response,918,1593444,441.35999999707565,"PORT<img id = ""stim"" ><div class = green_square id = ""topsquare"" ></div><img id = ""stim"" ><div class = green_square  id = ""bottomsquare"" ></div>",32,word_square,response,1,Space,true,,,
html-keyboard-response,919,1594947,null,"PORT",null,word,,,,, 'PORT',,
call-function,920,1594949,,"",,,,,,,,,
html-keyboard-response,921,1595052,null,"",null,,,,,,,,
math-period,922,1596578,2777.174999937415,"",,,,,,,,,3
html-keyboard-response,923,1596681,null,"",null,,,,,,,,
math-period,924,1597890,2255.9400000609457,"",,,,,,,,,4
html-keyboard-response,925,1597992,null,"",null,,,,,,,,
math-period,926,1599698,3264.7849999484606,"",,,,,,,,,1
html-keyboard-response,927,1599800,null,"",null,,,,,,,,
math-period,928,1601418,5099.589999939781,"",,,,,,,,,4
html-keyboard-response,929,1601521,null,"",null,,,,,,,,
math-period,930,1602626,2063.559999980498,"",,,,,,,,,5
html-keyboard-response,931,1602729,null,"",null,,,,,,,,
math-period,932,1604250,2768.060000089463,"",,,,,,,,,2
html-keyboard-response,933,1604353,null,"",null,,,,,,,,
math-period,934,1605466,2100.994999986142,"",,,,,,,,,1
html-keyboard-response,935,1605569,null,"",null,,,,,,,,
math-period,936,1606810,2318.5699999448843,"",,,,,,,,,5
html-keyboard-response,937,1606912,null,"",null,,,,,,,,
math-period,938,1607922,1904.4900000444613,"",,,,,,,,,5
html-keyboard-response,939,1608025,null,"",null,,,,,,,,
math-period,940,1609370,2583.5749999969266,"",,,,,,,,,1
html-keyboard-response,941,1609471,null,"",null,,,,,,,,
math-period,942,1611298,3250.6950000533834,"",,,,,,,,,3
html-keyboard-response,943,1611400,null,"",null,,,,,,,,
math-period,944,1612386,1769.9649999849498,"",,,,,,,,,4
html-keyboard-response,945,1612487,null,"",null,,,,,,,,
math-period,946,1613626,2042.4800000037067,"",,,,,,,,,1
html-keyboard-response,947,1613729,null,"",null,,,,,,,,
math-period,948,1614949,2319.059999950696,"",,,,,,,,,6
html-keyboard-response,949,1615050,null,"",null,,,,,,,,
math-period,950,1616164,1112.7399999531917,"",,,,,,,,,
html-keyboard-response,951,1616267,null,"",null,,,,,,,,
math-period,952,1617837,2991.3500000257045,"",,,,,,,,,5
html-keyboard-response,953,1617938,null,"",null,,,,,,,,
math-period,954,1618812,1690.8299999777228,"",,,,,,,,,5
html-keyboard-response,955,1618915,null,"",null,,,,,,,,
math-period,956,1618950,null,"",,,,,,,,,
html-keyboard-response,957,1619954,null,"Recall Period!",null,,,,,,,,
call-function,958,1619956,,"",,,,,,,,,
html-keyboard-response,959,1620058,null,"",null,,,,,,,,
recall-period,960,1621316,4807.275000028312,"",,,,,,,,,leaf
html-keyboard-response,961,1621419,null,"",null,,,,,,,,
recall-period,962,1622636,4550.76499999268,"",,,,,,,,,tavern
html-keyboard-response,963,1622740,null,"",null,,,,,,,,
recall-period,964,1625052,14411.859999934677,"",,,,,,,,,village
html-keyboard-response,965,1625156,null,"",null,,,,,,,,
recall-period,966,1626956,6404.964999936055,"",,,,,,,,,virus
html-keyboard-response,967,1627058,null,"",null,,,,,,,,
recall-period,968,1630941,19869.79000014253,"",,,,,,,,,ruler
html-keyboard-response,969,1631042,null,"",null,,,,,,,,
recall-period,970,1632860,8829.524999950081,"",,,,,,,,,banquet
html-keyboard-response,971,1632963,null,"",null,,,,,,,,
recall-period,972,1639580,56802.83999996027,"",,,,,,,,,clothes
html-keyboard-response,973,1639684,null,"",null,,,,,,,,
recall-period,974,1649788,67775.53000010084,"",,,,,,,,,hanger
html-keyboard-response,975,1649891,null,"",null,,,,,,,,
recall-period,976,1694961,null,"",,,,,,,,,
html-keyboard-response,977,1695465,null,"Time's Up!",null,,,,,,,,
html-keyboard-response,978,1733945,38477.04500000691,"<p> Good job! You responded correctly to 90% of the GREEN squares.</p>
                  <p>Be sure to keep your accuracy above 80%</p>
                  <p>Press any key to continue the experiment. Thank you!</p>",32,,,,,,,,
html-keyboard-response,979,1734944,997.6350000360981,"<div style=""font-size:48px;"">Press any key to begin list 10 of 24 </div>",32,,,,,,,,
