trial_type,trial_index,time_elapsed,rt,stimulus,key_press,test_part,targ_cond,correct_response,word,responses
pavlovia,0,875,,"",,,,,,""
external-html,1,95225,95556.13000015728,"",,,,,,""
html-keyboard-response,2,100411,5174.16000016965,"Welcome to the experiment. Press any key to begin.",80,,,,,""
html-keyboard-response,3,110352,9939.269999973476,"<p>You will see a list of words and colored squares in the following task.<p><p>Press the spacebar whenever you see a red square.<p><p>Do not press a key if the square is green<p><p>Press the spacebar to continue.</p>",32,,,,,""
html-keyboard-response,4,122239,11359.66999991797,"<p>Please try to remember as many of the words as you can, and try to think about the meaning of each word as it appears.<p><p>After the detection and encoding task you will be asked to solve some math problems for 24 seconds.<p> Please solve as many problems as you can in the time given. <p>",32,,,,,""
html-keyboard-response,5,130801,8044.384999899194,"After solving the math problems, you will be asked to type in as many words <p>from the previous list as you can remember for 75 seconds.<p> If you finish recalling before the 75 seconds are up,<p> just sit tight and try to think of any more words you could have missed. <p><p>We will begin with a brief practice session<p>Press the spacebar to begin the practice.</p>",32,,,,,""
html-keyboard-response,6,133336,null,"<div style=""font-size:60px;"">+</div>",null,,,,,""
html-keyboard-response,7,133851,null,"HAPPY<img id = ""stim"" ><div class = green_square id = ""topsquare"" ></div><img id = ""stim"" ><div class = green_square  id = ""bottomsquare"" ></div>",null,word_square,D,none,,""
html-keyboard-response,8,135368,null,"HAPPY",null,word,,,HAPPY,""
html-keyboard-response,9,135377,null,"COLD<img id = ""stim"" ><div class = red_square id = ""topsquare"" ></div><img id = ""stim"" ><div class = red_square  id = ""bottomsquare"" ></div>",null,word_square,T,SPACEBAR,,""
html-keyboard-response,10,136896,null,"COLD",null,word,,,COLD,""
html-keyboard-response,11,136903,null,"HEAVY<img id = ""stim"" ><div class = red_square id = ""topsquare"" ></div><img id = ""stim"" ><div class = red_square  id = ""bottomsquare"" ></div>",null,word_square,T,SPACEBAR,,""
html-keyboard-response,12,138432,null,"HEAVY",null,word,,,HEAVY,""
html-keyboard-response,13,138674,239.1550000756979,"FUNNY<img id = ""stim"" ><div class = green_square id = ""topsquare"" ></div><img id = ""stim"" ><div class = green_square  id = ""bottomsquare"" ></div>",32,word_square,D,none,,""
html-keyboard-response,14,140198,null,"FUNNY",null,word,,,FUNNY,""
html-keyboard-response,15,140207,null,"SCARY<img id = ""stim"" ><div class = red_square id = ""topsquare"" ></div><img id = ""stim"" ><div class = red_square  id = ""bottomsquare"" ></div>",null,word_square,T,SPACEBAR,,""
html-keyboard-response,16,141716,null,"SCARY",null,word,,,SCARY,""
html-keyboard-response,17,141725,null,"PEACEFUL<img id = ""stim"" ><div class = red_square id = ""topsquare"" ></div><img id = ""stim"" ><div class = red_square  id = ""bottomsquare"" ></div>",null,word_square,T,SPACEBAR,,""
html-keyboard-response,18,143236,null,"PEACEFUL",null,word,,,PEACEFUL,""
html-keyboard-response,19,143762,null,"LITTLE<img id = ""stim"" ><div class = green_square id = ""topsquare"" ></div><img id = ""stim"" ><div class = green_square  id = ""bottomsquare"" ></div>",null,word_square,D,none,,""
html-keyboard-response,20,145281,null,"LITTLE",null,word,,,LITTLE,""
html-keyboard-response,21,145827,null,"TIRED<img id = ""stim"" ><div class = green_square id = ""topsquare"" ></div><img id = ""stim"" ><div class = green_square  id = ""bottomsquare"" ></div>",null,word_square,D,none,,""
html-keyboard-response,22,147353,null,"TIRED",null,word,,,TIRED,""
html-keyboard-response,23,147589,234.42500014789402,"ENTERTAINING<img id = ""stim"" ><div class = green_square id = ""topsquare"" ></div><img id = ""stim"" ><div class = green_square  id = ""bottomsquare"" ></div>",32,word_square,D,none,,""
html-keyboard-response,24,149099,null,"ENTERTAINING",null,word,,,ENTERTAINING,""
html-keyboard-response,25,149107,null,"GRATEFUL<img id = ""stim"" ><div class = red_square id = ""topsquare"" ></div><img id = ""stim"" ><div class = red_square  id = ""bottomsquare"" ></div>",null,word_square,T,SPACEBAR,,""
html-keyboard-response,26,150614,null,"GRATEFUL",null,word,,,GRATEFUL,""
html-keyboard-response,27,151133,null,"LOUD<img id = ""stim"" ><div class = green_square id = ""topsquare"" ></div><img id = ""stim"" ><div class = green_square  id = ""bottomsquare"" ></div>",null,word_square,D,none,,""
html-keyboard-response,28,152667,null,"LOUD",null,word,,,LOUD,""
html-keyboard-response,29,152674,null,"SMART<img id = ""stim"" ><div class = red_square id = ""topsquare"" ></div><img id = ""stim"" ><div class = red_square  id = ""bottomsquare"" ></div>",null,word_square,T,SPACEBAR,,""
html-keyboard-response,30,154192,null,"SMART",null,word,,,SMART,""
html-keyboard-response,31,154200,null,"SMOOTH<img id = ""stim"" ><div class = red_square id = ""topsquare"" ></div><img id = ""stim"" ><div class = red_square  id = ""bottomsquare"" ></div>",null,word_square,T,SPACEBAR,,""
html-keyboard-response,32,155715,null,"SMOOTH",null,word,,,SMOOTH,""
html-keyboard-response,33,156229,null,"DISHONEST<img id = ""stim"" ><div class = green_square id = ""topsquare"" ></div><img id = ""stim"" ><div class = green_square  id = ""bottomsquare"" ></div>",null,word_square,D,none,,""
html-keyboard-response,34,157745,null,"DISHONEST",null,word,,,DISHONEST,""
html-keyboard-response,35,157752,null,"WEALTHY<img id = ""stim"" ><div class = red_square id = ""topsquare"" ></div><img id = ""stim"" ><div class = red_square  id = ""bottomsquare"" ></div>",null,word_square,T,SPACEBAR,,""
html-keyboard-response,36,159266,null,"WEALTHY",null,word,,,WEALTHY,""
html-keyboard-response,37,159770,null,"BEAUTIFUL<img id = ""stim"" ><div class = green_square id = ""topsquare"" ></div><img id = ""stim"" ><div class = green_square  id = ""bottomsquare"" ></div>",null,word_square,D,none,,""
html-keyboard-response,38,161272,null,"BEAUTIFUL",null,word,,,BEAUTIFUL,""
html-keyboard-response,39,161794,null,"DREARY<img id = ""stim"" ><div class = green_square id = ""topsquare"" ></div><img id = ""stim"" ><div class = green_square  id = ""bottomsquare"" ></div>",null,word_square,D,none,,""
html-keyboard-response,40,163307,null,"DREARY",null,word,,,DREARY,""
html-keyboard-response,41,163815,null,"PLAYFUL<img id = ""stim"" ><div class = green_square id = ""topsquare"" ></div><img id = ""stim"" ><div class = green_square  id = ""bottomsquare"" ></div>",null,word_square,D,none,,""
html-keyboard-response,42,165329,null,"PLAYFUL",null,word,,,PLAYFUL,""
survey-text,43,167699,2355.324999894947,"",,,,,,"{""Q0"":"" 4""}"
survey-text,44,170366,2657.294999808073,"",,,,,,"{""Q0"":""2""}"
survey-text,45,171983,1606.2650000676513,"",,,,,,"{""Q0"":""3""}"
survey-text,46,173779,1785.6850000098348,"",,,,,,"{""Q0"":""2""}"
survey-text,47,176101,2306.774999946356,"",,,,,,"{""Q0"":""4""}"
survey-text,48,179420,3302.7049999218434,"",,,,,,"{""Q0"":""2""}"
survey-text,49,181152,1716.2849998567253,"",,,,,,"{""Q0"":""4""}"
survey-text,50,182863,1699.1200000047684,"",,,,,,"{""Q0"":""4""}"
survey-text,51,184522,1649.6749999932945,"",,,,,,"{""Q0"":""5""}"
survey-text,52,186475,1942.670000018552,"",,,,,,"{""Q0"":""4""}"
survey-text,53,188130,1645.2699999790639,"",,,,,,"{""Q0"":""1""}"
survey-text,54,189645,1506.0250000096858,"",,,,,,"{""Q0"":""3""}"
survey-text,55,192202,2546.894999919459,"",,,,,,"{""Q0"":""happy""}"
survey-text,56,196636,4422.4050000775605,"",,,,,,"{""Q0"":""scared""}"
survey-text,57,198800,2155.1849998068064,"",,,,,,"{""Q0"":""smart ""}"
survey-text,58,204190,5379.325000103563,"",,,,,,"{""Q0"":""fearful""}"
survey-text,59,217725,13527.229999890551,"",,,,,,"{""Q0"":""tired""}"
survey-text,60,352051,134315.94499992207,"",,,,,,"{""Q0"":""scared""}"
html-keyboard-response,61,357290,5235.72999984026,"<p>We will now begin the experiment!<p><p>Please try to remember all words from each list.<p><p>Press the spacebar whenever you see a red square.<p><p><p><p>Press the spacebar to begin.</p>",32,,,,,""
html-keyboard-response,62,359996,2189.6399999968708,"<div style=""font-size:48px;"">Press any key to begin list 1 of 24 </div>",32,,,,,""
html-keyboard-response,63,362521,null,"<div style=""font-size:60px;"">+</div>",null,,,,,""
html-keyboard-response,64,363038,null,"NICKEL<img id = ""stim"" ><div class = green_square id = ""topsquare"" ></div><img id = ""stim"" ><div class = green_square  id = ""bottomsquare"" ></div>",null,word_square,0,SPACEBAR,,""
html-keyboard-response,65,364542,null,"NICKEL",null,word,,, 'NICKEL',""
html-keyboard-response,66,365056,null,"FIREPLACE<img id = ""stim"" ><div class = green_square id = ""topsquare"" ></div><img id = ""stim"" ><div class = green_square  id = ""bottomsquare"" ></div>",null,word_square,0,SPACEBAR,,""
html-keyboard-response,67,366559,null,"FIREPLACE",null,word,,, 'FIREPLACE',""
html-keyboard-response,68,367063,null,"ROCKET<img id = ""stim"" ><div class = red_square id = ""topsquare"" ></div><img id = ""stim"" ><div class = red_square  id = ""bottomsquare"" ></div>",null,word_square,1,SPACEBAR,,""
html-keyboard-response,69,368573,null,"ROCKET",null,word,,, 'ROCKET',""
html-keyboard-response,70,369086,null,"MOTEL<img id = ""stim"" ><div class = green_square id = ""topsquare"" ></div><img id = ""stim"" ><div class = green_square  id = ""bottomsquare"" ></div>",null,word_square,0,SPACEBAR,,""
html-keyboard-response,71,370597,null,"MOTEL",null,word,,, 'MOTEL',""
html-keyboard-response,72,371114,null,"DUNGEON<img id = ""stim"" ><div class = green_square id = ""topsquare"" ></div><img id = ""stim"" ><div class = green_square  id = ""bottomsquare"" ></div>",null,word_square,0,SPACEBAR,,""
html-keyboard-response,73,372626,null,"DUNGEON",null,word,,, 'DUNGEON',""
html-keyboard-response,74,373091,463.844999903813,"ELK<img id = ""stim"" ><div class = red_square id = ""topsquare"" ></div><img id = ""stim"" ><div class = red_square  id = ""bottomsquare"" ></div>",32,word_square,1,SPACEBAR,,""
html-keyboard-response,75,374600,null,"ELK",null,word,,, 'ELK',""
html-keyboard-response,76,375086,485.13499996624887,"GRIZZLY<img id = ""stim"" ><div class = red_square id = ""topsquare"" ></div><img id = ""stim"" ><div class = red_square  id = ""bottomsquare"" ></div>",32,word_square,1,SPACEBAR,,""
html-keyboard-response,77,376611,null,"GRIZZLY",null,word,,, 'GRIZZLY',""
html-keyboard-response,78,377140,null,"RADISH<img id = ""stim"" ><div class = green_square id = ""topsquare"" ></div><img id = ""stim"" ><div class = green_square  id = ""bottomsquare"" ></div>",null,word_square,0,SPACEBAR,,""
html-keyboard-response,79,378657,null,"RADISH",null,word,,, 'RADISH',""
html-keyboard-response,80,379029,370.5100000370294,"MATCH<img id = ""stim"" ><div class = red_square id = ""topsquare"" ></div><img id = ""stim"" ><div class = red_square  id = ""bottomsquare"" ></div>",32,word_square,1,SPACEBAR,,""
html-keyboard-response,81,380543,null,"MATCH",null,word,,, 'MATCH',""
html-keyboard-response,82,381055,null,"FIREMAN<img id = ""stim"" ><div class = green_square id = ""topsquare"" ></div><img id = ""stim"" ><div class = green_square  id = ""bottomsquare"" ></div>",null,word_square,0,SPACEBAR,,""
html-keyboard-response,83,382585,null,"FIREMAN",null,word,,, 'FIREMAN',""
html-keyboard-response,84,383100,null,"TRANSPLANT<img id = ""stim"" ><div class = green_square id = ""topsquare"" ></div><img id = ""stim"" ><div class = green_square  id = ""bottomsquare"" ></div>",null,word_square,0,SPACEBAR,,""
html-keyboard-response,85,384613,null,"TRANSPLANT",null,word,,, 'TRANSPLANT',""
html-keyboard-response,86,385066,451.88000006601214,"GARBAGE<img id = ""stim"" ><div class = red_square id = ""topsquare"" ></div><img id = ""stim"" ><div class = red_square  id = ""bottomsquare"" ></div>",32,word_square,1,SPACEBAR,,""
html-keyboard-response,87,386574,null,"GARBAGE",null,word,,, 'GARBAGE',""
html-keyboard-response,88,387083,null,"FILM<img id = ""stim"" ><div class = green_square id = ""topsquare"" ></div><img id = ""stim"" ><div class = green_square  id = ""bottomsquare"" ></div>",null,word_square,0,SPACEBAR,,""
html-keyboard-response,89,388589,null,"FILM",null,word,,, 'FILM',""
html-keyboard-response,90,388944,353.4550000913441,"DRIVEWAY<img id = ""stim"" ><div class = red_square id = ""topsquare"" ></div><img id = ""stim"" ><div class = red_square  id = ""bottomsquare"" ></div>",32,word_square,1,SPACEBAR,,""
html-keyboard-response,91,390455,null,"DRIVEWAY",null,word,,, 'DRIVEWAY',""
html-keyboard-response,92,390970,null,"FUNGUS<img id = ""stim"" ><div class = green_square id = ""topsquare"" ></div><img id = ""stim"" ><div class = green_square  id = ""bottomsquare"" ></div>",null,word_square,0,SPACEBAR,,""
html-keyboard-response,93,392478,null,"FUNGUS",null,word,,, 'FUNGUS',""
html-keyboard-response,94,392771,291.66000010445714,"RAFT<img id = ""stim"" ><div class = red_square id = ""topsquare"" ></div><img id = ""stim"" ><div class = red_square  id = ""bottomsquare"" ></div>",32,word_square,1,SPACEBAR,,""
html-keyboard-response,95,394289,null,"RAFT",null,word,,, 'RAFT',""
html-keyboard-response,96,394606,314.82999981381,"PORTRAIT<img id = ""stim"" ><div class = red_square id = ""topsquare"" ></div><img id = ""stim"" ><div class = red_square  id = ""bottomsquare"" ></div>",32,word_square,1,SPACEBAR,,""
html-keyboard-response,97,396109,null,"PORTRAIT",null,word,,, 'PORTRAIT',""
html-keyboard-response,98,396504,391.86000009067357,"CATTLE<img id = ""stim"" ><div class = red_square id = ""topsquare"" ></div><img id = ""stim"" ><div class = red_square  id = ""bottomsquare"" ></div>",32,word_square,1,SPACEBAR,,""
html-keyboard-response,99,398015,null,"CATTLE",null,word,,, 'CATTLE',""
survey-text,100,401445,3420.4400000162423,"",,,,,,"{""Q0"":""2""}"
survey-text,101,403008,1554.0599999949336,"",,,,,,"{""Q0"":""1""}"
survey-text,102,404878,1860.2450001053512,"",,,,,,"{""Q0"":""3""}"
survey-text,103,406522,1636.3249998539686,"",,,,,,"{""Q0"":""3""}"
survey-text,104,407977,1443.2350001297891,"",,,,,,"{""Q0"":""5""}"
survey-text,105,409246,1261.0700000077486,"",,,,,,"{""Q0"":""1""}"
survey-text,106,410654,1399.5550000108778,"",,,,,,"{""Q0"":""2""}"
survey-text,107,411822,1156.554999994114,"",,,,,,"{""Q0"":""3""}"
survey-text,108,413058,1227.6550000533462,"",,,,,,"{""Q0"":""3""}"
survey-text,109,415169,2102.6500000152737,"",,,,,,"{""Q0"":""1""}"
survey-text,110,416627,1449.019999941811,"",,,,,,"{""Q0"":""5""}"
survey-text,111,417739,1103.1049999874085,"",,,,,,"{""Q0"":""3""}"
survey-text,112,420224,2478.015000000596,"",,,,,,"{""Q0"":""2""}"
survey-text,113,421461,1226.5699999406934,"",,,,,,"{""Q0"":""2""}"
survey-text,114,422903,1432.730000000447,"",,,,,,"{""Q0"":""1""}"
survey-text,115,425216,2303.8649999070913,"",,,,,,"{""Q0"":""hotel ""}"
survey-text,116,426946,1721.0900001227856,"",,,,,,"{""Q0"":""driveway""}"
survey-text,117,428271,1314.5350001286715,"",,,,,,"{""Q0"":""nickel""}"
survey-text,118,431695,3415.485000004992,"",,,,,,"{""Q0"":""fireman""}"
survey-text,119,440290,8585.075000068173,"",,,,,,"{""Q0"":""bear""}"
survey-text,120,477274,36973.6349999439,"",,,,,,"{""Q0"":""fearful""}"
survey-text,121,516900,39616.38000002131,"",,,,,,"{""Q0"":""time""}"
html-keyboard-response,122,518469,1562.9549999721348,"<div style=""font-size:48px;"">Press any key to begin list 2 of 24 </div>",13,,,,,""
html-keyboard-response,123,520982,null,"<div style=""font-size:60px;"">+</div>",null,,,,,""
html-keyboard-response,124,521443,459.89500009454787,"CONVICT<img id = ""stim"" ><div class = green_square id = ""topsquare"" ></div><img id = ""stim"" ><div class = green_square  id = ""bottomsquare"" ></div>",32,word_square,0,SPACEBAR,,""
html-keyboard-response,125,522950,null,"CONVICT",null,word,,, 'CONVICT',""
html-keyboard-response,126,523339,387.6600000075996,"OUTLAW<img id = ""stim"" ><div class = green_square id = ""topsquare"" ></div><img id = ""stim"" ><div class = green_square  id = ""bottomsquare"" ></div>",32,word_square,0,SPACEBAR,,""
html-keyboard-response,127,524843,null,"OUTLAW",null,word,,, 'OUTLAW',""
html-keyboard-response,128,525346,null,"COUGAR<img id = ""stim"" ><div class = red_square id = ""topsquare"" ></div><img id = ""stim"" ><div class = red_square  id = ""bottomsquare"" ></div>",null,word_square,1,SPACEBAR,,""
html-keyboard-response,129,526856,null,"COUGAR",null,word,,, 'COUGAR',""
html-keyboard-response,130,527227,369.65499981306493,"BOX<img id = ""stim"" ><div class = green_square id = ""topsquare"" ></div><img id = ""stim"" ><div class = green_square  id = ""bottomsquare"" ></div>",32,word_square,0,SPACEBAR,,""
html-keyboard-response,131,528740,null,"BOX",null,word,,, 'BOX',""
html-keyboard-response,132,529257,null,"TRIBE<img id = ""stim"" ><div class = green_square id = ""topsquare"" ></div><img id = ""stim"" ><div class = green_square  id = ""bottomsquare"" ></div>",null,word_square,0,SPACEBAR,,""
html-keyboard-response,133,530768,null,"TRIBE",null,word,,, 'TRIBE',""
html-keyboard-response,134,531184,414.3950000870973,"GIRL<img id = ""stim"" ><div class = red_square id = ""topsquare"" ></div><img id = ""stim"" ><div class = red_square  id = ""bottomsquare"" ></div>",32,word_square,1,SPACEBAR,,""
html-keyboard-response,135,532701,null,"GIRL",null,word,,, 'GIRL',""
html-keyboard-response,136,533176,473.7899999599904,"SHERIFF<img id = ""stim"" ><div class = red_square id = ""topsquare"" ></div><img id = ""stim"" ><div class = red_square  id = ""bottomsquare"" ></div>",32,word_square,1,SPACEBAR,,""
html-keyboard-response,137,534683,null,"SHERIFF",null,word,,, 'SHERIFF',""
html-keyboard-response,138,535199,null,"SENATE<img id = ""stim"" ><div class = green_square id = ""topsquare"" ></div><img id = ""stim"" ><div class = green_square  id = ""bottomsquare"" ></div>",null,word_square,0,SPACEBAR,,""
html-keyboard-response,139,536711,null,"SENATE",null,word,,, 'SENATE',""
html-keyboard-response,140,537015,302.3449999745935,"KEEPER<img id = ""stim"" ><div class = red_square id = ""topsquare"" ></div><img id = ""stim"" ><div class = red_square  id = ""bottomsquare"" ></div>",32,word_square,1,SPACEBAR,,""
html-keyboard-response,141,538530,null,"KEEPER",null,word,,, 'KEEPER',""
html-keyboard-response,142,539035,null,"DONOR<img id = ""stim"" ><div class = green_square id = ""topsquare"" ></div><img id = ""stim"" ><div class = green_square  id = ""bottomsquare"" ></div>",null,word_square,0,SPACEBAR,,""
html-keyboard-response,143,540538,null,"DONOR",null,word,,, 'DONOR',""
html-keyboard-response,144,541045,null,"MASK<img id = ""stim"" ><div class = green_square id = ""topsquare"" ></div><img id = ""stim"" ><div class = green_square  id = ""bottomsquare"" ></div>",null,word_square,0,SPACEBAR,,""
html-keyboard-response,145,542558,null,"MASK",null,word,,, 'MASK',""
html-keyboard-response,146,542994,433.96000005304813,"SCARF<img id = ""stim"" ><div class = red_square id = ""topsquare"" ></div><img id = ""stim"" ><div class = red_square  id = ""bottomsquare"" ></div>",32,word_square,1,SPACEBAR,,""
html-keyboard-response,147,544498,null,"SCARF",null,word,,, 'SCARF',""
html-keyboard-response,148,545015,null,"CRADLE<img id = ""stim"" ><div class = green_square id = ""topsquare"" ></div><img id = ""stim"" ><div class = green_square  id = ""bottomsquare"" ></div>",null,word_square,0,SPACEBAR,,""
html-keyboard-response,149,546518,null,"CRADLE",null,word,,, 'CRADLE',""
html-keyboard-response,150,546986,466.52000001631677,"BRAKE<img id = ""stim"" ><div class = red_square id = ""topsquare"" ></div><img id = ""stim"" ><div class = red_square  id = ""bottomsquare"" ></div>",32,word_square,1,SPACEBAR,,""
html-keyboard-response,151,548503,null,"BRAKE",null,word,,, 'BRAKE',""
html-keyboard-response,152,549017,null,"FIST<img id = ""stim"" ><div class = green_square id = ""topsquare"" ></div><img id = ""stim"" ><div class = green_square  id = ""bottomsquare"" ></div>",null,word_square,0,SPACEBAR,,""
html-keyboard-response,153,550532,null,"FIST",null,word,,, 'FIST',""
html-keyboard-response,154,550889,355.25999986566603,"HONEY<img id = ""stim"" ><div class = red_square id = ""topsquare"" ></div><img id = ""stim"" ><div class = red_square  id = ""bottomsquare"" ></div>",32,word_square,1,SPACEBAR,,""
html-keyboard-response,155,552402,null,"HONEY",null,word,,, 'HONEY',""
html-keyboard-response,156,552795,391.16499992087483,"HORNET<img id = ""stim"" ><div class = red_square id = ""topsquare"" ></div><img id = ""stim"" ><div class = red_square  id = ""bottomsquare"" ></div>",32,word_square,1,SPACEBAR,,""
html-keyboard-response,157,554306,null,"HORNET",null,word,,, 'HORNET',""
html-keyboard-response,158,554783,475.2050000242889,"BADGE<img id = ""stim"" ><div class = red_square id = ""topsquare"" ></div><img id = ""stim"" ><div class = red_square  id = ""bottomsquare"" ></div>",32,word_square,1,SPACEBAR,,""
html-keyboard-response,159,556291,null,"BADGE",null,word,,, 'BADGE',""
survey-text,160,558766,2465.40499990806,"",,,,,,"{""Q0"":""2""}"
survey-text,161,559640,864.6650000009686,"",,,,,,"{""Q0"":""2""}"
survey-text,162,561157,1508.3099999465048,"",,,,,,"{""Q0"":""4""}"
survey-text,163,562891,1721.855000127107,"",,,,,,"{""Q0"":""2""}"
survey-text,164,564065,1162.914999993518,"",,,,,,"{""Q0"":""6""}"
survey-text,165,565466,1392.2399999573827,"",,,,,,"{""Q0"":""1""}"
survey-text,166,566379,905.009999871254,"",,,,,,"{""Q0"":""3""}"
survey-text,167,567612,1222.6950000040233,"",,,,,,"{""Q0"":""2""}"
survey-text,168,568944,1323.0800000019372,"",,,,,,"{""Q0"":""2""}"
survey-text,169,569734,780.1350001245737,"",,,,,,"{""Q0"":""2""}"
survey-text,170,571592,1848.689999897033,"",,,,,,"{""Q0"":""5""}"
survey-text,171,573282,1680.930000031367,"",,,,,,"{""Q0"":""1""}"
survey-text,172,574527,1235.5500000994653,"",,,,,,"{""Q0"":""1""}"
survey-text,173,575509,973.340000025928,"",,,,,,"{""Q0"":""1""}"
survey-text,174,577943,2423.4400000423193,"",,,,,,"{""Q0"":""4""}"
survey-text,175,579511,1557.4950000736862,"",,,,,,"{""Q0"":""2""}"
survey-text,176,580703,1184.4599999021739,"",,,,,,"{""Q0"":""5""}"
survey-text,177,582980,2267.364999977872,"",,,,,,"{""Q0"":""convic""}"
survey-text,178,586268,3279.605000047013,"",,,,,,"{""Q0"":""convict""}"
survey-text,179,587761,1483.8449999224395,"",,,,,,"{""Q0"":""outlaw""}"
survey-text,180,591731,3961.179999867454,"",,,,,,"{""Q0"":""sheriff ""}"
survey-text,181,593459,1718.5949999839067,"",,,,,,"{""Q0"":""mask""}"
survey-text,182,596029,2561.4400000777096,"",,,,,,"{""Q0"":""scarf""}"
survey-text,183,598283,2244.1849999595433,"",,,,,,"{""Q0"":""badge""}"
survey-text,184,602634,4341.554999817163,"",,,,,,"{""Q0"":""keeper ""}"
survey-text,185,613357,10712.569999974221,"",,,,,,"{""Q0"":""vai;""}"
survey-text,186,615768,2400.8349999785423,"",,,,,,"{""Q0"":""vail""}"
survey-text,187,642657,26879.419999895617,"",,,,,,"{""Q0"":""tiem""}"
survey-text,188,648227,5560.554999858141,"",,,,,,"{""Q0"":"".""}"
survey-text,189,713610,65372.22500005737,"",,,,,,"{""Q0"":"".""}"
html-keyboard-response,190,714404,788.4400000330061,"<div style=""font-size:48px;"">Press any key to begin list 3 of 24 </div>",13,,,,,""
html-keyboard-response,191,716925,null,"<div style=""font-size:60px;"">+</div>",null,,,,,""
html-keyboard-response,192,717428,null,"JUNGLE<img id = ""stim"" ><div class = red_square id = ""topsquare"" ></div><img id = ""stim"" ><div class = red_square  id = ""bottomsquare"" ></div>",null,word_square,1,SPACEBAR,,""
html-keyboard-response,193,718939,null,"JUNGLE",null,word,,, 'JUNGLE',""
html-keyboard-response,194,719191,250.25999988429248,"PRIMATE<img id = ""stim"" ><div class = red_square id = ""topsquare"" ></div><img id = ""stim"" ><div class = red_square  id = ""bottomsquare"" ></div>",32,word_square,1,SPACEBAR,,""
html-keyboard-response,195,720703,null,"PRIMATE",null,word,,, 'PRIMATE',""
html-keyboard-response,196,721208,null,"CLIMBER<img id = ""stim"" ><div class = green_square id = ""topsquare"" ></div><img id = ""stim"" ><div class = green_square  id = ""bottomsquare"" ></div>",null,word_square,0,SPACEBAR,,""
html-keyboard-response,197,722726,null,"CLIMBER",null,word,,, 'CLIMBER',""
html-keyboard-response,198,723232,null,"SUMMIT<img id = ""stim"" ><div class = red_square id = ""topsquare"" ></div><img id = ""stim"" ><div class = red_square  id = ""bottomsquare"" ></div>",null,word_square,1,SPACEBAR,,""
html-keyboard-response,199,724744,null,"SUMMIT",null,word,,, 'SUMMIT',""
html-keyboard-response,200,725251,null,"FLESH<img id = ""stim"" ><div class = red_square id = ""topsquare"" ></div><img id = ""stim"" ><div class = red_square  id = ""bottomsquare"" ></div>",null,word_square,1,SPACEBAR,,""
html-keyboard-response,201,726761,null,"FLESH",null,word,,, 'FLESH',""
html-keyboard-response,202,727266,null,"QUAIL<img id = ""stim"" ><div class = green_square id = ""topsquare"" ></div><img id = ""stim"" ><div class = green_square  id = ""bottomsquare"" ></div>",null,word_square,0,SPACEBAR,,""
html-keyboard-response,203,728774,null,"QUAIL",null,word,,, 'QUAIL',""
html-keyboard-response,204,729277,null,"STRING<img id = ""stim"" ><div class = green_square id = ""topsquare"" ></div><img id = ""stim"" ><div class = green_square  id = ""bottomsquare"" ></div>",null,word_square,0,SPACEBAR,,""
html-keyboard-response,205,730780,null,"STRING",null,word,,, 'STRING',""
html-keyboard-response,206,731229,446.3349999859929,"POSTAGE<img id = ""stim"" ><div class = red_square id = ""topsquare"" ></div><img id = ""stim"" ><div class = red_square  id = ""bottomsquare"" ></div>",32,word_square,1,SPACEBAR,,""
html-keyboard-response,207,732740,null,"POSTAGE",null,word,,, 'POSTAGE',""
html-keyboard-response,208,733244,null,"ARTIST<img id = ""stim"" ><div class = green_square id = ""topsquare"" ></div><img id = ""stim"" ><div class = green_square  id = ""bottomsquare"" ></div>",null,word_square,0,SPACEBAR,,""
html-keyboard-response,209,734756,null,"ARTIST",null,word,,, 'ARTIST',""
html-keyboard-response,210,735133,375.8549999911338,"SHOULDER<img id = ""stim"" ><div class = red_square id = ""topsquare"" ></div><img id = ""stim"" ><div class = red_square  id = ""bottomsquare"" ></div>",32,word_square,1,SPACEBAR,,""
html-keyboard-response,211,736646,null,"SHOULDER",null,word,,, 'SHOULDER',""
html-keyboard-response,212,736986,338.2300001103431,"GARAGE<img id = ""stim"" ><div class = red_square id = ""topsquare"" ></div><img id = ""stim"" ><div class = red_square  id = ""bottomsquare"" ></div>",32,word_square,1,SPACEBAR,,""
html-keyboard-response,213,738504,null,"GARAGE",null,word,,, 'GARAGE',""
html-keyboard-response,214,739022,null,"PUPPY<img id = ""stim"" ><div class = green_square id = ""topsquare"" ></div><img id = ""stim"" ><div class = green_square  id = ""bottomsquare"" ></div>",null,word_square,0,SPACEBAR,,""
html-keyboard-response,215,740535,null,"PUPPY",null,word,,, 'PUPPY',""
html-keyboard-response,216,740778,241.11000006087124,"MONEY<img id = ""stim"" ><div class = red_square id = ""topsquare"" ></div><img id = ""stim"" ><div class = red_square  id = ""bottomsquare"" ></div>",32,word_square,1,SPACEBAR,,""
html-keyboard-response,217,742286,null,"MONEY",null,word,,, 'MONEY',""
html-keyboard-response,218,742801,null,"DRILL<img id = ""stim"" ><div class = green_square id = ""topsquare"" ></div><img id = ""stim"" ><div class = green_square  id = ""bottomsquare"" ></div>",null,word_square,0,SPACEBAR,,""
html-keyboard-response,219,744317,null,"DRILL",null,word,,, 'DRILL',""
html-keyboard-response,220,744567,247.87000007927418,"BLUEPRINT<img id = ""stim"" ><div class = red_square id = ""topsquare"" ></div><img id = ""stim"" ><div class = red_square  id = ""bottomsquare"" ></div>",32,word_square,1,SPACEBAR,,""
html-keyboard-response,221,746078,null,"BLUEPRINT",null,word,,, 'BLUEPRINT',""
html-keyboard-response,222,746582,null,"COURSE<img id = ""stim"" ><div class = green_square id = ""topsquare"" ></div><img id = ""stim"" ><div class = green_square  id = ""bottomsquare"" ></div>",null,word_square,0,SPACEBAR,,""
html-keyboard-response,223,748094,null,"COURSE",null,word,,, 'COURSE',""
html-keyboard-response,224,748598,null,"MAILBOX<img id = ""stim"" ><div class = green_square id = ""topsquare"" ></div><img id = ""stim"" ><div class = green_square  id = ""bottomsquare"" ></div>",null,word_square,0,SPACEBAR,,""
html-keyboard-response,225,750105,null,"MAILBOX",null,word,,, 'MAILBOX',""
html-keyboard-response,226,750609,null,"HAND<img id = ""stim"" ><div class = green_square id = ""topsquare"" ></div><img id = ""stim"" ><div class = green_square  id = ""bottomsquare"" ></div>",null,word_square,0,SPACEBAR,,""
html-keyboard-response,227,752124,null,"HAND",null,word,,, 'HAND',""
survey-text,228,753715,1581.9099999498576,"",,,,,,"{""Q0"":""3""}"
survey-text,229,754755,1029.3099998962134,"",,,,,,"{""Q0"":""5""}"
survey-text,230,755982,1216.7950000148267,"",,,,,,"{""Q0"":""2""}"
survey-text,231,757458,1461.6350000724196,"",,,,,,"{""Q0"":""2""}"
survey-text,232,760134,2668.0699998978525,"",,,,,,"{""Q0"":""4""}"
survey-text,233,761147,1004.4250001665205,"",,,,,,"{""Q0"":""4""}"
survey-text,234,761973,815.2649998664856,"",,,,,,"{""Q0"":""3""}"
survey-text,235,763122,1141.560000134632,"",,,,,,"{""Q0"":""1""}"
survey-text,236,764467,1336.559999966994,"",,,,,,"{""Q0"":""1""}"
survey-text,237,765845,1369.145000120625,"",,,,,,"{""Q0"":""3""}"
survey-text,238,767005,1149.6749999932945,"",,,,,,"{""Q0"":""5""}"
survey-text,239,768245,1232.035000110045,"",,,,,,"{""Q0"":""2""}"
survey-text,240,769391,1136.9249999988824,"",,,,,,"{""Q0"":""5""}"
survey-text,241,770420,1020.2899998985231,"",,,,,,"{""Q0"":""4""}"
survey-text,242,771445,1018.184999935329,"",,,,,,"{""Q0"":""5""}"
survey-text,243,772598,1145.3350000083447,"",,,,,,"{""Q0"":""5""}"
survey-text,244,773760,1153.2699998933822,"",,,,,,"{""Q0"":""2""}"
survey-text,245,774971,1202.4400001391768,"",,,,,,"{""Q0"":""5""}"
survey-text,246,776129,1148.9250001031905,"",,,,,,"{""Q0"":""4""}"
survey-text,247,779418,3281.8449998740107,"",,,,,,"{""Q0"":""jungle ""}"
survey-text,248,781195,1766.4799999911338,"",,,,,,"{""Q0"":""primate""}"
survey-text,249,783764,2559.624999994412,"",,,,,,"{""Q0"":""cliber""}"
survey-text,250,788339,4566.285000182688,"",,,,,,"{""Q0"":""drill""}"
survey-text,251,791202,2853.1700000166893,"",,,,,,"{""Q0"":""blueprint""}"
survey-text,252,794964,3753.8699998985976,"",,,,,,"{""Q0"":""summit""}"
survey-text,253,895551,100579.67000012286,"",,,,,,"{""Q0"":"".""}"
html-keyboard-response,254,904982,9429.245000006631,"<div style=""font-size:48px;"">Press any key to begin list 4 of 24 </div>",32,,,,,""
html-keyboard-response,255,907499,null,"<div style=""font-size:60px;"">+</div>",null,,,,,""
html-keyboard-response,256,908013,512.4300001189113,"PONY<img id = ""stim"" ><div class = red_square id = ""topsquare"" ></div><img id = ""stim"" ><div class = red_square  id = ""bottomsquare"" ></div>",32,word_square,1,SPACEBAR,,""
html-keyboard-response,257,909515,null,"PONY",null,word,,, 'PONY',""
html-keyboard-response,258,909884,367.84500000067055,"FREEZER<img id = ""stim"" ><div class = red_square id = ""topsquare"" ></div><img id = ""stim"" ><div class = red_square  id = ""bottomsquare"" ></div>",32,word_square,1,SPACEBAR,,""
html-keyboard-response,259,911390,null,"FREEZER",null,word,,, 'FREEZER',""
html-keyboard-response,260,911893,null,"SHELF<img id = ""stim"" ><div class = green_square id = ""topsquare"" ></div><img id = ""stim"" ><div class = green_square  id = ""bottomsquare"" ></div>",null,word_square,0,SPACEBAR,,""
html-keyboard-response,261,913402,null,"SHELF",null,word,,, 'SHELF',""
html-keyboard-response,262,913774,370.49500015564263,"ELBOW<img id = ""stim"" ><div class = red_square id = ""topsquare"" ></div><img id = ""stim"" ><div class = red_square  id = ""bottomsquare"" ></div>",32,word_square,1,SPACEBAR,,""
html-keyboard-response,263,915282,null,"ELBOW",null,word,,, 'ELBOW',""
html-keyboard-response,264,915754,470.8849999587983,"GODDESS<img id = ""stim"" ><div class = red_square id = ""topsquare"" ></div><img id = ""stim"" ><div class = red_square  id = ""bottomsquare"" ></div>",32,word_square,1,SPACEBAR,,""
html-keyboard-response,265,917268,null,"GODDESS",null,word,,, 'GODDESS',""
html-keyboard-response,266,917771,null,"PITCHFORK<img id = ""stim"" ><div class = green_square id = ""topsquare"" ></div><img id = ""stim"" ><div class = green_square  id = ""bottomsquare"" ></div>",null,word_square,0,SPACEBAR,,""
html-keyboard-response,267,919275,null,"PITCHFORK",null,word,,, 'PITCHFORK',""
html-keyboard-response,268,919789,null,"CLAMP<img id = ""stim"" ><div class = green_square id = ""topsquare"" ></div><img id = ""stim"" ><div class = green_square  id = ""bottomsquare"" ></div>",null,word_square,0,SPACEBAR,,""
html-keyboard-response,269,921293,null,"CLAMP",null,word,,, 'CLAMP',""
html-keyboard-response,270,921723,429.23000012524426,"LIZARD<img id = ""stim"" ><div class = red_square id = ""topsquare"" ></div><img id = ""stim"" ><div class = red_square  id = ""bottomsquare"" ></div>",32,word_square,1,SPACEBAR,,""
html-keyboard-response,271,923231,null,"LIZARD",null,word,,, 'LIZARD',""
html-keyboard-response,272,923733,null,"POISON<img id = ""stim"" ><div class = green_square id = ""topsquare"" ></div><img id = ""stim"" ><div class = green_square  id = ""bottomsquare"" ></div>",null,word_square,0,SPACEBAR,,""
html-keyboard-response,273,925247,null,"POISON",null,word,,, 'POISON',""
html-keyboard-response,274,925751,null,"OUTFIT<img id = ""stim"" ><div class = red_square id = ""topsquare"" ></div><img id = ""stim"" ><div class = red_square  id = ""bottomsquare"" ></div>",null,word_square,1,SPACEBAR,,""
html-keyboard-response,275,927268,null,"OUTFIT",null,word,,, 'OUTFIT',""
html-keyboard-response,276,927741,472.03500010073185,"PIGEON<img id = ""stim"" ><div class = red_square id = ""topsquare"" ></div><img id = ""stim"" ><div class = red_square  id = ""bottomsquare"" ></div>",32,word_square,1,SPACEBAR,,""
html-keyboard-response,277,929250,null,"PIGEON",null,word,,, 'PIGEON',""
html-keyboard-response,278,929767,null,"TURKEY<img id = ""stim"" ><div class = green_square id = ""topsquare"" ></div><img id = ""stim"" ><div class = green_square  id = ""bottomsquare"" ></div>",null,word_square,0,SPACEBAR,,""
html-keyboard-response,279,931284,null,"TURKEY",null,word,,, 'TURKEY',""
html-keyboard-response,280,931616,331.0499999206513,"LADDER<img id = ""stim"" ><div class = red_square id = ""topsquare"" ></div><img id = ""stim"" ><div class = red_square  id = ""bottomsquare"" ></div>",32,word_square,1,SPACEBAR,,""
html-keyboard-response,281,933127,null,"LADDER",null,word,,, 'LADDER',""
html-keyboard-response,282,933630,null,"CAFE<img id = ""stim"" ><div class = green_square id = ""topsquare"" ></div><img id = ""stim"" ><div class = green_square  id = ""bottomsquare"" ></div>",null,word_square,0,SPACEBAR,,""
html-keyboard-response,283,935145,null,"CAFE",null,word,,, 'CAFE',""
html-keyboard-response,284,935478,331.95500005967915,"COOKBOOK<img id = ""stim"" ><div class = red_square id = ""topsquare"" ></div><img id = ""stim"" ><div class = red_square  id = ""bottomsquare"" ></div>",32,word_square,1,SPACEBAR,,""
html-keyboard-response,285,936988,null,"COOKBOOK",null,word,,, 'COOKBOOK',""
html-keyboard-response,286,937489,null,"CLOSET<img id = ""stim"" ><div class = green_square id = ""topsquare"" ></div><img id = ""stim"" ><div class = green_square  id = ""bottomsquare"" ></div>",null,word_square,0,SPACEBAR,,""
html-keyboard-response,287,939001,null,"CLOSET",null,word,,, 'CLOSET',""
html-keyboard-response,288,939510,null,"CRATER<img id = ""stim"" ><div class = green_square id = ""topsquare"" ></div><img id = ""stim"" ><div class = green_square  id = ""bottomsquare"" ></div>",null,word_square,0,SPACEBAR,,""
html-keyboard-response,289,941020,null,"CRATER",null,word,,, 'CRATER',""
html-keyboard-response,290,941523,null,"VALLEY<img id = ""stim"" ><div class = green_square id = ""topsquare"" ></div><img id = ""stim"" ><div class = green_square  id = ""bottomsquare"" ></div>",null,word_square,0,SPACEBAR,,""
html-keyboard-response,291,943038,null,"VALLEY",null,word,,, 'VALLEY',""
survey-text,292,944863,1818.6649999115616,"",,,,,,"{""Q0"":""4""}"
survey-text,293,946254,1382.2800000198185,"",,,,,,"{""Q0"":""5""}"
survey-text,294,947169,908.0349998548627,"",,,,,,"{""Q0"":""4""}"
survey-text,295,948131,955.0749999471009,"",,,,,,"{""Q0"":""2""}"
survey-text,296,949176,1039.460000116378,"",,,,,,"{""Q0"":""4""}"
survey-text,297,950158,973.2800000347197,"",,,,,,"{""Q0"":""2""}"
survey-text,298,951470,1306.6950000356883,"",,,,,,"{""Q0"":""2""}"
survey-text,299,952811,1334.559999871999,"",,,,,,"{""Q0"":""4""}"
survey-text,300,953767,950.8250001817942,"",,,,,,"{""Q0"":""4""}"
survey-text,301,955031,1257.329999934882,"",,,,,,"{""Q0"":""4""}"
survey-text,302,956079,1041.359999915585,"",,,,,,"{""Q0"":""4""}"
survey-text,303,957529,1443.425000179559,"",,,,,,"{""Q0"":""2""}"
survey-text,304,958475,939.2750000115484,"",,,,,,"{""Q0"":""3""}"
survey-text,305,959910,1428.0199999921024,"",,,,,,"{""Q0"":""1""}"
survey-text,306,961467,1551.7599999438971,"",,,,,,"{""Q0"":""2""}"
survey-text,307,962811,1336.959999985993,"",,,,,,"{""Q0"":""2""}"
survey-text,308,963838,1020.6049999687821,"",,,,,,"{""Q0"":""3""}"
survey-text,309,965593,1747.6749999914318,"",,,,,,"{""Q0"":""5""}"
survey-text,310,967056,1455.5649999529123,"",,,,,,"{""Q0"":""1""}"
survey-text,311,970625,3561.489999992773,"",,,,,,"{""Q0"":""pony ""}"
survey-text,312,972785,2153.554999968037,"",,,,,,"{""Q0"":""freezer""}"
survey-text,313,973943,1151.6950000077486,"",,,,,,"{""Q0"":""shelf""}"
survey-text,314,976035,2086.695000063628,"",,,,,,"{""Q0"":""closet""}"
survey-text,315,978706,2661.104999948293,"",,,,,,"{""Q0"":""ladder""}"
survey-text,316,1032678,53958.2549999468,"",,,,,,"{""Q0"":"".""}"
survey-text,317,1049392,16696.024999953806,"",,,,,,"{""Q0"":"".""}"
html-keyboard-response,318,1050329,934.3499999959022,"<div style=""font-size:48px;"">Press any key to begin list 5 of 24 </div>",32,,,,,""
html-keyboard-response,319,1052840,null,"<div style=""font-size:60px;"">+</div>",null,,,,,""
html-keyboard-response,320,1053345,null,"PALACE<img id = ""stim"" ><div class = green_square id = ""topsquare"" ></div><img id = ""stim"" ><div class = green_square  id = ""bottomsquare"" ></div>",null,word_square,0,SPACEBAR,,""
html-keyboard-response,321,1054859,null,"PALACE",null,word,,, 'PALACE',""
html-keyboard-response,322,1055361,null,"MILDEW<img id = ""stim"" ><div class = green_square id = ""topsquare"" ></div><img id = ""stim"" ><div class = green_square  id = ""bottomsquare"" ></div>",null,word_square,0,SPACEBAR,,""
html-keyboard-response,323,1056874,null,"MILDEW",null,word,,, 'MILDEW',""
html-keyboard-response,324,1057208,331.9600000977516,"SLIME<img id = ""stim"" ><div class = red_square id = ""topsquare"" ></div><img id = ""stim"" ><div class = red_square  id = ""bottomsquare"" ></div>",32,word_square,1,SPACEBAR,,""
html-keyboard-response,325,1058716,null,"SLIME",null,word,,, 'SLIME',""
html-keyboard-response,326,1059220,null,"EMPIRE<img id = ""stim"" ><div class = green_square id = ""topsquare"" ></div><img id = ""stim"" ><div class = green_square  id = ""bottomsquare"" ></div>",null,word_square,0,SPACEBAR,,""
html-keyboard-response,327,1060724,null,"EMPIRE",null,word,,, 'EMPIRE',""
html-keyboard-response,328,1061182,456.1399999074638,"STABLE<img id = ""stim"" ><div class = red_square id = ""topsquare"" ></div><img id = ""stim"" ><div class = red_square  id = ""bottomsquare"" ></div>",32,word_square,1,SPACEBAR,,""
html-keyboard-response,329,1062693,null,"STABLE",null,word,,, 'STABLE',""
html-keyboard-response,330,1063207,null,"DRIVER<img id = ""stim"" ><div class = green_square id = ""topsquare"" ></div><img id = ""stim"" ><div class = green_square  id = ""bottomsquare"" ></div>",null,word_square,0,SPACEBAR,,""
html-keyboard-response,331,1064719,null,"DRIVER",null,word,,, 'DRIVER',""
html-keyboard-response,332,1065222,null,"PUMPKIN<img id = ""stim"" ><div class = green_square id = ""topsquare"" ></div><img id = ""stim"" ><div class = green_square  id = ""bottomsquare"" ></div>",null,word_square,0,SPACEBAR,,""
html-keyboard-response,333,1066735,null,"PUMPKIN",null,word,,, 'PUMPKIN',""
html-keyboard-response,334,1067092,356.2000000383705,"MAJOR<img id = ""stim"" ><div class = red_square id = ""topsquare"" ></div><img id = ""stim"" ><div class = red_square  id = ""bottomsquare"" ></div>",32,word_square,1,SPACEBAR,,""
html-keyboard-response,335,1068604,null,"MAJOR",null,word,,, 'MAJOR',""
html-keyboard-response,336,1069107,null,"SPIDER<img id = ""stim"" ><div class = green_square id = ""topsquare"" ></div><img id = ""stim"" ><div class = green_square  id = ""bottomsquare"" ></div>",null,word_square,0,SPACEBAR,,""
html-keyboard-response,337,1070612,null,"SPIDER",null,word,,, 'SPIDER',""
html-keyboard-response,338,1071109,495.24500011466444,"PASTRY<img id = ""stim"" ><div class = red_square id = ""topsquare"" ></div><img id = ""stim"" ><div class = red_square  id = ""bottomsquare"" ></div>",32,word_square,1,SPACEBAR,,""
html-keyboard-response,339,1072624,null,"PASTRY",null,word,,, 'PASTRY',""
html-keyboard-response,340,1073141,null,"DRAWING<img id = ""stim"" ><div class = green_square id = ""topsquare"" ></div><img id = ""stim"" ><div class = green_square  id = ""bottomsquare"" ></div>",null,word_square,0,SPACEBAR,,""
html-keyboard-response,341,1074653,null,"DRAWING",null,word,,, 'DRAWING',""
html-keyboard-response,342,1074975,320.46500011347234,"FRAME<img id = ""stim"" ><div class = red_square id = ""topsquare"" ></div><img id = ""stim"" ><div class = red_square  id = ""bottomsquare"" ></div>",32,word_square,1,SPACEBAR,,""
html-keyboard-response,343,1076490,null,"FRAME",null,word,,, 'FRAME',""
html-keyboard-response,344,1076881,390.3950001113117,"ROBOT<img id = ""stim"" ><div class = red_square id = ""topsquare"" ></div><img id = ""stim"" ><div class = red_square  id = ""bottomsquare"" ></div>",32,word_square,1,SPACEBAR,,""
html-keyboard-response,345,1078388,null,"ROBOT",null,word,,, 'ROBOT',""
html-keyboard-response,346,1078736,346.5999998152256,"RECORD<img id = ""stim"" ><div class = red_square id = ""topsquare"" ></div><img id = ""stim"" ><div class = red_square  id = ""bottomsquare"" ></div>",32,word_square,1,SPACEBAR,,""
html-keyboard-response,347,1080254,null,"RECORD",null,word,,, 'RECORD',""
html-keyboard-response,348,1080619,363.87999984435737,"INSECT<img id = ""stim"" ><div class = red_square id = ""topsquare"" ></div><img id = ""stim"" ><div class = red_square  id = ""bottomsquare"" ></div>",32,word_square,1,SPACEBAR,,""
html-keyboard-response,349,1082132,null,"INSECT",null,word,,, 'INSECT',""
html-keyboard-response,350,1082635,null,"BACKBONE<img id = ""stim"" ><div class = green_square id = ""topsquare"" ></div><img id = ""stim"" ><div class = green_square  id = ""bottomsquare"" ></div>",null,word_square,0,SPACEBAR,,""
html-keyboard-response,351,1084147,null,"BACKBONE",null,word,,, 'BACKBONE',""
html-keyboard-response,352,1084548,399.93499987758696,"DOUGHNUT<img id = ""stim"" ><div class = green_square id = ""topsquare"" ></div><img id = ""stim"" ><div class = green_square  id = ""bottomsquare"" ></div>",32,word_square,0,SPACEBAR,,""
html-keyboard-response,353,1086053,null,"DOUGHNUT",null,word,,, 'DOUGHNUT',""
html-keyboard-response,354,1086381,327.06500007770956,"CRICKET<img id = ""stim"" ><div class = red_square id = ""topsquare"" ></div><img id = ""stim"" ><div class = red_square  id = ""bottomsquare"" ></div>",32,word_square,1,SPACEBAR,,""
html-keyboard-response,355,1087892,null,"CRICKET",null,word,,, 'CRICKET',""
survey-text,356,1089220,1323.5549998935312,"",,,,,,"{""Q0"":""4""}"
survey-text,357,1090859,1633.1350000109524,"",,,,,,"{""Q0"":""3""}"
survey-text,358,1091897,1031.16500005126,"",,,,,,"{""Q0"":""4""}"
survey-text,359,1094230,2325.7200000807643,"",,,,,,"{""Q0"":""4""}"
survey-text,360,1097268,3031.019999878481,"",,,,,,"{""Q0"":""2""}"
survey-text,361,1098479,1204.0199998300523,"",,,,,,"{""Q0"":""2""}"
survey-text,362,1100186,1700.0649999827147,"",,,,,,"{""Q0"":""5""}"
survey-text,363,1101657,1465.074999956414,"",,,,,,"{""Q0"":""4""}"
survey-text,364,1103987,2321.5699999127537,"",,,,,,"{""Q0"":""0""}"
survey-text,365,1105271,1277.4449998978525,"",,,,,,"{""Q0"":""6""}"
survey-text,366,1106762,1485.0950001273304,"",,,,,,"{""Q0"":""2""}"
survey-text,367,1108471,1704.7299998812377,"",,,,,,"{""Q0"":""2""}"
survey-text,368,1109434,956.1300000641495,"",,,,,,"{""Q0"":""2""}"
survey-text,369,1110713,1274.0400000475347,"",,,,,,"{""Q0"":""2""}"
survey-text,370,1111712,992.3549999948591,"",,,,,,"{""Q0"":""2""}"
survey-text,371,1113460,1741.7699999641627,"",,,,,,"{""Q0"":""3]""}"
survey-text,372,1116952,3485.7799999881536,"",,,,,,"{""Q0"":""palace""}"
survey-text,373,1118043,1084.09500005655,"",,,,,,"{""Q0"":""slime""}"
survey-text,374,1120578,2528.9199999533594,"",,,,,,"{""Q0"":""driver""}"
survey-text,375,1122022,1436.0449998639524,"",,,,,,"{""Q0"":""major ""}"
survey-text,376,1123419,1390.6600000336766,"",,,,,,"{""Q0"":""spider""}"
survey-text,377,1171527,48100.42500006966,"",,,,,,"{""Q0"":""doughnut""}"
survey-text,378,1185901,14368.134999880567,"",,,,,,"{""Q0"":""castle""}"
survey-text,379,1187868,1959.07499990426,"",,,,,,"{""Q0"":""empire""}"
survey-text,380,1202402,14527.5650001131,"",,,,,,"{""Q0"":"".""}"
html-keyboard-response,381,1205817,3412.934999912977,"<div style=""font-size:48px;"">Press any key to begin list 6 of 24 </div>",13,,,,,""
html-keyboard-response,382,1208331,null,"<div style=""font-size:60px;"">+</div>",null,,,,,""
html-keyboard-response,383,1208833,null,"MAMMAL<img id = ""stim"" ><div class = green_square id = ""topsquare"" ></div><img id = ""stim"" ><div class = green_square  id = ""bottomsquare"" ></div>",null,word_square,0,SPACEBAR,,""
html-keyboard-response,384,1210342,null,"MAMMAL",null,word,,, 'MAMMAL',""
html-keyboard-response,385,1210848,null,"SNAKE<img id = ""stim"" ><div class = green_square id = ""topsquare"" ></div><img id = ""stim"" ><div class = green_square  id = ""bottomsquare"" ></div>",null,word_square,0,SPACEBAR,,""
html-keyboard-response,386,1212365,null,"SNAKE",null,word,,, 'SNAKE',""
html-keyboard-response,387,1212871,null,"BUGLE<img id = ""stim"" ><div class = red_square id = ""topsquare"" ></div><img id = ""stim"" ><div class = red_square  id = ""bottomsquare"" ></div>",null,word_square,1,SPACEBAR,,""
html-keyboard-response,388,1214384,null,"BUGLE",null,word,,, 'BUGLE',""
html-keyboard-response,389,1214900,null,"BISON<img id = ""stim"" ><div class = green_square id = ""topsquare"" ></div><img id = ""stim"" ><div class = green_square  id = ""bottomsquare"" ></div>",null,word_square,0,SPACEBAR,,""
html-keyboard-response,390,1216406,null,"BISON",null,word,,, 'BISON',""
html-keyboard-response,391,1216922,null,"BENCH<img id = ""stim"" ><div class = red_square id = ""topsquare"" ></div><img id = ""stim"" ><div class = red_square  id = ""bottomsquare"" ></div>",null,word_square,1,SPACEBAR,,""
html-keyboard-response,392,1218429,null,"BENCH",null,word,,, 'BENCH',""
html-keyboard-response,393,1218935,null,"DART<img id = ""stim"" ><div class = green_square id = ""topsquare"" ></div><img id = ""stim"" ><div class = green_square  id = ""bottomsquare"" ></div>",null,word_square,0,SPACEBAR,,""
html-keyboard-response,394,1220447,null,"DART",null,word,,, 'DART',""
html-keyboard-response,395,1220950,null,"FRIEND<img id = ""stim"" ><div class = green_square id = ""topsquare"" ></div><img id = ""stim"" ><div class = green_square  id = ""bottomsquare"" ></div>",null,word_square,0,SPACEBAR,,""
html-keyboard-response,396,1222464,null,"FRIEND",null,word,,, 'FRIEND',""
html-keyboard-response,397,1222919,453.34500004537404,"BROTHER<img id = ""stim"" ><div class = red_square id = ""topsquare"" ></div><img id = ""stim"" ><div class = red_square  id = ""bottomsquare"" ></div>",32,word_square,1,SPACEBAR,,""
html-keyboard-response,398,1224426,null,"BROTHER",null,word,,, 'BROTHER',""
html-keyboard-response,399,1224943,null,"WOMAN<img id = ""stim"" ><div class = green_square id = ""topsquare"" ></div><img id = ""stim"" ><div class = green_square  id = ""bottomsquare"" ></div>",null,word_square,0,SPACEBAR,,""
html-keyboard-response,400,1226447,null,"WOMAN",null,word,,, 'WOMAN',""
html-keyboard-response,401,1226950,null,"ANTLER<img id = ""stim"" ><div class = red_square id = ""topsquare"" ></div><img id = ""stim"" ><div class = red_square  id = ""bottomsquare"" ></div>",null,word_square,1,SPACEBAR,,""
html-keyboard-response,402,1228459,null,"ANTLER",null,word,,, 'ANTLER',""
html-keyboard-response,403,1228963,null,"DINER<img id = ""stim"" ><div class = green_square id = ""topsquare"" ></div><img id = ""stim"" ><div class = green_square  id = ""bottomsquare"" ></div>",null,word_square,0,SPACEBAR,,""
html-keyboard-response,404,1230468,null,"DINER",null,word,,, 'DINER',""
html-keyboard-response,405,1230944,474.19999982230365,"DOLPHIN<img id = ""stim"" ><div class = red_square id = ""topsquare"" ></div><img id = ""stim"" ><div class = red_square  id = ""bottomsquare"" ></div>",32,word_square,1,SPACEBAR,,""
html-keyboard-response,406,1232448,null,"DOLPHIN",null,word,,, 'DOLPHIN',""
html-keyboard-response,407,1232955,null,"ATLAS<img id = ""stim"" ><div class = red_square id = ""topsquare"" ></div><img id = ""stim"" ><div class = red_square  id = ""bottomsquare"" ></div>",null,word_square,1,SPACEBAR,,""
html-keyboard-response,408,1234465,null,"ATLAS",null,word,,, 'ATLAS',""
html-keyboard-response,409,1234814,347.72499999962747,"GLOBE<img id = ""stim"" ><div class = red_square id = ""topsquare"" ></div><img id = ""stim"" ><div class = red_square  id = ""bottomsquare"" ></div>",32,word_square,1,SPACEBAR,,""
html-keyboard-response,410,1236323,null,"GLOBE",null,word,,, 'GLOBE',""
html-keyboard-response,411,1236837,null,"LASER<img id = ""stim"" ><div class = red_square id = ""topsquare"" ></div><img id = ""stim"" ><div class = red_square  id = ""bottomsquare"" ></div>",null,word_square,1,SPACEBAR,,""
html-keyboard-response,412,1238350,null,"LASER",null,word,,, 'LASER',""
html-keyboard-response,413,1238870,null,"VENUS<img id = ""stim"" ><div class = green_square id = ""topsquare"" ></div><img id = ""stim"" ><div class = green_square  id = ""bottomsquare"" ></div>",null,word_square,0,SPACEBAR,,""
html-keyboard-response,414,1240376,null,"VENUS",null,word,,, 'VENUS',""
html-keyboard-response,415,1240891,null,"NEPTUNE<img id = ""stim"" ><div class = green_square id = ""topsquare"" ></div><img id = ""stim"" ><div class = green_square  id = ""bottomsquare"" ></div>",null,word_square,0,SPACEBAR,,""
html-keyboard-response,416,1242406,null,"NEPTUNE",null,word,,, 'NEPTUNE',""
html-keyboard-response,417,1242912,null,"PIMPLE<img id = ""stim"" ><div class = red_square id = ""topsquare"" ></div><img id = ""stim"" ><div class = red_square  id = ""bottomsquare"" ></div>",null,word_square,1,SPACEBAR,,""
html-keyboard-response,418,1244428,null,"PIMPLE",null,word,,, 'PIMPLE',""
survey-text,419,1245928,1495.5800001043826,"",,,,,,"{""Q0"":""3""}"
survey-text,420,1246958,1024.0299999713898,"",,,,,,"{""Q0"":""4""}"
survey-text,421,1247912,947.1849999390543,"",,,,,,"{""Q0"":""4""}"
survey-text,422,1249223,1305.1999998278916,"",,,,,,"{""Q0"":""5""}"
survey-text,423,1250096,862.470000050962,"",,,,,,"{""Q0"":""4""}"
survey-text,424,1251047,944.1050000023097,"",,,,,,"{""Q0"":""5""}"
survey-text,425,1252348,1294.0149998757988,"",,,,,,"{""Q0"":""1""}"
survey-text,426,1253498,1142.1699998900294,"",,,,,,"{""Q0"":""6""}"
survey-text,427,1254959,1454.9700000789016,"",,,,,,"{""Q0"":""6""}"
survey-text,428,1256543,1577.030000044033,"",,,,,,"{""Q0"":""1""}"
survey-text,429,1259004,2454.8899999354035,"",,,,,,"{""Q0"":""2""}"
survey-text,430,1260136,1123.8800000865012,"",,,,,,"{""Q0"":""5""}"
survey-text,431,1261415,1271.2550000287592,"",,,,,,"{""Q0"":""5""}"
survey-text,432,1262345,924.2099998518825,"",,,,,,"{""Q0"":""2""}"
survey-text,433,1263381,1030.4650000762194,"",,,,,,"{""Q0"":""6""}"
survey-text,434,1264480,1093.254999956116,"",,,,,,"{""Q0"":""4""}"
survey-text,435,1265624,1138.6549999006093,"",,,,,,"{""Q0"":""3""}"
survey-text,436,1266876,1244.3699999712408,"",,,,,,"{""Q0"":""5""}"
survey-text,437,1268070,1186.4549999590963,"",,,,,,"{""Q0"":""3""}"
survey-text,438,1269808,1730.6600001174957,"",,,,,,"{""Q0"":""5""}"
survey-text,439,1284816,15002.080000005662,"",,,,,,"{""Q0"":""mammal ""}"
survey-text,440,1285849,1026.5999999828637,"",,,,,,"{""Q0"":""bison""}"
survey-text,441,1286961,1106.3500000163913,"",,,,,,"{""Q0"":""snake""}"
survey-text,442,1289739,2771.68000000529,"",,,,,,"{""Q0"":""dolphin""}"
survey-text,443,1293069,3322.8649999946356,"",,,,,,"{""Q0"":""woman""}"
survey-text,444,1296404,3328.5399999003857,"",,,,,,"{""Q0"":""friend ""}"
survey-text,445,1297804,1392.1100001316518,"",,,,,,"{""Q0"":""brother""}"
survey-text,446,1330582,32771.75000007264,"",,,,,,"{""Q0"":""snake""}"
survey-text,447,1336495,5906.69499989599,"",,,,,,"{""Q0"":""antler""}"
survey-text,448,1341749,5246.625000145286,"",,,,,,"{""Q0"":"".""}"
survey-text,449,1342723,969.0000000409782,"",,,,,,"{""Q0"":"".""}"
survey-text,450,1347873,5142.944999970496,"",,,,,,"{""Q0"":"".""}"
html-keyboard-response,451,1348502,627.7199999894947,"<div style=""font-size:48px;"">Press any key to begin list 7 of 24 </div>",13,,,,,""
html-keyboard-response,452,1351019,null,"<div style=""font-size:60px;"">+</div>",null,,,,,""
html-keyboard-response,453,1351469,448.47499998286366,"HELMET<img id = ""stim"" ><div class = red_square id = ""topsquare"" ></div><img id = ""stim"" ><div class = red_square  id = ""bottomsquare"" ></div>",32,word_square,1,SPACEBAR,,""
html-keyboard-response,454,1352978,null,"HELMET",null,word,,, 'HELMET',""
html-keyboard-response,455,1353307,328.30499997362494,"BUCKET<img id = ""stim"" ><div class = red_square id = ""topsquare"" ></div><img id = ""stim"" ><div class = red_square  id = ""bottomsquare"" ></div>",32,word_square,1,SPACEBAR,,""
html-keyboard-response,456,1354814,null,"BUCKET",null,word,,, 'BUCKET',""
html-keyboard-response,457,1355318,null,"SPARROW<img id = ""stim"" ><div class = green_square id = ""topsquare"" ></div><img id = ""stim"" ><div class = green_square  id = ""bottomsquare"" ></div>",null,word_square,0,SPACEBAR,,""
html-keyboard-response,458,1356826,null,"SPARROW",null,word,,, 'SPARROW',""
html-keyboard-response,459,1357208,380.46000013127923,"RAZOR<img id = ""stim"" ><div class = red_square id = ""topsquare"" ></div><img id = ""stim"" ><div class = red_square  id = ""bottomsquare"" ></div>",32,word_square,1,SPACEBAR,,""
html-keyboard-response,460,1358714,null,"RAZOR",null,word,,, 'RAZOR',""
html-keyboard-response,461,1359231,null,"SWORD<img id = ""stim"" ><div class = green_square id = ""topsquare"" ></div><img id = ""stim"" ><div class = green_square  id = ""bottomsquare"" ></div>",null,word_square,0,SPACEBAR,,""
html-keyboard-response,462,1360744,null,"SWORD",null,word,,, 'SWORD',""
html-keyboard-response,463,1361161,415.64999986439943,"INFANT<img id = ""stim"" ><div class = red_square id = ""topsquare"" ></div><img id = ""stim"" ><div class = red_square  id = ""bottomsquare"" ></div>",32,word_square,1,SPACEBAR,,""
html-keyboard-response,464,1362677,null,"INFANT",null,word,,, 'INFANT',""
html-keyboard-response,465,1363096,417.7999999374151,"BABY<img id = ""stim"" ><div class = red_square id = ""topsquare"" ></div><img id = ""stim"" ><div class = red_square  id = ""bottomsquare"" ></div>",32,word_square,1,SPACEBAR,,""
html-keyboard-response,466,1364605,null,"BABY",null,word,,, 'BABY',""
html-keyboard-response,467,1365110,null,"BRANDY<img id = ""stim"" ><div class = green_square id = ""topsquare"" ></div><img id = ""stim"" ><div class = green_square  id = ""bottomsquare"" ></div>",null,word_square,0,SPACEBAR,,""
html-keyboard-response,468,1366622,null,"BRANDY",null,word,,, 'BRANDY',""
html-keyboard-response,469,1367004,380.8200000785291,"EAGLE<img id = ""stim"" ><div class = red_square id = ""topsquare"" ></div><img id = ""stim"" ><div class = red_square  id = ""bottomsquare"" ></div>",32,word_square,1,SPACEBAR,,""
html-keyboard-response,470,1368516,null,"EAGLE",null,word,,, 'EAGLE',""
html-keyboard-response,471,1369020,null,"POCKET<img id = ""stim"" ><div class = green_square id = ""topsquare"" ></div><img id = ""stim"" ><div class = green_square  id = ""bottomsquare"" ></div>",null,word_square,0,SPACEBAR,,""
html-keyboard-response,472,1370530,null,"POCKET",null,word,,, 'POCKET',""
html-keyboard-response,473,1370914,382.2749999817461,"DOORBELL<img id = ""stim"" ><div class = red_square id = ""topsquare"" ></div><img id = ""stim"" ><div class = red_square  id = ""bottomsquare"" ></div>",32,word_square,1,SPACEBAR,,""
html-keyboard-response,474,1372422,null,"DOORBELL",null,word,,, 'DOORBELL',""
html-keyboard-response,475,1372925,null,"VAGRANT<img id = ""stim"" ><div class = green_square id = ""topsquare"" ></div><img id = ""stim"" ><div class = green_square  id = ""bottomsquare"" ></div>",null,word_square,0,SPACEBAR,,""
html-keyboard-response,476,1374433,null,"VAGRANT",null,word,,, 'VAGRANT',""
html-keyboard-response,477,1374938,null,"NOMAD<img id = ""stim"" ><div class = green_square id = ""topsquare"" ></div><img id = ""stim"" ><div class = green_square  id = ""bottomsquare"" ></div>",null,word_square,0,SPACEBAR,,""
html-keyboard-response,478,1376451,null,"NOMAD",null,word,,, 'NOMAD',""
html-keyboard-response,479,1376956,null,"GLASSES<img id = ""stim"" ><div class = green_square id = ""topsquare"" ></div><img id = ""stim"" ><div class = green_square  id = ""bottomsquare"" ></div>",null,word_square,0,SPACEBAR,,""
html-keyboard-response,480,1378463,null,"GLASSES",null,word,,, 'GLASSES',""
html-keyboard-response,481,1378966,null,"HOOD<img id = ""stim"" ><div class = green_square id = ""topsquare"" ></div><img id = ""stim"" ><div class = green_square  id = ""bottomsquare"" ></div>",null,word_square,0,SPACEBAR,,""
html-keyboard-response,482,1380470,null,"HOOD",null,word,,, 'HOOD',""
html-keyboard-response,483,1380854,382.38000008277595,"SHORTS<img id = ""stim"" ><div class = red_square id = ""topsquare"" ></div><img id = ""stim"" ><div class = red_square  id = ""bottomsquare"" ></div>",32,word_square,1,SPACEBAR,,""
html-keyboard-response,484,1382362,null,"SHORTS",null,word,,, 'SHORTS',""
html-keyboard-response,485,1382732,368.7750000972301,"SIRLOIN<img id = ""stim"" ><div class = red_square id = ""topsquare"" ></div><img id = ""stim"" ><div class = red_square  id = ""bottomsquare"" ></div>",32,word_square,1,SPACEBAR,,""
html-keyboard-response,486,1384240,null,"SIRLOIN",null,word,,, 'SIRLOIN',""
html-keyboard-response,487,1384755,null,"ACTOR<img id = ""stim"" ><div class = green_square id = ""topsquare"" ></div><img id = ""stim"" ><div class = green_square  id = ""bottomsquare"" ></div>",null,word_square,0,SPACEBAR,,""
html-keyboard-response,488,1386261,null,"ACTOR",null,word,,, 'ACTOR',""
survey-text,489,1387793,1528.344999998808,"",,,,,,"{""Q0"":""2""}"
survey-text,490,1388882,1082.6099999248981,"",,,,,,"{""Q0"":""5""}"
survey-text,491,1390013,1125.2900001127273,"",,,,,,"{""Q0"":""2""}"
survey-text,492,1391085,1064.5250000525266,"",,,,,,"{""Q0"":""5""}"
survey-text,493,1392520,1428.2700000330806,"",,,,,,"{""Q0"":""5""}"
survey-text,494,1393615,1086.8650001939386,"",,,,,,"{""Q0"":""5""}"
survey-text,495,1394701,1075.7800000719726,"",,,,,,"{""Q0"":""4""}"
survey-text,496,1396261,1552.9400000814348,"",,,,,,"{""Q0"":""5""}"
survey-text,497,1397137,869.9300000444055,"",,,,,,"{""Q0"":""3""}"
survey-text,498,1398082,939.3599999602884,"",,,,,,"{""Q0"":""4""}"
survey-text,499,1398887,796.5349999722093,"",,,,,,"{""Q0"":""4""}"
survey-text,500,1399794,901.2799998745322,"",,,,,,"{""Q0"":""3""}"
survey-text,501,1400668,866.7699999641627,"",,,,,,"{""Q0"":""2""}"
survey-text,502,1401661,986.4750001579523,"",,,,,,"{""Q0"":""1""}"
survey-text,503,1403833,2166.7500000912696,"",,,,,,"{""Q0"":""2""}"
survey-text,504,1405330,1489.2349999863654,"",,,,,,"{""Q0"":""2""}"
survey-text,505,1406111,774.5900000445545,"",,,,,,"{""Q0"":""2""}"
survey-text,506,1407614,1497.0549999270588,"",,,,,,"{""Q0"":""3""}"
survey-text,507,1409337,1716.9899998698384,"",,,,,,"{""Q0"":""1""}"
survey-text,508,1410741,1397.4649999290705,"",,,,,,"{""Q0"":""4""}"
survey-text,509,1418422,7675.245000049472,"",,,,,,"{""Q0"":""nomad""}"
survey-text,510,1421320,2891.370000084862,"",,,,,,"{""Q0"":""razor ""}"
survey-text,511,1423331,2004.0750000625849,"",,,,,,"{""Q0"":""sword""}"
survey-text,512,1427296,3959.190000081435,"",,,,,,"{""Q0"":""infant ""}"
survey-text,513,1428267,964.1450000926852,"",,,,,,"{""Q0"":""babby""}"
survey-text,514,1430519,2245.0550000648946,"",,,,,,"{""Q0"":""baby""}"
survey-text,515,1460851,30325.219999998808,"",,,,,,"{""Q0"":"".""}"
survey-text,516,1473714,12853.484999854118,"",,,,,,"{""Q0"":""eagle""}"
survey-text,517,1479384,5663.844999857247,"",,,,,,"{""Q0"":"".""}"
survey-text,518,1482548,3156.209999928251,"",,,,,,"{""Q0"":"".""}"
survey-text,519,1489092,6537.849999964237,"",,,,,,"{""Q0"":"".""}"
html-keyboard-response,520,1489594,500.0199999194592,"<div style=""font-size:48px;"">Press any key to begin list 8 of 24 </div>",13,,,,,""
html-keyboard-response,521,1492109,null,"<div style=""font-size:60px;"">+</div>",null,,,,,""
html-keyboard-response,522,1492611,null,"CURTAIN<img id = ""stim"" ><div class = red_square id = ""topsquare"" ></div><img id = ""stim"" ><div class = red_square  id = ""bottomsquare"" ></div>",null,word_square,1,SPACEBAR,,""
html-keyboard-response,523,1494115,null,"CURTAIN",null,word,,, 'CURTAIN',""
html-keyboard-response,524,1494495,376.21999997645617,"SHIRT<img id = ""stim"" ><div class = red_square id = ""topsquare"" ></div><img id = ""stim"" ><div class = red_square  id = ""bottomsquare"" ></div>",32,word_square,1,SPACEBAR,,""
html-keyboard-response,525,1496000,null,"SHIRT",null,word,,, 'SHIRT',""
html-keyboard-response,526,1496514,null,"CANVAS<img id = ""stim"" ><div class = green_square id = ""topsquare"" ></div><img id = ""stim"" ><div class = green_square  id = ""bottomsquare"" ></div>",null,word_square,0,SPACEBAR,,""
html-keyboard-response,527,1498023,null,"CANVAS",null,word,,, 'CANVAS',""
html-keyboard-response,528,1498406,381.410000147298,"PENCIL<img id = ""stim"" ><div class = red_square id = ""topsquare"" ></div><img id = ""stim"" ><div class = red_square  id = ""bottomsquare"" ></div>",32,word_square,1,SPACEBAR,,""
html-keyboard-response,529,1499914,null,"PENCIL",null,word,,, 'PENCIL',""
html-keyboard-response,530,1500418,null,"MARROW<img id = ""stim"" ><div class = green_square id = ""topsquare"" ></div><img id = ""stim"" ><div class = green_square  id = ""bottomsquare"" ></div>",null,word_square,0,SPACEBAR,,""
html-keyboard-response,531,1501920,null,"MARROW",null,word,,, 'MARROW',""
html-keyboard-response,532,1502318,396.2800002191216,"JAPAN<img id = ""stim"" ><div class = red_square id = ""topsquare"" ></div><img id = ""stim"" ><div class = red_square  id = ""bottomsquare"" ></div>",32,word_square,1,SPACEBAR,,""
html-keyboard-response,533,1503822,null,"JAPAN",null,word,,, 'JAPAN',""
html-keyboard-response,534,1504306,483.0449998844415,"BEAVER<img id = ""stim"" ><div class = red_square id = ""topsquare"" ></div><img id = ""stim"" ><div class = red_square  id = ""bottomsquare"" ></div>",32,word_square,1,SPACEBAR,,""
html-keyboard-response,535,1505816,null,"BEAVER",null,word,,, 'BEAVER',""
html-keyboard-response,536,1506332,null,"HAMMER<img id = ""stim"" ><div class = green_square id = ""topsquare"" ></div><img id = ""stim"" ><div class = green_square  id = ""bottomsquare"" ></div>",null,word_square,0,SPACEBAR,,""
html-keyboard-response,537,1507849,null,"HAMMER",null,word,,, 'HAMMER',""
html-keyboard-response,538,1508180,329.45499988272786,"STONE<img id = ""stim"" ><div class = red_square id = ""topsquare"" ></div><img id = ""stim"" ><div class = red_square  id = ""bottomsquare"" ></div>",32,word_square,1,SPACEBAR,,""
html-keyboard-response,539,1509689,null,"STONE",null,word,,, 'STONE',""
html-keyboard-response,540,1510193,null,"VICTIM<img id = ""stim"" ><div class = green_square id = ""topsquare"" ></div><img id = ""stim"" ><div class = green_square  id = ""bottomsquare"" ></div>",null,word_square,0,SPACEBAR,,""
html-keyboard-response,541,1511702,null,"VICTIM",null,word,,, 'VICTIM',""
html-keyboard-response,542,1512205,null,"SUSPECT<img id = ""stim"" ><div class = red_square id = ""topsquare"" ></div><img id = ""stim"" ><div class = red_square  id = ""bottomsquare"" ></div>",null,word_square,1,SPACEBAR,,""
html-keyboard-response,543,1513718,null,"SUSPECT",null,word,,, 'SUSPECT',""
html-keyboard-response,544,1514219,null,"CREVICE<img id = ""stim"" ><div class = green_square id = ""topsquare"" ></div><img id = ""stim"" ><div class = green_square  id = ""bottomsquare"" ></div>",null,word_square,0,SPACEBAR,,""
html-keyboard-response,545,1515734,null,"CREVICE",null,word,,, 'CREVICE',""
html-keyboard-response,546,1516246,null,"POSSUM<img id = ""stim"" ><div class = green_square id = ""topsquare"" ></div><img id = ""stim"" ><div class = green_square  id = ""bottomsquare"" ></div>",null,word_square,0,SPACEBAR,,""
html-keyboard-response,547,1517756,null,"POSSUM",null,word,,, 'POSSUM',""
html-keyboard-response,548,1518260,null,"HAWK<img id = ""stim"" ><div class = green_square id = ""topsquare"" ></div><img id = ""stim"" ><div class = green_square  id = ""bottomsquare"" ></div>",null,word_square,0,SPACEBAR,,""
html-keyboard-response,549,1519763,null,"HAWK",null,word,,, 'HAWK',""
html-keyboard-response,550,1520264,null,"SCARECROW<img id = ""stim"" ><div class = green_square id = ""topsquare"" ></div><img id = ""stim"" ><div class = green_square  id = ""bottomsquare"" ></div>",null,word_square,0,SPACEBAR,,""
html-keyboard-response,551,1521774,null,"SCARECROW",null,word,,, 'SCARECROW',""
html-keyboard-response,552,1522186,410.14500008895993,"SUNSET<img id = ""stim"" ><div class = red_square id = ""topsquare"" ></div><img id = ""stim"" ><div class = red_square  id = ""bottomsquare"" ></div>",32,word_square,1,SPACEBAR,,""
html-keyboard-response,553,1523702,null,"SUNSET",null,word,,, 'SUNSET',""
html-keyboard-response,554,1524083,380.2249999716878,"SUNRISE<img id = ""stim"" ><div class = red_square id = ""topsquare"" ></div><img id = ""stim"" ><div class = red_square  id = ""bottomsquare"" ></div>",32,word_square,1,SPACEBAR,,""
html-keyboard-response,555,1525593,null,"SUNRISE",null,word,,, 'SUNRISE',""
html-keyboard-response,556,1526097,null,"STAMP<img id = ""stim"" ><div class = green_square id = ""topsquare"" ></div><img id = ""stim"" ><div class = green_square  id = ""bottomsquare"" ></div>",null,word_square,0,SPACEBAR,,""
html-keyboard-response,557,1527614,null,"STAMP",null,word,,, 'STAMP',""
survey-text,558,1528662,1043.569999979809,"",,,,,,"{""Q0"":""4""}"
survey-text,559,1529641,973.740000044927,"",,,,,,"{""Q0"":""5""}"
survey-text,560,1530586,939.1900000628084,"",,,,,,"{""Q0"":""3""}"
survey-text,561,1531957,1365.1500002015382,"",,,,,,"{""Q0"":""1""}"
survey-text,562,1532963,999.4350001215935,"",,,,,,"{""Q0"":""5""}"
survey-text,563,1533942,972.319999942556,"",,,,,,"{""Q0"":""3""}"
survey-text,564,1534848,898.3999998308718,"",,,,,,"{""Q0"":""3""}"
survey-text,565,1535790,936.6950001567602,"",,,,,,"{""Q0"":""4""}"
survey-text,566,1536959,1161.5849998779595,"",,,,,,"{""Q0"":""2""}"
survey-text,567,1538535,1568.0299999658018,"",,,,,,"{""Q0"":""6""}"
survey-text,568,1539517,975.7250000257045,"",,,,,,"{""Q0"":""3""}"
survey-text,569,1542258,2733.6449997965246,"",,,,,,"{""Q0"":""0""}"
survey-text,570,1543659,1394.8349999263883,"",,,,,,"{""Q0"":""3""}"
survey-text,571,1544661,995.094999903813,"",,,,,,"{""Q0"":""2""}"
survey-text,572,1546231,1564.585000043735,"",,,,,,"{""Q0"":""2""}"
survey-text,573,1547702,1464.2749999184161,"",,,,,,"{""Q0"":""2""}"
survey-text,574,1548834,1126.2250000145286,"",,,,,,"{""Q0"":""5""}"
survey-text,575,1549833,993.1050001177937,"",,,,,,"{""Q0"":""5""}"
survey-text,576,1550770,931.6399998497218,"",,,,,,"{""Q0"":""5""}"
survey-text,577,1551913,1136.9599997997284,"",,,,,,"{""Q0"":""1""}"
survey-text,578,1556186,4264.805000042543,"",,,,,,"{""Q0"":""canvas""}"
survey-text,579,1557660,1466.2150000222027,"",,,,,,"{""Q0"":""pencil""}"
survey-text,580,1559459,1791.8700000736862,"",,,,,,"{""Q0"":""hawk""}"
survey-text,581,1571017,11548.835000023246,"",,,,,,"{""Q0"":""scarecrow ""}"
survey-text,582,1581761,10736.25999991782,"",,,,,,"{""Q0"":""canvas""}"
survey-text,583,1586748,4978.845000034198,"",,,,,,"{""Q0"":""shirt""}"
survey-text,584,1588497,1741.935000056401,"",,,,,,"{""Q0"":""curtain""}"
survey-text,585,1592618,4111.825000029057,"",,,,,,"{""Q0"":""beaver""}"
survey-text,586,1608273,15645.95999987796,"",,,,,,"{""Q0"":""crow""}"
survey-text,587,1633965,25687.48000008054,"",,,,,,"{""Q0"":"".""}"
html-keyboard-response,588,1634650,683.0800001043826,"<div style=""font-size:48px;"">Press any key to begin list 9 of 24 </div>",32,,,,,""
html-keyboard-response,589,1637167,null,"<div style=""font-size:60px;"">+</div>",null,,,,,""
html-keyboard-response,590,1637671,null,"POND<img id = ""stim"" ><div class = green_square id = ""topsquare"" ></div><img id = ""stim"" ><div class = green_square  id = ""bottomsquare"" ></div>",null,word_square,0,SPACEBAR,,""
html-keyboard-response,591,1639173,null,"POND",null,word,,, 'POND',""
html-keyboard-response,592,1639623,449.0799999330193,"GYMNAST<img id = ""stim"" ><div class = red_square id = ""topsquare"" ></div><img id = ""stim"" ><div class = red_square  id = ""bottomsquare"" ></div>",32,word_square,1,SPACEBAR,,""
html-keyboard-response,593,1641127,null,"GYMNAST",null,word,,, 'GYMNAST',""
html-keyboard-response,594,1641499,371.02500000037253,"MEDAL<img id = ""stim"" ><div class = red_square id = ""topsquare"" ></div><img id = ""stim"" ><div class = red_square  id = ""bottomsquare"" ></div>",32,word_square,1,SPACEBAR,,""
html-keyboard-response,595,1643008,null,"MEDAL",null,word,,, 'MEDAL',""
html-keyboard-response,596,1643514,null,"CIRCUS<img id = ""stim"" ><div class = green_square id = ""topsquare"" ></div><img id = ""stim"" ><div class = green_square  id = ""bottomsquare"" ></div>",null,word_square,0,SPACEBAR,,""
html-keyboard-response,597,1645015,null,"CIRCUS",null,word,,, 'CIRCUS',""
html-keyboard-response,598,1645527,null,"DENTIST<img id = ""stim"" ><div class = green_square id = ""topsquare"" ></div><img id = ""stim"" ><div class = green_square  id = ""bottomsquare"" ></div>",null,word_square,0,SPACEBAR,,""
html-keyboard-response,599,1647035,null,"DENTIST",null,word,,, 'DENTIST',""
html-keyboard-response,600,1647427,390.52999997511506,"FLASHLIGHT<img id = ""stim"" ><div class = red_square id = ""topsquare"" ></div><img id = ""stim"" ><div class = red_square  id = ""bottomsquare"" ></div>",32,word_square,1,SPACEBAR,,""
html-keyboard-response,601,1648940,null,"FLASHLIGHT",null,word,,, 'FLASHLIGHT',""
html-keyboard-response,602,1649432,490.75999995693564,"CRACKER<img id = ""stim"" ><div class = red_square id = ""topsquare"" ></div><img id = ""stim"" ><div class = red_square  id = ""bottomsquare"" ></div>",32,word_square,1,SPACEBAR,,""
html-keyboard-response,603,1650947,null,"CRACKER",null,word,,, 'CRACKER',""
html-keyboard-response,604,1651449,null,"MONSTER<img id = ""stim"" ><div class = green_square id = ""topsquare"" ></div><img id = ""stim"" ><div class = green_square  id = ""bottomsquare"" ></div>",null,word_square,0,SPACEBAR,,""
html-keyboard-response,605,1652962,null,"MONSTER",null,word,,, 'MONSTER',""
html-keyboard-response,606,1653467,null,"PEANUT<img id = ""stim"" ><div class = green_square id = ""topsquare"" ></div><img id = ""stim"" ><div class = green_square  id = ""bottomsquare"" ></div>",null,word_square,0,SPACEBAR,,""
html-keyboard-response,607,1654971,null,"PEANUT",null,word,,, 'PEANUT',""
html-keyboard-response,608,1655445,473.0050000362098,"BUNNY<img id = ""stim"" ><div class = red_square id = ""topsquare"" ></div><img id = ""stim"" ><div class = red_square  id = ""bottomsquare"" ></div>",32,word_square,1,SPACEBAR,,""
html-keyboard-response,609,1656948,null,"BUNNY",null,word,,, 'BUNNY',""
html-keyboard-response,610,1657454,null,"BLACKBOARD<img id = ""stim"" ><div class = green_square id = ""topsquare"" ></div><img id = ""stim"" ><div class = green_square  id = ""bottomsquare"" ></div>",null,word_square,0,SPACEBAR,,""
html-keyboard-response,611,1658964,null,"BLACKBOARD",null,word,,, 'BLACKBOARD',""
html-keyboard-response,612,1659468,null,"BOARD<img id = ""stim"" ><div class = red_square id = ""topsquare"" ></div><img id = ""stim"" ><div class = red_square  id = ""bottomsquare"" ></div>",null,word_square,1,SPACEBAR,,""
html-keyboard-response,613,1660978,null,"BOARD",null,word,,, 'BOARD',""
html-keyboard-response,614,1661496,null,"COLLEGE<img id = ""stim"" ><div class = green_square id = ""topsquare"" ></div><img id = ""stim"" ><div class = green_square  id = ""bottomsquare"" ></div>",null,word_square,0,SPACEBAR,,""
html-keyboard-response,615,1663000,null,"COLLEGE",null,word,,, 'COLLEGE',""
html-keyboard-response,616,1663408,406.5199999604374,"THRONE<img id = ""stim"" ><div class = red_square id = ""topsquare"" ></div><img id = ""stim"" ><div class = red_square  id = ""bottomsquare"" ></div>",32,word_square,1,SPACEBAR,,""
html-keyboard-response,617,1664920,null,"THRONE",null,word,,, 'THRONE',""
html-keyboard-response,618,1665435,null,"ZEBRA<img id = ""stim"" ><div class = green_square id = ""topsquare"" ></div><img id = ""stim"" ><div class = green_square  id = ""bottomsquare"" ></div>",null,word_square,0,SPACEBAR,,""
html-keyboard-response,619,1666948,null,"ZEBRA",null,word,,, 'ZEBRA',""
html-keyboard-response,620,1667453,null,"BUGGY<img id = ""stim"" ><div class = green_square id = ""topsquare"" ></div><img id = ""stim"" ><div class = green_square  id = ""bottomsquare"" ></div>",null,word_square,0,SPACEBAR,,""
html-keyboard-response,621,1668960,null,"BUGGY",null,word,,, 'BUGGY',""
html-keyboard-response,622,1669433,470.2499997802079,"WINGS<img id = ""stim"" ><div class = red_square id = ""topsquare"" ></div><img id = ""stim"" ><div class = red_square  id = ""bottomsquare"" ></div>",32,word_square,1,SPACEBAR,,""
html-keyboard-response,623,1670949,null,"WINGS",null,word,,, 'WINGS',""
html-keyboard-response,624,1671396,444.7699999436736,"TEACHER<img id = ""stim"" ><div class = red_square id = ""topsquare"" ></div><img id = ""stim"" ><div class = red_square  id = ""bottomsquare"" ></div>",32,word_square,1,SPACEBAR,,""
html-keyboard-response,625,1672905,null,"TEACHER",null,word,,, 'TEACHER',""
survey-text,626,1673941,1029.490000102669,"",,,,,,"{""Q0"":""3""}"
survey-text,627,1674876,929.0499999187887,"",,,,,,"{""Q0"":""2""}"
survey-text,628,1675856,972.7849999908358,"",,,,,,"{""Q0"":""3""}"
survey-text,629,1677566,1702.6049999985844,"",,,,,,"{""Q0"":""2""}"
survey-text,630,1678769,1194.7350001428276,"",,,,,,"{""Q0"":""2""}"
survey-text,631,1680161,1385.0649998057634,"",,,,,,"{""Q0"":""5""}"
survey-text,632,1681290,1121.6649999842048,"",,,,,,"{""Q0"":""5""}"
survey-text,633,1682334,1039.2050000373274,"",,,,,,"{""Q0"":""4""}"
survey-text,634,1683309,969.685000134632,"",,,,,,"{""Q0"":""5""}"
survey-text,635,1684526,1209.8199999891222,"",,,,,,"{""Q0"":""3""}"
survey-text,636,1685618,1085.7549998909235,"",,,,,,"{""Q0"":""2""}"
survey-text,637,1686834,1207.054999889806,"",,,,,,"{""Q0"":""5""}"
survey-text,638,1687696,855.9449999593198,"",,,,,,"{""Q0"":""2""}"
survey-text,639,1688926,1224.2150001693517,"",,,,,,"{""Q0"":""1""}"
survey-text,640,1690397,1464.6749999374151,"",,,,,,"{""Q0"":""1""}"
survey-text,641,1691967,1564.1449999529868,"",,,,,,"{""Q0"":""1""}"
survey-text,642,1693062,1087.4199999962002,"",,,,,,"{""Q0"":""6""}"
survey-text,643,1694035,965.7199999783188,"",,,,,,"{""Q0"":""2""}"
survey-text,644,1695211,1170.6949998624623,"",,,,,,"{""Q0"":""4""}"
survey-text,645,1695943,723.4999998472631,"",,,,,,"{""Q0"":""4""}"
survey-text,646,1697441,1489.2349999863654,"",,,,,,"{""Q0"":""3""}"
survey-text,647,1700632,3184.275000123307,"",,,,,,"{""Q0"":""circus""}"
survey-text,648,1702953,2314.6949999500066,"",,,,,,"{""Q0"":""peanut ""}"
survey-text,649,1705263,2303.6400000564754,"",,,,,,"{""Q0"":""zebra""}"
survey-text,650,1752739,47468.38500001468,"",,,,,,"{""Q0"":"".""}"
survey-text,651,1762500,9754.544999916106,"",,,,,,"{""Q0"":"".""}"
survey-text,652,1771215,8709.890000056475,"",,,,,,"{""Q0"":"".""}"
survey-text,653,1776120,4897.1150000579655,"",,,,,,"{""Q0"":"".""}"
html-keyboard-response,654,1776862,741.2599998060614,"<div style=""font-size:48px;"">Press any key to begin list 10 of 24 </div>",13,,,,,""
html-keyboard-response,655,1779370,null,"<div style=""font-size:60px;"">+</div>",null,,,,,""
html-keyboard-response,656,1779886,null,"VIKING<img id = ""stim"" ><div class = green_square id = ""topsquare"" ></div><img id = ""stim"" ><div class = green_square  id = ""bottomsquare"" ></div>",null,word_square,0,SPACEBAR,,""
html-keyboard-response,657,1781403,null,"VIKING",null,word,,, 'VIKING',""
html-keyboard-response,658,1781906,null,"YACHT<img id = ""stim"" ><div class = red_square id = ""topsquare"" ></div><img id = ""stim"" ><div class = red_square  id = ""bottomsquare"" ></div>",null,word_square,1,SPACEBAR,,""
html-keyboard-response,659,1783418,null,"YACHT",null,word,,, 'YACHT',""
html-keyboard-response,660,1783786,366.0150000359863,"TOURIST<img id = ""stim"" ><div class = red_square id = ""topsquare"" ></div><img id = ""stim"" ><div class = red_square  id = ""bottomsquare"" ></div>",32,word_square,1,SPACEBAR,,""
html-keyboard-response,661,1785293,null,"TOURIST",null,word,,, 'TOURIST',""
html-keyboard-response,662,1785799,null,"DIME<img id = ""stim"" ><div class = green_square id = ""topsquare"" ></div><img id = ""stim"" ><div class = green_square  id = ""bottomsquare"" ></div>",null,word_square,0,SPACEBAR,,""
html-keyboard-response,663,1787310,null,"DIME",null,word,,, 'DIME',""
html-keyboard-response,664,1787822,null,"PERCH<img id = ""stim"" ><div class = green_square id = ""topsquare"" ></div><img id = ""stim"" ><div class = green_square  id = ""bottomsquare"" ></div>",null,word_square,0,SPACEBAR,,""
html-keyboard-response,665,1789337,null,"PERCH",null,word,,, 'PERCH',""
html-keyboard-response,666,1789713,373.7049999181181,"JUDGE<img id = ""stim"" ><div class = red_square id = ""topsquare"" ></div><img id = ""stim"" ><div class = red_square  id = ""bottomsquare"" ></div>",32,word_square,1,SPACEBAR,,""
html-keyboard-response,667,1791215,null,"JUDGE",null,word,,, 'JUDGE',""
html-keyboard-response,668,1791649,433.41000005602837,"BLADE<img id = ""stim"" ><div class = red_square id = ""topsquare"" ></div><img id = ""stim"" ><div class = red_square  id = ""bottomsquare"" ></div>",32,word_square,1,SPACEBAR,,""
html-keyboard-response,669,1793155,null,"BLADE",null,word,,, 'BLADE',""
html-keyboard-response,670,1793662,null,"SCISSORS<img id = ""stim"" ><div class = green_square id = ""topsquare"" ></div><img id = ""stim"" ><div class = green_square  id = ""bottomsquare"" ></div>",null,word_square,0,SPACEBAR,,""
html-keyboard-response,671,1795168,null,"SCISSORS",null,word,,, 'SCISSORS',""
html-keyboard-response,672,1795672,null,"HAYSTACK<img id = ""stim"" ><div class = green_square id = ""topsquare"" ></div><img id = ""stim"" ><div class = green_square  id = ""bottomsquare"" ></div>",null,word_square,0,SPACEBAR,,""
html-keyboard-response,673,1797178,null,"HAYSTACK",null,word,,, 'HAYSTACK',""
html-keyboard-response,674,1797683,null,"SUITCASE<img id = ""stim"" ><div class = red_square id = ""topsquare"" ></div><img id = ""stim"" ><div class = red_square  id = ""bottomsquare"" ></div>",null,word_square,1,SPACEBAR,,""
html-keyboard-response,675,1799193,null,"SUITCASE",null,word,,, 'SUITCASE',""
html-keyboard-response,676,1799703,null,"PAPER<img id = ""stim"" ><div class = green_square id = ""topsquare"" ></div><img id = ""stim"" ><div class = green_square  id = ""bottomsquare"" ></div>",null,word_square,0,SPACEBAR,,""
html-keyboard-response,677,1801209,null,"PAPER",null,word,,, 'PAPER',""
html-keyboard-response,678,1801657,446.2150000035763,"JOURNAL<img id = ""stim"" ><div class = red_square id = ""topsquare"" ></div><img id = ""stim"" ><div class = red_square  id = ""bottomsquare"" ></div>",32,word_square,1,SPACEBAR,,""
html-keyboard-response,679,1803169,null,"JOURNAL",null,word,,, 'JOURNAL',""
html-keyboard-response,680,1803674,null,"STRANGER<img id = ""stim"" ><div class = green_square id = ""topsquare"" ></div><img id = ""stim"" ><div class = green_square  id = ""bottomsquare"" ></div>",null,word_square,0,SPACEBAR,,""
html-keyboard-response,681,1805188,null,"STRANGER",null,word,,, 'STRANGER',""
html-keyboard-response,682,1805704,null,"EUROPE<img id = ""stim"" ><div class = red_square id = ""topsquare"" ></div><img id = ""stim"" ><div class = red_square  id = ""bottomsquare"" ></div>",null,word_square,1,SPACEBAR,,""
html-keyboard-response,683,1807218,null,"EUROPE",null,word,,, 'EUROPE',""
html-keyboard-response,684,1807734,null,"SARDINE<img id = ""stim"" ><div class = green_square id = ""topsquare"" ></div><img id = ""stim"" ><div class = green_square  id = ""bottomsquare"" ></div>",null,word_square,0,SPACEBAR,,""
html-keyboard-response,685,1809239,null,"SARDINE",null,word,,, 'SARDINE',""
html-keyboard-response,686,1809743,null,"HOOK<img id = ""stim"" ><div class = green_square id = ""topsquare"" ></div><img id = ""stim"" ><div class = green_square  id = ""bottomsquare"" ></div>",null,word_square,0,SPACEBAR,,""
html-keyboard-response,687,1811252,null,"HOOK",null,word,,, 'HOOK',""
html-keyboard-response,688,1811768,null,"ORANGE<img id = ""stim"" ><div class = red_square id = ""topsquare"" ></div><img id = ""stim"" ><div class = red_square  id = ""bottomsquare"" ></div>",null,word_square,1,SPACEBAR,,""
html-keyboard-response,689,1813279,null,"ORANGE",null,word,,, 'ORANGE',""
html-keyboard-response,690,1813783,null,"DAISY<img id = ""stim"" ><div class = red_square id = ""topsquare"" ></div><img id = ""stim"" ><div class = red_square  id = ""bottomsquare"" ></div>",null,word_square,1,SPACEBAR,,""
html-keyboard-response,691,1815300,null,"DAISY",null,word,,, 'DAISY',""
survey-text,692,1816753,1447.2349998541176,"",,,,,,"{""Q0"":""2""}"
survey-text,693,1817651,891.1049999296665,"",,,,,,"{""Q0"":""5""}"
survey-text,694,1818423,765.5350000131875,"",,,,,,"{""Q0"":""2""}"
survey-text,695,1819574,1143.3749999850988,"",,,,,,"{""Q0"":""5""}"
survey-text,696,1821775,2194.245000137016,"",,,,,,"{""Q0"":""0""}"
survey-text,697,1823327,1544.4900000002235,"",,,,,,"{""Q0"":""2""}"
survey-text,698,1825756,2421.5949999634176,"",,,,,,"{""Q0"":""5""}"
survey-text,699,1826732,969.5850000716746,"",,,,,,"{""Q0"":""4""}"
survey-text,700,1827807,1065.320000052452,"",,,,,,"{""Q0"":""4""}"
survey-text,701,1829540,1725.5649999715388,"",,,,,,"{""Q0"":""2""}"
survey-text,702,1830557,1010.9900000970811,"",,,,,,"{""Q0"":""1""}"
survey-text,703,1831799,1234.7200000658631,"",,,,,,"{""Q0"":""4""}"
survey-text,704,1832985,1178.1350001692772,"",,,,,,"{""Q0"":""5""}"
survey-text,705,1834177,1185.4900000616908,"",,,,,,"{""Q0"":""1""}"
survey-text,706,1835259,1074.195000110194,"",,,,,,"{""Q0"":""6""}"
survey-text,707,1836114,847.4249998107553,"",,,,,,"{""Q0"":""2""}"
survey-text,708,1837559,1439.9999999441206,"",,,,,,"{""Q0"":""11""}"
survey-text,709,1840206,2640.4849998652935,"",,,,,,"{""Q0"":""2""}"
survey-text,710,1843981,3766.7699998710304,"",,,,,,"{""Q0"":""viking ""}"
survey-text,711,1852287,8299.434999935329,"",,,,,,"{""Q0"":""Viking ""}"
survey-text,712,1853988,1692.4099999014288,"",,,,,,"{""Q0"":""yaht""}"
survey-text,713,1860431,6435.640000039712,"",,,,,,"{""Q0"":""yacht ""}"
survey-text,714,1862992,2554.079999914393,"",,,,,,"{""Q0"":""tourist ""}"
survey-text,715,1865350,2352.1249999757856,"",,,,,,"{""Q0"":""judgee""}"
survey-text,716,1868239,2882.1549999993294,"",,,,,,"{""Q0"":""judge ""}"
survey-text,717,1870435,2189.4549999851733,"",,,,,,"{""Q0"":""stranger ""}"
survey-text,718,1874485,4043.894999893382,"",,,,,,"{""Q0"":""board ""}"
survey-text,719,1885577,11084.000000031665,"",,,,,,"{""Q0"":""stranger ""}"
survey-text,720,1904657,19075.28999983333,"",,,,,,"{""Q0"":"".""}"
survey-text,721,1919518,14852.734999964014,"",,,,,,"{""Q0"":"".""}"
html-keyboard-response,722,1920092,572.8000001981854,"<div style=""font-size:48px;"">Press any key to begin list 11 of 24 </div>",13,,,,,""
html-keyboard-response,723,1922601,null,"<div style=""font-size:60px;"">+</div>",null,,,,,""
html-keyboard-response,724,1923121,null,"BACON<img id = ""stim"" ><div class = red_square id = ""topsquare"" ></div><img id = ""stim"" ><div class = red_square  id = ""bottomsquare"" ></div>",null,word_square,1,SPACEBAR,,""
html-keyboard-response,725,1924623,null,"BACON",null,word,,, 'BACON',""
html-keyboard-response,726,1925127,null,"SKUNK<img id = ""stim"" ><div class = green_square id = ""topsquare"" ></div><img id = ""stim"" ><div class = green_square  id = ""bottomsquare"" ></div>",null,word_square,0,SPACEBAR,,""
html-keyboard-response,727,1926630,null,"SKUNK",null,word,,, 'SKUNK',""
html-keyboard-response,728,1927132,null,"CARPET<img id = ""stim"" ><div class = green_square id = ""topsquare"" ></div><img id = ""stim"" ><div class = green_square  id = ""bottomsquare"" ></div>",null,word_square,0,SPACEBAR,,""
html-keyboard-response,729,1928648,null,"CARPET",null,word,,, 'CARPET',""
html-keyboard-response,730,1929130,480.1950000692159,"GUARD<img id = ""stim"" ><div class = red_square id = ""topsquare"" ></div><img id = ""stim"" ><div class = red_square  id = ""bottomsquare"" ></div>",32,word_square,1,SPACEBAR,,""
html-keyboard-response,731,1930652,null,"GUARD",null,word,,, 'GUARD',""
html-keyboard-response,732,1931138,483.8649998418987,"GROUND<img id = ""stim"" ><div class = red_square id = ""topsquare"" ></div><img id = ""stim"" ><div class = red_square  id = ""bottomsquare"" ></div>",32,word_square,1,SPACEBAR,,""
html-keyboard-response,733,1932653,null,"GROUND",null,word,,, 'GROUND',""
html-keyboard-response,734,1933158,null,"ANKLE<img id = ""stim"" ><div class = green_square id = ""topsquare"" ></div><img id = ""stim"" ><div class = green_square  id = ""bottomsquare"" ></div>",null,word_square,0,SPACEBAR,,""
html-keyboard-response,735,1934667,null,"ANKLE",null,word,,, 'ANKLE',""
html-keyboard-response,736,1935170,null,"LODGE<img id = ""stim"" ><div class = green_square id = ""topsquare"" ></div><img id = ""stim"" ><div class = green_square  id = ""bottomsquare"" ></div>",null,word_square,0,SPACEBAR,,""
html-keyboard-response,737,1936680,null,"LODGE",null,word,,, 'LODGE',""
html-keyboard-response,738,1937183,null,"DOG<img id = ""stim"" ><div class = red_square id = ""topsquare"" ></div><img id = ""stim"" ><div class = red_square  id = ""bottomsquare"" ></div>",null,word_square,1,SPACEBAR,,""
html-keyboard-response,739,1938701,null,"DOG",null,word,,, 'DOG',""
html-keyboard-response,740,1939203,null,"SEAFOOD<img id = ""stim"" ><div class = red_square id = ""topsquare"" ></div><img id = ""stim"" ><div class = red_square  id = ""bottomsquare"" ></div>",null,word_square,1,SPACEBAR,,""
html-keyboard-response,741,1940714,null,"SEAFOOD",null,word,,, 'SEAFOOD',""
html-keyboard-response,742,1941216,null,"BANQUET<img id = ""stim"" ><div class = green_square id = ""topsquare"" ></div><img id = ""stim"" ><div class = green_square  id = ""bottomsquare"" ></div>",null,word_square,0,SPACEBAR,,""
html-keyboard-response,743,1942719,null,"BANQUET",null,word,,, 'BANQUET',""
html-keyboard-response,744,1943049,328.1200001947582,"DORM<img id = ""stim"" ><div class = red_square id = ""topsquare"" ></div><img id = ""stim"" ><div class = red_square  id = ""bottomsquare"" ></div>",32,word_square,1,SPACEBAR,,""
html-keyboard-response,745,1944562,null,"DORM",null,word,,, 'DORM',""
html-keyboard-response,746,1945077,null,"OMELET<img id = ""stim"" ><div class = green_square id = ""topsquare"" ></div><img id = ""stim"" ><div class = green_square  id = ""bottomsquare"" ></div>",null,word_square,0,SPACEBAR,,""
html-keyboard-response,747,1946591,null,"OMELET",null,word,,, 'OMELET',""
html-keyboard-response,748,1947096,null,"HUSBAND<img id = ""stim"" ><div class = red_square id = ""topsquare"" ></div><img id = ""stim"" ><div class = red_square  id = ""bottomsquare"" ></div>",null,word_square,1,SPACEBAR,,""
html-keyboard-response,749,1948610,null,"HUSBAND",null,word,,, 'HUSBAND',""
html-keyboard-response,750,1949125,null,"COLONEL<img id = ""stim"" ><div class = green_square id = ""topsquare"" ></div><img id = ""stim"" ><div class = green_square  id = ""bottomsquare"" ></div>",null,word_square,0,SPACEBAR,,""
html-keyboard-response,751,1950631,null,"COLONEL",null,word,,, 'COLONEL',""
html-keyboard-response,752,1951034,401.48000000044703,"CLIFF<img id = ""stim"" ><div class = red_square id = ""topsquare"" ></div><img id = ""stim"" ><div class = red_square  id = ""bottomsquare"" ></div>",32,word_square,1,SPACEBAR,,""
html-keyboard-response,753,1952547,null,"CLIFF",null,word,,, 'CLIFF',""
html-keyboard-response,754,1953034,485.1049999706447,"LAGOON<img id = ""stim"" ><div class = red_square id = ""topsquare"" ></div><img id = ""stim"" ><div class = red_square  id = ""bottomsquare"" ></div>",32,word_square,1,SPACEBAR,,""
html-keyboard-response,755,1954537,null,"LAGOON",null,word,,, 'LAGOON',""
html-keyboard-response,756,1955046,null,"BUREAU<img id = ""stim"" ><div class = green_square id = ""topsquare"" ></div><img id = ""stim"" ><div class = green_square  id = ""bottomsquare"" ></div>",null,word_square,0,SPACEBAR,,""
html-keyboard-response,757,1956562,null,"BUREAU",null,word,,, 'BUREAU',""
html-keyboard-response,758,1957066,null,"CHEST<img id = ""stim"" ><div class = green_square id = ""topsquare"" ></div><img id = ""stim"" ><div class = green_square  id = ""bottomsquare"" ></div>",null,word_square,0,SPACEBAR,,""
html-keyboard-response,759,1958577,null,"CHEST",null,word,,, 'CHEST',""
survey-text,760,1959781,1200.0249999109656,"",,,,,,"{""Q0"":""2""}"
survey-text,761,1960581,792.0899998862296,"",,,,,,"{""Q0"":""2""}"
survey-text,762,1961554,966.2699999753386,"",,,,,,"{""Q0"":""4""}"
survey-text,763,1962738,1177.8899999335408,"",,,,,,"{""Q0"":""2""}"
survey-text,764,1963789,1043.654999928549,"",,,,,,"{""Q0"":""5""}"
survey-text,765,1964808,1010.0899999961257,"",,,,,,"{""Q0"":""2""}"
survey-text,766,1965893,1079.4800000730902,"",,,,,,"{""Q0"":""1""}"
survey-text,767,1967294,1394.0600000787526,"",,,,,,"{""Q0"":""2""}"
survey-text,768,1968468,1167.8900001570582,"",,,,,,"{""Q0"":""1""}"
survey-text,769,1970626,2149.519999977201,"",,,,,,"{""Q0"":""0""}"
survey-text,770,1971629,996.4400001335889,"",,,,,,"{""Q0"":""4""}"
survey-text,771,1972602,967.5800001714379,"",,,,,,"{""Q0"":""5""}"
survey-text,772,1973719,1108.7350000161678,"",,,,,,"{""Q0"":""1""}"
survey-text,773,1974804,1078.7199998740107,"",,,,,,"{""Q0"":""5""}"
survey-text,774,1975880,1068.059999961406,"",,,,,,"{""Q0"":""2""}"
survey-text,775,1976978,1090.675000101328,"",,,,,,"{""Q0"":""5""}"
survey-text,776,1978450,1464.7950001526624,"",,,,,,"{""Q0"":""3""}"
survey-text,777,1979500,1043.2749998290092,"",,,,,,"{""Q0"":""4""}"
survey-text,778,1980581,1073.4800000209361,"",,,,,,"{""Q0"":""4""}"
survey-text,779,1982331,1740.8799999393523,"",,,,,,"{""Q0"":""3""}"
survey-text,780,1983934,1589.9350000545382,"",,,,,,"{""Q0"":""0""}"
survey-text,781,1994293,10351.890000049025,"",,,,,,"{""Q0"":""omelet ""}"
survey-text,782,1996793,2493.5749999713153,"",,,,,,"{""Q0"":""bacon""}"
survey-text,783,2002775,5975.594999967143,"",,,,,,"{""Q0"":""husband ""}"
survey-text,784,2008433,5651.365000056103,"",,,,,,"{""Q0"":""carpet ""}"
survey-text,785,2010575,2134.4900000840425,"",,,,,,"{""Q0"":""ground ""}"
survey-text,786,2011821,1239.8000000976026,"",,,,,,"{""Q0"":""lodge ""}"
survey-text,787,2012744,914.9949999991804,"",,,,,,"{""Q0"":""dog ""}"
survey-text,788,2014348,1597.9649999644607,"",,,,,,"{""Q0"":""dorm""}"
survey-text,789,2026339,11983.90999995172,"",,,,,,"{""Q0"":"".""}"
survey-text,790,2040303,13957.859999965876,"",,,,,,"{""Q0"":"".""}"
survey-text,791,2044760,4450.905000092462,"",,,,,,"{""Q0"":"".""}"
survey-text,792,2053907,9139.719999860972,"",,,,,,"{""Q0"":"".""}"
survey-text,793,2060791,6877.164999954402,"",,,,,,"{""Q0"":"".""}"
html-keyboard-response,794,2061296,502.75999982841313,"<div style=""font-size:48px;"">Press any key to begin list 12 of 24 </div>",13,,,,,""
html-keyboard-response,795,2063815,null,"<div style=""font-size:60px;"">+</div>",null,,,,,""
html-keyboard-response,796,2064321,null,"BLENDER<img id = ""stim"" ><div class = red_square id = ""topsquare"" ></div><img id = ""stim"" ><div class = red_square  id = ""bottomsquare"" ></div>",null,word_square,1,SPACEBAR,,""
html-keyboard-response,797,2065838,null,"BLENDER",null,word,,, 'BLENDER',""
html-keyboard-response,798,2066343,null,"IDOL<img id = ""stim"" ><div class = green_square id = ""topsquare"" ></div><img id = ""stim"" ><div class = green_square  id = ""bottomsquare"" ></div>",null,word_square,0,SPACEBAR,,""
html-keyboard-response,799,2067851,null,"IDOL",null,word,,, 'IDOL',""
html-keyboard-response,800,2068354,null,"TERMITE<img id = ""stim"" ><div class = green_square id = ""topsquare"" ></div><img id = ""stim"" ><div class = green_square  id = ""bottomsquare"" ></div>",null,word_square,0,SPACEBAR,,""
html-keyboard-response,801,2069871,null,"TERMITE",null,word,,, 'TERMITE',""
html-keyboard-response,802,2070373,null,"SKILLET<img id = ""stim"" ><div class = red_square id = ""topsquare"" ></div><img id = ""stim"" ><div class = red_square  id = ""bottomsquare"" ></div>",null,word_square,1,SPACEBAR,,""
html-keyboard-response,803,2071879,null,"SKILLET",null,word,,, 'SKILLET',""
html-keyboard-response,804,2072355,474.675000179559,"TRUMPET<img id = ""stim"" ><div class = red_square id = ""topsquare"" ></div><img id = ""stim"" ><div class = red_square  id = ""bottomsquare"" ></div>",32,word_square,1,SPACEBAR,,""
html-keyboard-response,805,2073872,null,"TRUMPET",null,word,,, 'TRUMPET',""
html-keyboard-response,806,2074379,null,"CEILING<img id = ""stim"" ><div class = green_square id = ""topsquare"" ></div><img id = ""stim"" ><div class = green_square  id = ""bottomsquare"" ></div>",null,word_square,0,SPACEBAR,,""
html-keyboard-response,807,2075894,null,"CEILING",null,word,,, 'CEILING',""
html-keyboard-response,808,2076398,null,"CANYON<img id = ""stim"" ><div class = green_square id = ""topsquare"" ></div><img id = ""stim"" ><div class = green_square  id = ""bottomsquare"" ></div>",null,word_square,0,SPACEBAR,,""
html-keyboard-response,809,2077914,null,"CANYON",null,word,,, 'CANYON',""
html-keyboard-response,810,2078326,410.48000007867813,"SLOPE<img id = ""stim"" ><div class = red_square id = ""topsquare"" ></div><img id = ""stim"" ><div class = red_square  id = ""bottomsquare"" ></div>",32,word_square,1,SPACEBAR,,""
html-keyboard-response,811,2079833,null,"SLOPE",null,word,,, 'SLOPE',""
html-keyboard-response,812,2080336,null,"PLIERS<img id = ""stim"" ><div class = red_square id = ""topsquare"" ></div><img id = ""stim"" ><div class = red_square  id = ""bottomsquare"" ></div>",null,word_square,1,SPACEBAR,,""
html-keyboard-response,813,2081844,null,"PLIERS",null,word,,, 'PLIERS',""
html-keyboard-response,814,2082349,null,"CROSS<img id = ""stim"" ><div class = green_square id = ""topsquare"" ></div><img id = ""stim"" ><div class = green_square  id = ""bottomsquare"" ></div>",null,word_square,0,SPACEBAR,,""
html-keyboard-response,815,2083863,null,"CROSS",null,word,,, 'CROSS',""
html-keyboard-response,816,2084292,427.4149998091161,"TEMPLE<img id = ""stim"" ><div class = red_square id = ""topsquare"" ></div><img id = ""stim"" ><div class = red_square  id = ""bottomsquare"" ></div>",32,word_square,1,SPACEBAR,,""
html-keyboard-response,817,2085804,null,"TEMPLE",null,word,,, 'TEMPLE',""
html-keyboard-response,818,2086310,null,"DRESSER<img id = ""stim"" ><div class = green_square id = ""topsquare"" ></div><img id = ""stim"" ><div class = green_square  id = ""bottomsquare"" ></div>",null,word_square,0,SPACEBAR,,""
html-keyboard-response,819,2087812,null,"DRESSER",null,word,,, 'DRESSER',""
html-keyboard-response,820,2088224,410.8499998692423,"BISCUIT<img id = ""stim"" ><div class = red_square id = ""topsquare"" ></div><img id = ""stim"" ><div class = red_square  id = ""bottomsquare"" ></div>",32,word_square,1,SPACEBAR,,""
html-keyboard-response,821,2089736,null,"BISCUIT",null,word,,, 'BISCUIT',""
html-keyboard-response,822,2090240,null,"LILY<img id = ""stim"" ><div class = green_square id = ""topsquare"" ></div><img id = ""stim"" ><div class = green_square  id = ""bottomsquare"" ></div>",null,word_square,0,SPACEBAR,,""
html-keyboard-response,823,2091751,null,"LILY",null,word,,, 'LILY',""
html-keyboard-response,824,2092071,318.88499995693564,"BOUQUET<img id = ""stim"" ><div class = red_square id = ""topsquare"" ></div><img id = ""stim"" ><div class = red_square  id = ""bottomsquare"" ></div>",32,word_square,1,SPACEBAR,,""
html-keyboard-response,825,2093573,null,"BOUQUET",null,word,,, 'BOUQUET',""
html-keyboard-response,826,2093893,318.65999987348914,"STAPLER<img id = ""stim"" ><div class = red_square id = ""topsquare"" ></div><img id = ""stim"" ><div class = red_square  id = ""bottomsquare"" ></div>",32,word_square,1,SPACEBAR,,""
html-keyboard-response,827,2095405,null,"STAPLER",null,word,,, 'STAPLER',""
html-keyboard-response,828,2095910,null,"STATUE<img id = ""stim"" ><div class = green_square id = ""topsquare"" ></div><img id = ""stim"" ><div class = green_square  id = ""bottomsquare"" ></div>",null,word_square,0,SPACEBAR,,""
html-keyboard-response,829,2097420,null,"STATUE",null,word,,, 'STATUE',""
html-keyboard-response,830,2097923,null,"NEEDLE<img id = ""stim"" ><div class = green_square id = ""topsquare"" ></div><img id = ""stim"" ><div class = green_square  id = ""bottomsquare"" ></div>",null,word_square,0,SPACEBAR,,""
html-keyboard-response,831,2099440,null,"NEEDLE",null,word,,, 'NEEDLE',""
survey-text,832,2100997,1552.4250001180917,"",,,,,,"{""Q0"":""4""}"
survey-text,833,2101899,896.2900000624359,"",,,,,,"{""Q0"":""3""}"
survey-text,834,2102974,1069.0450000111014,"",,,,,,"{""Q0"":""5""}"
survey-text,835,2103931,949.8799999710172,"",,,,,,"{""Q0"":""3""}"
survey-text,836,2106116,2178.739999886602,"",,,,,,"{""Q0"":""1""}"
survey-text,837,2107701,1577.7000000234693,"",,,,,,"{""Q0"":""2""}"
survey-text,838,2109595,1887.4150000046939,"",,,,,,"{""Q0"":""4""}"
survey-text,839,2110563,962.7699998673052,"",,,,,,"{""Q0"":""5""}"
survey-text,840,2111731,1160.1599999703467,"",,,,,,"{""Q0"":""5""}"
survey-text,841,2113136,1397.0300001092255,"",,,,,,"{""Q0"":""3""}"
survey-text,842,2114005,860.2350000292063,"",,,,,,"{""Q0"":""3""}"
survey-text,843,2114975,964.7750000003725,"",,,,,,"{""Q0"":""4""}"
survey-text,844,2116958,1974.5950000360608,"",,,,,,"{""Q0"":""3""}"
survey-text,845,2118235,1268.8400000333786,"",,,,,,"{""Q0"":""3""}"
survey-text,846,2119522,1281.700000166893,"",,,,,,"{""Q0"":""3""}"
survey-text,847,2120935,1405.365000013262,"",,,,,,"{""Q0"":""1""}"
survey-text,848,2121884,942.4650000873953,"",,,,,,"{""Q0"":""3""}"
survey-text,849,2123910,2020.289999898523,"",,,,,,"{""Q0"":""0""}"
survey-text,850,2128915,4997.620000038296,"",,,,,,"{""Q0"":""bouquet ""}"
survey-text,851,2131039,2116.409999784082,"",,,,,,"{""Q0"":""blender""}"
survey-text,852,2132072,1026.7350000794977,"",,,,,,"{""Q0"":""lily ""}"
survey-text,853,2200532,68453.80499982275,"",,,,,,"{""Q0"":"".""}"
html-keyboard-response,854,2200943,408.85999985039234,"<div style=""font-size:48px;"">Press any key to begin list 13 of 24 </div>",13,,,,,""
