trial_type,trial_index,time_elapsed,rt,stimulus,key_press,test_part,task,targ_cond,correctKeyCode,correct,word,value,response
pavlovia,0,3115,,"",,,,,,,,,
external-html,1,49619,45884.199999971315,"",,,,,,,,,
html-keyboard-response,2,54379,4757.7649999875575,"Welcome to the experiment. Press any key to begin.",32,,,,,,,,
html-keyboard-response,3,62616,8235.504999989644,"<p>You will see a list of words and colored squares in the following task.<p><p>Press the spacebar whenever you see a red square.<p><p>Do not press a key if the square is green<p><p>Press the spacebar to continue.</p>",32,,,,,,,,
html-keyboard-response,4,292874,229741.53999984264,"<p>Please try to remember as many of the words as you can, and try to think about the meaning of each word as it appears.<p><p>After the detection and encoding task you will be asked to solve some math problems for 24 seconds.<p> Please solve as many problems as you can in the time given. <p>",32,,,,,,,,
html-keyboard-response,5,297945,4570.160000119358,"After solving the math problems, you will be asked to type in as many words <p>from the previous list as you can remember for 75 seconds.<p> If you finish recalling before the 75 seconds are up,<p> just sit tight and try to think of any more words you could have missed. <p><p>We will begin with a brief practice session<p>Press the spacebar to begin the practice.</p>",32,,,,,,,,
html-keyboard-response,6,300455,null,"<div style=""font-size:60px;"">+</div>",null,,,,,,,,
html-keyboard-response,7,300960,null,"HAPPY<img id = ""stim"" ><div class = green_square id = ""topsquare"" ></div><img id = ""stim"" ><div class = green_square  id = ""bottomsquare"" ></div>",null,word_square,prac_response,0,none,true,,,
html-keyboard-response,8,302466,null,"HAPPY",null,word,,,,,HAPPY,,
html-keyboard-response,9,302981,null,"COLD<img id = ""stim"" ><div class = red_square id = ""topsquare"" ></div><img id = ""stim"" ><div class = red_square  id = ""bottomsquare"" ></div>",null,word_square,prac_response,1,Space,false,,,
html-keyboard-response,10,304487,null,"COLD",null,word,,,,,COLD,,
html-keyboard-response,11,304990,null,"HEAVY<img id = ""stim"" ><div class = red_square id = ""topsquare"" ></div><img id = ""stim"" ><div class = red_square  id = ""bottomsquare"" ></div>",null,word_square,prac_response,1,Space,false,,,
html-keyboard-response,12,306492,null,"HEAVY",null,word,,,,,HEAVY,,
html-keyboard-response,13,306994,411.47000016644597,"FUNNY<img id = ""stim"" ><div class = green_square id = ""topsquare"" ></div><img id = ""stim"" ><div class = green_square  id = ""bottomsquare"" ></div>",32,word_square,prac_response,0,none,true,,,
html-keyboard-response,14,308510,null,"FUNNY",null,word,,,,,FUNNY,,
html-keyboard-response,15,309012,null,"SCARY<img id = ""stim"" ><div class = red_square id = ""topsquare"" ></div><img id = ""stim"" ><div class = red_square  id = ""bottomsquare"" ></div>",null,word_square,prac_response,1,Space,false,,,
html-keyboard-response,16,310529,null,"SCARY",null,word,,,,,SCARY,,
html-keyboard-response,17,311030,null,"PEACEFUL<img id = ""stim"" ><div class = red_square id = ""topsquare"" ></div><img id = ""stim"" ><div class = red_square  id = ""bottomsquare"" ></div>",null,word_square,prac_response,1,Space,false,,,
html-keyboard-response,18,312532,null,"PEACEFUL",null,word,,,,,PEACEFUL,,
html-keyboard-response,19,313042,427.38999985158443,"LITTLE<img id = ""stim"" ><div class = green_square id = ""topsquare"" ></div><img id = ""stim"" ><div class = green_square  id = ""bottomsquare"" ></div>",32,word_square,prac_response,0,none,true,,,
html-keyboard-response,20,314555,null,"LITTLE",null,word,,,,,LITTLE,,
html-keyboard-response,21,315065,388.46500008367,"TIRED<img id = ""stim"" ><div class = green_square id = ""topsquare"" ></div><img id = ""stim"" ><div class = green_square  id = ""bottomsquare"" ></div>",32,word_square,prac_response,0,none,true,,,
html-keyboard-response,22,316575,null,"TIRED",null,word,,,,,TIRED,,
html-keyboard-response,23,317085,383.88999993912876,"ENTERTAINING<img id = ""stim"" ><div class = green_square id = ""topsquare"" ></div><img id = ""stim"" ><div class = green_square  id = ""bottomsquare"" ></div>",32,word_square,prac_response,0,none,true,,,
html-keyboard-response,24,318591,null,"ENTERTAINING",null,word,,,,,ENTERTAINING,,
html-keyboard-response,25,319093,null,"GRATEFUL<img id = ""stim"" ><div class = red_square id = ""topsquare"" ></div><img id = ""stim"" ><div class = red_square  id = ""bottomsquare"" ></div>",null,word_square,prac_response,1,Space,false,,,
html-keyboard-response,26,320610,null,"GRATEFUL",null,word,,,,,GRATEFUL,,
html-keyboard-response,27,321119,341.20999998413026,"LOUD<img id = ""stim"" ><div class = green_square id = ""topsquare"" ></div><img id = ""stim"" ><div class = green_square  id = ""bottomsquare"" ></div>",32,word_square,prac_response,0,none,true,,,
html-keyboard-response,28,322632,null,"LOUD",null,word,,,,,LOUD,,
html-keyboard-response,29,323134,null,"SMART<img id = ""stim"" ><div class = red_square id = ""topsquare"" ></div><img id = ""stim"" ><div class = red_square  id = ""bottomsquare"" ></div>",null,word_square,prac_response,1,Space,false,,,
html-keyboard-response,30,324637,null,"SMART",null,word,,,,,SMART,,
html-keyboard-response,31,325138,null,"SMOOTH<img id = ""stim"" ><div class = red_square id = ""topsquare"" ></div><img id = ""stim"" ><div class = red_square  id = ""bottomsquare"" ></div>",null,word_square,prac_response,1,Space,false,,,
html-keyboard-response,32,326648,null,"SMOOTH",null,word,,,,,SMOOTH,,
html-keyboard-response,33,327163,432.64500005170703,"DISHONEST<img id = ""stim"" ><div class = green_square id = ""topsquare"" ></div><img id = ""stim"" ><div class = green_square  id = ""bottomsquare"" ></div>",32,word_square,prac_response,0,none,true,,,
html-keyboard-response,34,328671,null,"DISHONEST",null,word,,,,,DISHONEST,,
html-keyboard-response,35,329173,null,"WEALTHY<img id = ""stim"" ><div class = red_square id = ""topsquare"" ></div><img id = ""stim"" ><div class = red_square  id = ""bottomsquare"" ></div>",null,word_square,prac_response,1,Space,false,,,
html-keyboard-response,36,330682,null,"WEALTHY",null,word,,,,,WEALTHY,,
html-keyboard-response,37,331196,374.3499999400228,"BEAUTIFUL<img id = ""stim"" ><div class = green_square id = ""topsquare"" ></div><img id = ""stim"" ><div class = green_square  id = ""bottomsquare"" ></div>",32,word_square,prac_response,0,none,true,,,
html-keyboard-response,38,332699,null,"BEAUTIFUL",null,word,,,,,BEAUTIFUL,,
html-keyboard-response,39,333201,null,"DREARY<img id = ""stim"" ><div class = green_square id = ""topsquare"" ></div><img id = ""stim"" ><div class = green_square  id = ""bottomsquare"" ></div>",null,word_square,prac_response,0,none,true,,,
html-keyboard-response,40,334706,null,"DREARY",null,word,,,,,DREARY,,
html-keyboard-response,41,335209,null,"PLAYFUL<img id = ""stim"" ><div class = red_square id = ""topsquare"" ></div><img id = ""stim"" ><div class = red_square  id = ""bottomsquare"" ></div>",null,word_square,prac_response,1,Space,false,,,
html-keyboard-response,42,336716,null,"PLAYFUL",null,word,,,,,PLAYFUL,,
html-keyboard-response,43,346737,10018.660000059754,"<p> Uh oh. You responded correctly on 50% of the red squares.</p>
                  <p>We need you keep your accuracy above 80%</p>
                  <p>We're going to try once more to make sure you understand the task. press any key to continue.</p>",32,,,,,,,,
html-keyboard-response,44,350633,3894.2100000567734,"<p>You will see a list of words and colored squares in the following task.<p><p>Press the spacebar whenever you see a red square.<p><p>Do not press a key if the square is green<p><p>Press the spacebar to continue.</p>",32,,,,,,,,
html-keyboard-response,45,353152,null,"<div style=""font-size:60px;"">+</div>",null,,,,,,,,
html-keyboard-response,46,353664,382.77500006370246,"HAPPY<img id = ""stim"" ><div class = green_square id = ""topsquare"" ></div><img id = ""stim"" ><div class = green_square  id = ""bottomsquare"" ></div>",32,word_square,response,0,none,true,,,
html-keyboard-response,47,355172,null,"HAPPY",null,word,,,,,HAPPY,,
html-keyboard-response,48,355594,419.6999999694526,"COLD<img id = ""stim"" ><div class = red_square id = ""topsquare"" ></div><img id = ""stim"" ><div class = red_square  id = ""bottomsquare"" ></div>",32,word_square,response,1,Space,true,,,
html-keyboard-response,49,357107,null,"COLD",null,word,,,,,COLD,,
html-keyboard-response,50,357475,365.36499997600913,"HEAVY<img id = ""stim"" ><div class = red_square id = ""topsquare"" ></div><img id = ""stim"" ><div class = red_square  id = ""bottomsquare"" ></div>",32,word_square,response,1,Space,true,,,
html-keyboard-response,51,358977,null,"HEAVY",null,word,,,,,HEAVY,,
html-keyboard-response,52,359495,null,"FUNNY<img id = ""stim"" ><div class = green_square id = ""topsquare"" ></div><img id = ""stim"" ><div class = green_square  id = ""bottomsquare"" ></div>",null,word_square,response,0,none,true,,,
html-keyboard-response,53,360997,null,"FUNNY",null,word,,,,,FUNNY,,
html-keyboard-response,54,361361,362.47999989427626,"SCARY<img id = ""stim"" ><div class = red_square id = ""topsquare"" ></div><img id = ""stim"" ><div class = red_square  id = ""bottomsquare"" ></div>",32,word_square,response,1,Space,true,,,
html-keyboard-response,55,362867,null,"SCARY",null,word,,,,,SCARY,,
html-keyboard-response,56,363201,332.66500011086464,"PEACEFUL<img id = ""stim"" ><div class = red_square id = ""topsquare"" ></div><img id = ""stim"" ><div class = red_square  id = ""bottomsquare"" ></div>",32,word_square,response,1,Space,true,,,
html-keyboard-response,57,364710,null,"PEACEFUL",null,word,,,,,PEACEFUL,,
html-keyboard-response,58,365220,null,"LITTLE<img id = ""stim"" ><div class = green_square id = ""topsquare"" ></div><img id = ""stim"" ><div class = green_square  id = ""bottomsquare"" ></div>",null,word_square,response,0,none,true,,,
html-keyboard-response,59,366724,null,"LITTLE",null,word,,,,,LITTLE,,
html-keyboard-response,60,367235,null,"TIRED<img id = ""stim"" ><div class = green_square id = ""topsquare"" ></div><img id = ""stim"" ><div class = green_square  id = ""bottomsquare"" ></div>",null,word_square,response,0,none,true,,,
html-keyboard-response,61,368741,null,"TIRED",null,word,,,,,TIRED,,
html-keyboard-response,62,369250,null,"ENTERTAINING<img id = ""stim"" ><div class = green_square id = ""topsquare"" ></div><img id = ""stim"" ><div class = green_square  id = ""bottomsquare"" ></div>",null,word_square,response,0,none,true,,,
html-keyboard-response,63,370755,null,"ENTERTAINING",null,word,,,,,ENTERTAINING,,
html-keyboard-response,64,371097,340.60500003397465,"GRATEFUL<img id = ""stim"" ><div class = red_square id = ""topsquare"" ></div><img id = ""stim"" ><div class = red_square  id = ""bottomsquare"" ></div>",32,word_square,response,1,Space,true,,,
html-keyboard-response,65,372599,null,"GRATEFUL",null,word,,,,,GRATEFUL,,
html-keyboard-response,66,373102,null,"LOUD<img id = ""stim"" ><div class = green_square id = ""topsquare"" ></div><img id = ""stim"" ><div class = green_square  id = ""bottomsquare"" ></div>",null,word_square,response,0,none,true,,,
html-keyboard-response,67,374614,null,"LOUD",null,word,,,,,LOUD,,
html-keyboard-response,68,374953,338.43500004149973,"SMART<img id = ""stim"" ><div class = red_square id = ""topsquare"" ></div><img id = ""stim"" ><div class = red_square  id = ""bottomsquare"" ></div>",32,word_square,response,1,Space,true,,,
html-keyboard-response,69,376461,null,"SMART",null,word,,,,,SMART,,
html-keyboard-response,70,376826,364.03500009328127,"SMOOTH<img id = ""stim"" ><div class = red_square id = ""topsquare"" ></div><img id = ""stim"" ><div class = red_square  id = ""bottomsquare"" ></div>",32,word_square,response,1,Space,true,,,
html-keyboard-response,71,378328,null,"SMOOTH",null,word,,,,,SMOOTH,,
html-keyboard-response,72,378830,null,"DISHONEST<img id = ""stim"" ><div class = green_square id = ""topsquare"" ></div><img id = ""stim"" ><div class = green_square  id = ""bottomsquare"" ></div>",null,word_square,response,0,none,true,,,
html-keyboard-response,73,380334,null,"DISHONEST",null,word,,,,,DISHONEST,,
html-keyboard-response,74,380674,338.2399999536574,"WEALTHY<img id = ""stim"" ><div class = red_square id = ""topsquare"" ></div><img id = ""stim"" ><div class = red_square  id = ""bottomsquare"" ></div>",32,word_square,response,1,Space,true,,,
html-keyboard-response,75,382188,null,"WEALTHY",null,word,,,,,WEALTHY,,
html-keyboard-response,76,382701,null,"BEAUTIFUL<img id = ""stim"" ><div class = green_square id = ""topsquare"" ></div><img id = ""stim"" ><div class = green_square  id = ""bottomsquare"" ></div>",null,word_square,response,0,none,true,,,
html-keyboard-response,77,384209,null,"BEAUTIFUL",null,word,,,,,BEAUTIFUL,,
html-keyboard-response,78,384710,null,"DREARY<img id = ""stim"" ><div class = green_square id = ""topsquare"" ></div><img id = ""stim"" ><div class = green_square  id = ""bottomsquare"" ></div>",null,word_square,response,0,none,true,,,
html-keyboard-response,79,386212,null,"DREARY",null,word,,,,,DREARY,,
html-keyboard-response,80,386577,363.10999980196357,"PLAYFUL<img id = ""stim"" ><div class = red_square id = ""topsquare"" ></div><img id = ""stim"" ><div class = red_square  id = ""bottomsquare"" ></div>",32,word_square,response,1,Space,true,,,
html-keyboard-response,81,388089,null,"PLAYFUL",null,word,,,,,PLAYFUL,,
html-keyboard-response,82,463162,75071.58500002697,"<p> Good job! You responded correctly to 100% of the red squares.</p>
                  <p>Be sure to keep your accuracy above 80%</p>
                  <p>Press any key to begin the math and recall sections. Thank you!</p>",32,,,,,,,,
call-function,83,463162,,"",,,,,,,,,
html-keyboard-response,84,463264,null,"",null,,,,,,,,
math-period,85,467641,6928.245000075549,"",,,,,,,,,1numpad
html-keyboard-response,86,467743,null,"",null,,,,,,,,
math-period,87,469401,3120.1949997339398,"",,,,,,,,,2numpad
html-keyboard-response,88,469515,null,"",null,,,,,,,,
math-period,89,471122,3035.6149999424815,"",,,,,,,,,2numpad
html-keyboard-response,90,471224,null,"",null,,,,,,,,
math-period,91,472801,1576.270000077784,"",,,,,,,,,
html-keyboard-response,92,472904,null,"",null,,,,,,,,
math-period,93,473017,112.27499996311963,"",,,,,,,,,
html-keyboard-response,94,473131,null,"",null,,,,,,,,
math-period,95,474825,3122.9450001847,"",,,,,,,,,6numpad
html-keyboard-response,96,474926,null,"",null,,,,,,,,
math-period,97,476441,2867.609999841079,"",,,,,,,,,5numpad
html-keyboard-response,98,476543,null,"",null,,,,,,,,
math-period,99,478161,3072.859999956563,"",,,,,,,,,4numpad
html-keyboard-response,100,478271,null,"",null,,,,,,,,
math-period,101,479624,2552.6949998456985,"",,,,,,,,,4numpad
html-keyboard-response,102,479726,null,"",null,,,,,,,,
math-period,103,481304,3025.3999999258667,"",,,,,,,,,5numpad
html-keyboard-response,104,481405,null,"",null,,,,,,,,
math-period,105,482576,2146.930000046268,"",,,,,,,,,3numpad
html-keyboard-response,106,482682,null,"",null,,,,,,,,
math-period,107,483776,2081.72499993816,"",,,,,,,,,4numpad
html-keyboard-response,108,483878,null,"",null,,,,,,,,
math-period,109,485592,3235.3550002444535,"",,,,,,,,,5numpad
html-keyboard-response,110,485693,null,"",null,,,,,,,,
math-period,111,487164,null,"",,,,,,,,,
html-keyboard-response,112,488174,null,"Recall Period!",null,,,,,,,,
call-function,113,488175,,"",,,,,,,,,
html-keyboard-response,114,488277,null,"",null,,,,,,,,
recall-period,115,491943,15063.020000001416,"",,,,,,,,,cold
html-keyboard-response,116,492058,null,"",null,,,,,,,,
recall-period,117,493608,5239.94499980472,"",,,,,,,,,warm
html-keyboard-response,118,493712,null,"",null,,,,,,,,
recall-period,119,497616,14226.299999980256,"",,,,,,,,,hot
html-keyboard-response,120,497725,null,"",null,,,,,,,,
recall-period,121,499153,5731.529999990016,"",,,,,,,,,happy
html-keyboard-response,122,499268,null,"",null,,,,,,,,
recall-period,123,500520,4027.515000430867,"",,,,,,,,,mad
html-keyboard-response,124,500623,null,"",null,,,,,,,,
recall-period,125,503473,14349.494999274611,"",,,,,,,,,smile
html-keyboard-response,126,503582,null,"",null,,,,,,,,
recall-period,127,514560,57509.43999993615,"",,,,,,,,,joy
html-keyboard-response,128,514661,null,"",null,,,,,,,,
recall-period,129,515808,4050.144999753684,"",,,,,,,,,good
html-keyboard-response,130,515910,null,"",null,,,,,,,,
recall-period,131,516824,2259.619999676943,"",,,,,,,,,bad
html-keyboard-response,132,516938,null,"",null,,,,,,,,
recall-period,133,526816,20240.404999582097,"",,,,,,,,,
html-keyboard-response,134,526918,null,"",null,,,,,,,,
recall-period,135,527368,448.95999995060265,"",,,,,,,,,
html-keyboard-response,136,527470,null,"",null,,,,,,,,
recall-period,137,535760,50631.190000567585,"",,,,,,,,,growth
html-keyboard-response,138,535867,null,"",null,,,,,,,,
recall-period,139,540816,24669.279999099672,"",,,,,,,,,beach
html-keyboard-response,140,540929,null,"",null,,,,,,,,
recall-period,141,555681,137335.38999897428,"",,,,,,,,,wonderful
html-keyboard-response,142,555788,null,"",null,,,,,,,,
recall-period,143,563188,14510.715000331402,"",,,,,,,,,jo
html-keyboard-response,144,563701,null,"Time's Up!",null,,,,,,,,
html-keyboard-response,145,713504,149802.29000002146,"<p>We will now begin the experiment!<p><p>Please try to remember all words from each list.<p><p>Press the spacebar whenever you see a red square.<p><p><p><p>Press the spacebar to begin.</p>",32,,,,,,,,
html-keyboard-response,146,985081,271068.1699998677,"<div style=""font-size:48px;"">Press any key to begin list 1 of 24 </div>",32,,,,,,,,
html-keyboard-response,147,987592,null,"<div style=""font-size:60px;"">+</div>",null,,,,,,,,
html-keyboard-response,148,988094,null,"DWARF<img id = ""stim"" ><div class = red_square id = ""topsquare"" ></div><img id = ""stim"" ><div class = red_square  id = ""bottomsquare"" ></div>",null,word_square,response,1,Space,false,,,
html-keyboard-response,149,989603,null,"DWARF",null,word,,,,, 'DWARF',,
html-keyboard-response,150,990105,null,"LEMON<img id = ""stim"" ><div class = green_square id = ""topsquare"" ></div><img id = ""stim"" ><div class = green_square  id = ""bottomsquare"" ></div>",null,word_square,response,0,none,true,,,
html-keyboard-response,151,991608,null,"LEMON",null,word,,,,, 'LEMON',,
html-keyboard-response,152,992120,null,"BASEBALL<img id = ""stim"" ><div class = green_square id = ""topsquare"" ></div><img id = ""stim"" ><div class = green_square  id = ""bottomsquare"" ></div>",null,word_square,response,0,none,true,,,
html-keyboard-response,153,993633,null,"BASEBALL",null,word,,,,, 'BASEBALL',,
html-keyboard-response,154,994134,null,"TOASTER<img id = ""stim"" ><div class = red_square id = ""topsquare"" ></div><img id = ""stim"" ><div class = red_square  id = ""bottomsquare"" ></div>",null,word_square,response,1,Space,false,,,
html-keyboard-response,155,995642,null,"TOASTER",null,word,,,,, 'TOASTER',,
html-keyboard-response,156,996144,null,"JOKER<img id = ""stim"" ><div class = green_square id = ""topsquare"" ></div><img id = ""stim"" ><div class = green_square  id = ""bottomsquare"" ></div>",null,word_square,response,0,none,true,,,
html-keyboard-response,157,997647,null,"JOKER",null,word,,,,, 'JOKER',,
html-keyboard-response,158,998160,null,"KNIFE<img id = ""stim"" ><div class = red_square id = ""topsquare"" ></div><img id = ""stim"" ><div class = red_square  id = ""bottomsquare"" ></div>",null,word_square,response,1,Space,false,,,
html-keyboard-response,159,999668,null,"KNIFE",null,word,,,,, 'KNIFE',,
html-keyboard-response,160,1000179,null,"BINDER<img id = ""stim"" ><div class = green_square id = ""topsquare"" ></div><img id = ""stim"" ><div class = green_square  id = ""bottomsquare"" ></div>",null,word_square,response,0,none,true,,,
html-keyboard-response,161,1001685,null,"BINDER",null,word,,,,, 'BINDER',,
html-keyboard-response,162,1002136,449.60499997250736,"FEATHER<img id = ""stim"" ><div class = red_square id = ""topsquare"" ></div><img id = ""stim"" ><div class = red_square  id = ""bottomsquare"" ></div>",32,word_square,response,1,Space,true,,,
html-keyboard-response,163,1003638,null,"FEATHER",null,word,,,,, 'FEATHER',,
html-keyboard-response,164,1004096,456.12500002607703,"RAZOR<img id = ""stim"" ><div class = red_square id = ""topsquare"" ></div><img id = ""stim"" ><div class = red_square  id = ""bottomsquare"" ></div>",32,word_square,response,1,Space,true,,,
html-keyboard-response,165,1005608,null,"RAZOR",null,word,,,,, 'RAZOR',,
html-keyboard-response,166,1006113,null,"WASP<img id = ""stim"" ><div class = green_square id = ""topsquare"" ></div><img id = ""stim"" ><div class = green_square  id = ""bottomsquare"" ></div>",null,word_square,response,0,none,true,,,
html-keyboard-response,167,1007616,null,"WASP",null,word,,,,, 'WASP',,
html-keyboard-response,168,1008117,null,"HORNET<img id = ""stim"" ><div class = green_square id = ""topsquare"" ></div><img id = ""stim"" ><div class = green_square  id = ""bottomsquare"" ></div>",null,word_square,response,0,none,true,,,
html-keyboard-response,169,1009621,null,"HORNET",null,word,,,,, 'HORNET',,
html-keyboard-response,170,1010104,481.5299999900162,"HEADBAND<img id = ""stim"" ><div class = red_square id = ""topsquare"" ></div><img id = ""stim"" ><div class = red_square  id = ""bottomsquare"" ></div>",32,word_square,response,1,Space,true,,,
html-keyboard-response,171,1011614,null,"HEADBAND",null,word,,,,, 'HEADBAND',,
html-keyboard-response,172,1012116,null,"STREAM<img id = ""stim"" ><div class = green_square id = ""topsquare"" ></div><img id = ""stim"" ><div class = green_square  id = ""bottomsquare"" ></div>",null,word_square,response,0,none,true,,,
html-keyboard-response,173,1013630,null,"STREAM",null,word,,,,, 'STREAM',,
html-keyboard-response,174,1014140,null,"GRAPE<img id = ""stim"" ><div class = red_square id = ""topsquare"" ></div><img id = ""stim"" ><div class = red_square  id = ""bottomsquare"" ></div>",null,word_square,response,1,Space,false,,,
html-keyboard-response,175,1015650,null,"GRAPE",null,word,,,,, 'GRAPE',,
html-keyboard-response,176,1016152,null,"JELLY<img id = ""stim"" ><div class = red_square id = ""topsquare"" ></div><img id = ""stim"" ><div class = red_square  id = ""bottomsquare"" ></div>",null,word_square,response,1,Space,false,,,
html-keyboard-response,177,1017656,null,"JELLY",null,word,,,,, 'JELLY',,
html-keyboard-response,178,1018163,null,"PLASTER<img id = ""stim"" ><div class = green_square id = ""topsquare"" ></div><img id = ""stim"" ><div class = green_square  id = ""bottomsquare"" ></div>",null,word_square,response,0,none,true,,,
html-keyboard-response,179,1019668,null,"PLASTER",null,word,,,,, 'PLASTER',,
html-keyboard-response,180,1020170,null,"TEMPLE<img id = ""stim"" ><div class = green_square id = ""topsquare"" ></div><img id = ""stim"" ><div class = green_square  id = ""bottomsquare"" ></div>",null,word_square,response,0,none,true,,,
html-keyboard-response,181,1021673,null,"TEMPLE",null,word,,,,, 'TEMPLE',,
html-keyboard-response,182,1022001,326.54999988153577,"BRIDGE<img id = ""stim"" ><div class = red_square id = ""topsquare"" ></div><img id = ""stim"" ><div class = red_square  id = ""bottomsquare"" ></div>",32,word_square,response,1,Space,true,,,
html-keyboard-response,183,1023518,null,"BRIDGE",null,word,,,,, 'BRIDGE',,
call-function,184,1023519,,"",,,,,,,,,
html-keyboard-response,185,1023621,null,"",null,,,,,,,,
math-period,186,1027104,5931.499999947846,"",,,,,,,,,3numpad
html-keyboard-response,187,1027206,null,"",null,,,,,,,,
math-period,188,1028984,3312.9499999340624,"",,,,,,,,,4numpad
html-keyboard-response,189,1029097,null,"",null,,,,,,,,
math-period,190,1032016,5667.5100000575185,"",,,,,,,,,3numpad
html-keyboard-response,191,1032118,null,"",null,,,,,,,,
math-period,192,1033160,1905.5099997203797,"",,,,,,,,,2numpad
html-keyboard-response,193,1033268,null,"",null,,,,,,,,
math-period,194,1034551,2396.3899998925626,"",,,,,,,,,3numpad
html-keyboard-response,195,1034655,null,"",null,,,,,,,,
math-period,196,1035735,1989.7849997505546,"",,,,,,,,,5numpad
html-keyboard-response,197,1035837,null,"",null,,,,,,,,
math-period,198,1036751,1673.9850000012666,"",,,,,,,,,2numpad
html-keyboard-response,199,1036854,null,"",null,,,,,,,,
math-period,200,1038376,2897.795000113547,"",,,,,,,,,2numpad
html-keyboard-response,201,1038478,null,"",null,,,,,,,,
math-period,202,1039687,2255.7149997446686,"",,,,,,,,,3numpad
html-keyboard-response,203,1039790,null,"",null,,,,,,,,
math-period,204,1040935,2104.2049997486174,"",,,,,,,,,4numpad
html-keyboard-response,205,1041038,null,"",null,,,,,,,,
math-period,206,1046904,39282.9049997963,"",,,,,,,,,4numpad
html-keyboard-response,207,1047012,null,"",null,,,,,,,,
math-period,208,1047524,null,"",,,,,,,,,
html-keyboard-response,209,1048535,null,"Recall Period!",null,,,,,,,,
call-function,210,1048537,,"",,,,,,,,,
html-keyboard-response,211,1048644,null,"",null,,,,,,,,
recall-period,212,1054464,46033.885000040755,"",,,,,,,,,headband
html-keyboard-response,213,1054565,null,"",null,,,,,,,,
recall-period,214,1055799,4565.004999516532,"",,,,,,,,,jelly
html-keyboard-response,215,1055906,null,"",null,,,,,,,,
recall-period,216,1059047,13764.75500059314,"",,,,,,,,,wasp
html-keyboard-response,217,1059164,null,"",null,,,,,,,,
recall-period,218,1060352,3976.0849999729544,"",,,,,,,,,hornt
html-keyboard-response,219,1060469,null,"",null,,,,,,,,
recall-period,220,1063439,18515.735001303256,"",,,,,,,,,plaster
html-keyboard-response,221,1063542,null,"",null,,,,,,,,
recall-period,222,1068207,38216.78999904543,"",,,,,,,,,grape
html-keyboard-response,223,1068315,null,"",null,,,,,,,,
recall-period,224,1072567,20475.77999974601,"",,,,,,,,,razor
html-keyboard-response,225,1072670,null,"",null,,,,,,,,
recall-period,226,1080519,39734.95000018738,"",,,,,,,,,joker
html-keyboard-response,227,1080634,null,"",null,,,,,,,,
recall-period,228,1085423,21926.64499930106,"",,,,,,,,,bed
html-keyboard-response,229,1085526,null,"",null,,,,,,,,
recall-period,230,1092975,41533.81500020623,"",,,,,,,,,bridge
html-keyboard-response,231,1093082,null,"",null,,,,,,,,
recall-period,232,1097928,34882.795000914484,"",,,,,,,,,billiards
html-keyboard-response,233,1098044,null,"",null,,,,,,,,
recall-period,234,1102743,23262.51000049524,"",,,,,,,,,ledge
html-keyboard-response,235,1102853,null,"",null,,,,,,,,
recall-period,236,1105839,12415.299999527633,"",,,,,,,,,ditch
html-keyboard-response,237,1105942,null,"",null,,,,,,,,
recall-period,238,1109263,22034.305000677705,"",,,,,,,,,freeze
html-keyboard-response,239,1109365,null,"",null,,,,,,,,
recall-period,240,1123539,68967.75999921374,"",,,,,,,,,strea
html-keyboard-response,241,1124051,null,"Time's Up!",null,,,,,,,,
html-keyboard-response,242,1148944,24891.455000033602,"<p> Good job! You responded correctly to 86% of the red squares.</p>
                  <p>Be sure to keep your accuracy above 80%</p>
                  <p>Press any key to continue the experiment. Thank you!</p>",32,,,,,,,,
html-keyboard-response,243,1151705,2758.7650001514703,"<div style=""font-size:48px;"">Press any key to begin list 2 of 24 </div>",32,,,,,,,,
html-keyboard-response,244,1154212,null,"<div style=""font-size:60px;"">+</div>",null,,,,,,,,
html-keyboard-response,245,1154719,null,"DRAWER<img id = ""stim"" ><div class = red_square id = ""topsquare"" ></div><img id = ""stim"" ><div class = red_square  id = ""bottomsquare"" ></div>",null,word_square,response,1,Space,false,,,
html-keyboard-response,246,1156225,null,"DRAWER",null,word,,,,, 'DRAWER',,
html-keyboard-response,247,1156727,null,"TYPIST<img id = ""stim"" ><div class = green_square id = ""topsquare"" ></div><img id = ""stim"" ><div class = green_square  id = ""bottomsquare"" ></div>",null,word_square,response,0,none,true,,,
html-keyboard-response,248,1158240,null,"TYPIST",null,word,,,,, 'TYPIST',,
html-keyboard-response,249,1158742,null,"WAIST<img id = ""stim"" ><div class = green_square id = ""topsquare"" ></div><img id = ""stim"" ><div class = green_square  id = ""bottomsquare"" ></div>",null,word_square,response,0,none,true,,,
html-keyboard-response,250,1160257,null,"WAIST",null,word,,,,, 'WAIST',,
html-keyboard-response,251,1160759,null,"STAKE<img id = ""stim"" ><div class = red_square id = ""topsquare"" ></div><img id = ""stim"" ><div class = red_square  id = ""bottomsquare"" ></div>",null,word_square,response,1,Space,false,,,
html-keyboard-response,252,1162276,null,"STAKE",null,word,,,,, 'STAKE',,
html-keyboard-response,253,1162789,null,"HEEL<img id = ""stim"" ><div class = green_square id = ""topsquare"" ></div><img id = ""stim"" ><div class = green_square  id = ""bottomsquare"" ></div>",null,word_square,response,0,none,true,,,
html-keyboard-response,254,1164296,null,"HEEL",null,word,,,,, 'HEEL',,
html-keyboard-response,255,1164792,494.5499999448657,"CUPBOARD<img id = ""stim"" ><div class = red_square id = ""topsquare"" ></div><img id = ""stim"" ><div class = red_square  id = ""bottomsquare"" ></div>",32,word_square,response,1,Space,true,,,
html-keyboard-response,256,1166296,null,"CUPBOARD",null,word,,,,, 'CUPBOARD',,
html-keyboard-response,257,1166799,null,"DENTIST<img id = ""stim"" ><div class = green_square id = ""topsquare"" ></div><img id = ""stim"" ><div class = green_square  id = ""bottomsquare"" ></div>",null,word_square,response,0,none,true,,,
html-keyboard-response,258,1168309,null,"DENTIST",null,word,,,,, 'DENTIST',,
html-keyboard-response,259,1168696,385.7350000180304,"BULLET<img id = ""stim"" ><div class = red_square id = ""topsquare"" ></div><img id = ""stim"" ><div class = red_square  id = ""bottomsquare"" ></div>",32,word_square,response,1,Space,true,,,
html-keyboard-response,260,1170205,null,"BULLET",null,word,,,,, 'BULLET',,
html-keyboard-response,261,1170687,481.1750000808388,"BARREL<img id = ""stim"" ><div class = red_square id = ""topsquare"" ></div><img id = ""stim"" ><div class = red_square  id = ""bottomsquare"" ></div>",32,word_square,response,1,Space,true,,,
html-keyboard-response,262,1172202,null,"BARREL",null,word,,,,, 'BARREL',,
html-keyboard-response,263,1172710,null,"GAUZE<img id = ""stim"" ><div class = green_square id = ""topsquare"" ></div><img id = ""stim"" ><div class = green_square  id = ""bottomsquare"" ></div>",null,word_square,response,0,none,true,,,
html-keyboard-response,264,1174213,null,"GAUZE",null,word,,,,, 'GAUZE',,
html-keyboard-response,265,1174724,null,"DUSTPAN<img id = ""stim"" ><div class = green_square id = ""topsquare"" ></div><img id = ""stim"" ><div class = green_square  id = ""bottomsquare"" ></div>",null,word_square,response,0,none,true,,,
html-keyboard-response,266,1176230,null,"DUSTPAN",null,word,,,,, 'DUSTPAN',,
html-keyboard-response,267,1176742,null,"MOP<img id = ""stim"" ><div class = red_square id = ""topsquare"" ></div><img id = ""stim"" ><div class = red_square  id = ""bottomsquare"" ></div>",null,word_square,response,1,Space,false,,,
html-keyboard-response,268,1178254,null,"MOP",null,word,,,,, 'MOP',,
html-keyboard-response,269,1178767,null,"OFFICE<img id = ""stim"" ><div class = green_square id = ""topsquare"" ></div><img id = ""stim"" ><div class = green_square  id = ""bottomsquare"" ></div>",null,word_square,response,0,none,true,,,
html-keyboard-response,270,1180277,null,"OFFICE",null,word,,,,, 'OFFICE',,
html-keyboard-response,271,1180640,361.32000014185905,"UMPIRE<img id = ""stim"" ><div class = red_square id = ""topsquare"" ></div><img id = ""stim"" ><div class = red_square  id = ""bottomsquare"" ></div>",32,word_square,response,1,Space,true,,,
html-keyboard-response,272,1182142,null,"UMPIRE",null,word,,,,, 'UMPIRE',,
html-keyboard-response,273,1182639,495.52499991841614,"DAD<img id = ""stim"" ><div class = red_square id = ""topsquare"" ></div><img id = ""stim"" ><div class = red_square  id = ""bottomsquare"" ></div>",32,word_square,response,1,Space,true,,,
html-keyboard-response,274,1184147,null,"DAD",null,word,,,,, 'DAD',,
html-keyboard-response,275,1184660,null,"GLACIER<img id = ""stim"" ><div class = green_square id = ""topsquare"" ></div><img id = ""stim"" ><div class = green_square  id = ""bottomsquare"" ></div>",null,word_square,response,0,none,true,,,
html-keyboard-response,276,1186165,null,"GLACIER",null,word,,,,, 'GLACIER',,
html-keyboard-response,277,1186677,null,"SAUSAGE<img id = ""stim"" ><div class = green_square id = ""topsquare"" ></div><img id = ""stim"" ><div class = green_square  id = ""bottomsquare"" ></div>",null,word_square,response,0,none,true,,,
html-keyboard-response,278,1188182,null,"SAUSAGE",null,word,,,,, 'SAUSAGE',,
html-keyboard-response,279,1188544,360.6349998153746,"BEEF<img id = ""stim"" ><div class = red_square id = ""topsquare"" ></div><img id = ""stim"" ><div class = red_square  id = ""bottomsquare"" ></div>",32,word_square,response,1,Space,true,,,
html-keyboard-response,280,1190049,null,"BEEF",null,word,,,,, 'BEEF',,
call-function,281,1190049,,"",,,,,,,,,
html-keyboard-response,282,1190152,null,"",null,,,,,,,,
math-period,283,1192295,3963.6399997398257,"",,,,,,,,,5numpad
html-keyboard-response,284,1192400,null,"",null,,,,,,,,
math-period,285,1193416,1811.7050000000745,"",,,,,,,,,5numpad
html-keyboard-response,286,1193532,null,"",null,,,,,,,,
math-period,287,1194911,2620.579999871552,"",,,,,,,,,2numpad
html-keyboard-response,288,1195014,null,"",null,,,,,,,,
math-period,289,1196935,3671.5100000146776,"",,,,,,,,,2numpad
html-keyboard-response,290,1197044,null,"",null,,,,,,,,
math-period,291,1198039,1835.7400000095367,"",,,,,,,,,3numpad
html-keyboard-response,292,1198145,null,"",null,,,,,,,,
math-period,293,1199304,2138.9399997424334,"",,,,,,,,,4numpad
html-keyboard-response,294,1199407,null,"",null,,,,,,,,
math-period,295,1200439,1862.6499997917563,"",,,,,,,,,6numpad
html-keyboard-response,296,1200540,null,"",null,,,,,,,,
math-period,297,1201863,2475.7350001018494,"",,,,,,,,,1numpad
html-keyboard-response,298,1201966,null,"",null,,,,,,,,
math-period,299,1203047,1976.7249999567866,"",,,,,,,,,2numpad
html-keyboard-response,300,1203149,null,"",null,,,,,,,,
math-period,301,1204000,1490.9250002820045,"",,,,,,,,,3numpad
html-keyboard-response,302,1204102,null,"",null,,,,,,,,
math-period,303,1205152,1896.4900001883507,"",,,,,,,,,3numpad
html-keyboard-response,304,1205254,null,"",null,,,,,,,,
math-period,305,1206168,1615.8699998632073,"",,,,,,,,,3numpad
html-keyboard-response,306,1206270,null,"",null,,,,,,,,
math-period,307,1208071,3215.879999799654,"",,,,,,,,,6numpad
html-keyboard-response,308,1208173,null,"",null,,,,,,,,
math-period,309,1209527,2474.2900000419468,"",,,,,,,,,3numpad
html-keyboard-response,310,1209629,null,"",null,,,,,,,,
math-period,311,1213919,8160.1649997755885,"",,,,,,,,,1numpad
html-keyboard-response,312,1214030,null,"",null,,,,,,,,
math-period,313,1214050,null,"",,,,,,,,,
html-keyboard-response,314,1215058,null,"Recall Period!",null,,,,,,,,
call-function,315,1215059,,"",,,,,,,,,
html-keyboard-response,316,1215166,null,"",null,,,,,,,,
recall-period,317,1217615,13419.715000549331,"",,,,,,,,,drawer
html-keyboard-response,318,1217716,null,"",null,,,,,,,,
recall-period,319,1221648,20007.655000081286,"",,,,,,,,,typist
html-keyboard-response,320,1221758,null,"",null,,,,,,,,
recall-period,321,1224655,14739.810000639409,"",,,,,,,,,stake
html-keyboard-response,322,1224769,null,"",null,,,,,,,,
recall-period,323,1226607,7321.280000032857,"",,,,,,,,,heel
html-keyboard-response,324,1226710,null,"",null,,,,,,,,
recall-period,325,1228695,8038.51499943994,"",,,,,,,,,cupboard
html-keyboard-response,326,1228806,null,"",null,,,,,,,,
recall-period,327,1231912,16257.385000353679,"",,,,,,,,,dentist
html-keyboard-response,328,1232024,null,"",null,,,,,,,,
recall-period,329,1234024,10871.224999660626,"",,,,,,,,,bullet
html-keyboard-response,330,1234127,null,"",null,,,,,,,,
recall-period,331,1235319,4670.365000376478,"",,,,,,,,,barrel
html-keyboard-response,332,1235434,null,"",null,,,,,,,,
recall-period,333,1236496,4581.670000217855,"",,,,,,,,,office
html-keyboard-response,334,1236599,null,"",null,,,,,,,,
recall-period,335,1239703,17696.274999994785,"",,,,,,,,,umpire
html-keyboard-response,336,1239819,null,"",null,,,,,,,,
recall-period,337,1242712,18084.75499972701,"",,,,,,,,,glacier
html-keyboard-response,338,1242817,null,"",null,,,,,,,,
recall-period,339,1250391,32004.475000547245,"",,,,,,,,,gauze
html-keyboard-response,340,1250504,null,"",null,,,,,,,,
recall-period,341,1255439,30031.325000571087,"",,,,,,,,,dustpan
html-keyboard-response,342,1255541,null,"",null,,,,,,,,
recall-period,343,1280823,97678.88000025414,"",,,,,,,,,dad
html-keyboard-response,344,1280931,null,"",null,,,,,,,,
recall-period,345,1290060,null,"",,,,,,,,,
html-keyboard-response,346,1290563,null,"Time's Up!",null,,,,,,,,
html-keyboard-response,347,1309560,18995.72000000626,"<p> Good job! You responded correctly to 85% of the red squares.</p>
                  <p>Be sure to keep your accuracy above 80%</p>
                  <p>Press any key to continue the experiment. Thank you!</p>",32,,,,,,,,
html-keyboard-response,348,1314975,5413.974999915808,"<div style=""font-size:48px;"">Press any key to begin list 3 of 24 </div>",32,,,,,,,,
html-keyboard-response,349,1317502,null,"<div style=""font-size:60px;"">+</div>",null,,,,,,,,
html-keyboard-response,350,1318004,null,"JEANS<img id = ""stim"" ><div class = green_square id = ""topsquare"" ></div><img id = ""stim"" ><div class = green_square  id = ""bottomsquare"" ></div>",null,word_square,response,0,none,true,,,
html-keyboard-response,351,1319516,null,"JEANS",null,word,,,,, 'JEANS',,
html-keyboard-response,352,1320018,null,"DRESS<img id = ""stim"" ><div class = red_square id = ""topsquare"" ></div><img id = ""stim"" ><div class = red_square  id = ""bottomsquare"" ></div>",null,word_square,response,1,Space,false,,,
html-keyboard-response,353,1321524,null,"DRESS",null,word,,,,, 'DRESS',,
html-keyboard-response,354,1322026,null,"TWEEZERS<img id = ""stim"" ><div class = red_square id = ""topsquare"" ></div><img id = ""stim"" ><div class = red_square  id = ""bottomsquare"" ></div>",null,word_square,response,1,Space,false,,,
html-keyboard-response,355,1323533,null,"TWEEZERS",null,word,,,,, 'TWEEZERS',,
html-keyboard-response,356,1324034,null,"MASK<img id = ""stim"" ><div class = green_square id = ""topsquare"" ></div><img id = ""stim"" ><div class = green_square  id = ""bottomsquare"" ></div>",null,word_square,response,0,none,true,,,
html-keyboard-response,357,1325548,null,"MASK",null,word,,,,, 'MASK',,
html-keyboard-response,358,1325818,267.26499991491437,"PAINTING<img id = ""stim"" ><div class = red_square id = ""topsquare"" ></div><img id = ""stim"" ><div class = red_square  id = ""bottomsquare"" ></div>",32,word_square,response,1,Space,true,,,
html-keyboard-response,359,1327324,null,"PAINTING",null,word,,,,, 'PAINTING',,
html-keyboard-response,360,1327839,null,"EYELASH<img id = ""stim"" ><div class = green_square id = ""topsquare"" ></div><img id = ""stim"" ><div class = green_square  id = ""bottomsquare"" ></div>",null,word_square,response,0,none,true,,,
html-keyboard-response,361,1329354,null,"EYELASH",null,word,,,,, 'EYELASH',,
html-keyboard-response,362,1329679,323.6299999989569,"FOREST<img id = ""stim"" ><div class = red_square id = ""topsquare"" ></div><img id = ""stim"" ><div class = red_square  id = ""bottomsquare"" ></div>",32,word_square,response,1,Space,true,,,
html-keyboard-response,363,1331196,null,"FOREST",null,word,,,,, 'FOREST',,
html-keyboard-response,364,1331709,null,"CLOCK<img id = ""stim"" ><div class = green_square id = ""topsquare"" ></div><img id = ""stim"" ><div class = green_square  id = ""bottomsquare"" ></div>",null,word_square,response,0,none,true,,,
html-keyboard-response,365,1333223,null,"CLOCK",null,word,,,,, 'CLOCK',,
html-keyboard-response,366,1333736,null,"SKUNK<img id = ""stim"" ><div class = green_square id = ""topsquare"" ></div><img id = ""stim"" ><div class = green_square  id = ""bottomsquare"" ></div>",null,word_square,response,0,none,true,,,
html-keyboard-response,367,1335250,null,"SKUNK",null,word,,,,, 'SKUNK',,
html-keyboard-response,368,1335594,341.0350000485778,"REPTILE<img id = ""stim"" ><div class = red_square id = ""topsquare"" ></div><img id = ""stim"" ><div class = red_square  id = ""bottomsquare"" ></div>",32,word_square,response,1,Space,true,,,
html-keyboard-response,369,1337109,null,"REPTILE",null,word,,,,, 'REPTILE',,
html-keyboard-response,370,1337623,null,"BRUNETTE<img id = ""stim"" ><div class = red_square id = ""topsquare"" ></div><img id = ""stim"" ><div class = red_square  id = ""bottomsquare"" ></div>",null,word_square,response,1,Space,false,,,
html-keyboard-response,371,1339137,null,"BRUNETTE",null,word,,,,, 'BRUNETTE',,
html-keyboard-response,372,1339653,null,"PLIERS<img id = ""stim"" ><div class = green_square id = ""topsquare"" ></div><img id = ""stim"" ><div class = green_square  id = ""bottomsquare"" ></div>",null,word_square,response,0,none,true,,,
html-keyboard-response,373,1341171,null,"PLIERS",null,word,,,,, 'PLIERS',,
html-keyboard-response,374,1341685,null,"HATCHET<img id = ""stim"" ><div class = red_square id = ""topsquare"" ></div><img id = ""stim"" ><div class = red_square  id = ""bottomsquare"" ></div>",null,word_square,response,1,Space,false,,,
html-keyboard-response,375,1343199,null,"HATCHET",null,word,,,,, 'HATCHET',,
html-keyboard-response,376,1343713,null,"GAZELLE<img id = ""stim"" ><div class = green_square id = ""topsquare"" ></div><img id = ""stim"" ><div class = green_square  id = ""bottomsquare"" ></div>",null,word_square,response,0,none,true,,,
html-keyboard-response,377,1345228,null,"GAZELLE",null,word,,,,, 'GAZELLE',,
html-keyboard-response,378,1345744,null,"TART<img id = ""stim"" ><div class = green_square id = ""topsquare"" ></div><img id = ""stim"" ><div class = green_square  id = ""bottomsquare"" ></div>",null,word_square,response,0,none,true,,,
html-keyboard-response,379,1347253,null,"TART",null,word,,,,, 'TART',,
html-keyboard-response,380,1347771,null,"DRIVEWAY<img id = ""stim"" ><div class = red_square id = ""topsquare"" ></div><img id = ""stim"" ><div class = red_square  id = ""bottomsquare"" ></div>",null,word_square,response,1,Space,false,,,
html-keyboard-response,381,1349284,null,"DRIVEWAY",null,word,,,,, 'DRIVEWAY',,
html-keyboard-response,382,1349787,501.57000008039176,"FAUCET<img id = ""stim"" ><div class = red_square id = ""topsquare"" ></div><img id = ""stim"" ><div class = red_square  id = ""bottomsquare"" ></div>",32,word_square,response,1,Space,true,,,
html-keyboard-response,383,1351293,null,"FAUCET",null,word,,,,, 'FAUCET',,
html-keyboard-response,384,1351808,null,"PLAID<img id = ""stim"" ><div class = green_square id = ""topsquare"" ></div><img id = ""stim"" ><div class = green_square  id = ""bottomsquare"" ></div>",null,word_square,response,0,none,true,,,
html-keyboard-response,385,1353325,null,"PLAID",null,word,,,,, 'PLAID',,
call-function,386,1353327,,"",,,,,,,,,
html-keyboard-response,387,1353429,null,"",null,,,,,,,,
math-period,388,1356111,4650.834999745712,"",,,,,,,,,1numpad
html-keyboard-response,389,1356225,null,"",null,,,,,,,,
math-period,390,1357407,2100.5299997050315,"",,,,,,,,,3numpad
html-keyboard-response,391,1357510,null,"",null,,,,,,,,
math-period,392,1358863,2463.695000158623,"",,,,,,,,,4numpad
html-keyboard-response,393,1358965,null,"",null,,,,,,,,
math-period,394,1361215,4338.830000255257,"",,,,,,,,,2numpad
html-keyboard-response,395,1361317,null,"",null,,,,,,,,
math-period,396,1363023,3266.010000137612,"",,,,,,,,,3numpad
html-keyboard-response,397,1363128,null,"",null,,,,,,,,
math-period,398,1364311,2220.9650001022965,"",,,,,,,,,4numpad
html-keyboard-response,399,1364412,null,"",null,,,,,,,,
math-period,400,1367263,6959.579999791458,"",,,,,,,,,minus1numpad
html-keyboard-response,401,1367365,null,"",null,,,,,,,,
math-period,402,1368855,2802.67500015907,"",,,,,,,,,5numpad
html-keyboard-response,403,1368963,null,"",null,,,,,,,,
math-period,404,1370863,3653.94000033848,"",,,,,,,,,1numpad
html-keyboard-response,405,1370967,null,"",null,,,,,,,,
math-period,406,1372223,2350.299999816343,"",,,,,,,,,5numpad
html-keyboard-response,407,1372325,null,"",null,,,,,,,,
math-period,408,1374087,3395.0100000947714,"",,,,,,,,,1numpad
html-keyboard-response,409,1374189,null,"",null,,,,,,,,
math-period,410,1375223,1872.129999799654,"",,,,,,,,,3numpad
html-keyboard-response,411,1375328,null,"",null,,,,,,,,
math-period,412,1376375,1916.890000225976,"",,,,,,,,,5numpad
html-keyboard-response,413,1376479,null,"",null,,,,,,,,
math-period,414,1377329,705.1250000949949,"",,,,,,,,,2numpad
html-keyboard-response,415,1378346,null,"Recall Period!",null,,,,,,,,
call-function,416,1378348,,"",,,,,,,,,
html-keyboard-response,417,1378451,null,"",null,,,,,,,,
recall-period,418,1381431,14878.465000074357,"",,,,,,,,,jeans
html-keyboard-response,419,1381543,null,"",null,,,,,,,,
recall-period,420,1382655,4356.630000052974,"",,,,,,,,,dress
html-keyboard-response,421,1382760,null,"",null,,,,,,,,
recall-period,422,1383871,4442.284999415278,"",,,,,,,,,plaid
html-keyboard-response,423,1383974,null,"",null,,,,,,,,
recall-period,424,1385655,7842.689999146387,"",,,,,,,,,house
html-keyboard-response,425,1385761,null,"",null,,,,,,,,
recall-period,426,1387318,5450.9049996268,"",,,,,,,,,faucet
html-keyboard-response,427,1387427,null,"",null,,,,,,,,
recall-period,428,1389695,10289.14500051178,"",,,,,,,,,driveway
html-keyboard-response,429,1389797,null,"",null,,,,,,,,
recall-period,430,1395351,40270.70000115782,"",,,,,,,,,tweezers
html-keyboard-response,431,1395460,null,"",null,,,,,,,,
recall-period,432,1396583,4874.865000369027,"",,,,,,,,,pliers
html-keyboard-response,433,1396691,null,"",null,,,,,,,,
recall-period,434,1400703,25421.750000910833,"",,,,,,,,,hatchet
html-keyboard-response,435,1400809,null,"",null,,,,,,,,
recall-period,436,1402878,12469.6600001771,"",,,,,,,,,gazelle
html-keyboard-response,437,1402981,null,"",null,,,,,,,,
recall-period,438,1417910,159317.83500150777,"",,,,,,,,,reptile
html-keyboard-response,439,1418017,null,"",null,,,,,,,,
recall-period,440,1424646,41183.954999549314,"",,,,,,,,,target
html-keyboard-response,441,1424752,null,"",null,,,,,,,,
recall-period,442,1453355,null,"",,,,,,,,,
html-keyboard-response,443,1453859,null,"Time's Up!",null,,,,,,,,
html-keyboard-response,444,1484171,30308.955000014976,"<p> Good job! You responded correctly to 82% of the red squares.</p>
                  <p>Be sure to keep your accuracy above 80%</p>
                  <p>Press any key to continue the experiment. Thank you!</p>",32,,,,,,,,
html-keyboard-response,445,1484752,578.9900000672787,"<div style=""font-size:48px;"">Press any key to begin list 4 of 24 </div>",32,,,,,,,,
html-keyboard-response,446,1487269,null,"<div style=""font-size:60px;"">+</div>",null,,,,,,,,
html-keyboard-response,447,1487773,null,"SHOULDER<img id = ""stim"" ><div class = green_square id = ""topsquare"" ></div><img id = ""stim"" ><div class = green_square  id = ""bottomsquare"" ></div>",null,word_square,response,0,none,true,,,
html-keyboard-response,448,1489286,null,"SHOULDER",null,word,,,,, 'SHOULDER',,
html-keyboard-response,449,1489679,391.7749999091029,"HONEY<img id = ""stim"" ><div class = red_square id = ""topsquare"" ></div><img id = ""stim"" ><div class = red_square  id = ""bottomsquare"" ></div>",32,word_square,response,1,Space,true,,,
html-keyboard-response,450,1491187,null,"HONEY",null,word,,,,, 'HONEY',,
html-keyboard-response,451,1491705,null,"FREEWAY<img id = ""stim"" ><div class = red_square id = ""topsquare"" ></div><img id = ""stim"" ><div class = red_square  id = ""bottomsquare"" ></div>",null,word_square,response,1,Space,false,,,
html-keyboard-response,452,1493215,null,"FREEWAY",null,word,,,,, 'FREEWAY',,
html-keyboard-response,453,1493731,null,"LEOPARD<img id = ""stim"" ><div class = green_square id = ""topsquare"" ></div><img id = ""stim"" ><div class = green_square  id = ""bottomsquare"" ></div>",null,word_square,response,0,none,true,,,
html-keyboard-response,454,1495243,null,"LEOPARD",null,word,,,,, 'LEOPARD',,
html-keyboard-response,455,1495757,null,"SLACKS<img id = ""stim"" ><div class = red_square id = ""topsquare"" ></div><img id = ""stim"" ><div class = red_square  id = ""bottomsquare"" ></div>",null,word_square,response,1,Space,false,,,
html-keyboard-response,456,1497265,null,"SLACKS",null,word,,,,, 'SLACKS',,
html-keyboard-response,457,1497780,null,"JOINT<img id = ""stim"" ><div class = green_square id = ""topsquare"" ></div><img id = ""stim"" ><div class = green_square  id = ""bottomsquare"" ></div>",null,word_square,response,0,none,true,,,
html-keyboard-response,458,1499289,null,"JOINT",null,word,,,,, 'JOINT',,
html-keyboard-response,459,1499792,null,"FROG<img id = ""stim"" ><div class = red_square id = ""topsquare"" ></div><img id = ""stim"" ><div class = red_square  id = ""bottomsquare"" ></div>",null,word_square,response,1,Space,false,,,
html-keyboard-response,460,1501302,null,"FROG",null,word,,,,, 'FROG',,
html-keyboard-response,461,1501805,null,"CANDY<img id = ""stim"" ><div class = green_square id = ""topsquare"" ></div><img id = ""stim"" ><div class = green_square  id = ""bottomsquare"" ></div>",null,word_square,response,0,none,true,,,
html-keyboard-response,462,1503314,null,"CANDY",null,word,,,,, 'CANDY',,
html-keyboard-response,463,1503818,null,"CRYSTAL<img id = ""stim"" ><div class = green_square id = ""topsquare"" ></div><img id = ""stim"" ><div class = green_square  id = ""bottomsquare"" ></div>",null,word_square,response,0,none,true,,,
html-keyboard-response,464,1505327,null,"CRYSTAL",null,word,,,,, 'CRYSTAL',,
html-keyboard-response,465,1505830,null,"CELLAR<img id = ""stim"" ><div class = red_square id = ""topsquare"" ></div><img id = ""stim"" ><div class = red_square  id = ""bottomsquare"" ></div>",null,word_square,response,1,Space,false,,,
html-keyboard-response,466,1507341,null,"CELLAR",null,word,,,,, 'CELLAR',,
html-keyboard-response,467,1507843,null,"PASSAGE<img id = ""stim"" ><div class = red_square id = ""topsquare"" ></div><img id = ""stim"" ><div class = red_square  id = ""bottomsquare"" ></div>",null,word_square,response,1,Space,false,,,
html-keyboard-response,468,1509348,null,"PASSAGE",null,word,,,,, 'PASSAGE',,
html-keyboard-response,469,1509851,null,"ATHLETE<img id = ""stim"" ><div class = green_square id = ""topsquare"" ></div><img id = ""stim"" ><div class = green_square  id = ""bottomsquare"" ></div>",null,word_square,response,0,none,true,,,
html-keyboard-response,470,1511355,null,"ATHLETE",null,word,,,,, 'ATHLETE',,
html-keyboard-response,471,1511858,null,"BATHTUB<img id = ""stim"" ><div class = red_square id = ""topsquare"" ></div><img id = ""stim"" ><div class = red_square  id = ""bottomsquare"" ></div>",null,word_square,response,1,Space,false,,,
html-keyboard-response,472,1513366,null,"BATHTUB",null,word,,,,, 'BATHTUB',,
html-keyboard-response,473,1513870,null,"RIVER<img id = ""stim"" ><div class = green_square id = ""topsquare"" ></div><img id = ""stim"" ><div class = green_square  id = ""bottomsquare"" ></div>",null,word_square,response,0,none,true,,,
html-keyboard-response,474,1515383,null,"RIVER",null,word,,,,, 'RIVER',,
html-keyboard-response,475,1515885,null,"RADISH<img id = ""stim"" ><div class = green_square id = ""topsquare"" ></div><img id = ""stim"" ><div class = green_square  id = ""bottomsquare"" ></div>",null,word_square,response,0,none,true,,,
html-keyboard-response,476,1517396,null,"RADISH",null,word,,,,, 'RADISH',,
html-keyboard-response,477,1517737,339.20000004582107,"COMET<img id = ""stim"" ><div class = red_square id = ""topsquare"" ></div><img id = ""stim"" ><div class = red_square  id = ""bottomsquare"" ></div>",32,word_square,response,1,Space,true,,,
html-keyboard-response,478,1519251,null,"COMET",null,word,,,,, 'COMET',,
html-keyboard-response,479,1519586,333.68999999947846,"LAUNDRY<img id = ""stim"" ><div class = red_square id = ""topsquare"" ></div><img id = ""stim"" ><div class = red_square  id = ""bottomsquare"" ></div>",32,word_square,response,1,Space,true,,,
html-keyboard-response,480,1521101,null,"LAUNDRY",null,word,,,,, 'LAUNDRY',,
html-keyboard-response,481,1521616,null,"ANKLE<img id = ""stim"" ><div class = green_square id = ""topsquare"" ></div><img id = ""stim"" ><div class = green_square  id = ""bottomsquare"" ></div>",null,word_square,response,0,none,true,,,
html-keyboard-response,482,1523127,null,"ANKLE",null,word,,,,, 'ANKLE',,
call-function,483,1523128,,"",,,,,,,,,
html-keyboard-response,484,1523229,null,"",null,,,,,,,,
math-period,485,1525215,3696.510000154376,"",,,,,,,,,2numpad
html-keyboard-response,486,1525321,null,"",null,,,,,,,,
math-period,487,1526479,2121.444999706,"",,,,,,,,,4numpad
html-keyboard-response,488,1526596,null,"",null,,,,,,,,
math-period,489,1527646,1940.4249999206513,"",,,,,,,,,4numpad
html-keyboard-response,490,1527749,null,"",null,,,,,,,,
math-period,491,1529375,3091.1800002213567,"",,,,,,,,,2numpad
html-keyboard-response,492,1529477,null,"",null,,,,,,,,
math-period,493,1530815,2552.4100000038743,"",,,,,,,,,4numpad
html-keyboard-response,494,1530917,null,"",null,,,,,,,,
math-period,495,1531895,1802.279999712482,"",,,,,,,,,3numpad
html-keyboard-response,496,1531997,null,"",null,,,,,,,,
math-period,497,1533263,2362.369999755174,"",,,,,,,,,1numpad
html-keyboard-response,498,1533374,null,"",null,,,,,,,,
math-period,499,1534486,2008.6399998981506,"",,,,,,,,,3numpad
html-keyboard-response,500,1534589,null,"",null,,,,,,,,
math-period,501,1535758,2171.775000402704,"",,,,,,,,,3numpad
html-keyboard-response,502,1535861,null,"",null,,,,,,,,
math-period,503,1537222,2585.5049998499453,"",,,,,,,,,1numpad
html-keyboard-response,504,1537324,null,"",null,,,,,,,,
math-period,505,1538430,1995.749999769032,"",,,,,,,,,4numpad
html-keyboard-response,506,1538535,null,"",null,,,,,,,,
math-period,507,1539431,1648.9049999509007,"",,,,,,,,,3numpad
html-keyboard-response,508,1539532,null,"",null,,,,,,,,
math-period,509,1540471,1732.38499998115,"",,,,,,,,,5numpad
html-keyboard-response,510,1540573,null,"",null,,,,,,,,
math-period,511,1541614,1967.8599999751896,"",,,,,,,,,3numpad
html-keyboard-response,512,1541729,null,"",null,,,,,,,,
math-period,513,1542910,2258.8849996682256,"",,,,,,,,,2numpad
html-keyboard-response,514,1543013,null,"",null,,,,,,,,
math-period,515,1545807,5481.420000316575,"",,,,,,,,,0numpad
html-keyboard-response,516,1545909,null,"",null,,,,,,,,
math-period,517,1547136,null,"",,,,,,,,,
html-keyboard-response,518,1548150,null,"Recall Period!",null,,,,,,,,
call-function,519,1548151,,"",,,,,,,,,
html-keyboard-response,520,1548254,null,"",null,,,,,,,,
recall-period,521,1552023,26187.60999967344,"",,,,,,,,,shoulder
html-keyboard-response,522,1552128,null,"",null,,,,,,,,
recall-period,523,1553935,8131.930000381544,"",,,,,,,,,honey
html-keyboard-response,524,1554037,null,"",null,,,,,,,,
recall-period,525,1555574,5350.56999954395,"",,,,,,,,,frog
html-keyboard-response,526,1555689,null,"",null,,,,,,,,
recall-period,527,1557303,8282.709999475628,"",,,,,,,,,cellar
html-keyboard-response,528,1557412,null,"",null,,,,,,,,
recall-period,529,1559615,11227.970000123605,"",,,,,,,,,passage
html-keyboard-response,530,1559723,null,"",null,,,,,,,,
recall-period,531,1562607,14745.929999509826,"",,,,,,,,,leopard
html-keyboard-response,532,1562714,null,"",null,,,,,,,,
recall-period,533,1565695,24831.514998571947,"",,,,,,,,,slacks
html-keyboard-response,534,1565798,null,"",null,,,,,,,,
recall-period,535,1568255,12182.664999505505,"",,,,,,,,,joint
html-keyboard-response,536,1568357,null,"",null,,,,,,,,
recall-period,537,1571439,13941.009999951348,"",,,,,,,,,candy
html-keyboard-response,538,1571544,null,"",null,,,,,,,,
recall-period,539,1576479,32322.17999966815,"",,,,,,,,,highway
html-keyboard-response,540,1576593,null,"",null,,,,,,,,
recall-period,541,1584847,135564.0550008975,"",,,,,,,,,elbow
html-keyboard-response,542,1584950,null,"",null,,,,,,,,
recall-period,543,1586631,8164.729999611154,"",,,,,,,,,knife
html-keyboard-response,544,1586735,null,"",null,,,,,,,,
recall-period,545,1588543,10522.490000817925,"",,,,,,,,,passage
html-keyboard-response,546,1588650,null,"",null,,,,,,,,
recall-period,547,1621550,162851.16499918513,"",,,,,,,,,lack
html-keyboard-response,548,1621658,null,"",null,,,,,,,,
recall-period,549,1622982,4494.719999609515,"",,,,,,,,,leg
html-keyboard-response,550,1623087,null,"",null,,,,,,,,
recall-period,551,1623155,null,"",,,,,,,,,
html-keyboard-response,552,1623662,null,"Time's Up!",null,,,,,,,,
html-keyboard-response,553,1626033,2369.189999997616,"<p> Uh oh. You responded correctly on 79% of the red squares.</p>
                  <p>We need you keep your accuracy above 80%</p>
                  <p>Press any key to continue the experiment. Thank you!</p>",32,,,,,,,,
html-keyboard-response,554,1626575,539.4150000065565,"<div style=""font-size:48px;"">Press any key to begin list 5 of 24 </div>",32,,,,,,,,
html-keyboard-response,555,1629083,null,"<div style=""font-size:60px;"">+</div>",null,,,,,,,,
html-keyboard-response,556,1629586,null,"RAFT<img id = ""stim"" ><div class = green_square id = ""topsquare"" ></div><img id = ""stim"" ><div class = green_square  id = ""bottomsquare"" ></div>",null,word_square,response,0,none,true,,,
html-keyboard-response,557,1631092,null,"RAFT",null,word,,,,, 'RAFT',,
html-keyboard-response,558,1631482,387.79999990947545,"FLASK<img id = ""stim"" ><div class = red_square id = ""topsquare"" ></div><img id = ""stim"" ><div class = red_square  id = ""bottomsquare"" ></div>",32,word_square,response,1,Space,true,,,
html-keyboard-response,559,1632992,null,"FLASK",null,word,,,,, 'FLASK',,
html-keyboard-response,560,1633376,382.6899998821318,"FLIPPER<img id = ""stim"" ><div class = red_square id = ""topsquare"" ></div><img id = ""stim"" ><div class = red_square  id = ""bottomsquare"" ></div>",32,word_square,response,1,Space,true,,,
html-keyboard-response,561,1634879,null,"FLIPPER",null,word,,,,, 'FLIPPER',,
html-keyboard-response,562,1635381,null,"MOUNTAIN<img id = ""stim"" ><div class = green_square id = ""topsquare"" ></div><img id = ""stim"" ><div class = green_square  id = ""bottomsquare"" ></div>",null,word_square,response,0,none,true,,,
html-keyboard-response,563,1636886,null,"MOUNTAIN",null,word,,,,, 'MOUNTAIN',,
html-keyboard-response,564,1637400,null,"NICKEL<img id = ""stim"" ><div class = green_square id = ""topsquare"" ></div><img id = ""stim"" ><div class = green_square  id = ""bottomsquare"" ></div>",null,word_square,response,0,none,true,,,
html-keyboard-response,565,1638912,null,"NICKEL",null,word,,,,, 'NICKEL',,
html-keyboard-response,566,1639337,423.1050000526011,"BRIDE<img id = ""stim"" ><div class = red_square id = ""topsquare"" ></div><img id = ""stim"" ><div class = red_square  id = ""bottomsquare"" ></div>",32,word_square,response,1,Space,true,,,
html-keyboard-response,567,1640847,null,"BRIDE",null,word,,,,, 'BRIDE',,
html-keyboard-response,568,1641349,null,"SANDWICH<img id = ""stim"" ><div class = green_square id = ""topsquare"" ></div><img id = ""stim"" ><div class = green_square  id = ""bottomsquare"" ></div>",null,word_square,response,0,none,true,,,
html-keyboard-response,569,1642858,null,"SANDWICH",null,word,,,,, 'SANDWICH',,
html-keyboard-response,570,1643209,349.2400001268834,"COSTUME<img id = ""stim"" ><div class = red_square id = ""topsquare"" ></div><img id = ""stim"" ><div class = red_square  id = ""bottomsquare"" ></div>",32,word_square,response,1,Space,true,,,
html-keyboard-response,571,1644712,null,"COSTUME",null,word,,,,, 'COSTUME',,
html-keyboard-response,572,1645071,356.8799998611212,"CHIPMUNK<img id = ""stim"" ><div class = red_square id = ""topsquare"" ></div><img id = ""stim"" ><div class = red_square  id = ""bottomsquare"" ></div>",32,word_square,response,1,Space,true,,,
html-keyboard-response,573,1646583,null,"CHIPMUNK",null,word,,,,, 'CHIPMUNK',,
html-keyboard-response,574,1647093,null,"NECKLACE<img id = ""stim"" ><div class = green_square id = ""topsquare"" ></div><img id = ""stim"" ><div class = green_square  id = ""bottomsquare"" ></div>",null,word_square,response,0,none,true,,,
html-keyboard-response,575,1648603,null,"NECKLACE",null,word,,,,, 'NECKLACE',,
html-keyboard-response,576,1648977,371.62000010721385,"SURGEON<img id = ""stim"" ><div class = red_square id = ""topsquare"" ></div><img id = ""stim"" ><div class = red_square  id = ""bottomsquare"" ></div>",32,word_square,response,1,Space,true,,,
html-keyboard-response,577,1650491,null,"SURGEON",null,word,,,,, 'SURGEON',,
html-keyboard-response,578,1650994,null,"PRINCESS<img id = ""stim"" ><div class = green_square id = ""topsquare"" ></div><img id = ""stim"" ><div class = green_square  id = ""bottomsquare"" ></div>",null,word_square,response,0,none,true,,,
html-keyboard-response,579,1652498,null,"PRINCESS",null,word,,,,, 'PRINCESS',,
html-keyboard-response,580,1653012,null,"THICKET<img id = ""stim"" ><div class = green_square id = ""topsquare"" ></div><img id = ""stim"" ><div class = green_square  id = ""bottomsquare"" ></div>",null,word_square,response,0,none,true,,,
html-keyboard-response,581,1654515,null,"THICKET",null,word,,,,, 'THICKET',,
html-keyboard-response,582,1654793,276.1150000151247,"LETTER<img id = ""stim"" ><div class = red_square id = ""topsquare"" ></div><img id = ""stim"" ><div class = red_square  id = ""bottomsquare"" ></div>",32,word_square,response,1,Space,true,,,
html-keyboard-response,583,1656303,null,"LETTER",null,word,,,,, 'LETTER',,
html-keyboard-response,584,1656806,null,"POLICE<img id = ""stim"" ><div class = green_square id = ""topsquare"" ></div><img id = ""stim"" ><div class = green_square  id = ""bottomsquare"" ></div>",null,word_square,response,0,none,true,,,
html-keyboard-response,585,1658314,null,"POLICE",null,word,,,,, 'POLICE',,
html-keyboard-response,586,1658829,null,"COOKIE<img id = ""stim"" ><div class = green_square id = ""topsquare"" ></div><img id = ""stim"" ><div class = green_square  id = ""bottomsquare"" ></div>",null,word_square,response,0,none,true,,,
html-keyboard-response,587,1660340,null,"COOKIE",null,word,,,,, 'COOKIE',,
html-keyboard-response,588,1660842,null,"CROWN<img id = ""stim"" ><div class = red_square id = ""topsquare"" ></div><img id = ""stim"" ><div class = red_square  id = ""bottomsquare"" ></div>",null,word_square,response,1,Space,false,,,
html-keyboard-response,589,1662348,null,"CROWN",null,word,,,,, 'CROWN',,
html-keyboard-response,590,1662851,null,"GERM<img id = ""stim"" ><div class = red_square id = ""topsquare"" ></div><img id = ""stim"" ><div class = red_square  id = ""bottomsquare"" ></div>",null,word_square,response,1,Space,false,,,
html-keyboard-response,591,1664356,null,"GERM",null,word,,,,, 'GERM',,
call-function,592,1664357,,"",,,,,,,,,
html-keyboard-response,593,1664459,null,"",null,,,,,,,,
math-period,594,1666206,3324.6999999973923,"",,,,,,,,,1numpad
html-keyboard-response,595,1666318,null,"",null,,,,,,,,
math-period,596,1667310,1766.025000018999,"",,,,,,,,,3numpad
html-keyboard-response,597,1667423,null,"",null,,,,,,,,
math-period,598,1668430,1851.1650001164526,"",,,,,,,,,2numpad
html-keyboard-response,599,1668532,null,"",null,,,,,,,,
math-period,600,1669430,1516.0749997012317,"",,,,,,,,,3numpad
html-keyboard-response,601,1669531,null,"",null,,,,,,,,
math-period,602,1670734,2274.029999738559,"",,,,,,,,,1numpad
html-keyboard-response,603,1670836,null,"",null,,,,,,,,
math-period,604,1672094,2361.8100001476705,"",,,,,,,,,4numpad
html-keyboard-response,605,1672196,null,"",null,,,,,,,,
math-period,606,1673823,3057.234999956563,"",,,,,,,,,2numpad
html-keyboard-response,607,1673925,null,"",null,,,,,,,,
math-period,608,1675046,2127.6250001974404,"",,,,,,,,,2numpad
html-keyboard-response,609,1675149,null,"",null,,,,,,,,
math-period,610,1677638,4855.615000240505,"",,,,,,,,,1numpad
html-keyboard-response,611,1677740,null,"",null,,,,,,,,
math-period,612,1679782,3937.1450000908226,"",,,,,,,,,2numpad
html-keyboard-response,613,1679896,null,"",null,,,,,,,,
math-period,614,1681014,2107.0100001525134,"",,,,,,,,,4numpad
html-keyboard-response,615,1681117,null,"",null,,,,,,,,
math-period,616,1682070,1708.2549997139722,"",,,,,,,,,3numpad
html-keyboard-response,617,1682173,null,"",null,,,,,,,,
math-period,618,1684518,4561.6200000513345,"",,,,,,,,,1numpad
html-keyboard-response,619,1684621,null,"",null,,,,,,,,
math-period,620,1685678,1961.139999795705,"",,,,,,,,,1numpad
html-keyboard-response,621,1685780,null,"",null,,,,,,,,
math-period,622,1687775,3881.034999853,"",,,,,,,,,6numpad
html-keyboard-response,623,1687877,null,"",null,,,,,,,,
math-period,624,1688369,null,"",,,,,,,,,
html-keyboard-response,625,1689384,null,"Recall Period!",null,,,,,,,,
call-function,626,1689386,,"",,,,,,,,,
html-keyboard-response,627,1689493,null,"",null,,,,,,,,
recall-period,628,1692254,11503.984999842942,"",,,,,,,,,raft
html-keyboard-response,629,1692361,null,"",null,,,,,,,,
recall-period,630,1693926,8132.370001403615,"",,,,,,,,,mountain
html-keyboard-response,631,1694030,null,"",null,,,,,,,,
recall-period,632,1695350,2900.575000559911,"",,,,,,,,,goat
html-keyboard-response,633,1695452,null,"",null,,,,,,,,
recall-period,634,1697846,13981.679999735206,"",,,,,,,,,cookie
html-keyboard-response,635,1697950,null,"",null,,,,,,,,
recall-period,636,1698998,4594.260000390932,"",,,,,,,,,police
html-keyboard-response,637,1699101,null,"",null,,,,,,,,
recall-period,638,1703790,29227.714999113232,"",,,,,,,,,nickel
html-keyboard-response,639,1703902,null,"",null,,,,,,,,
recall-period,640,1706357,12966.540000401437,"",,,,,,,,,bride
html-keyboard-response,641,1706462,null,"",null,,,,,,,,
recall-period,642,1711542,26914.349999511614,"",,,,,,,,,beach
html-keyboard-response,643,1711645,null,"",null,,,,,,,,
recall-period,644,1724669,86983.43499959446,"",,,,,,,,,starve
html-keyboard-response,645,1724776,null,"",null,,,,,,,,
recall-period,646,1725807,3608.4149999078363,"",,,,,,,,,food
html-keyboard-response,647,1725909,null,"",null,,,,,,,,
recall-period,648,1736614,125612.40500118583,"",,,,,,,,,please
html-keyboard-response,649,1736719,null,"",null,,,,,,,,
recall-period,650,1737655,2613.1600001826882,"",,,,,,,,,help
html-keyboard-response,651,1737760,null,"",null,,,,,,,,
recall-period,652,1742823,36405.43999965303,"",,,,,,,,,watched
html-keyboard-response,653,1742929,null,"",null,,,,,,,,
recall-period,654,1745055,10018.540000077337,"",,,,,,,,,agent
html-keyboard-response,655,1745161,null,"",null,,,,,,,,
recall-period,656,1748071,17370.21499988623,"",,,,,,,,,needle
html-keyboard-response,657,1748179,null,"",null,,,,,,,,
recall-period,658,1751319,16689.019999466836,"",,,,,,,,,brain
html-keyboard-response,659,1751421,null,"",null,,,,,,,,
recall-period,660,1753846,10211.660000029951,"",,,,,,,,,mind
html-keyboard-response,661,1753963,null,"",null,,,,,,,,
recall-period,662,1755174,4737.854999955744,"",,,,,,,,,control
html-keyboard-response,663,1755286,null,"",null,,,,,,,,
recall-period,664,1764397,null,"",,,,,,,,,
html-keyboard-response,665,1764911,null,"Time's Up!",null,,,,,,,,
html-keyboard-response,666,1769519,4606.424999888986,"<p> Good job! You responded correctly to 81% of the red squares.</p>
                  <p>Be sure to keep your accuracy above 80%</p>
                  <p>Press any key to continue the experiment. Thank you!</p>",32,,,,,,,,
html-keyboard-response,667,1770696,1176.065000006929,"<div style=""font-size:48px;"">Press any key to begin list 6 of 24 </div>",32,,,,,,,,
html-keyboard-response,668,1773215,null,"<div style=""font-size:60px;"">+</div>",null,,,,,,,,
html-keyboard-response,669,1773719,null,"GARAGE<img id = ""stim"" ><div class = green_square id = ""topsquare"" ></div><img id = ""stim"" ><div class = green_square  id = ""bottomsquare"" ></div>",null,word_square,response,0,none,true,,,
html-keyboard-response,670,1775225,null,"GARAGE",null,word,,,,, 'GARAGE',,
html-keyboard-response,671,1775585,358.2650001626462,"ORGAN<img id = ""stim"" ><div class = red_square id = ""topsquare"" ></div><img id = ""stim"" ><div class = red_square  id = ""bottomsquare"" ></div>",32,word_square,response,1,Space,true,,,
html-keyboard-response,672,1777094,null,"ORGAN",null,word,,,,, 'ORGAN',,
html-keyboard-response,673,1777505,409.0499999001622,"GLASSES<img id = ""stim"" ><div class = red_square id = ""topsquare"" ></div><img id = ""stim"" ><div class = red_square  id = ""bottomsquare"" ></div>",32,word_square,response,1,Space,true,,,
html-keyboard-response,674,1779011,null,"GLASSES",null,word,,,,, 'GLASSES',,
html-keyboard-response,675,1779515,null,"FIDDLE<img id = ""stim"" ><div class = green_square id = ""topsquare"" ></div><img id = ""stim"" ><div class = green_square  id = ""bottomsquare"" ></div>",null,word_square,response,0,none,true,,,
html-keyboard-response,676,1781024,null,"FIDDLE",null,word,,,,, 'FIDDLE',,
html-keyboard-response,677,1781530,null,"SCHOOL<img id = ""stim"" ><div class = green_square id = ""topsquare"" ></div><img id = ""stim"" ><div class = green_square  id = ""bottomsquare"" ></div>",null,word_square,response,0,none,true,,,
html-keyboard-response,678,1783039,null,"SCHOOL",null,word,,,,, 'SCHOOL',,
html-keyboard-response,679,1783338,296.4649999048561,"THIEF<img id = ""stim"" ><div class = red_square id = ""topsquare"" ></div><img id = ""stim"" ><div class = red_square  id = ""bottomsquare"" ></div>",32,word_square,response,1,Space,true,,,
html-keyboard-response,680,1784848,null,"THIEF",null,word,,,,, 'THIEF',,
html-keyboard-response,681,1785351,null,"SCALLOP<img id = ""stim"" ><div class = green_square id = ""topsquare"" ></div><img id = ""stim"" ><div class = green_square  id = ""bottomsquare"" ></div>",null,word_square,response,0,none,true,,,
html-keyboard-response,682,1786858,null,"SCALLOP",null,word,,,,, 'SCALLOP',,
html-keyboard-response,683,1787158,298.7150000408292,"ONION<img id = ""stim"" ><div class = red_square id = ""topsquare"" ></div><img id = ""stim"" ><div class = red_square  id = ""bottomsquare"" ></div>",32,word_square,response,1,Space,true,,,
html-keyboard-response,684,1788663,null,"ONION",null,word,,,,, 'ONION',,
html-keyboard-response,685,1789179,null,"GUITAR<img id = ""stim"" ><div class = red_square id = ""topsquare"" ></div><img id = ""stim"" ><div class = red_square  id = ""bottomsquare"" ></div>",null,word_square,response,1,Space,false,,,
html-keyboard-response,686,1790689,null,"GUITAR",null,word,,,,, 'GUITAR',,
html-keyboard-response,687,1791204,null,"HANGER<img id = ""stim"" ><div class = green_square id = ""topsquare"" ></div><img id = ""stim"" ><div class = green_square  id = ""bottomsquare"" ></div>",null,word_square,response,0,none,true,,,
html-keyboard-response,688,1792717,null,"HANGER",null,word,,,,, 'HANGER',,
html-keyboard-response,689,1793086,368.1449999567121,"CLOUD<img id = ""stim"" ><div class = red_square id = ""topsquare"" ></div><img id = ""stim"" ><div class = red_square  id = ""bottomsquare"" ></div>",32,word_square,response,1,Space,true,,,
html-keyboard-response,690,1794590,null,"CLOUD",null,word,,,,, 'CLOUD',,
html-keyboard-response,691,1795104,null,"SMOG<img id = ""stim"" ><div class = green_square id = ""topsquare"" ></div><img id = ""stim"" ><div class = green_square  id = ""bottomsquare"" ></div>",null,word_square,response,0,none,true,,,
html-keyboard-response,692,1796618,null,"SMOG",null,word,,,,, 'SMOG',,
html-keyboard-response,693,1797131,null,"SNACK<img id = ""stim"" ><div class = green_square id = ""topsquare"" ></div><img id = ""stim"" ><div class = green_square  id = ""bottomsquare"" ></div>",null,word_square,response,0,none,true,,,
html-keyboard-response,694,1798637,null,"SNACK",null,word,,,,, 'SNACK',,
html-keyboard-response,695,1799151,null,"SUNSET<img id = ""stim"" ><div class = red_square id = ""topsquare"" ></div><img id = ""stim"" ><div class = red_square  id = ""bottomsquare"" ></div>",null,word_square,response,1,Space,false,,,
html-keyboard-response,696,1800659,null,"SUNSET",null,word,,,,, 'SUNSET',,
html-keyboard-response,697,1801174,null,"COUNTY<img id = ""stim"" ><div class = green_square id = ""topsquare"" ></div><img id = ""stim"" ><div class = green_square  id = ""bottomsquare"" ></div>",null,word_square,response,0,none,true,,,
html-keyboard-response,698,1802685,null,"COUNTY",null,word,,,,, 'COUNTY',,
html-keyboard-response,699,1803197,null,"HARP<img id = ""stim"" ><div class = green_square id = ""topsquare"" ></div><img id = ""stim"" ><div class = green_square  id = ""bottomsquare"" ></div>",null,word_square,response,0,none,true,,,
html-keyboard-response,700,1804709,null,"HARP",null,word,,,,, 'HARP',,
html-keyboard-response,701,1805225,null,"BUREAU<img id = ""stim"" ><div class = red_square id = ""topsquare"" ></div><img id = ""stim"" ><div class = red_square  id = ""bottomsquare"" ></div>",null,word_square,response,1,Space,false,,,
html-keyboard-response,702,1806735,null,"BUREAU",null,word,,,,, 'BUREAU',,
html-keyboard-response,703,1807136,397.68500020727515,"PATROL<img id = ""stim"" ><div class = red_square id = ""topsquare"" ></div><img id = ""stim"" ><div class = red_square  id = ""bottomsquare"" ></div>",32,word_square,response,1,Space,true,,,
html-keyboard-response,704,1808639,null,"PATROL",null,word,,,,, 'PATROL',,
call-function,705,1808640,,"",,,,,,,,,
html-keyboard-response,706,1808743,null,"",null,,,,,,,,
math-period,707,1810510,3340.40499990806,"",,,,,,,,,2numpad
html-keyboard-response,708,1810611,null,"",null,,,,,,,,
math-period,709,1811966,2564.6400002297014,"",,,,,,,,,2numpad
html-keyboard-response,710,1812068,null,"",null,,,,,,,,
math-period,711,1813142,2009.5850003417581,"",,,,,,,,,4numpad
html-keyboard-response,712,1813244,null,"",null,,,,,,,,
math-period,713,1814214,1770.394999999553,"",,,,,,,,,6numpad
html-keyboard-response,714,1814317,null,"",null,,,,,,,,
math-period,715,1815838,2928.229999728501,"",,,,,,,,,4numpad
html-keyboard-response,716,1815939,null,"",null,,,,,,,,
math-period,717,1816974,1902.280000038445,"",,,,,,,,,3numpad
html-keyboard-response,718,1817076,null,"",null,,,,,,,,
math-period,719,1818070,1839.9999998509884,"",,,,,,,,,3numpad
html-keyboard-response,720,1818182,null,"",null,,,,,,,,
math-period,721,1819246,1973.4700003173202,"",,,,,,,,,4numpad
html-keyboard-response,722,1819348,null,"",null,,,,,,,,
math-period,723,1820326,1904.4099999591708,"",,,,,,,,,3numpad
html-keyboard-response,724,1820427,null,"",null,,,,,,,,
math-period,725,1822094,3220.5850000027567,"",,,,,,,,,2numpad
html-keyboard-response,726,1822205,null,"",null,,,,,,,,
math-period,727,1823110,1687.550000147894,"",,,,,,,,,3numpad
html-keyboard-response,728,1823218,null,"",null,,,,,,,,
math-period,729,1824198,978.4500000532717,"",,,,,,,,,
html-keyboard-response,730,1824308,null,"",null,,,,,,,,
math-period,731,1827326,5883.110000286251,"",,,,,,,,,0numpad
html-keyboard-response,732,1827428,null,"",null,,,,,,,,
math-period,733,1828550,2065.9650003071874,"",,,,,,,,,6numpad
html-keyboard-response,734,1828652,null,"",null,,,,,,,,
math-period,735,1829782,2089.7799998056144,"",,,,,,,,,4numpad
html-keyboard-response,736,1829884,null,"",null,,,,,,,,
math-period,737,1830838,1772.469999967143,"",,,,,,,,,5numpad
html-keyboard-response,738,1830939,null,"",null,,,,,,,,
math-period,739,1831982,1947.0100000035018,"",,,,,,,,,4numpad
html-keyboard-response,740,1832085,null,"",null,,,,,,,,
math-period,741,1832656,null,"",,,,,,,,,
html-keyboard-response,742,1833669,null,"Recall Period!",null,,,,,,,,
call-function,743,1833670,,"",,,,,,,,,
html-keyboard-response,744,1833774,null,"",null,,,,,,,,
recall-period,745,1837677,24749.775000382215,"",,,,,,,,,smog
html-keyboard-response,746,1837781,null,"",null,,,,,,,,
recall-period,747,1838749,3550.6650004535913,"",,,,,,,,,sunset
html-keyboard-response,748,1838865,null,"",null,,,,,,,,
recall-period,749,1841013,13142.179999267682,"",,,,,,,,,glasses
html-keyboard-response,750,1841126,null,"",null,,,,,,,,
recall-period,751,1848694,36900.905000045896,"",,,,,,,,,sky
html-keyboard-response,752,1848803,null,"",null,,,,,,,,
recall-period,753,1850134,5408.224999671802,"",,,,,,,,,cloud
html-keyboard-response,754,1850251,null,"",null,,,,,,,,
recall-period,755,1853614,18814.0250002034,"",,,,,,,,,county
html-keyboard-response,756,1853716,null,"",null,,,,,,,,
recall-period,757,1874550,101910.30500037596,"",,,,,,,,,harp
html-keyboard-response,758,1874663,null,"",null,,,,,,,,
recall-period,759,1887918,74938.16999928094,"",,,,,,,,,plane
html-keyboard-response,760,1888020,null,"",null,,,,,,,,
recall-period,761,1896558,47060.1250003092,"",,,,,,,,,organ
html-keyboard-response,762,1896670,null,"",null,,,,,,,,
recall-period,763,1906398,46641.02499978617,"",,,,,,,,,body
html-keyboard-response,764,1906504,null,"",null,,,,,,,,
recall-period,765,1908684,null,"",,,,,,,,,
html-keyboard-response,766,1909187,null,"Time's Up!",null,,,,,,,,
html-keyboard-response,767,1911057,1867.0449999626726,"<p> Good job! You responded correctly to 81% of the red squares.</p>
                  <p>Be sure to keep your accuracy above 80%</p>
                  <p>Press any key to continue the experiment. Thank you!</p>",32,,,,,,,,
html-keyboard-response,768,1911744,685.5150000192225,"<div style=""font-size:48px;"">Press any key to begin list 7 of 24 </div>",32,,,,,,,,
html-keyboard-response,769,1914269,null,"<div style=""font-size:60px;"">+</div>",null,,,,,,,,
html-keyboard-response,770,1914752,480.41999991983175,"BUSH<img id = ""stim"" ><div class = red_square id = ""topsquare"" ></div><img id = ""stim"" ><div class = red_square  id = ""bottomsquare"" ></div>",32,word_square,response,1,Space,true,,,
html-keyboard-response,771,1916260,null,"BUSH",null,word,,,,, 'BUSH',,
html-keyboard-response,772,1916774,null,"TIGER<img id = ""stim"" ><div class = green_square id = ""topsquare"" ></div><img id = ""stim"" ><div class = green_square  id = ""bottomsquare"" ></div>",null,word_square,response,0,none,true,,,
html-keyboard-response,773,1918291,null,"TIGER",null,word,,,,, 'TIGER',,
html-keyboard-response,774,1918805,null,"SAUCER<img id = ""stim"" ><div class = green_square id = ""topsquare"" ></div><img id = ""stim"" ><div class = green_square  id = ""bottomsquare"" ></div>",null,word_square,response,0,none,true,,,
html-keyboard-response,775,1920320,null,"SAUCER",null,word,,,,, 'SAUCER',,
html-keyboard-response,776,1920837,null,"VALVE<img id = ""stim"" ><div class = red_square id = ""topsquare"" ></div><img id = ""stim"" ><div class = red_square  id = ""bottomsquare"" ></div>",null,word_square,response,1,Space,false,,,
html-keyboard-response,777,1922346,null,"VALVE",null,word,,,,, 'VALVE',,
html-keyboard-response,778,1922823,474.71500001847744,"OATMEAL<img id = ""stim"" ><div class = red_square id = ""topsquare"" ></div><img id = ""stim"" ><div class = red_square  id = ""bottomsquare"" ></div>",32,word_square,response,1,Space,true,,,
html-keyboard-response,779,1924334,null,"OATMEAL",null,word,,,,, 'OATMEAL',,
html-keyboard-response,780,1924847,null,"CABOOSE<img id = ""stim"" ><div class = green_square id = ""topsquare"" ></div><img id = ""stim"" ><div class = green_square  id = ""bottomsquare"" ></div>",null,word_square,response,0,none,true,,,
html-keyboard-response,781,1926358,null,"CABOOSE",null,word,,,,, 'CABOOSE',,
html-keyboard-response,782,1926719,359.76499994285405,"POISON<img id = ""stim"" ><div class = red_square id = ""topsquare"" ></div><img id = ""stim"" ><div class = red_square  id = ""bottomsquare"" ></div>",32,word_square,response,1,Space,true,,,
html-keyboard-response,783,1928227,null,"POISON",null,word,,,,, 'POISON',,
html-keyboard-response,784,1928742,null,"COBRA<img id = ""stim"" ><div class = green_square id = ""topsquare"" ></div><img id = ""stim"" ><div class = green_square  id = ""bottomsquare"" ></div>",null,word_square,response,0,none,true,,,
html-keyboard-response,785,1930252,null,"COBRA",null,word,,,,, 'COBRA',,
html-keyboard-response,786,1930769,null,"BUILDER<img id = ""stim"" ><div class = green_square id = ""topsquare"" ></div><img id = ""stim"" ><div class = green_square  id = ""bottomsquare"" ></div>",null,word_square,response,0,none,true,,,
html-keyboard-response,787,1932277,null,"BUILDER",null,word,,,,, 'BUILDER',,
html-keyboard-response,788,1932696,417.4149997998029,"TAXI<img id = ""stim"" ><div class = red_square id = ""topsquare"" ></div><img id = ""stim"" ><div class = red_square  id = ""bottomsquare"" ></div>",32,word_square,response,1,Space,true,,,
html-keyboard-response,789,1934211,null,"TAXI",null,word,,,,, 'TAXI',,
html-keyboard-response,790,1934726,null,"RUST<img id = ""stim"" ><div class = green_square id = ""topsquare"" ></div><img id = ""stim"" ><div class = green_square  id = ""bottomsquare"" ></div>",null,word_square,response,0,none,true,,,
html-keyboard-response,791,1936240,null,"RUST",null,word,,,,, 'RUST',,
html-keyboard-response,792,1936654,412.73500001989305,"SUPPER<img id = ""stim"" ><div class = red_square id = ""topsquare"" ></div><img id = ""stim"" ><div class = red_square  id = ""bottomsquare"" ></div>",32,word_square,response,1,Space,true,,,
html-keyboard-response,793,1938157,null,"SUPPER",null,word,,,,, 'SUPPER',,
html-keyboard-response,794,1938671,null,"WAITER<img id = ""stim"" ><div class = red_square id = ""topsquare"" ></div><img id = ""stim"" ><div class = red_square  id = ""bottomsquare"" ></div>",null,word_square,response,1,Space,false,,,
html-keyboard-response,795,1940185,null,"WAITER",null,word,,,,, 'WAITER',,
html-keyboard-response,796,1940701,null,"BATHROOM<img id = ""stim"" ><div class = green_square id = ""topsquare"" ></div><img id = ""stim"" ><div class = green_square  id = ""bottomsquare"" ></div>",null,word_square,response,0,none,true,,,
html-keyboard-response,797,1942214,null,"BATHROOM",null,word,,,,, 'BATHROOM',,
html-keyboard-response,798,1942695,478.81000000052154,"CLOTHES<img id = ""stim"" ><div class = red_square id = ""topsquare"" ></div><img id = ""stim"" ><div class = red_square  id = ""bottomsquare"" ></div>",32,word_square,response,1,Space,true,,,
html-keyboard-response,799,1944209,null,"CLOTHES",null,word,,,,, 'CLOTHES',,
html-keyboard-response,800,1944726,null,"WAGON<img id = ""stim"" ><div class = red_square id = ""topsquare"" ></div><img id = ""stim"" ><div class = red_square  id = ""bottomsquare"" ></div>",null,word_square,response,1,Space,false,,,
html-keyboard-response,801,1946234,null,"WAGON",null,word,,,,, 'WAGON',,
html-keyboard-response,802,1946748,null,"SWAMP<img id = ""stim"" ><div class = green_square id = ""topsquare"" ></div><img id = ""stim"" ><div class = green_square  id = ""bottomsquare"" ></div>",null,word_square,response,0,none,true,,,
html-keyboard-response,803,1948260,null,"SWAMP",null,word,,,,, 'SWAMP',,
html-keyboard-response,804,1948777,null,"SLIDE<img id = ""stim"" ><div class = green_square id = ""topsquare"" ></div><img id = ""stim"" ><div class = green_square  id = ""bottomsquare"" ></div>",null,word_square,response,0,none,true,,,
html-keyboard-response,805,1950289,null,"SLIDE",null,word,,,,, 'SLIDE',,
call-function,806,1950290,,"",,,,,,,,,
html-keyboard-response,807,1950393,null,"",null,,,,,,,,
math-period,808,1951838,2718.68500020355,"",,,,,,,,,4numpad
html-keyboard-response,809,1951940,null,"",null,,,,,,,,
math-period,810,1952894,1712.3249999713153,"",,,,,,,,,3numpad
html-keyboard-response,811,1953008,null,"",null,,,,,,,,
math-period,812,1954222,2234.14000030607,"",,,,,,,,,3numpad
html-keyboard-response,813,1954330,null,"",null,,,,,,,,
math-period,814,1956030,2933.5550002288073,"",,,,,,,,,2numpad
html-keyboard-response,815,1956137,null,"",null,,,,,,,,
math-period,816,1957462,2530.2850001025945,"",,,,,,,,,4numpad
html-keyboard-response,817,1957564,null,"",null,,,,,,,,
math-period,818,1961998,8768.214999930933,"",,,,,,,,,1numpad
html-keyboard-response,819,1962100,null,"",null,,,,,,,,
math-period,820,1963254,2218.4200000483543,"",,,,,,,,,4numpad
html-keyboard-response,821,1963358,null,"",null,,,,,,,,
math-period,822,1964206,1566.0400001797825,"",,,,,,,,,2numpad
html-keyboard-response,823,1964309,null,"",null,,,,,,,,
math-period,824,1966294,3856.849999865517,"",,,,,,,,,0numpad
html-keyboard-response,825,1966398,null,"",null,,,,,,,,
math-period,826,1967798,2645.729999989271,"",,,,,,,,,1numpad
html-keyboard-response,827,1967900,null,"",null,,,,,,,,
math-period,828,1969062,2210.7950001955032,"",,,,,,,,,5numpad
html-keyboard-response,829,1969165,null,"",null,,,,,,,,
math-period,830,1969959,1487.7049999777228,"",,,,,,,,,5numpad
html-keyboard-response,831,1970069,null,"",null,,,,,,,,
math-period,832,1971726,3192.484999774024,"",,,,,,,,,0numpad
html-keyboard-response,833,1971829,null,"",null,,,,,,,,
math-period,834,1972822,1840.2899999637157,"",,,,,,,,,3numpad
html-keyboard-response,835,1972924,null,"",null,,,,,,,,
math-period,836,1974183,3122.8299997746944,"",,,,,,,,,0numpad1numpad
html-keyboard-response,837,1974294,null,"",null,,,,,,,,
math-period,838,1974297,null,"",,,,,,,,,
html-keyboard-response,839,1975310,null,"Recall Period!",null,,,,,,,,
call-function,840,1975312,,"",,,,,,,,,
html-keyboard-response,841,1975419,null,"",null,,,,,,,,
recall-period,842,1977750,15170.320000732318,"",,,,,,,,,caboose
html-keyboard-response,843,1977859,null,"",null,,,,,,,,
recall-period,844,1978846,2681.5250006038696,"",,,,,,,,,wagon
html-keyboard-response,845,1978962,null,"",null,,,,,,,,
recall-period,846,1980014,3906.7400000058115,"",,,,,,,,,tiger
html-keyboard-response,847,1980117,null,"",null,,,,,,,,
recall-period,848,1982846,11769.960000179708,"",,,,,,,,,bush
html-keyboard-response,849,1982957,null,"",null,,,,,,,,
recall-period,850,1985766,18910.830000415444,"",,,,,,,,,clothes
html-keyboard-response,851,1985875,null,"",null,,,,,,,,
recall-period,852,1986678,3177.2950005251914,"",,,,,,,,,supper
html-keyboard-response,853,1986792,null,"",null,,,,,,,,
recall-period,854,1988142,6741.29500053823,"",,,,,,,,,bathroom
html-keyboard-response,855,1988246,null,"",null,,,,,,,,
recall-period,856,1989055,2791.6700004134327,"",,,,,,,,,aiter
html-keyboard-response,857,1989157,null,"",null,,,,,,,,
recall-period,858,1993215,22427.10999958217,"",,,,,,,,,viper
html-keyboard-response,859,1993316,null,"",null,,,,,,,,
recall-period,860,1994566,4893.820000113919,"",,,,,,,,,poison
html-keyboard-response,861,1994682,null,"",null,,,,,,,,
recall-period,862,2001950,33935.27499958873,"",,,,,,,,,taxi
html-keyboard-response,863,2002053,null,"",null,,,,,,,,
recall-period,864,2002934,2316.145000513643,"",,,,,,,,,rust
html-keyboard-response,865,2003050,null,"",null,,,,,,,,
recall-period,866,2010406,39831.055000424385,"",,,,,,,,,crate
html-keyboard-response,867,2010517,null,"",null,,,,,,,,
recall-period,868,2038894,136738.44999982975,"",,,,,,,,,frog
html-keyboard-response,869,2039001,null,"",null,,,,,,,,
recall-period,870,2045398,31826.904999557883,"",,,,,,,,,trees
html-keyboard-response,871,2045511,null,"",null,,,,,,,,
recall-period,872,2050320,null,"",,,,,,,,,
html-keyboard-response,873,2050824,null,"Time's Up!",null,,,,,,,,
html-keyboard-response,874,2051982,1155.4599998053163,"<p> Good job! You responded correctly to 81% of the red squares.</p>
                  <p>Be sure to keep your accuracy above 80%</p>
                  <p>Press any key to continue the experiment. Thank you!</p>",32,,,,,,,,
html-keyboard-response,875,2052936,952.4750001728535,"<div style=""font-size:48px;"">Press any key to begin list 8 of 24 </div>",32,,,,,,,,
html-keyboard-response,876,2055453,null,"<div style=""font-size:60px;"">+</div>",null,,,,,,,,
html-keyboard-response,877,2055825,369.5300000254065,"GRASS<img id = ""stim"" ><div class = red_square id = ""topsquare"" ></div><img id = ""stim"" ><div class = red_square  id = ""bottomsquare"" ></div>",32,word_square,response,1,Space,true,,,
html-keyboard-response,878,2057331,null,"GRASS",null,word,,,,, 'GRASS',,
html-keyboard-response,879,2057834,null,"NURSE<img id = ""stim"" ><div class = green_square id = ""topsquare"" ></div><img id = ""stim"" ><div class = green_square  id = ""bottomsquare"" ></div>",null,word_square,response,0,none,true,,,
html-keyboard-response,880,2059337,null,"NURSE",null,word,,,,, 'NURSE',,
html-keyboard-response,881,2059841,null,"OINTMENT<img id = ""stim"" ><div class = green_square id = ""topsquare"" ></div><img id = ""stim"" ><div class = green_square  id = ""bottomsquare"" ></div>",null,word_square,response,0,none,true,,,
html-keyboard-response,882,2061350,null,"OINTMENT",null,word,,,,, 'OINTMENT',,
html-keyboard-response,883,2061806,454.4249998871237,"RELISH<img id = ""stim"" ><div class = red_square id = ""topsquare"" ></div><img id = ""stim"" ><div class = red_square  id = ""bottomsquare"" ></div>",32,word_square,response,1,Space,true,,,
html-keyboard-response,884,2063312,null,"RELISH",null,word,,,,, 'RELISH',,
html-keyboard-response,885,2063728,414.05000002123415,"RECEIPT<img id = ""stim"" ><div class = red_square id = ""topsquare"" ></div><img id = ""stim"" ><div class = red_square  id = ""bottomsquare"" ></div>",32,word_square,response,1,Space,true,,,
html-keyboard-response,886,2065245,null,"RECEIPT",null,word,,,,, 'RECEIPT',,
html-keyboard-response,887,2065747,null,"CRAB<img id = ""stim"" ><div class = green_square id = ""topsquare"" ></div><img id = ""stim"" ><div class = green_square  id = ""bottomsquare"" ></div>",null,word_square,response,0,none,true,,,
html-keyboard-response,888,2067254,null,"CRAB",null,word,,,,, 'CRAB',,
html-keyboard-response,889,2067622,367.4999999348074,"HOOK<img id = ""stim"" ><div class = red_square id = ""topsquare"" ></div><img id = ""stim"" ><div class = red_square  id = ""bottomsquare"" ></div>",32,word_square,response,1,Space,true,,,
html-keyboard-response,890,2069129,null,"HOOK",null,word,,,,, 'HOOK',,
html-keyboard-response,891,2069631,null,"TABLET<img id = ""stim"" ><div class = green_square id = ""topsquare"" ></div><img id = ""stim"" ><div class = green_square  id = ""bottomsquare"" ></div>",null,word_square,response,0,none,true,,,
html-keyboard-response,892,2071141,null,"TABLET",null,word,,,,, 'TABLET',,
html-keyboard-response,893,2071644,null,"ROD<img id = ""stim"" ><div class = green_square id = ""topsquare"" ></div><img id = ""stim"" ><div class = green_square  id = ""bottomsquare"" ></div>",null,word_square,response,0,none,true,,,
html-keyboard-response,894,2073156,null,"ROD",null,word,,,,, 'ROD',,
html-keyboard-response,895,2073448,289.4249998498708,"KETCHUP<img id = ""stim"" ><div class = red_square id = ""topsquare"" ></div><img id = ""stim"" ><div class = red_square  id = ""bottomsquare"" ></div>",32,word_square,response,1,Space,true,,,
html-keyboard-response,896,2074965,null,"KETCHUP",null,word,,,,, 'KETCHUP',,
html-keyboard-response,897,2075483,null,"JOURNAL<img id = ""stim"" ><div class = green_square id = ""topsquare"" ></div><img id = ""stim"" ><div class = green_square  id = ""bottomsquare"" ></div>",null,word_square,response,0,none,true,,,
html-keyboard-response,898,2076992,null,"JOURNAL",null,word,,,,, 'JOURNAL',,
html-keyboard-response,899,2077281,286.3400001078844,"HOUND<img id = ""stim"" ><div class = red_square id = ""topsquare"" ></div><img id = ""stim"" ><div class = red_square  id = ""bottomsquare"" ></div>",32,word_square,response,1,Space,true,,,
html-keyboard-response,900,2078785,null,"HOUND",null,word,,,,, 'HOUND',,
html-keyboard-response,901,2079121,332.4850001372397,"FOSSIL<img id = ""stim"" ><div class = red_square id = ""topsquare"" ></div><img id = ""stim"" ><div class = red_square  id = ""bottomsquare"" ></div>",32,word_square,response,1,Space,true,,,
html-keyboard-response,902,2080625,null,"FOSSIL",null,word,,,,, 'FOSSIL',,
html-keyboard-response,903,2080937,309.87500003539026,"THIMBLE<img id = ""stim"" ><div class = green_square id = ""topsquare"" ></div><img id = ""stim"" ><div class = green_square  id = ""bottomsquare"" ></div>",32,word_square,response,0,none,false,,,
html-keyboard-response,904,2082451,null,"THIMBLE",null,word,,,,, 'THIMBLE',,
html-keyboard-response,905,2082793,340.0149999652058,"STRANGER<img id = ""stim"" ><div class = red_square id = ""topsquare"" ></div><img id = ""stim"" ><div class = red_square  id = ""bottomsquare"" ></div>",32,word_square,response,1,Space,true,,,
html-keyboard-response,906,2084304,null,"STRANGER",null,word,,,,, 'STRANGER',,
html-keyboard-response,907,2084575,269.4349999073893,"BLACKBOARD<img id = ""stim"" ><div class = red_square id = ""topsquare"" ></div><img id = ""stim"" ><div class = red_square  id = ""bottomsquare"" ></div>",32,word_square,response,1,Space,true,,,
html-keyboard-response,908,2086080,null,"BLACKBOARD",null,word,,,,, 'BLACKBOARD',,
html-keyboard-response,909,2086591,null,"BOARD<img id = ""stim"" ><div class = green_square id = ""topsquare"" ></div><img id = ""stim"" ><div class = green_square  id = ""bottomsquare"" ></div>",null,word_square,response,0,none,true,,,
html-keyboard-response,910,2088103,null,"BOARD",null,word,,,,, 'BOARD',,
html-keyboard-response,911,2088605,null,"HANDBAG<img id = ""stim"" ><div class = green_square id = ""topsquare"" ></div><img id = ""stim"" ><div class = green_square  id = ""bottomsquare"" ></div>",null,word_square,response,0,none,true,,,
html-keyboard-response,912,2090114,null,"HANDBAG",null,word,,,,, 'HANDBAG',,
call-function,913,2090116,,"",,,,,,,,,
html-keyboard-response,914,2090220,null,"",null,,,,,,,,
math-period,915,2092070,3123.7500000279397,"",,,,,,,,,3numpad
html-keyboard-response,916,2092183,null,"",null,,,,,,,,
math-period,917,2093142,1741.074999794364,"",,,,,,,,,4numpad
html-keyboard-response,918,2093245,null,"",null,,,,,,,,
math-period,919,2094575,2521.784999873489,"",,,,,,,,,2numpad
html-keyboard-response,920,2094676,null,"",null,,,,,,,,
math-period,921,2095846,2210.075000068173,"",,,,,,,,,4numpad
html-keyboard-response,922,2095949,null,"",null,,,,,,,,
math-period,923,2096871,1743.8250000122935,"",,,,,,,,,5numpad
html-keyboard-response,924,2096987,null,"",null,,,,,,,,
math-period,925,2098654,3175.6199998781085,"",,,,,,,,,1numpad
html-keyboard-response,926,2098757,null,"",null,,,,,,,,
math-period,927,2099766,1857.1699999738485,"",,,,,,,,,5numpad
html-keyboard-response,928,2099868,null,"",null,,,,,,,,
math-period,929,2101591,3309.6499999519438,"",,,,,,,,,0numpad
html-keyboard-response,930,2101694,null,"",null,,,,,,,,
math-period,931,2103238,2949.509999714792,"",,,,,,,,,0numpad
html-keyboard-response,932,2103341,null,"",null,,,,,,,,
math-period,933,2104766,2674.1200000979006,"",,,,,,,,,3numpad
html-keyboard-response,934,2104871,null,"",null,,,,,,,,
math-period,935,2106230,2580.7250002399087,"",,,,,,,,,2numpad
html-keyboard-response,936,2106332,null,"",null,,,,,,,,
math-period,937,2107630,2497.844999888912,"",,,,,,,,,2numpad
html-keyboard-response,938,2107733,null,"",null,,,,,,,,
math-period,939,2109398,3153.0100000090897,"",,,,,,,,,2numpad
html-keyboard-response,940,2109501,null,"",null,,,,,,,,
math-period,941,2110598,2080.850000260398,"",,,,,,,,,4numpad
html-keyboard-response,942,2110701,null,"",null,,,,,,,,
math-period,943,2111751,1929.1900002863258,"",,,,,,,,,5numpad
html-keyboard-response,944,2111854,null,"",null,,,,,,,,
math-period,945,2112974,2095.3999999910593,"",,,,,,,,,2numpad
html-keyboard-response,946,2113076,null,"",null,,,,,,,,
math-period,947,2114130,904.6300000045449,"",,,,,,,,,6numpad
html-keyboard-response,948,2115147,null,"Recall Period!",null,,,,,,,,
call-function,949,2115149,,"",,,,,,,,,
html-keyboard-response,950,2115251,null,"",null,,,,,,,,
recall-period,951,2118695,20947.674999712035,"",,,,,,,,,handbag
html-keyboard-response,952,2118807,null,"",null,,,,,,,,
recall-period,953,2120118,4332.445000298321,"",,,,,,,,,grass
html-keyboard-response,954,2120230,null,"",null,,,,,,,,
recall-period,955,2121262,3459.5850007608533,"",,,,,,,,,board
html-keyboard-response,956,2121364,null,"",null,,,,,,,,
recall-period,957,2124214,17537.1799999848,"",,,,,,,,,blackboard
html-keyboard-response,958,2124317,null,"",null,,,,,,,,
recall-period,959,2126270,9876.150000374764,"",,,,,,,,,nurse
html-keyboard-response,960,2126379,null,"",null,,,,,,,,
recall-period,961,2128126,7012.659999541938,"",,,,,,,,,ointment
html-keyboard-response,962,2128232,null,"",null,,,,,,,,
recall-period,963,2143222,101354.2000001762,"",,,,,,,,,hanger
html-keyboard-response,964,2143325,null,"",null,,,,,,,,
recall-period,965,2152702,73124.93499927223,"",,,,,,,,,receipts
html-keyboard-response,966,2152819,null,"",null,,,,,,,,
recall-period,967,2155758,16248.925000196323,"",,,,,,,,,relish
html-keyboard-response,968,2155870,null,"",null,,,,,,,,
recall-period,969,2158902,15496.999999973923,"",,,,,,,,,plate
html-keyboard-response,970,2159014,null,"",null,,,,,,,,
recall-period,971,2176990,103476.0650000535,"",,,,,,,,,purse
html-keyboard-response,972,2177092,null,"",null,,,,,,,,
recall-period,973,2179166,7854.839999228716,"",,,,,,,,,handbag
html-keyboard-response,974,2179283,null,"",null,,,,,,,,
recall-period,975,2188710,43779.89499922842,"",,,,,,,,,food
html-keyboard-response,976,2188826,null,"",null,,,,,,,,
recall-period,977,2190151,2190.2300002984703,"",,,,,,,,,me
html-keyboard-response,978,2190667,null,"Time's Up!",null,,,,,,,,
html-keyboard-response,979,2190702,32.555000158026814,"<p> Good job! You responded correctly to 83% of the red squares.</p>
                  <p>Be sure to keep your accuracy above 80%</p>
                  <p>Press any key to continue the experiment. Thank you!</p>",13,,,,,,,,
html-keyboard-response,980,2191647,943.859999999404,"<div style=""font-size:48px;"">Press any key to begin list 9 of 24 </div>",32,,,,,,,,
html-keyboard-response,981,2194172,null,"<div style=""font-size:60px;"">+</div>",null,,,,,,,,
html-keyboard-response,982,2194600,425.4400001373142,"MAILBOX<img id = ""stim"" ><div class = red_square id = ""topsquare"" ></div><img id = ""stim"" ><div class = red_square  id = ""bottomsquare"" ></div>",32,word_square,response,1,Space,true,,,
html-keyboard-response,983,2196111,null,"MAILBOX",null,word,,,,, 'MAILBOX',,
html-keyboard-response,984,2196613,null,"BRAKE<img id = ""stim"" ><div class = green_square id = ""topsquare"" ></div><img id = ""stim"" ><div class = green_square  id = ""bottomsquare"" ></div>",null,word_square,response,0,none,true,,,
html-keyboard-response,985,2198120,null,"BRAKE",null,word,,,,, 'BRAKE',,
html-keyboard-response,986,2198578,456.11999998800457,"CLAM<img id = ""stim"" ><div class = red_square id = ""topsquare"" ></div><img id = ""stim"" ><div class = red_square  id = ""bottomsquare"" ></div>",32,word_square,response,1,Space,true,,,
html-keyboard-response,987,2200090,null,"CLAM",null,word,,,,, 'CLAM',,
html-keyboard-response,988,2200593,null,"BROOK<img id = ""stim"" ><div class = green_square id = ""topsquare"" ></div><img id = ""stim"" ><div class = green_square  id = ""bottomsquare"" ></div>",null,word_square,response,0,none,true,,,
html-keyboard-response,989,2202103,null,"BROOK",null,word,,,,, 'BROOK',,
html-keyboard-response,990,2202598,493.7799999024719,"JACKET<img id = ""stim"" ><div class = red_square id = ""topsquare"" ></div><img id = ""stim"" ><div class = red_square  id = ""bottomsquare"" ></div>",32,word_square,response,1,Space,true,,,
html-keyboard-response,991,2204100,null,"JACKET",null,word,,,,, 'JACKET',,
html-keyboard-response,992,2204603,null,"SHELTER<img id = ""stim"" ><div class = green_square id = ""topsquare"" ></div><img id = ""stim"" ><div class = green_square  id = ""bottomsquare"" ></div>",null,word_square,response,0,none,true,,,
html-keyboard-response,993,2206110,null,"SHELTER",null,word,,,,, 'SHELTER',,
html-keyboard-response,994,2206430,318.1849999818951,"BRICK<img id = ""stim"" ><div class = red_square id = ""topsquare"" ></div><img id = ""stim"" ><div class = red_square  id = ""bottomsquare"" ></div>",32,word_square,response,1,Space,true,,,
html-keyboard-response,995,2207934,null,"BRICK",null,word,,,,, 'BRICK',,
html-keyboard-response,996,2208437,null,"STAMP<img id = ""stim"" ><div class = red_square id = ""topsquare"" ></div><img id = ""stim"" ><div class = red_square  id = ""bottomsquare"" ></div>",null,word_square,response,1,Space,false,,,
