trial_type,trial_index,time_elapsed,rt,stimulus,key_press,test_part,task,targ_cond,correctKeyCode,correct,word,value,response
pavlovia,0,1142,,"",,,,,,,,,
external-html,1,68144,66818.03500000387,"",,,,,,,,,
html-keyboard-response,2,69545,1397.5199999986216,"Welcome to the experiment. Press any key to begin.",32,,,,,,,,
html-keyboard-response,3,77968,8421.659999992698,"<p>You will see a list of words and colored squares in the following task.<p><p>Press the spacebar whenever you see a GREEN square.<p><p>Do not press a key if the square is RED<p><p>Press the spacebar to continue.</p>",32,,,,,,,,
html-keyboard-response,4,96645,18174.700000032317,"<p>Please try to remember as many of the words as you can, and try to think about the meaning of each word as it appears.<p><p>After the detection and encoding task you will be asked to solve some math problems for 24 seconds.<p> Please solve as many problems as you can in the time given. <p>",32,,,,,,,,
html-keyboard-response,5,106687,9540.165000013076,"After solving the math problems, you will be asked to type in as many words <p>from the previous list as you can remember for 75 seconds.<p> If you finish recalling before the 75 seconds are up,<p> just sit tight and try to think of any more words you could have missed. <p><p>We will begin with a brief practice session<p>Press the spacebar to begin the practice.</p>",32,,,,,,,,
html-keyboard-response,6,109195,null,"<div style=""font-size:60px;"">+</div>",null,,,,,,,,
html-keyboard-response,7,109701,null,"HAPPY<img id = ""stim"" ><div class = red_square id = ""topsquare"" ></div><img id = ""stim"" ><div class = red_square  id = ""bottomsquare"" ></div>",null,word_square,prac_response,0,none,true,,,
html-keyboard-response,8,111203,null,"HAPPY",null,word,,,,,HAPPY,,
html-keyboard-response,9,111707,456.8699999945238,"COLD<img id = ""stim"" ><div class = green_square id = ""topsquare"" ></div><img id = ""stim"" ><div class = green_square  id = ""bottomsquare"" ></div>",32,word_square,prac_response,1,Space,true,,,
html-keyboard-response,10,113211,null,"COLD",null,word,,,,,COLD,,
html-keyboard-response,11,113713,495.21500000264496,"HEAVY<img id = ""stim"" ><div class = green_square id = ""topsquare"" ></div><img id = ""stim"" ><div class = green_square  id = ""bottomsquare"" ></div>",32,word_square,prac_response,1,Space,true,,,
html-keyboard-response,12,115220,null,"HEAVY",null,word,,,,,HEAVY,,
html-keyboard-response,13,115723,null,"FUNNY<img id = ""stim"" ><div class = red_square id = ""topsquare"" ></div><img id = ""stim"" ><div class = red_square  id = ""bottomsquare"" ></div>",null,word_square,prac_response,0,none,true,,,
html-keyboard-response,14,117229,null,"FUNNY",null,word,,,,,FUNNY,,
html-keyboard-response,15,117732,355.70000001462176,"SCARY<img id = ""stim"" ><div class = green_square id = ""topsquare"" ></div><img id = ""stim"" ><div class = green_square  id = ""bottomsquare"" ></div>",32,word_square,prac_response,1,Space,true,,,
html-keyboard-response,16,119237,null,"SCARY",null,word,,,,,SCARY,,
html-keyboard-response,17,119743,null,"PEACEFUL<img id = ""stim"" ><div class = green_square id = ""topsquare"" ></div><img id = ""stim"" ><div class = green_square  id = ""bottomsquare"" ></div>",null,word_square,prac_response,1,Space,false,,,
html-keyboard-response,18,121245,null,"PEACEFUL",null,word,,,,,PEACEFUL,,
html-keyboard-response,19,121749,null,"LITTLE<img id = ""stim"" ><div class = red_square id = ""topsquare"" ></div><img id = ""stim"" ><div class = red_square  id = ""bottomsquare"" ></div>",null,word_square,prac_response,0,none,true,,,
html-keyboard-response,20,123255,null,"LITTLE",null,word,,,,,LITTLE,,
html-keyboard-response,21,123758,null,"TIRED<img id = ""stim"" ><div class = red_square id = ""topsquare"" ></div><img id = ""stim"" ><div class = red_square  id = ""bottomsquare"" ></div>",null,word_square,prac_response,0,none,true,,,
html-keyboard-response,22,125265,null,"TIRED",null,word,,,,,TIRED,,
html-keyboard-response,23,125770,null,"ENTERTAINING<img id = ""stim"" ><div class = red_square id = ""topsquare"" ></div><img id = ""stim"" ><div class = red_square  id = ""bottomsquare"" ></div>",null,word_square,prac_response,0,none,true,,,
html-keyboard-response,24,127274,null,"ENTERTAINING",null,word,,,,,ENTERTAINING,,
html-keyboard-response,25,127778,null,"GRATEFUL<img id = ""stim"" ><div class = green_square id = ""topsquare"" ></div><img id = ""stim"" ><div class = green_square  id = ""bottomsquare"" ></div>",null,word_square,prac_response,1,Space,false,,,
html-keyboard-response,26,129282,null,"GRATEFUL",null,word,,,,,GRATEFUL,,
html-keyboard-response,27,129787,null,"LOUD<img id = ""stim"" ><div class = red_square id = ""topsquare"" ></div><img id = ""stim"" ><div class = red_square  id = ""bottomsquare"" ></div>",null,word_square,prac_response,0,none,true,,,
html-keyboard-response,28,131293,null,"LOUD",null,word,,,,,LOUD,,
html-keyboard-response,29,131797,427.1149999694899,"SMART<img id = ""stim"" ><div class = green_square id = ""topsquare"" ></div><img id = ""stim"" ><div class = green_square  id = ""bottomsquare"" ></div>",32,word_square,prac_response,1,Space,true,,,
html-keyboard-response,30,133299,null,"SMART",null,word,,,,,SMART,,
html-keyboard-response,31,133803,null,"SMOOTH<img id = ""stim"" ><div class = green_square id = ""topsquare"" ></div><img id = ""stim"" ><div class = green_square  id = ""bottomsquare"" ></div>",null,word_square,prac_response,1,Space,false,,,
html-keyboard-response,32,135307,null,"SMOOTH",null,word,,,,,SMOOTH,,
html-keyboard-response,33,135813,null,"DISHONEST<img id = ""stim"" ><div class = red_square id = ""topsquare"" ></div><img id = ""stim"" ><div class = red_square  id = ""bottomsquare"" ></div>",null,word_square,prac_response,0,none,true,,,
html-keyboard-response,34,137315,null,"DISHONEST",null,word,,,,,DISHONEST,,
html-keyboard-response,35,137817,371.5299999457784,"WEALTHY<img id = ""stim"" ><div class = green_square id = ""topsquare"" ></div><img id = ""stim"" ><div class = green_square  id = ""bottomsquare"" ></div>",32,word_square,prac_response,1,Space,true,,,
html-keyboard-response,36,139324,null,"WEALTHY",null,word,,,,,WEALTHY,,
html-keyboard-response,37,139827,null,"BEAUTIFUL<img id = ""stim"" ><div class = red_square id = ""topsquare"" ></div><img id = ""stim"" ><div class = red_square  id = ""bottomsquare"" ></div>",null,word_square,prac_response,0,none,true,,,
html-keyboard-response,38,141332,null,"BEAUTIFUL",null,word,,,,,BEAUTIFUL,,
html-keyboard-response,39,141839,null,"DREARY<img id = ""stim"" ><div class = red_square id = ""topsquare"" ></div><img id = ""stim"" ><div class = red_square  id = ""bottomsquare"" ></div>",null,word_square,prac_response,0,none,true,,,
html-keyboard-response,40,143341,null,"DREARY",null,word,,,,,DREARY,,
html-keyboard-response,41,143848,394.7849999531172,"PLAYFUL<img id = ""stim"" ><div class = green_square id = ""topsquare"" ></div><img id = ""stim"" ><div class = green_square  id = ""bottomsquare"" ></div>",32,word_square,prac_response,1,Space,true,,,
html-keyboard-response,42,145351,null,"PLAYFUL",null,word,,,,,PLAYFUL,,
html-keyboard-response,43,150644,5289.385000010952,"<p> Good job! You responded correctly to 83% of the GREEN squares.</p>
                  <p>Be sure to keep your accuracy above 80%</p>
                  <p>We're going to try once more to make sure you understand  the task. press any key to continue. </p>",32,,,,,,,,
html-keyboard-response,44,153596,2949.8500000336207,"<p>You will see a list of words and colored squares in the following task.<p><p>Press the spacebar whenever you see a GREEN square.<p><p>Do not press a key if the square is RED<p><p>Press the spacebar to continue.</p>",32,,,,,,,,
html-keyboard-response,45,156104,null,"<div style=""font-size:60px;"">+</div>",null,,,,,,,,
html-keyboard-response,46,156610,null,"HAPPY<img id = ""stim"" ><div class = red_square id = ""topsquare"" ></div><img id = ""stim"" ><div class = red_square  id = ""bottomsquare"" ></div>",null,word_square,response,0,none,true,,,
html-keyboard-response,47,158112,null,"HAPPY",null,word,,,,,HAPPY,,
html-keyboard-response,48,158466,352.02500002924353,"COLD<img id = ""stim"" ><div class = green_square id = ""topsquare"" ></div><img id = ""stim"" ><div class = green_square  id = ""bottomsquare"" ></div>",32,word_square,response,1,Space,true,,,
html-keyboard-response,49,159973,null,"COLD",null,word,,,,,COLD,,
html-keyboard-response,50,160345,369.8549999971874,"HEAVY<img id = ""stim"" ><div class = green_square id = ""topsquare"" ></div><img id = ""stim"" ><div class = green_square  id = ""bottomsquare"" ></div>",32,word_square,response,1,Space,true,,,
html-keyboard-response,51,161852,null,"HEAVY",null,word,,,,,HEAVY,,
html-keyboard-response,52,162359,null,"FUNNY<img id = ""stim"" ><div class = red_square id = ""topsquare"" ></div><img id = ""stim"" ><div class = red_square  id = ""bottomsquare"" ></div>",null,word_square,response,0,none,true,,,
html-keyboard-response,53,163866,null,"FUNNY",null,word,,,,,FUNNY,,
html-keyboard-response,54,164179,311.3850000081584,"SCARY<img id = ""stim"" ><div class = green_square id = ""topsquare"" ></div><img id = ""stim"" ><div class = green_square  id = ""bottomsquare"" ></div>",32,word_square,response,1,Space,true,,,
html-keyboard-response,55,165683,null,"SCARY",null,word,,,,,SCARY,,
html-keyboard-response,56,166118,432.3549999971874,"PEACEFUL<img id = ""stim"" ><div class = green_square id = ""topsquare"" ></div><img id = ""stim"" ><div class = green_square  id = ""bottomsquare"" ></div>",32,word_square,response,1,Space,true,,,
html-keyboard-response,57,167620,null,"PEACEFUL",null,word,,,,,PEACEFUL,,
html-keyboard-response,58,168123,null,"LITTLE<img id = ""stim"" ><div class = red_square id = ""topsquare"" ></div><img id = ""stim"" ><div class = red_square  id = ""bottomsquare"" ></div>",null,word_square,response,0,none,true,,,
html-keyboard-response,59,169627,null,"LITTLE",null,word,,,,,LITTLE,,
html-keyboard-response,60,170132,null,"TIRED<img id = ""stim"" ><div class = red_square id = ""topsquare"" ></div><img id = ""stim"" ><div class = red_square  id = ""bottomsquare"" ></div>",null,word_square,response,0,none,true,,,
html-keyboard-response,61,171635,null,"TIRED",null,word,,,,,TIRED,,
html-keyboard-response,62,172139,null,"ENTERTAINING<img id = ""stim"" ><div class = red_square id = ""topsquare"" ></div><img id = ""stim"" ><div class = red_square  id = ""bottomsquare"" ></div>",null,word_square,response,0,none,true,,,
html-keyboard-response,63,173641,null,"ENTERTAINING",null,word,,,,,ENTERTAINING,,
html-keyboard-response,64,173914,270.98000003024936,"GRATEFUL<img id = ""stim"" ><div class = green_square id = ""topsquare"" ></div><img id = ""stim"" ><div class = green_square  id = ""bottomsquare"" ></div>",32,word_square,response,1,Space,true,,,
html-keyboard-response,65,175417,null,"GRATEFUL",null,word,,,,,GRATEFUL,,
html-keyboard-response,66,175924,null,"LOUD<img id = ""stim"" ><div class = red_square id = ""topsquare"" ></div><img id = ""stim"" ><div class = red_square  id = ""bottomsquare"" ></div>",null,word_square,response,0,none,true,,,
html-keyboard-response,67,177432,null,"LOUD",null,word,,,,,LOUD,,
html-keyboard-response,68,177749,315.729999972973,"SMART<img id = ""stim"" ><div class = green_square id = ""topsquare"" ></div><img id = ""stim"" ><div class = green_square  id = ""bottomsquare"" ></div>",32,word_square,response,1,Space,true,,,
html-keyboard-response,69,179254,null,"SMART",null,word,,,,,SMART,,
html-keyboard-response,70,179691,435.4649999877438,"SMOOTH<img id = ""stim"" ><div class = green_square id = ""topsquare"" ></div><img id = ""stim"" ><div class = green_square  id = ""bottomsquare"" ></div>",32,word_square,response,1,Space,true,,,
html-keyboard-response,71,181197,null,"SMOOTH",null,word,,,,,SMOOTH,,
html-keyboard-response,72,181703,null,"DISHONEST<img id = ""stim"" ><div class = red_square id = ""topsquare"" ></div><img id = ""stim"" ><div class = red_square  id = ""bottomsquare"" ></div>",null,word_square,response,0,none,true,,,
html-keyboard-response,73,183208,null,"DISHONEST",null,word,,,,,DISHONEST,,
html-keyboard-response,74,183480,269.910000031814,"WEALTHY<img id = ""stim"" ><div class = green_square id = ""topsquare"" ></div><img id = ""stim"" ><div class = green_square  id = ""bottomsquare"" ></div>",32,word_square,response,1,Space,true,,,
html-keyboard-response,75,184983,null,"WEALTHY",null,word,,,,,WEALTHY,,
html-keyboard-response,76,185489,null,"BEAUTIFUL<img id = ""stim"" ><div class = red_square id = ""topsquare"" ></div><img id = ""stim"" ><div class = red_square  id = ""bottomsquare"" ></div>",null,word_square,response,0,none,true,,,
html-keyboard-response,77,186991,null,"BEAUTIFUL",null,word,,,,,BEAUTIFUL,,
html-keyboard-response,78,187494,null,"DREARY<img id = ""stim"" ><div class = red_square id = ""topsquare"" ></div><img id = ""stim"" ><div class = red_square  id = ""bottomsquare"" ></div>",null,word_square,response,0,none,true,,,
html-keyboard-response,79,188996,null,"DREARY",null,word,,,,,DREARY,,
html-keyboard-response,80,189309,310.9650000114925,"PLAYFUL<img id = ""stim"" ><div class = green_square id = ""topsquare"" ></div><img id = ""stim"" ><div class = green_square  id = ""bottomsquare"" ></div>",32,word_square,response,1,Space,true,,,
html-keyboard-response,81,190816,null,"PLAYFUL",null,word,,,,,PLAYFUL,,
html-keyboard-response,82,197618,6799.760000023525,"<p> Good job! You responded correctly to 100% of the GREEN squares.</p>
                  <p>Be sure to keep your accuracy above 80%</p>
                  <p>Press any key to begin the math and recall sections. Thank you!</p>",32,,,,,,,,
call-function,83,197620,,"",,,,,,,,,
html-keyboard-response,84,197724,null,"",null,,,,,,,,
math-period,85,201936,7994.695000001229,"",,,,,,,,,2
html-keyboard-response,86,202039,null,"",null,,,,,,,,
math-period,87,205090,5983.960000041407,"",,,,,,,,,3
html-keyboard-response,88,205195,null,"",null,,,,,,,,
math-period,89,207252,3962.3649999848567,"",,,,,,,,,0
html-keyboard-response,90,207354,null,"",null,,,,,,,,
math-period,91,209278,3674.3550000246614,"",,,,,,,,,2
html-keyboard-response,92,209383,null,"",null,,,,,,,,
math-period,93,210466,2017.6949999877252,"",,,,,,,,,2
html-keyboard-response,94,210569,null,"",null,,,,,,,,
math-period,95,211706,2120.424999971874,"",,,,,,,,,2
html-keyboard-response,96,211809,null,"",null,,,,,,,,
math-period,97,212894,2034.9949999363162,"",,,,,,,,,3
html-keyboard-response,98,212997,null,"",null,,,,,,,,
math-period,99,214101,2105.5149999447167,"",,,,,,,,,4
html-keyboard-response,100,214205,null,"",null,,,,,,,,
math-period,101,215883,3162.1399999712594,"",,,,,,,,,5
html-keyboard-response,102,215987,null,"",null,,,,,,,,
math-period,103,217295,2582.7150000841357,"",,,,,,,,,5
html-keyboard-response,104,217398,null,"",null,,,,,,,,
math-period,105,218592,2276.2649999931455,"",,,,,,,,,5
html-keyboard-response,106,218698,null,"",null,,,,,,,,
math-period,107,220934,6952.8149999678135,"",,,,,,,,,4
html-keyboard-response,108,221038,null,"",null,,,,,,,,
math-period,109,221623,null,"",,,,,,,,,
html-keyboard-response,110,222627,null,"Recall Period!",null,,,,,,,,
call-function,111,222628,,"",,,,,,,,,
html-keyboard-response,112,222732,null,"",null,,,,,,,,
recall-period,113,227382,36405.63000016846,"",,,,,,,,,beautiful
html-keyboard-response,114,227486,null,"",null,,,,,,,,
recall-period,115,229288,4308.649999904446,"",,,,,,,,,smart
html-keyboard-response,116,229391,null,"",null,,,,,,,,
recall-period,117,231797,11991.830000129994,"",,,,,,,,,tired
html-keyboard-response,118,231901,null,"",null,,,,,,,,
recall-period,119,233341,5630.205000168644,"",,,,,,,,,dreary
html-keyboard-response,120,233445,null,"",null,,,,,,,,
recall-period,121,237195,22576.54999999795,"",,,,,,,,,little
html-keyboard-response,122,237298,null,"",null,,,,,,,,
recall-period,123,256763,240789.88999983994,"",,,,,,,,,entertaining
html-keyboard-response,124,256866,null,"",null,,,,,,,,
recall-period,125,297632,null,"",,,,,,,,,
html-keyboard-response,126,298134,null,"Time's Up!",null,,,,,,,,
html-keyboard-response,127,305599,7463.004999968689,"<p>We will now begin the experiment!<p><p>Please try to remember all words from each list.<p><p>Press the spacebar whenever you see a GREEN square.<p><p><p><p>Press the spacebar to begin.</p>",32,,,,,,,,
html-keyboard-response,128,308041,1940.119999984745,"<div style=""font-size:48px;"">Press any key to begin list 1 of 24 </div>",32,,,,,,,,
html-keyboard-response,129,310550,null,"<div style=""font-size:60px;"">+</div>",null,,,,,,,,
html-keyboard-response,130,311058,null,"THRONE<img id = ""stim"" ><div class = red_square id = ""topsquare"" ></div><img id = ""stim"" ><div class = red_square  id = ""bottomsquare"" ></div>",null,word_square,response,0,none,true,,,
html-keyboard-response,131,312560,null,"THRONE",null,word,,,,, 'THRONE',,
html-keyboard-response,132,313065,null,"CATTLE<img id = ""stim"" ><div class = red_square id = ""topsquare"" ></div><img id = ""stim"" ><div class = red_square  id = ""bottomsquare"" ></div>",null,word_square,response,0,none,true,,,
html-keyboard-response,133,314567,null,"CATTLE",null,word,,,,, 'CATTLE',,
html-keyboard-response,134,314982,412.15499996906146,"MOP<img id = ""stim"" ><div class = green_square id = ""topsquare"" ></div><img id = ""stim"" ><div class = green_square  id = ""bottomsquare"" ></div>",32,word_square,response,1,Space,true,,,
html-keyboard-response,135,316485,null,"MOP",null,word,,,,, 'MOP',,
html-keyboard-response,136,316990,null,"OUTFIT<img id = ""stim"" ><div class = red_square id = ""topsquare"" ></div><img id = ""stim"" ><div class = red_square  id = ""bottomsquare"" ></div>",null,word_square,response,0,none,true,,,
html-keyboard-response,137,318493,null,"OUTFIT",null,word,,,,, 'OUTFIT',,
html-keyboard-response,138,318846,351.8950000288896,"KITCHEN<img id = ""stim"" ><div class = green_square id = ""topsquare"" ></div><img id = ""stim"" ><div class = green_square  id = ""bottomsquare"" ></div>",32,word_square,response,1,Space,true,,,
html-keyboard-response,139,320353,null,"KITCHEN",null,word,,,,, 'KITCHEN',,
html-keyboard-response,140,320857,null,"VILLAGE<img id = ""stim"" ><div class = green_square id = ""topsquare"" ></div><img id = ""stim"" ><div class = green_square  id = ""bottomsquare"" ></div>",null,word_square,response,1,Space,false,,,
html-keyboard-response,141,322364,null,"VILLAGE",null,word,,,,, 'VILLAGE',,
html-keyboard-response,142,322843,476.859999995213,"JOKER<img id = ""stim"" ><div class = green_square id = ""topsquare"" ></div><img id = ""stim"" ><div class = green_square  id = ""bottomsquare"" ></div>",32,word_square,response,1,Space,true,,,
html-keyboard-response,143,324347,null,"JOKER",null,word,,,,, 'JOKER',,
html-keyboard-response,144,324855,null,"PRAIRIE<img id = ""stim"" ><div class = red_square id = ""topsquare"" ></div><img id = ""stim"" ><div class = red_square  id = ""bottomsquare"" ></div>",null,word_square,response,0,none,true,,,
html-keyboard-response,145,326358,null,"PRAIRIE",null,word,,,,, 'PRAIRIE',,
html-keyboard-response,146,326717,356.8049999885261,"MARS<img id = ""stim"" ><div class = green_square id = ""topsquare"" ></div><img id = ""stim"" ><div class = green_square  id = ""bottomsquare"" ></div>",32,word_square,response,1,Space,true,,,
html-keyboard-response,147,328224,null,"MARS",null,word,,,,, 'MARS',,
html-keyboard-response,148,328728,null,"GROUND<img id = ""stim"" ><div class = red_square id = ""topsquare"" ></div><img id = ""stim"" ><div class = red_square  id = ""bottomsquare"" ></div>",null,word_square,response,0,none,true,,,
html-keyboard-response,149,330232,null,"GROUND",null,word,,,,, 'GROUND',,
html-keyboard-response,150,330739,null,"BUG<img id = ""stim"" ><div class = red_square id = ""topsquare"" ></div><img id = ""stim"" ><div class = red_square  id = ""bottomsquare"" ></div>",null,word_square,response,0,none,true,,,
html-keyboard-response,151,332244,null,"BUG",null,word,,,,, 'BUG',,
html-keyboard-response,152,332529,283.31500000786036,"COCOON<img id = ""stim"" ><div class = green_square id = ""topsquare"" ></div><img id = ""stim"" ><div class = green_square  id = ""bottomsquare"" ></div>",32,word_square,response,1,Space,true,,,
html-keyboard-response,153,334036,null,"COCOON",null,word,,,,, 'COCOON',,
html-keyboard-response,154,334544,null,"BUSH<img id = ""stim"" ><div class = red_square id = ""topsquare"" ></div><img id = ""stim"" ><div class = red_square  id = ""bottomsquare"" ></div>",null,word_square,response,0,none,true,,,
html-keyboard-response,155,336046,null,"BUSH",null,word,,,,, 'BUSH',,
html-keyboard-response,156,336384,336.07499999925494,"WALNUT<img id = ""stim"" ><div class = green_square id = ""topsquare"" ></div><img id = ""stim"" ><div class = green_square  id = ""bottomsquare"" ></div>",32,word_square,response,1,Space,true,,,
html-keyboard-response,157,337889,null,"WALNUT",null,word,,,,, 'WALNUT',,
html-keyboard-response,158,338326,435.399999958463,"TRUCK<img id = ""stim"" ><div class = green_square id = ""topsquare"" ></div><img id = ""stim"" ><div class = green_square  id = ""bottomsquare"" ></div>",32,word_square,response,1,Space,true,,,
html-keyboard-response,159,339830,null,"TRUCK",null,word,,,,, 'TRUCK',,
html-keyboard-response,160,340337,null,"DRIVER<img id = ""stim"" ><div class = red_square id = ""topsquare"" ></div><img id = ""stim"" ><div class = red_square  id = ""bottomsquare"" ></div>",null,word_square,response,0,none,true,,,
html-keyboard-response,161,341842,null,"DRIVER",null,word,,,,, 'DRIVER',,
html-keyboard-response,162,342350,null,"SEASHORE<img id = ""stim"" ><div class = red_square id = ""topsquare"" ></div><img id = ""stim"" ><div class = red_square  id = ""bottomsquare"" ></div>",null,word_square,response,0,none,true,,,
html-keyboard-response,163,343854,null,"SEASHORE",null,word,,,,, 'SEASHORE',,
html-keyboard-response,164,344157,301.06999998679385,"SUBURB<img id = ""stim"" ><div class = green_square id = ""topsquare"" ></div><img id = ""stim"" ><div class = green_square  id = ""bottomsquare"" ></div>",32,word_square,response,1,Space,true,,,
html-keyboard-response,165,345661,null,"SUBURB",null,word,,,,, 'SUBURB',,
call-function,166,345662,,"",,,,,,,,,
html-keyboard-response,167,345766,null,"",null,,,,,,,,
math-period,168,347339,2974.790000007488,"",,,,,,,,,3
html-keyboard-response,169,347442,null,"",null,,,,,,,,
math-period,170,348498,1986.7949999752454,"",,,,,,,,,4
html-keyboard-response,171,348602,null,"",null,,,,,,,,
math-period,172,349777,2198.549999971874,"",,,,,,,,,5
html-keyboard-response,173,349879,null,"",null,,,,,,,,
math-period,174,350996,2133.2550000515766,"",,,,,,,,,3
html-keyboard-response,175,351098,null,"",null,,,,,,,,
math-period,176,352094,1829.0350000024773,"",,,,,,,,,4
html-keyboard-response,177,352198,null,"",null,,,,,,,,
math-period,178,353580,2643.96499999566,"",,,,,,,,,4
html-keyboard-response,179,353682,null,"",null,,,,,,,,
math-period,180,355384,3296.2800000677817,"",,,,,,,,,1
html-keyboard-response,181,355489,null,"",null,,,,,,,,
math-period,182,356550,1965.9949999768287,"",,,,,,,,,2
html-keyboard-response,183,356651,null,"",null,,,,,,,,
math-period,184,358487,3561.0300000407733,"",,,,,,,,,0
html-keyboard-response,185,358591,null,"",null,,,,,,,,
math-period,186,359707,2140.2499999967404,"",,,,,,,,,3
html-keyboard-response,187,359810,null,"",null,,,,,,,,
math-period,188,360710,1643.1049999664538,"",,,,,,,,,4
html-keyboard-response,189,360814,null,"",null,,,,,,,,
math-period,190,362793,3805.5400000303052,"",,,,,,,,,0
html-keyboard-response,191,362895,null,"",null,,,,,,,,
math-period,192,364041,2169.1800000262447,"",,,,,,,,,2
html-keyboard-response,193,364144,null,"",null,,,,,,,,
math-period,194,364933,1483.8849999941885,"",,,,,,,,,2
html-keyboard-response,195,365035,null,"",null,,,,,,,,
math-period,196,367549,7997.1550001064315,"",,,,,,,,,5
html-keyboard-response,197,367652,null,"",null,,,,,,,,
math-period,198,369223,3005.650000006426,"",,,,,,,,,4
html-keyboard-response,199,369326,null,"",null,,,,,,,,
math-period,200,369666,null,"",,,,,,,,,
html-keyboard-response,201,370672,null,"Recall Period!",null,,,,,,,,
call-function,202,370673,,"",,,,,,,,,
html-keyboard-response,203,370780,null,"",null,,,,,,,,
recall-period,204,372948,6573.039999930188,"",,,,,,,,,mop
html-keyboard-response,205,373055,null,"",null,,,,,,,,
recall-period,206,375054,8736.265000072308,"",,,,,,,,,cattle
html-keyboard-response,207,375156,null,"",null,,,,,,,,
recall-period,208,376328,4456.4450001344085,"",,,,,,,,,driver
html-keyboard-response,209,376431,null,"",null,,,,,,,,
recall-period,210,377643,4393.175000092015,"",,,,,,,,,throne
html-keyboard-response,211,377747,null,"",null,,,,,,,,
recall-period,212,388829,84635.95000014175,"",,,,,,,,,kitchen
html-keyboard-response,213,388932,null,"",null,,,,,,,,
recall-period,214,396170,41581.81000006152,"",,,,,,,,,suburbs
html-keyboard-response,215,396274,null,"",null,,,,,,,,
recall-period,216,405256,62805.4899998242,"",,,,,,,,,ketchup
html-keyboard-response,217,405361,null,"",null,,,,,,,,
recall-period,218,445678,null,"",,,,,,,,,
html-keyboard-response,219,446183,null,"Time's Up!",null,,,,,,,,
html-keyboard-response,220,449560,3374.5750000234693,"<p> Good job! You responded correctly to 97% of the GREEN squares.</p>
                  <p>Be sure to keep your accuracy above 80%</p>
                  <p>Press any key to continue the experiment. Thank you!</p>",32,,,,,,,,
html-keyboard-response,221,451754,2192.3899999819696,"<div style=""font-size:48px;"">Press any key to begin list 2 of 24 </div>",32,,,,,,,,
html-keyboard-response,222,454257,null,"<div style=""font-size:60px;"">+</div>",null,,,,,,,,
html-keyboard-response,223,454760,null,"BUNNY<img id = ""stim"" ><div class = red_square id = ""topsquare"" ></div><img id = ""stim"" ><div class = red_square  id = ""bottomsquare"" ></div>",null,word_square,response,0,none,true,,,
html-keyboard-response,224,456264,null,"BUNNY",null,word,,,,, 'BUNNY',,
html-keyboard-response,225,456772,null,"RAZOR<img id = ""stim"" ><div class = red_square id = ""topsquare"" ></div><img id = ""stim"" ><div class = red_square  id = ""bottomsquare"" ></div>",null,word_square,response,0,none,true,,,
html-keyboard-response,226,458274,null,"RAZOR",null,word,,,,, 'RAZOR',,
html-keyboard-response,227,458574,297.55499999737367,"MAILMAN<img id = ""stim"" ><div class = green_square id = ""topsquare"" ></div><img id = ""stim"" ><div class = green_square  id = ""bottomsquare"" ></div>",32,word_square,response,1,Space,true,,,
html-keyboard-response,228,460079,null,"MAILMAN",null,word,,,,, 'MAILMAN',,
html-keyboard-response,229,460586,null,"HAWK<img id = ""stim"" ><div class = red_square id = ""topsquare"" ></div><img id = ""stim"" ><div class = red_square  id = ""bottomsquare"" ></div>",null,word_square,response,0,none,true,,,
html-keyboard-response,230,462093,null,"HAWK",null,word,,,,, 'HAWK',,
html-keyboard-response,231,462492,396.87999995658174,"WRENCH<img id = ""stim"" ><div class = green_square id = ""topsquare"" ></div><img id = ""stim"" ><div class = green_square  id = ""bottomsquare"" ></div>",32,word_square,response,1,Space,true,,,
html-keyboard-response,232,463995,null,"WRENCH",null,word,,,,, 'WRENCH',,
html-keyboard-response,233,464503,null,"POSTAGE<img id = ""stim"" ><div class = green_square id = ""topsquare"" ></div><img id = ""stim"" ><div class = green_square  id = ""bottomsquare"" ></div>",null,word_square,response,1,Space,false,,,
html-keyboard-response,234,466007,null,"POSTAGE",null,word,,,,, 'POSTAGE',,
html-keyboard-response,235,466386,376.7649999936111,"LOBBY<img id = ""stim"" ><div class = green_square id = ""topsquare"" ></div><img id = ""stim"" ><div class = green_square  id = ""bottomsquare"" ></div>",32,word_square,response,1,Space,true,,,
html-keyboard-response,236,467890,null,"LOBBY",null,word,,,,, 'LOBBY',,
html-keyboard-response,237,468397,null,"TEAPOT<img id = ""stim"" ><div class = red_square id = ""topsquare"" ></div><img id = ""stim"" ><div class = red_square  id = ""bottomsquare"" ></div>",null,word_square,response,0,none,true,,,
html-keyboard-response,238,469905,null,"TEAPOT",null,word,,,,, 'TEAPOT',,
html-keyboard-response,239,470235,328.54499999666587,"RECORD<img id = ""stim"" ><div class = green_square id = ""topsquare"" ></div><img id = ""stim"" ><div class = green_square  id = ""bottomsquare"" ></div>",32,word_square,response,1,Space,true,,,
html-keyboard-response,240,471741,null,"RECORD",null,word,,,,, 'RECORD',,
html-keyboard-response,241,472247,null,"HERO<img id = ""stim"" ><div class = red_square id = ""topsquare"" ></div><img id = ""stim"" ><div class = red_square  id = ""bottomsquare"" ></div>",null,word_square,response,0,none,true,,,
html-keyboard-response,242,473751,null,"HERO",null,word,,,,, 'HERO',,
html-keyboard-response,243,474255,null,"SANDWICH<img id = ""stim"" ><div class = red_square id = ""topsquare"" ></div><img id = ""stim"" ><div class = red_square  id = ""bottomsquare"" ></div>",null,word_square,response,0,none,true,,,
html-keyboard-response,244,475758,null,"SANDWICH",null,word,,,,, 'SANDWICH',,
html-keyboard-response,245,476051,291.64000001037493,"FIREMAN<img id = ""stim"" ><div class = green_square id = ""topsquare"" ></div><img id = ""stim"" ><div class = green_square  id = ""bottomsquare"" ></div>",32,word_square,response,1,Space,true,,,
html-keyboard-response,246,477554,null,"FIREMAN",null,word,,,,, 'FIREMAN',,
html-keyboard-response,247,478059,null,"DRILL<img id = ""stim"" ><div class = red_square id = ""topsquare"" ></div><img id = ""stim"" ><div class = red_square  id = ""bottomsquare"" ></div>",null,word_square,response,0,none,true,,,
html-keyboard-response,248,479563,null,"DRILL",null,word,,,,, 'DRILL',,
html-keyboard-response,249,479902,337.2850000159815,"DOG<img id = ""stim"" ><div class = green_square id = ""topsquare"" ></div><img id = ""stim"" ><div class = green_square  id = ""bottomsquare"" ></div>",32,word_square,response,1,Space,true,,,
html-keyboard-response,250,481407,null,"DOG",null,word,,,,, 'DOG',,
html-keyboard-response,251,481801,391.7699999874458,"BELT<img id = ""stim"" ><div class = green_square id = ""topsquare"" ></div><img id = ""stim"" ><div class = green_square  id = ""bottomsquare"" ></div>",32,word_square,response,1,Space,true,,,
html-keyboard-response,252,483304,null,"BELT",null,word,,,,, 'BELT',,
html-keyboard-response,253,483811,null,"GUITAR<img id = ""stim"" ><div class = red_square id = ""topsquare"" ></div><img id = ""stim"" ><div class = red_square  id = ""bottomsquare"" ></div>",null,word_square,response,0,none,true,,,
html-keyboard-response,254,485314,null,"GUITAR",null,word,,,,, 'GUITAR',,
html-keyboard-response,255,485821,null,"PIZZA<img id = ""stim"" ><div class = red_square id = ""topsquare"" ></div><img id = ""stim"" ><div class = red_square  id = ""bottomsquare"" ></div>",null,word_square,response,0,none,true,,,
html-keyboard-response,256,487324,null,"PIZZA",null,word,,,,, 'PIZZA',,
html-keyboard-response,257,487601,275.24499996798113,"BEEF<img id = ""stim"" ><div class = green_square id = ""topsquare"" ></div><img id = ""stim"" ><div class = green_square  id = ""bottomsquare"" ></div>",32,word_square,response,1,Space,true,,,
html-keyboard-response,258,489105,null,"BEEF",null,word,,,,, 'BEEF',,
call-function,259,489106,,"",,,,,,,,,
html-keyboard-response,260,489211,null,"",null,,,,,,,,
math-period,261,490538,2494.810000003781,"",,,,,,,,,2
html-keyboard-response,262,490641,null,"",null,,,,,,,,
math-period,263,493195,4763.774999999441,"",,,,,,,,,1
html-keyboard-response,264,493297,null,"",null,,,,,,,,
math-period,265,494390,2057.129999913741,"",,,,,,,,,4
html-keyboard-response,266,494495,null,"",null,,,,,,,,
math-period,267,495504,1863.5800000047311,"",,,,,,,,,5
html-keyboard-response,268,495606,null,"",null,,,,,,,,
math-period,269,497696,4085.739999951329,"",,,,,,,,,2
html-keyboard-response,270,497798,null,"",null,,,,,,,,
math-period,271,499444,3194.764999963809,"",,,,,,,,,5
html-keyboard-response,272,499548,null,"",null,,,,,,,,
math-period,273,502457,5621.745000011288,"",,,,,,,,,2
html-keyboard-response,274,502561,null,"",null,,,,,,,,
math-period,275,503488,1703.7400000845082,"",,,,,,,,,2
html-keyboard-response,276,503593,null,"",null,,,,,,,,
math-period,277,504623,1908.289999992121,"",,,,,,,,,3
html-keyboard-response,278,504726,null,"",null,,,,,,,,
math-period,279,506557,3497.7450000005774,"",,,,,,,,,5
html-keyboard-response,280,506662,null,"",null,,,,,,,,
math-period,281,508047,2605.9849999728613,"",,,,,,,,,4
html-keyboard-response,282,508151,null,"",null,,,,,,,,
math-period,283,509810,3203.324999951292,"",,,,,,,,,2
html-keyboard-response,284,509914,null,"",null,,,,,,,,
math-period,285,512415,4877.965000050608,"",,,,,,,,,2
html-keyboard-response,286,512518,null,"",null,,,,,,,,
math-period,287,513108,null,"",,,,,,,,,
html-keyboard-response,288,514116,null,"Recall Period!",null,,,,,,,,
call-function,289,514117,,"",,,,,,,,,
html-keyboard-response,290,514224,null,"",null,,,,,,,,
recall-period,291,518384,41964.17499956442,"",,,,,,,,,mailman
html-keyboard-response,292,518487,null,"",null,,,,,,,,
recall-period,293,519707,4501.69999996433,"",,,,,,,,,bunny
html-keyboard-response,294,519809,null,"",null,,,,,,,,
recall-period,295,523199,9008.789999876171,"",,,,,,,,,hawk
html-keyboard-response,296,523304,null,"",null,,,,,,,,
recall-period,297,525496,8021.050000214018,"",,,,,,,,,wrench
html-keyboard-response,298,525600,null,"",null,,,,,,,,
recall-period,299,529679,21154.40000005765,"",,,,,,,,,razor
html-keyboard-response,300,529783,null,"",null,,,,,,,,
recall-period,301,589119,null,"",,,,,,,,,
html-keyboard-response,302,589627,null,"Time's Up!",null,,,,,,,,
html-keyboard-response,303,591440,1810.695000051055,"<p> Good job! You responded correctly to 96% of the GREEN squares.</p>
                  <p>Be sure to keep your accuracy above 80%</p>
                  <p>Press any key to continue the experiment. Thank you!</p>",32,,,,,,,,
html-keyboard-response,304,592360,918.7950000050478,"<div style=""font-size:48px;"">Press any key to begin list 3 of 24 </div>",32,,,,,,,,
html-keyboard-response,305,594870,null,"<div style=""font-size:60px;"">+</div>",null,,,,,,,,
html-keyboard-response,306,595235,363.489999959711,"PORPOISE<img id = ""stim"" ><div class = green_square id = ""topsquare"" ></div><img id = ""stim"" ><div class = green_square  id = ""bottomsquare"" ></div>",32,word_square,response,1,Space,true,,,
html-keyboard-response,307,596739,null,"PORPOISE",null,word,,,,, 'PORPOISE',,
html-keyboard-response,308,597134,393.42500001657754,"NIGHTGOWN<img id = ""stim"" ><div class = green_square id = ""topsquare"" ></div><img id = ""stim"" ><div class = green_square  id = ""bottomsquare"" ></div>",32,word_square,response,1,Space,true,,,
html-keyboard-response,309,598641,null,"NIGHTGOWN",null,word,,,,, 'NIGHTGOWN',,
html-keyboard-response,310,599144,null,"MATTRESS<img id = ""stim"" ><div class = red_square id = ""topsquare"" ></div><img id = ""stim"" ><div class = red_square  id = ""bottomsquare"" ></div>",null,word_square,response,0,none,true,,,
html-keyboard-response,311,600652,null,"MATTRESS",null,word,,,,, 'MATTRESS',,
html-keyboard-response,312,600978,324.74999997066334,"ANKLE<img id = ""stim"" ><div class = green_square id = ""topsquare"" ></div><img id = ""stim"" ><div class = green_square  id = ""bottomsquare"" ></div>",32,word_square,response,1,Space,true,,,
html-keyboard-response,313,602485,null,"ANKLE",null,word,,,,, 'ANKLE',,
html-keyboard-response,314,602988,null,"COUGAR<img id = ""stim"" ><div class = red_square id = ""topsquare"" ></div><img id = ""stim"" ><div class = red_square  id = ""bottomsquare"" ></div>",null,word_square,response,0,none,true,,,
html-keyboard-response,315,604492,null,"COUGAR",null,word,,,,, 'COUGAR',,
html-keyboard-response,316,604994,null,"ATHLETE<img id = ""stim"" ><div class = red_square id = ""topsquare"" ></div><img id = ""stim"" ><div class = red_square  id = ""bottomsquare"" ></div>",null,word_square,response,0,none,true,,,
html-keyboard-response,317,606497,null,"ATHLETE",null,word,,,,, 'ATHLETE',,
html-keyboard-response,318,607001,null,"FINGER<img id = ""stim"" ><div class = red_square id = ""topsquare"" ></div><img id = ""stim"" ><div class = red_square  id = ""bottomsquare"" ></div>",null,word_square,response,0,none,true,,,
html-keyboard-response,319,608509,null,"FINGER",null,word,,,,, 'FINGER',,
html-keyboard-response,320,608857,346.2599999620579,"COFFIN<img id = ""stim"" ><div class = green_square id = ""topsquare"" ></div><img id = ""stim"" ><div class = green_square  id = ""bottomsquare"" ></div>",32,word_square,response,1,Space,true,,,
html-keyboard-response,321,610360,null,"COFFIN",null,word,,,,, 'COFFIN',,
html-keyboard-response,322,610867,null,"LIZARD<img id = ""stim"" ><div class = red_square id = ""topsquare"" ></div><img id = ""stim"" ><div class = red_square  id = ""bottomsquare"" ></div>",null,word_square,response,0,none,true,,,
html-keyboard-response,323,612369,null,"LIZARD",null,word,,,,, 'LIZARD',,
html-keyboard-response,324,612819,447.97499995911494,"DOUGHNUT<img id = ""stim"" ><div class = green_square id = ""topsquare"" ></div><img id = ""stim"" ><div class = green_square  id = ""bottomsquare"" ></div>",32,word_square,response,1,Space,true,,,
html-keyboard-response,325,614322,null,"DOUGHNUT",null,word,,,,, 'DOUGHNUT',,
html-keyboard-response,326,614749,425.93000002671033,"CAPE<img id = ""stim"" ><div class = green_square id = ""topsquare"" ></div><img id = ""stim"" ><div class = green_square  id = ""bottomsquare"" ></div>",32,word_square,response,1,Space,true,,,
html-keyboard-response,327,616253,null,"CAPE",null,word,,,,, 'CAPE',,
html-keyboard-response,328,616758,null,"LACE<img id = ""stim"" ><div class = red_square id = ""topsquare"" ></div><img id = ""stim"" ><div class = red_square  id = ""bottomsquare"" ></div>",null,word_square,response,0,none,true,,,
html-keyboard-response,329,618265,null,"LACE",null,word,,,,, 'LACE',,
html-keyboard-response,330,618608,341.0499999881722,"SILK<img id = ""stim"" ><div class = green_square id = ""topsquare"" ></div><img id = ""stim"" ><div class = green_square  id = ""bottomsquare"" ></div>",32,word_square,response,1,Space,true,,,
html-keyboard-response,331,620115,null,"SILK",null,word,,,,, 'SILK',,
html-keyboard-response,332,620619,null,"FIGHTER<img id = ""stim"" ><div class = red_square id = ""topsquare"" ></div><img id = ""stim"" ><div class = red_square  id = ""bottomsquare"" ></div>",null,word_square,response,0,none,true,,,
html-keyboard-response,333,622125,null,"FIGHTER",null,word,,,,, 'FIGHTER',,
html-keyboard-response,334,622627,null,"DRUG<img id = ""stim"" ><div class = red_square id = ""topsquare"" ></div><img id = ""stim"" ><div class = red_square  id = ""bottomsquare"" ></div>",null,word_square,response,0,none,true,,,
html-keyboard-response,335,624135,null,"DRUG",null,word,,,,, 'DRUG',,
html-keyboard-response,336,624438,301.7400000244379,"SLIME<img id = ""stim"" ><div class = green_square id = ""topsquare"" ></div><img id = ""stim"" ><div class = green_square  id = ""bottomsquare"" ></div>",32,word_square,response,1,Space,true,,,
html-keyboard-response,337,625941,null,"SLIME",null,word,,,,, 'SLIME',,
html-keyboard-response,338,626404,460.98500001244247,"XEROX<img id = ""stim"" ><div class = green_square id = ""topsquare"" ></div><img id = ""stim"" ><div class = green_square  id = ""bottomsquare"" ></div>",32,word_square,response,1,Space,true,,,
html-keyboard-response,339,627911,null,"XEROX",null,word,,,,, 'XEROX',,
html-keyboard-response,340,628415,null,"SCHOOL<img id = ""stim"" ><div class = red_square id = ""topsquare"" ></div><img id = ""stim"" ><div class = red_square  id = ""bottomsquare"" ></div>",null,word_square,response,0,none,true,,,
html-keyboard-response,341,629917,null,"SCHOOL",null,word,,,,, 'SCHOOL',,
call-function,342,629918,,"",,,,,,,,,
html-keyboard-response,343,630023,null,"",null,,,,,,,,
math-period,344,632872,5508.77000001492,"",,,,,,,,,2
html-keyboard-response,345,632976,null,"",null,,,,,,,,
math-period,346,633981,1842.2000000136904,"",,,,,,,,,3
html-keyboard-response,347,634084,null,"",null,,,,,,,,
math-period,348,635746,2926.659999997355,"",,,,,,,,,5
html-keyboard-response,349,635850,null,"",null,,,,,,,,
math-period,350,637503,3142.515000072308,"",,,,,,,,,1
html-keyboard-response,351,637606,null,"",null,,,,,,,,
math-period,352,639096,2879.7750000376254,"",,,,,,,,,5
html-keyboard-response,353,639199,null,"",null,,,,,,,,
math-period,354,640112,1655.7499999762513,"",,,,,,,,,5
html-keyboard-response,355,640217,null,"",null,,,,,,,,
math-period,356,641371,1882.0100000011735,"",,,,,,,,,5
html-keyboard-response,357,641475,null,"",null,,,,,,,,
math-period,358,643428,3776.5800000634044,"",,,,,,,,,2
html-keyboard-response,359,643531,null,"",null,,,,,,,,
math-period,360,644751,2243.9500000327826,"",,,,,,,,,4
html-keyboard-response,361,644855,null,"",null,,,,,,,,
math-period,362,646679,3530.3799999528565,"",,,,,,,,,3
html-keyboard-response,363,646783,null,"",null,,,,,,,,
math-period,364,647608,1522.3099999711849,"",,,,,,,,,3
html-keyboard-response,365,647711,null,"",null,,,,,,,,
math-period,366,648383,1189.4949999987148,"",,,,,,,,,3
html-keyboard-response,367,648488,null,"",null,,,,,,,,
math-period,368,649849,2588.8450000202283,"",,,,,,,,,6
html-keyboard-response,369,649953,null,"",null,,,,,,,,
math-period,370,651002,1957.9450000310317,"",,,,,,,,,5
html-keyboard-response,371,651105,null,"",null,,,,,,,,
math-period,372,652819,3331.9350000238046,"",,,,,,,,,3
html-keyboard-response,373,652922,null,"",null,,,,,,,,
math-period,374,653921,null,"",,,,,,,,,
html-keyboard-response,375,654923,null,"Recall Period!",null,,,,,,,,
call-function,376,654924,,"",,,,,,,,,
html-keyboard-response,377,655027,null,"",null,,,,,,,,
recall-period,378,658619,22115.630000305828,"",,,,,,,,,porpoise
html-keyboard-response,379,658723,null,"",null,,,,,,,,
recall-period,380,665030,40390.540000167675,"",,,,,,,,,cougar
html-keyboard-response,381,665133,null,"",null,,,,,,,,
recall-period,382,729928,null,"",,,,,,,,,
html-keyboard-response,383,730435,null,"Time's Up!",null,,,,,,,,
html-keyboard-response,384,733586,3149.489999981597,"<p> Good job! You responded correctly to 97% of the GREEN squares.</p>
                  <p>Be sure to keep your accuracy above 80%</p>
                  <p>Press any key to continue the experiment. Thank you!</p>",32,,,,,,,,
html-keyboard-response,385,735006,1418.6099999933504,"<div style=""font-size:48px;"">Press any key to begin list 4 of 24 </div>",32,,,,,,,,
html-keyboard-response,386,737513,null,"<div style=""font-size:60px;"">+</div>",null,,,,,,,,
html-keyboard-response,387,737963,448.19000002462417,"PLAID<img id = ""stim"" ><div class = green_square id = ""topsquare"" ></div><img id = ""stim"" ><div class = green_square  id = ""bottomsquare"" ></div>",32,word_square,response,1,Space,true,,,
html-keyboard-response,388,739465,null,"PLAID",null,word,,,,, 'PLAID',,
html-keyboard-response,389,739812,345.050000003539,"PORTRAIT<img id = ""stim"" ><div class = green_square id = ""topsquare"" ></div><img id = ""stim"" ><div class = green_square  id = ""bottomsquare"" ></div>",32,word_square,response,1,Space,true,,,
html-keyboard-response,390,741319,null,"PORTRAIT",null,word,,,,, 'PORTRAIT',,
html-keyboard-response,391,741825,null,"DRAWING<img id = ""stim"" ><div class = red_square id = ""topsquare"" ></div><img id = ""stim"" ><div class = red_square  id = ""bottomsquare"" ></div>",null,word_square,response,0,none,true,,,
html-keyboard-response,392,743333,null,"DRAWING",null,word,,,,, 'DRAWING',,
html-keyboard-response,393,743774,439.9099999573082,"GERM<img id = ""stim"" ><div class = green_square id = ""topsquare"" ></div><img id = ""stim"" ><div class = green_square  id = ""bottomsquare"" ></div>",32,word_square,response,1,Space,true,,,
html-keyboard-response,394,745276,null,"GERM",null,word,,,,, 'GERM',,
html-keyboard-response,395,745783,null,"BUCKLE<img id = ""stim"" ><div class = red_square id = ""topsquare"" ></div><img id = ""stim"" ><div class = red_square  id = ""bottomsquare"" ></div>",null,word_square,response,0,none,true,,,
html-keyboard-response,396,747287,null,"BUCKLE",null,word,,,,, 'BUCKLE',,
html-keyboard-response,397,747795,null,"YACHT<img id = ""stim"" ><div class = red_square id = ""topsquare"" ></div><img id = ""stim"" ><div class = red_square  id = ""bottomsquare"" ></div>",null,word_square,response,0,none,true,,,
html-keyboard-response,398,749299,null,"YACHT",null,word,,,,, 'YACHT',,
html-keyboard-response,399,749803,null,"MARINE<img id = ""stim"" ><div class = red_square id = ""topsquare"" ></div><img id = ""stim"" ><div class = red_square  id = ""bottomsquare"" ></div>",null,word_square,response,0,none,true,,,
html-keyboard-response,400,751308,null,"MARINE",null,word,,,,, 'MARINE',,
html-keyboard-response,401,751659,348.73500000685453,"CABLE<img id = ""stim"" ><div class = green_square id = ""topsquare"" ></div><img id = ""stim"" ><div class = green_square  id = ""bottomsquare"" ></div>",32,word_square,response,1,Space,true,,,
html-keyboard-response,402,753166,null,"CABLE",null,word,,,,, 'CABLE',,
html-keyboard-response,403,753671,null,"VICTOR<img id = ""stim"" ><div class = red_square id = ""topsquare"" ></div><img id = ""stim"" ><div class = red_square  id = ""bottomsquare"" ></div>",null,word_square,response,0,none,true,,,
html-keyboard-response,404,755179,null,"VICTOR",null,word,,,,, 'VICTOR',,
html-keyboard-response,405,755591,410.0050000124611,"LUNCH<img id = ""stim"" ><div class = green_square id = ""topsquare"" ></div><img id = ""stim"" ><div class = green_square  id = ""bottomsquare"" ></div>",32,word_square,response,1,Space,true,,,
html-keyboard-response,406,757096,null,"LUNCH",null,word,,,,, 'LUNCH',,
html-keyboard-response,407,757550,451.52999996207654,"PACKAGE<img id = ""stim"" ><div class = green_square id = ""topsquare"" ></div><img id = ""stim"" ><div class = green_square  id = ""bottomsquare"" ></div>",32,word_square,response,1,Space,true,,,
html-keyboard-response,408,759052,null,"PACKAGE",null,word,,,,, 'PACKAGE',,
html-keyboard-response,409,759556,null,"SWORD<img id = ""stim"" ><div class = red_square id = ""topsquare"" ></div><img id = ""stim"" ><div class = red_square  id = ""bottomsquare"" ></div>",null,word_square,response,0,none,true,,,
html-keyboard-response,410,761061,null,"SWORD",null,word,,,,, 'SWORD',,
html-keyboard-response,411,761391,328.70999997248873,"COIN<img id = ""stim"" ><div class = green_square id = ""topsquare"" ></div><img id = ""stim"" ><div class = green_square  id = ""bottomsquare"" ></div>",32,word_square,response,1,Space,true,,,
html-keyboard-response,412,762895,null,"COIN",null,word,,,,, 'COIN',,
html-keyboard-response,413,763401,null,"NEPHEW<img id = ""stim"" ><div class = red_square id = ""topsquare"" ></div><img id = ""stim"" ><div class = red_square  id = ""bottomsquare"" ></div>",null,word_square,response,0,none,true,,,
html-keyboard-response,414,764903,null,"NEPHEW",null,word,,,,, 'NEPHEW',,
html-keyboard-response,415,765408,null,"ZIPPER<img id = ""stim"" ><div class = red_square id = ""topsquare"" ></div><img id = ""stim"" ><div class = red_square  id = ""bottomsquare"" ></div>",null,word_square,response,0,none,true,,,
html-keyboard-response,416,766910,null,"ZIPPER",null,word,,,,, 'ZIPPER',,
html-keyboard-response,417,767264,352.3900000145659,"DECK<img id = ""stim"" ><div class = green_square id = ""topsquare"" ></div><img id = ""stim"" ><div class = green_square  id = ""bottomsquare"" ></div>",32,word_square,response,1,Space,true,,,
html-keyboard-response,418,768767,null,"DECK",null,word,,,,, 'DECK',,
html-keyboard-response,419,769275,null,"PADDLE<img id = ""stim"" ><div class = green_square id = ""topsquare"" ></div><img id = ""stim"" ><div class = green_square  id = ""bottomsquare"" ></div>",null,word_square,response,1,Space,false,,,
html-keyboard-response,420,770782,null,"PADDLE",null,word,,,,, 'PADDLE',,
html-keyboard-response,421,771287,null,"BLADE<img id = ""stim"" ><div class = red_square id = ""topsquare"" ></div><img id = ""stim"" ><div class = red_square  id = ""bottomsquare"" ></div>",null,word_square,response,0,none,true,,,
html-keyboard-response,422,772794,null,"BLADE",null,word,,,,, 'BLADE',,
call-function,423,772795,,"",,,,,,,,,
html-keyboard-response,424,772901,null,"",null,,,,,,,,
math-period,425,776475,6933.384999923874,"",,,,,,,,,0
html-keyboard-response,426,776578,null,"",null,,,,,,,,
math-period,427,778257,3225.984999909997,"",,,,,,,,,5
html-keyboard-response,428,778361,null,"",null,,,,,,,,
math-period,429,779409,1926.3950000167824,"",,,,,,,,,6
html-keyboard-response,430,779515,null,"",null,,,,,,,,
math-period,431,781431,3695.854999939911,"",,,,,,,,,2
html-keyboard-response,432,781533,null,"",null,,,,,,,,
math-period,433,782950,2641.5999999735504,"",,,,,,,,,4
html-keyboard-response,434,783056,null,"",null,,,,,,,,
math-period,435,784435,2538.825000054203,"",,,,,,,,,3
html-keyboard-response,436,784539,null,"",null,,,,,,,,
math-period,437,788471,7715.474999975413,"",,,,,,,,,2
html-keyboard-response,438,788574,null,"",null,,,,,,,,
math-period,439,790527,3723.500000021886,"",,,,,,,,,3
html-keyboard-response,440,790630,null,"",null,,,,,,,,
math-period,441,792960,4531.365000002552,"",,,,,,,,,2
html-keyboard-response,442,793064,null,"",null,,,,,,,,
math-period,443,795471,4680.869999981951,"",,,,,,,,,3
html-keyboard-response,444,795573,null,"",null,,,,,,,,
math-period,445,796797,null,"",,,,,,,,,
html-keyboard-response,446,797801,null,"Recall Period!",null,,,,,,,,
call-function,447,797803,,"",,,,,,,,,
html-keyboard-response,448,797909,null,"",null,,,,,,,,
recall-period,449,800397,13455.859999987297,"",,,,,,,,,nephew
html-keyboard-response,450,800501,null,"",null,,,,,,,,
recall-period,451,802123,5681.119999906514,"",,,,,,,,,paddle
html-keyboard-response,452,802227,null,"",null,,,,,,,,
recall-period,453,803684,4900.994999799877,"",,,,,,,,,zipper
html-keyboard-response,454,803791,null,"",null,,,,,,,,
recall-period,455,804882,2558.7999998242594,"",,,,,,,,,deck
html-keyboard-response,456,804986,null,"",null,,,,,,,,
recall-period,457,806864,7062.369999825023,"",,,,,,,,,viictor
html-keyboard-response,458,806966,null,"",null,,,,,,,,
recall-period,459,836242,172428.27499995474,"",,,,,,,,,lunch
html-keyboard-response,460,836346,null,"",null,,,,,,,,
recall-period,461,872805,null,"",,,,,,,,,
html-keyboard-response,462,873314,null,"Time's Up!",null,,,,,,,,
html-keyboard-response,463,876221,2904.2950000148267,"<p> Good job! You responded correctly to 97% of the GREEN squares.</p>
                  <p>Be sure to keep your accuracy above 80%</p>
                  <p>Press any key to continue the experiment. Thank you!</p>",32,,,,,,,,
html-keyboard-response,464,877104,881.4049999928102,"<div style=""font-size:48px;"">Press any key to begin list 5 of 24 </div>",32,,,,,,,,
html-keyboard-response,465,879611,null,"<div style=""font-size:60px;"">+</div>",null,,,,,,,,
html-keyboard-response,466,880113,null,"LAMP<img id = ""stim"" ><div class = red_square id = ""topsquare"" ></div><img id = ""stim"" ><div class = red_square  id = ""bottomsquare"" ></div>",null,word_square,response,0,none,true,,,
html-keyboard-response,467,881615,null,"LAMP",null,word,,,,, 'LAMP',,
html-keyboard-response,468,882122,null,"FLASHLIGHT<img id = ""stim"" ><div class = red_square id = ""topsquare"" ></div><img id = ""stim"" ><div class = red_square  id = ""bottomsquare"" ></div>",null,word_square,response,0,none,true,,,
html-keyboard-response,469,883626,null,"FLASHLIGHT",null,word,,,,, 'FLASHLIGHT',,
html-keyboard-response,470,883948,320.90499997138977,"VELVET<img id = ""stim"" ><div class = green_square id = ""topsquare"" ></div><img id = ""stim"" ><div class = green_square  id = ""bottomsquare"" ></div>",32,word_square,response,1,Space,true,,,
html-keyboard-response,471,885454,null,"VELVET",null,word,,,,, 'VELVET',,
html-keyboard-response,472,885960,null,"UMPIRE<img id = ""stim"" ><div class = red_square id = ""topsquare"" ></div><img id = ""stim"" ><div class = red_square  id = ""bottomsquare"" ></div>",null,word_square,response,0,none,true,,,
html-keyboard-response,473,887462,null,"UMPIRE",null,word,,,,, 'UMPIRE',,
html-keyboard-response,474,887966,null,"GARDEN<img id = ""stim"" ><div class = red_square id = ""topsquare"" ></div><img id = ""stim"" ><div class = red_square  id = ""bottomsquare"" ></div>",null,word_square,response,0,none,true,,,
html-keyboard-response,475,889471,null,"GARDEN",null,word,,,,, 'GARDEN',,
html-keyboard-response,476,889805,332.8750000218861,"SHOVEL<img id = ""stim"" ><div class = green_square id = ""topsquare"" ></div><img id = ""stim"" ><div class = green_square  id = ""bottomsquare"" ></div>",32,word_square,response,1,Space,true,,,
html-keyboard-response,477,891309,null,"SHOVEL",null,word,,,,, 'SHOVEL',,
html-keyboard-response,478,891815,null,"BRANCH<img id = ""stim"" ><div class = green_square id = ""topsquare"" ></div><img id = ""stim"" ><div class = green_square  id = ""bottomsquare"" ></div>",null,word_square,response,1,Space,false,,,
html-keyboard-response,479,893318,null,"BRANCH",null,word,,,,, 'BRANCH',,
html-keyboard-response,480,893825,null,"KIDNEY<img id = ""stim"" ><div class = red_square id = ""topsquare"" ></div><img id = ""stim"" ><div class = red_square  id = ""bottomsquare"" ></div>",null,word_square,response,0,none,true,,,
html-keyboard-response,481,895331,null,"KIDNEY",null,word,,,,, 'KIDNEY',,
html-keyboard-response,482,895656,323.33500002278015,"SHEARS<img id = ""stim"" ><div class = green_square id = ""topsquare"" ></div><img id = ""stim"" ><div class = green_square  id = ""bottomsquare"" ></div>",32,word_square,response,1,Space,true,,,
html-keyboard-response,483,897161,null,"SHEARS",null,word,,,,, 'SHEARS',,
html-keyboard-response,484,897666,null,"FOOTBALL<img id = ""stim"" ><div class = red_square id = ""topsquare"" ></div><img id = ""stim"" ><div class = red_square  id = ""bottomsquare"" ></div>",null,word_square,response,0,none,true,,,
html-keyboard-response,485,899173,null,"FOOTBALL",null,word,,,,, 'FOOTBALL',,
html-keyboard-response,486,899460,284.3400000128895,"CORAL<img id = ""stim"" ><div class = green_square id = ""topsquare"" ></div><img id = ""stim"" ><div class = green_square  id = ""bottomsquare"" ></div>",32,word_square,response,1,Space,true,,,
html-keyboard-response,487,900963,null,"CORAL",null,word,,,,, 'CORAL',,
html-keyboard-response,488,901469,null,"JOINT<img id = ""stim"" ><div class = red_square id = ""topsquare"" ></div><img id = ""stim"" ><div class = red_square  id = ""bottomsquare"" ></div>",null,word_square,response,0,none,true,,,
html-keyboard-response,489,902972,null,"JOINT",null,word,,,,, 'JOINT',,
html-keyboard-response,490,903477,null,"CHURCH<img id = ""stim"" ><div class = red_square id = ""topsquare"" ></div><img id = ""stim"" ><div class = red_square  id = ""bottomsquare"" ></div>",null,word_square,response,0,none,true,,,
html-keyboard-response,491,904979,null,"CHURCH",null,word,,,,, 'CHURCH',,
html-keyboard-response,492,905284,303.5549999913201,"CUSTARD<img id = ""stim"" ><div class = green_square id = ""topsquare"" ></div><img id = ""stim"" ><div class = green_square  id = ""bottomsquare"" ></div>",32,word_square,response,1,Space,true,,,
html-keyboard-response,493,906786,null,"CUSTARD",null,word,,,,, 'CUSTARD',,
html-keyboard-response,494,907288,null,"FEATHER<img id = ""stim"" ><div class = green_square id = ""topsquare"" ></div><img id = ""stim"" ><div class = green_square  id = ""bottomsquare"" ></div>",null,word_square,response,1,Space,false,,,
html-keyboard-response,495,908796,null,"FEATHER",null,word,,,,, 'FEATHER',,
html-keyboard-response,496,909302,null,"HEDGE<img id = ""stim"" ><div class = red_square id = ""topsquare"" ></div><img id = ""stim"" ><div class = red_square  id = ""bottomsquare"" ></div>",null,word_square,response,0,none,true,,,
html-keyboard-response,497,910809,null,"HEDGE",null,word,,,,, 'HEDGE',,
html-keyboard-response,498,911083,272.78499997919425,"LIST<img id = ""stim"" ><div class = green_square id = ""topsquare"" ></div><img id = ""stim"" ><div class = green_square  id = ""bottomsquare"" ></div>",32,word_square,response,1,Space,true,,,
html-keyboard-response,499,912589,null,"LIST",null,word,,,,, 'LIST',,
html-keyboard-response,500,913063,471.9100000220351,"YARN<img id = ""stim"" ><div class = green_square id = ""topsquare"" ></div><img id = ""stim"" ><div class = green_square  id = ""bottomsquare"" ></div>",32,word_square,response,1,Space,true,,,
html-keyboard-response,501,914569,null,"YARN",null,word,,,,, 'YARN',,
call-function,502,914570,,"",,,,,,,,,
html-keyboard-response,503,914673,null,"",null,,,,,,,,
math-period,504,916586,3603.255000023637,"",,,,,,,,,0
html-keyboard-response,505,916690,null,"",null,,,,,,,,
math-period,506,918033,2392.6250000367872,"",,,,,,,,,6
html-keyboard-response,507,918136,null,"",null,,,,,,,,
math-period,508,919149,1831.1450000619516,"",,,,,,,,,5
html-keyboard-response,509,919256,null,"",null,,,,,,,,
math-period,510,920135,1589.254999998957,"",,,,,,,,,5
html-keyboard-response,511,920239,null,"",null,,,,,,,,
math-period,512,921722,2740.575000003446,"",,,,,,,,,4
html-keyboard-response,513,921826,null,"",null,,,,,,,,
math-period,514,923578,3293.7300000339746,"",,,,,,,,,1
html-keyboard-response,515,923681,null,"",null,,,,,,,,
math-period,516,925382,3264.6800000220537,"",,,,,,,,,2
html-keyboard-response,517,925485,null,"",null,,,,,,,,
math-period,518,928688,11590.044999902602,"",,,,,,,,,2
html-keyboard-response,519,928792,null,"",null,,,,,,,,
math-period,520,930254,2673.830000043381,"",,,,,,,,,4
html-keyboard-response,521,930358,null,"",null,,,,,,,,
math-period,522,932695,4529.404999979306,"",,,,,,,,,1
html-keyboard-response,523,932799,null,"",null,,,,,,,,
math-period,524,933900,2007.5899999355897,"",,,,,,,,,2
html-keyboard-response,525,934003,null,"",null,,,,,,,,
math-period,526,935996,3845.800000068266,"",,,,,,,,,1
html-keyboard-response,527,936098,null,"",null,,,,,,,,
math-period,528,937220,2112.8249999601394,"",,,,,,,,,1
html-keyboard-response,529,937323,null,"",null,,,,,,,,
math-period,530,938549,2322.6350000477396,"",,,,,,,,,4
html-keyboard-response,531,938653,null,"",null,,,,,,,,
math-period,532,938657,null,"",,,,,,,,,
html-keyboard-response,533,939661,null,"Recall Period!",null,,,,,,,,
call-function,534,939662,,"",,,,,,,,,
html-keyboard-response,535,939768,null,"",null,,,,,,,,
recall-period,536,941838,7171.604999923147,"",,,,,,,,,coral
html-keyboard-response,537,941942,null,"",null,,,,,,,,
recall-period,538,948213,32598.020000034012,"",,,,,,,,,joint
html-keyboard-response,539,948317,null,"",null,,,,,,,,
recall-period,540,951306,18221.40000021318,"",,,,,,,,,umpire
html-keyboard-response,541,951409,null,"",null,,,,,,,,
recall-period,542,952805,5107.94000007445,"",,,,,,,,,velvet
html-keyboard-response,543,952907,null,"",null,,,,,,,,
recall-period,544,1014669,null,"",,,,,,,,,
html-keyboard-response,545,1015175,null,"Time's Up!",null,,,,,,,,
html-keyboard-response,546,1017186,2008.9150000130758,"<p> Good job! You responded correctly to 95% of the GREEN squares.</p>
                  <p>Be sure to keep your accuracy above 80%</p>
                  <p>Press any key to continue the experiment. Thank you!</p>",32,,,,,,,,
html-keyboard-response,547,1017941,753.0499999993481,"<div style=""font-size:48px;"">Press any key to begin list 6 of 24 </div>",32,,,,,,,,
html-keyboard-response,548,1020446,null,"<div style=""font-size:60px;"">+</div>",null,,,,,,,,
html-keyboard-response,549,1020952,null,"WINGS<img id = ""stim"" ><div class = red_square id = ""topsquare"" ></div><img id = ""stim"" ><div class = red_square  id = ""bottomsquare"" ></div>",null,word_square,response,0,none,true,,,
html-keyboard-response,550,1022454,null,"WINGS",null,word,,,,, 'WINGS',,
html-keyboard-response,551,1022961,null,"CAMEL<img id = ""stim"" ><div class = red_square id = ""topsquare"" ></div><img id = ""stim"" ><div class = red_square  id = ""bottomsquare"" ></div>",null,word_square,response,0,none,true,,,
html-keyboard-response,552,1024464,null,"CAMEL",null,word,,,,, 'CAMEL',,
html-keyboard-response,553,1024883,416.9850000180304,"DUSTPAN<img id = ""stim"" ><div class = green_square id = ""topsquare"" ></div><img id = ""stim"" ><div class = green_square  id = ""bottomsquare"" ></div>",32,word_square,response,1,Space,true,,,
html-keyboard-response,554,1026390,null,"DUSTPAN",null,word,,,,, 'DUSTPAN',,
html-keyboard-response,555,1026896,null,"PONY<img id = ""stim"" ><div class = red_square id = ""topsquare"" ></div><img id = ""stim"" ><div class = red_square  id = ""bottomsquare"" ></div>",null,word_square,response,0,none,true,,,
html-keyboard-response,556,1028403,null,"PONY",null,word,,,,, 'PONY',,
html-keyboard-response,557,1028908,null,"SHEPHERD<img id = ""stim"" ><div class = red_square id = ""topsquare"" ></div><img id = ""stim"" ><div class = red_square  id = ""bottomsquare"" ></div>",null,word_square,response,0,none,true,,,
html-keyboard-response,558,1030411,null,"SHEPHERD",null,word,,,,, 'SHEPHERD',,
html-keyboard-response,559,1030871,458.09999998891726,"CHISEL<img id = ""stim"" ><div class = green_square id = ""topsquare"" ></div><img id = ""stim"" ><div class = green_square  id = ""bottomsquare"" ></div>",32,word_square,response,1,Space,true,,,
html-keyboard-response,560,1032375,null,"CHISEL",null,word,,,,, 'CHISEL',,
html-keyboard-response,561,1032812,434.7050000214949,"CRADLE<img id = ""stim"" ><div class = green_square id = ""topsquare"" ></div><img id = ""stim"" ><div class = green_square  id = ""bottomsquare"" ></div>",32,word_square,response,1,Space,true,,,
html-keyboard-response,562,1034316,null,"CRADLE",null,word,,,,, 'CRADLE',,
html-keyboard-response,563,1034820,null,"CELLAR<img id = ""stim"" ><div class = red_square id = ""topsquare"" ></div><img id = ""stim"" ><div class = red_square  id = ""bottomsquare"" ></div>",null,word_square,response,0,none,true,,,
html-keyboard-response,564,1036325,null,"CELLAR",null,word,,,,, 'CELLAR',,
html-keyboard-response,565,1036719,392.74000003933907,"GIRAFFE<img id = ""stim"" ><div class = green_square id = ""topsquare"" ></div><img id = ""stim"" ><div class = green_square  id = ""bottomsquare"" ></div>",32,word_square,response,1,Space,true,,,
html-keyboard-response,566,1038222,null,"GIRAFFE",null,word,,,,, 'GIRAFFE',,
html-keyboard-response,567,1038725,null,"QUARTER<img id = ""stim"" ><div class = red_square id = ""topsquare"" ></div><img id = ""stim"" ><div class = red_square  id = ""bottomsquare"" ></div>",null,word_square,response,0,none,true,,,
html-keyboard-response,568,1040228,null,"QUARTER",null,word,,,,, 'QUARTER',,
html-keyboard-response,569,1040586,356.339999998454,"STALLION<img id = ""stim"" ><div class = green_square id = ""topsquare"" ></div><img id = ""stim"" ><div class = green_square  id = ""bottomsquare"" ></div>",32,word_square,response,1,Space,true,,,
html-keyboard-response,570,1042090,null,"STALLION",null,word,,,,, 'STALLION',,
html-keyboard-response,571,1042593,null,"BARLEY<img id = ""stim"" ><div class = red_square id = ""topsquare"" ></div><img id = ""stim"" ><div class = red_square  id = ""bottomsquare"" ></div>",null,word_square,response,0,none,true,,,
html-keyboard-response,572,1044099,null,"BARLEY",null,word,,,,, 'BARLEY',,
html-keyboard-response,573,1044602,null,"TIGER<img id = ""stim"" ><div class = red_square id = ""topsquare"" ></div><img id = ""stim"" ><div class = red_square  id = ""bottomsquare"" ></div>",null,word_square,response,0,none,true,,,
html-keyboard-response,574,1046105,null,"TIGER",null,word,,,,, 'TIGER',,
html-keyboard-response,575,1046412,305.6250000372529,"GLOVE<img id = ""stim"" ><div class = green_square id = ""topsquare"" ></div><img id = ""stim"" ><div class = green_square  id = ""bottomsquare"" ></div>",32,word_square,response,1,Space,true,,,
html-keyboard-response,576,1047917,null,"GLOVE",null,word,,,,, 'GLOVE',,
html-keyboard-response,577,1048280,360.7649999903515,"BROOK<img id = ""stim"" ><div class = green_square id = ""topsquare"" ></div><img id = ""stim"" ><div class = green_square  id = ""bottomsquare"" ></div>",32,word_square,response,1,Space,true,,,
html-keyboard-response,578,1049782,null,"BROOK",null,word,,,,, 'BROOK',,
html-keyboard-response,579,1050290,null,"LAGOON<img id = ""stim"" ><div class = red_square id = ""topsquare"" ></div><img id = ""stim"" ><div class = red_square  id = ""bottomsquare"" ></div>",null,word_square,response,0,none,true,,,
html-keyboard-response,580,1051796,null,"LAGOON",null,word,,,,, 'LAGOON',,
html-keyboard-response,581,1052134,336.3050000043586,"SHORTS<img id = ""stim"" ><div class = green_square id = ""topsquare"" ></div><img id = ""stim"" ><div class = green_square  id = ""bottomsquare"" ></div>",32,word_square,response,1,Space,true,,,
html-keyboard-response,582,1053636,null,"SHORTS",null,word,,,,, 'SHORTS',,
html-keyboard-response,583,1054086,446.4249999728054,"DIME<img id = ""stim"" ><div class = green_square id = ""topsquare"" ></div><img id = ""stim"" ><div class = green_square  id = ""bottomsquare"" ></div>",32,word_square,response,1,Space,true,,,
html-keyboard-response,584,1055590,null,"DIME",null,word,,,,, 'DIME',,
call-function,585,1055591,,"",,,,,,,,,
html-keyboard-response,586,1055699,null,"",null,,,,,,,,
math-period,587,1057271,3019.794999912847,"",,,,,,,,,4
html-keyboard-response,588,1057374,null,"",null,,,,,,,,
math-period,589,1060963,11827.299999946263,"",,,,,,,,,1
html-keyboard-response,590,1061067,null,"",null,,,,,,,,
math-period,591,1061878,1466.019999992568,"",,,,,,,,,1
html-keyboard-response,592,1061982,null,"",null,,,,,,,,
math-period,593,1064070,3996.0299999802373,"",,,,,,,,,0
html-keyboard-response,594,1064174,null,"",null,,,,,,,,
math-period,595,1065377,2245.4600000055507,"",,,,,,,,,4
html-keyboard-response,596,1065481,null,"",null,,,,,,,,
math-period,597,1066561,2033.374999940861,"",,,,,,,,,3
html-keyboard-response,598,1066665,null,"",null,,,,,,,,
math-period,599,1068020,2561.5400000824593,"",,,,,,,,,6
html-keyboard-response,600,1068123,null,"",null,,,,,,,,
math-period,601,1070295,3957.8500000061467,"",,,,,,,,,4
html-keyboard-response,602,1070398,null,"",null,,,,,,,,
math-period,603,1072202,3382.270000060089,"",,,,,,,,,5
html-keyboard-response,604,1072304,null,"",null,,,,,,,,
math-period,605,1074152,3555.2150000585243,"",,,,,,,,,2
html-keyboard-response,606,1074255,null,"",null,,,,,,,,
math-period,607,1076293,3487.924999964889,"",,,,,,,,,4
html-keyboard-response,608,1076397,null,"",null,,,,,,,,
math-period,609,1078994,5045.480000029784,"",,,,,,,,,2
html-keyboard-response,610,1079098,null,"",null,,,,,,,,
math-period,611,1079595,null,"",,,,,,,,,
html-keyboard-response,612,1080602,null,"Recall Period!",null,,,,,,,,
call-function,613,1080604,,"",,,,,,,,,
html-keyboard-response,614,1080706,null,"",null,,,,,,,,
recall-period,615,1082828,9971.369999926537,"",,,,,,,,,dustpan
html-keyboard-response,616,1082931,null,"",null,,,,,,,,
recall-period,617,1084101,3482.7999998815358,"",,,,,,,,,pony
html-keyboard-response,618,1084203,null,"",null,,,,,,,,
recall-period,619,1085871,8439.83000004664,"",,,,,,,,,stalliion
html-keyboard-response,620,1085975,null,"",null,,,,,,,,
recall-period,621,1088664,12455.295000050683,"",,,,,,,,,shepherd
html-keyboard-response,622,1088768,null,"",null,,,,,,,,
recall-period,623,1155608,null,"",,,,,,,,,
html-keyboard-response,624,1156112,null,"Time's Up!",null,,,,,,,,
html-keyboard-response,625,1158269,2154.465000028722,"<p> Good job! You responded correctly to 96% of the GREEN squares.</p>
                  <p>Be sure to keep your accuracy above 80%</p>
                  <p>Press any key to continue the experiment. Thank you!</p>",32,,,,,,,,
html-keyboard-response,626,1160049,1778.8350000046194,"<div style=""font-size:48px;"">Press any key to begin list 7 of 24 </div>",32,,,,,,,,
html-keyboard-response,627,1162553,null,"<div style=""font-size:60px;"">+</div>",null,,,,,,,,
html-keyboard-response,628,1163060,null,"PERFUME<img id = ""stim"" ><div class = green_square id = ""topsquare"" ></div><img id = ""stim"" ><div class = green_square  id = ""bottomsquare"" ></div>",null,word_square,response,1,Space,false,,,
html-keyboard-response,629,1164564,null,"PERFUME",null,word,,,,, 'PERFUME',,
html-keyboard-response,630,1164935,369.2799999844283,"SIDING<img id = ""stim"" ><div class = green_square id = ""topsquare"" ></div><img id = ""stim"" ><div class = green_square  id = ""bottomsquare"" ></div>",32,word_square,response,1,Space,true,,,
html-keyboard-response,631,1166442,null,"SIDING",null,word,,,,, 'SIDING',,
html-keyboard-response,632,1166944,null,"GLASSES<img id = ""stim"" ><div class = red_square id = ""topsquare"" ></div><img id = ""stim"" ><div class = red_square  id = ""bottomsquare"" ></div>",null,word_square,response,0,none,true,,,
html-keyboard-response,633,1168449,null,"GLASSES",null,word,,,,, 'GLASSES',,
html-keyboard-response,634,1168796,344.8400000343099,"VALLEY<img id = ""stim"" ><div class = green_square id = ""topsquare"" ></div><img id = ""stim"" ><div class = green_square  id = ""bottomsquare"" ></div>",32,word_square,response,1,Space,true,,,
html-keyboard-response,635,1170301,null,"VALLEY",null,word,,,,, 'VALLEY',,
html-keyboard-response,636,1170629,325.59500000206754,"REINDEER<img id = ""stim"" ><div class = green_square id = ""topsquare"" ></div><img id = ""stim"" ><div class = green_square  id = ""bottomsquare"" ></div>",32,word_square,response,1,Space,true,,,
html-keyboard-response,637,1172136,null,"REINDEER",null,word,,,,, 'REINDEER',,
html-keyboard-response,638,1172640,null,"SCAPEGOAT<img id = ""stim"" ><div class = red_square id = ""topsquare"" ></div><img id = ""stim"" ><div class = red_square  id = ""bottomsquare"" ></div>",null,word_square,response,0,none,true,,,
html-keyboard-response,639,1174143,null,"SCAPEGOAT",null,word,,,,, 'SCAPEGOAT',,
html-keyboard-response,640,1174649,null,"BLUEJAY<img id = ""stim"" ><div class = red_square id = ""topsquare"" ></div><img id = ""stim"" ><div class = red_square  id = ""bottomsquare"" ></div>",null,word_square,response,0,none,true,,,
html-keyboard-response,641,1176153,null,"BLUEJAY",null,word,,,,, 'BLUEJAY',,
html-keyboard-response,642,1176584,429.1750000556931,"COCKTAIL<img id = ""stim"" ><div class = green_square id = ""topsquare"" ></div><img id = ""stim"" ><div class = green_square  id = ""bottomsquare"" ></div>",32,word_square,response,1,Space,true,,,
html-keyboard-response,643,1178091,null,"COCKTAIL",null,word,,,,, 'COCKTAIL',,
html-keyboard-response,644,1178598,null,"PLAYGROUND<img id = ""stim"" ><div class = red_square id = ""topsquare"" ></div><img id = ""stim"" ><div class = red_square  id = ""bottomsquare"" ></div>",null,word_square,response,0,none,true,,,
html-keyboard-response,645,1180101,null,"PLAYGROUND",null,word,,,,, 'PLAYGROUND',,
html-keyboard-response,646,1180398,295.2349999686703,"DRESS<img id = ""stim"" ><div class = green_square id = ""topsquare"" ></div><img id = ""stim"" ><div class = green_square  id = ""bottomsquare"" ></div>",32,word_square,response,1,Space,true,,,
html-keyboard-response,647,1181905,null,"DRESS",null,word,,,,, 'DRESS',,
html-keyboard-response,648,1182412,null,"POCKET<img id = ""stim"" ><div class = red_square id = ""topsquare"" ></div><img id = ""stim"" ><div class = red_square  id = ""bottomsquare"" ></div>",null,word_square,response,0,none,true,,,
html-keyboard-response,649,1183918,null,"POCKET",null,word,,,,, 'POCKET',,
html-keyboard-response,650,1184226,304.7099999967031,"PATROL<img id = ""stim"" ><div class = green_square id = ""topsquare"" ></div><img id = ""stim"" ><div class = green_square  id = ""bottomsquare"" ></div>",32,word_square,response,1,Space,true,,,
html-keyboard-response,651,1185731,null,"PATROL",null,word,,,,, 'PATROL',,
html-keyboard-response,652,1186107,374.84000000404194,"SUNRISE<img id = ""stim"" ><div class = green_square id = ""topsquare"" ></div><img id = ""stim"" ><div class = green_square  id = ""bottomsquare"" ></div>",32,word_square,response,1,Space,true,,,
html-keyboard-response,653,1187613,null,"SUNRISE",null,word,,,,, 'SUNRISE',,
html-keyboard-response,654,1188121,null,"CANYON<img id = ""stim"" ><div class = red_square id = ""topsquare"" ></div><img id = ""stim"" ><div class = red_square  id = ""bottomsquare"" ></div>",null,word_square,response,0,none,true,,,
html-keyboard-response,655,1189623,null,"CANYON",null,word,,,,, 'CANYON',,
html-keyboard-response,656,1190128,null,"DRESSER<img id = ""stim"" ><div class = red_square id = ""topsquare"" ></div><img id = ""stim"" ><div class = red_square  id = ""bottomsquare"" ></div>",null,word_square,response,0,none,true,,,
html-keyboard-response,657,1191633,null,"DRESSER",null,word,,,,, 'DRESSER',,
html-keyboard-response,658,1192019,384.37500002328306,"WASHER<img id = ""stim"" ><div class = green_square id = ""topsquare"" ></div><img id = ""stim"" ><div class = green_square  id = ""bottomsquare"" ></div>",32,word_square,response,1,Space,true,,,
html-keyboard-response,659,1193525,null,"WASHER",null,word,,,,, 'WASHER',,
html-keyboard-response,660,1194027,null,"STRANGER<img id = ""stim"" ><div class = red_square id = ""topsquare"" ></div><img id = ""stim"" ><div class = red_square  id = ""bottomsquare"" ></div>",null,word_square,response,0,none,true,,,
html-keyboard-response,661,1195535,null,"STRANGER",null,word,,,,, 'STRANGER',,
html-keyboard-response,662,1196042,null,"SHAMPOO<img id = ""stim"" ><div class = red_square id = ""topsquare"" ></div><img id = ""stim"" ><div class = red_square  id = ""bottomsquare"" ></div>",null,word_square,response,0,none,true,,,
html-keyboard-response,663,1197549,null,"SHAMPOO",null,word,,,,, 'SHAMPOO',,
call-function,664,1197550,,"",,,,,,,,,
html-keyboard-response,665,1197654,null,"",null,,,,,,,,
math-period,666,1199679,4077.149999968242,"",,,,,,,,, 6
html-keyboard-response,667,1199783,null,"",null,,,,,,,,
math-period,668,1201572,3405.635000031907,"",,,,,,,,,2
html-keyboard-response,669,1201676,null,"",null,,,,,,,,
math-period,670,1202471,1446.2250000215136,"",,,,,,,,,2
html-keyboard-response,671,1202575,null,"",null,,,,,,,,
math-period,672,1203924,2565.6699999817647,"",,,,,,,,,5
html-keyboard-response,673,1204028,null,"",null,,,,,,,,
math-period,674,1205955,3719.424999959301,"",,,,,,,,,2
html-keyboard-response,675,1206059,null,"",null,,,,,,,,
math-period,676,1207311,2394.274999969639,"",,,,,,,,,4
html-keyboard-response,677,1207415,null,"",null,,,,,,,,
math-period,678,1210089,8923.544999910519,"",,,,,,,,,1
html-keyboard-response,679,1210193,null,"",null,,,,,,,,
math-period,680,1211399,2319.394999940414,"",,,,,,,,,3
html-keyboard-response,681,1211504,null,"",null,,,,,,,,
math-period,682,1213163,3126.105000032112,"",,,,,,,,,2
html-keyboard-response,683,1213267,null,"",null,,,,,,,,
math-period,684,1215147,3643.25500006089,"",,,,,,,,,4
html-keyboard-response,685,1215251,null,"",null,,,,,,,,
math-period,686,1218194,5744.030000059865,"",,,,,,,,,2
html-keyboard-response,687,1218298,null,"",null,,,,,,,,
math-period,688,1221147,10081.285000022035,"",,,,,,,,,1
html-keyboard-response,689,1221250,null,"",null,,,,,,,,
math-period,690,1221552,null,"",,,,,,,,,
html-keyboard-response,691,1222558,null,"Recall Period!",null,,,,,,,,
call-function,692,1222559,,"",,,,,,,,,
html-keyboard-response,693,1222663,null,"",null,,,,,,,,
recall-period,694,1227610,51154.849999875296,"",,,,,,,,,reindeer
html-keyboard-response,695,1227714,null,"",null,,,,,,,,
recall-period,696,1266740,268894.4500000216,"",,,,,,,,,washer
html-keyboard-response,697,1266844,null,"",null,,,,,,,,
recall-period,698,1297561,null,"",,,,,,,,,
html-keyboard-response,699,1298069,null,"Time's Up!",null,,,,,,,,
html-keyboard-response,700,1299103,1031.2400000402704,"<p> Good job! You responded correctly to 96% of the GREEN squares.</p>
                  <p>Be sure to keep your accuracy above 80%</p>
                  <p>Press any key to continue the experiment. Thank you!</p>",32,,,,,,,,
html-keyboard-response,701,1299970,866.199999989476,"<div style=""font-size:48px;"">Press any key to begin list 8 of 24 </div>",32,,,,,,,,
html-keyboard-response,702,1302476,null,"<div style=""font-size:60px;"">+</div>",null,,,,,,,,
html-keyboard-response,703,1302821,342.60499995434657,"SCOTCH<img id = ""stim"" ><div class = green_square id = ""topsquare"" ></div><img id = ""stim"" ><div class = green_square  id = ""bottomsquare"" ></div>",32,word_square,response,1,Space,true,,,
html-keyboard-response,704,1304328,null,"SCOTCH",null,word,,,,, 'SCOTCH',,
html-keyboard-response,705,1304658,328.7300000083633,"HATCHET<img id = ""stim"" ><div class = green_square id = ""topsquare"" ></div><img id = ""stim"" ><div class = green_square  id = ""bottomsquare"" ></div>",32,word_square,response,1,Space,true,,,
html-keyboard-response,706,1306163,null,"HATCHET",null,word,,,,, 'HATCHET',,
html-keyboard-response,707,1306668,null,"QUILT<img id = ""stim"" ><div class = red_square id = ""topsquare"" ></div><img id = ""stim"" ><div class = red_square  id = ""bottomsquare"" ></div>",null,word_square,response,0,none,true,,,
html-keyboard-response,708,1308172,null,"QUILT",null,word,,,,, 'QUILT',,
html-keyboard-response,709,1308548,374.6849999879487,"SHINGLE<img id = ""stim"" ><div class = green_square id = ""topsquare"" ></div><img id = ""stim"" ><div class = green_square  id = ""bottomsquare"" ></div>",32,word_square,response,1,Space,true,,,
html-keyboard-response,710,1310052,null,"SHINGLE",null,word,,,,, 'SHINGLE',,
html-keyboard-response,711,1310492,437.7600000007078,"ARM<img id = ""stim"" ><div class = green_square id = ""topsquare"" ></div><img id = ""stim"" ><div class = green_square  id = ""bottomsquare"" ></div>",32,word_square,response,1,Space,true,,,
html-keyboard-response,712,1311994,null,"ARM",null,word,,,,, 'ARM',,
html-keyboard-response,713,1312502,null,"LION<img id = ""stim"" ><div class = red_square id = ""topsquare"" ></div><img id = ""stim"" ><div class = red_square  id = ""bottomsquare"" ></div>",null,word_square,response,0,none,true,,,
html-keyboard-response,714,1314004,null,"LION",null,word,,,,, 'LION',,
html-keyboard-response,715,1314511,null,"RODENT<img id = ""stim"" ><div class = red_square id = ""topsquare"" ></div><img id = ""stim"" ><div class = red_square  id = ""bottomsquare"" ></div>",null,word_square,response,0,none,true,,,
html-keyboard-response,716,1316014,null,"RODENT",null,word,,,,, 'RODENT',,
html-keyboard-response,717,1316417,400.5749999778345,"CHARCOAL<img id = ""stim"" ><div class = green_square id = ""topsquare"" ></div><img id = ""stim"" ><div class = green_square  id = ""bottomsquare"" ></div>",32,word_square,response,1,Space,true,,,
html-keyboard-response,718,1317921,null,"CHARCOAL",null,word,,,,, 'CHARCOAL',,
html-keyboard-response,719,1318426,null,"ROBBER<img id = ""stim"" ><div class = red_square id = ""topsquare"" ></div><img id = ""stim"" ><div class = red_square  id = ""bottomsquare"" ></div>",null,word_square,response,0,none,true,,,
html-keyboard-response,720,1319929,null,"ROBBER",null,word,,,,, 'ROBBER',,
html-keyboard-response,721,1320329,398.03000004030764,"SKUNK<img id = ""stim"" ><div class = green_square id = ""topsquare"" ></div><img id = ""stim"" ><div class = green_square  id = ""bottomsquare"" ></div>",32,word_square,response,1,Space,true,,,
html-keyboard-response,722,1321831,null,"SKUNK",null,word,,,,, 'SKUNK',,
html-keyboard-response,723,1322334,null,"COWBOY<img id = ""stim"" ><div class = red_square id = ""topsquare"" ></div><img id = ""stim"" ><div class = red_square  id = ""bottomsquare"" ></div>",null,word_square,response,0,none,true,,,
html-keyboard-response,724,1323838,null,"COWBOY",null,word,,,,, 'COWBOY',,
html-keyboard-response,725,1324187,346.7750000418164,"SADDLE<img id = ""stim"" ><div class = green_square id = ""topsquare"" ></div><img id = ""stim"" ><div class = green_square  id = ""bottomsquare"" ></div>",32,word_square,response,1,Space,true,,,
html-keyboard-response,726,1325692,null,"SADDLE",null,word,,,,, 'SADDLE',,
html-keyboard-response,727,1326060,366.039999993518,"ICEBERG<img id = ""stim"" ><div class = green_square id = ""topsquare"" ></div><img id = ""stim"" ><div class = green_square  id = ""bottomsquare"" ></div>",32,word_square,response,1,Space,true,,,
html-keyboard-response,728,1327567,null,"ICEBERG",null,word,,,,, 'ICEBERG',,
html-keyboard-response,729,1328072,null,"SURGEON<img id = ""stim"" ><div class = red_square id = ""topsquare"" ></div><img id = ""stim"" ><div class = red_square  id = ""bottomsquare"" ></div>",null,word_square,response,0,none,true,,,
html-keyboard-response,730,1329575,null,"SURGEON",null,word,,,,, 'SURGEON',,
html-keyboard-response,731,1330081,null,"SPOON<img id = ""stim"" ><div class = red_square id = ""topsquare"" ></div><img id = ""stim"" ><div class = red_square  id = ""bottomsquare"" ></div>",null,word_square,response,0,none,true,,,
html-keyboard-response,732,1331588,null,"SPOON",null,word,,,,, 'SPOON',,
html-keyboard-response,733,1331871,280.70999996270984,"KNIFE<img id = ""stim"" ><div class = green_square id = ""topsquare"" ></div><img id = ""stim"" ><div class = green_square  id = ""bottomsquare"" ></div>",32,word_square,response,1,Space,true,,,
html-keyboard-response,734,1333378,null,"KNIFE",null,word,,,,, 'KNIFE',,
html-keyboard-response,735,1333886,null,"KLEENEX<img id = ""stim"" ><div class = red_square id = ""topsquare"" ></div><img id = ""stim"" ><div class = red_square  id = ""bottomsquare"" ></div>",null,word_square,response,0,none,true,,,
html-keyboard-response,736,1335388,null,"KLEENEX",null,word,,,,, 'KLEENEX',,
html-keyboard-response,737,1335891,null,"LEOPARD<img id = ""stim"" ><div class = red_square id = ""topsquare"" ></div><img id = ""stim"" ><div class = red_square  id = ""bottomsquare"" ></div>",null,word_square,response,0,none,true,,,
html-keyboard-response,738,1337395,null,"LEOPARD",null,word,,,,, 'LEOPARD',,
call-function,739,1337396,,"",,,,,,,,,
html-keyboard-response,740,1337501,null,"",null,,,,,,,,
math-period,741,1339283,3421.5449999901466,"",,,,,,,,,6
html-keyboard-response,742,1339389,null,"",null,,,,,,,,
math-period,743,1340093,1224.465000035707,"",,,,,,,,,6
html-keyboard-response,744,1340199,null,"",null,,,,,,,,
math-period,745,1341397,2304.805000021588,"",,,,,,,,,4
html-keyboard-response,746,1341500,null,"",null,,,,,,,,
math-period,747,1342672,2170.520000043325,"",,,,,,,,,5
html-keyboard-response,748,1342778,null,"",null,,,,,,,,
math-period,749,1343881,2087.355000025127,"",,,,,,,,,3
html-keyboard-response,750,1343987,null,"",null,,,,,,,,
math-period,751,1344660,1152.040000015404,"",,,,,,,,,3
html-keyboard-response,752,1344763,null,"",null,,,,,,,,
math-period,753,1346698,3741.455000010319,"",,,,,,,,,2
html-keyboard-response,754,1346801,null,"",null,,,,,,,,
math-period,755,1348386,3063.8749999925494,"",,,,,,,,,2
html-keyboard-response,756,1348492,null,"",null,,,,,,,,
math-period,757,1350829,7706.590000016149,"",,,,,,,,,5
html-keyboard-response,758,1350933,null,"",null,,,,,,,,
math-period,759,1352230,2457.63999997871,"",,,,,,,,,4
html-keyboard-response,760,1352334,null,"",null,,,,,,,,
math-period,761,1353734,2480.7050000526942,"",,,,,,,,,4
html-keyboard-response,762,1353840,null,"",null,,,,,,,,
math-period,763,1355032,2231.6200000350364,"",,,,,,,,,3
html-keyboard-response,764,1355138,null,"",null,,,,,,,,
math-period,765,1356385,2335.635000024922,"",,,,,,,,,4
html-keyboard-response,766,1356492,null,"",null,,,,,,,,
math-period,767,1357587,2037.0399999665096,"",,,,,,,,,4
html-keyboard-response,768,1357691,null,"",null,,,,,,,,
math-period,769,1359057,2590.680000022985,"",,,,,,,,,3
html-keyboard-response,770,1359160,null,"",null,,,,,,,,
math-period,771,1360522,2588.9050000696443,"",,,,,,,,,2
html-keyboard-response,772,1360626,null,"",null,,,,,,,,
math-period,773,1361399,null,"",,,,,,,,,
html-keyboard-response,774,1362402,null,"Recall Period!",null,,,,,,,,
call-function,775,1362403,,"",,,,,,,,,
html-keyboard-response,776,1362505,null,"",null,,,,,,,,
recall-period,777,1364525,9604.40499993274,"",,,,,,,,,hatchet
html-keyboard-response,778,1364628,null,"",null,,,,,,,,
recall-period,779,1366071,5633.135000010952,"",,,,,,,,,quilt
html-keyboard-response,780,1366174,null,"",null,,,,,,,,
recall-period,781,1367022,1849.8750000726432,"",,,,,,,,,arm
html-keyboard-response,782,1367125,null,"",null,,,,,,,,
recall-period,783,1370689,22414.985000155866,"",,,,,,,,,lion
html-keyboard-response,784,1370795,null,"",null,,,,,,,,
recall-period,785,1380094,100181.57000013161,"",,,,,,,,,kleenex
html-keyboard-response,786,1380200,null,"",null,,,,,,,,
recall-period,787,1385932,35893.62999988953,"",,,,,,,,,robber
html-keyboard-response,788,1386036,null,"",null,,,,,,,,
recall-period,789,1397125,72511.46499998868,"",,,,,,,,,scotch
html-keyboard-response,790,1397228,null,"",null,,,,,,,,
recall-period,791,1409559,62022.37999992212,"",,,,,,,,,quilt
html-keyboard-response,792,1409666,null,"",null,,,,,,,,
recall-period,793,1437410,null,"",,,,,,,,,
html-keyboard-response,794,1437917,null,"Time's Up!",null,,,,,,,,
html-keyboard-response,795,1439305,1385.5749999638647,"<p> Good job! You responded correctly to 96% of the GREEN squares.</p>
                  <p>Be sure to keep your accuracy above 80%</p>
                  <p>Press any key to continue the experiment. Thank you!</p>",32,,,,,,,,
html-keyboard-response,796,1440317,1009.8950000246987,"<div style=""font-size:48px;"">Press any key to begin list 9 of 24 </div>",32,,,,,,,,
html-keyboard-response,797,1442826,null,"<div style=""font-size:60px;"">+</div>",null,,,,,,,,
html-keyboard-response,798,1443157,328.74000002630055,"SCALLOP<img id = ""stim"" ><div class = green_square id = ""topsquare"" ></div><img id = ""stim"" ><div class = green_square  id = ""bottomsquare"" ></div>",32,word_square,response,1,Space,true,,,
html-keyboard-response,799,1444662,null,"SCALLOP",null,word,,,,, 'SCALLOP',,
html-keyboard-response,800,1445167,null,"WITNESS<img id = ""stim"" ><div class = red_square id = ""topsquare"" ></div><img id = ""stim"" ><div class = red_square  id = ""bottomsquare"" ></div>",null,word_square,response,0,none,true,,,
html-keyboard-response,801,1446671,null,"WITNESS",null,word,,,,, 'WITNESS',,
html-keyboard-response,802,1447178,null,"VICTIM<img id = ""stim"" ><div class = red_square id = ""topsquare"" ></div><img id = ""stim"" ><div class = red_square  id = ""bottomsquare"" ></div>",null,word_square,response,0,none,true,,,
html-keyboard-response,803,1448680,null,"VICTIM",null,word,,,,, 'VICTIM',,
html-keyboard-response,804,1449071,388.6049999855459,"AIRCRAFT<img id = ""stim"" ><div class = green_square id = ""topsquare"" ></div><img id = ""stim"" ><div class = green_square  id = ""bottomsquare"" ></div>",32,word_square,response,1,Space,true,,,
html-keyboard-response,805,1450573,null,"AIRCRAFT",null,word,,,,, 'AIRCRAFT',,
html-keyboard-response,806,1451077,null,"WAREHOUSE<img id = ""stim"" ><div class = red_square id = ""topsquare"" ></div><img id = ""stim"" ><div class = red_square  id = ""bottomsquare"" ></div>",null,word_square,response,0,none,true,,,
html-keyboard-response,807,1452584,null,"WAREHOUSE",null,word,,,,, 'WAREHOUSE',,
html-keyboard-response,808,1452976,389.6850000019185,"RIVER<img id = ""stim"" ><div class = green_square id = ""topsquare"" ></div><img id = ""stim"" ><div class = green_square  id = ""bottomsquare"" ></div>",32,word_square,response,1,Space,true,,,
html-keyboard-response,809,1454480,null,"RIVER",null,word,,,,, 'RIVER',,
html-keyboard-response,810,1454930,447.76499998988584,"NOTEBOOK<img id = ""stim"" ><div class = green_square id = ""topsquare"" ></div><img id = ""stim"" ><div class = green_square  id = ""bottomsquare"" ></div>",32,word_square,response,1,Space,true,,,
html-keyboard-response,811,1456435,null,"NOTEBOOK",null,word,,,,, 'NOTEBOOK',,
html-keyboard-response,812,1456939,null,"PAPER<img id = ""stim"" ><div class = red_square id = ""topsquare"" ></div><img id = ""stim"" ><div class = red_square  id = ""bottomsquare"" ></div>",null,word_square,response,0,none,true,,,
html-keyboard-response,813,1458442,null,"PAPER",null,word,,,,, 'PAPER',,
html-keyboard-response,814,1458745,301.51499999919906,"SCALPEL<img id = ""stim"" ><div class = green_square id = ""topsquare"" ></div><img id = ""stim"" ><div class = green_square  id = ""bottomsquare"" ></div>",32,word_square,response,1,Space,true,,,
html-keyboard-response,815,1460249,null,"SCALPEL",null,word,,,,, 'SCALPEL',,
html-keyboard-response,816,1460757,null,"DAGGER<img id = ""stim"" ><div class = red_square id = ""topsquare"" ></div><img id = ""stim"" ><div class = red_square  id = ""bottomsquare"" ></div>",null,word_square,response,0,none,true,,,
html-keyboard-response,817,1462258,null,"DAGGER",null,word,,,,, 'DAGGER',,
html-keyboard-response,818,1462548,288.22499996749684,"POSSUM<img id = ""stim"" ><div class = green_square id = ""topsquare"" ></div><img id = ""stim"" ><div class = green_square  id = ""bottomsquare"" ></div>",32,word_square,response,1,Space,true,,,
html-keyboard-response,819,1464053,null,"POSSUM",null,word,,,,, 'POSSUM',,
html-keyboard-response,820,1464561,null,"WINDSHIELD<img id = ""stim"" ><div class = red_square id = ""topsquare"" ></div><img id = ""stim"" ><div class = red_square  id = ""bottomsquare"" ></div>",null,word_square,response,0,none,true,,,
html-keyboard-response,821,1466067,null,"WINDSHIELD",null,word,,,,, 'WINDSHIELD',,
html-keyboard-response,822,1466572,null,"BOULDER<img id = ""stim"" ><div class = red_square id = ""topsquare"" ></div><img id = ""stim"" ><div class = red_square  id = ""bottomsquare"" ></div>",null,word_square,response,0,none,true,,,
html-keyboard-response,823,1468076,null,"BOULDER",null,word,,,,, 'BOULDER',,
html-keyboard-response,824,1468405,327.7150000212714,"BANDAGE<img id = ""stim"" ><div class = green_square id = ""topsquare"" ></div><img id = ""stim"" ><div class = green_square  id = ""bottomsquare"" ></div>",32,word_square,response,1,Space,true,,,
html-keyboard-response,825,1469910,null,"BANDAGE",null,word,,,,, 'BANDAGE',,
html-keyboard-response,826,1470327,415.1399999973364,"PANTHER<img id = ""stim"" ><div class = green_square id = ""topsquare"" ></div><img id = ""stim"" ><div class = green_square  id = ""bottomsquare"" ></div>",32,word_square,response,1,Space,true,,,
html-keyboard-response,827,1471829,null,"PANTHER",null,word,,,,, 'PANTHER',,
html-keyboard-response,828,1472332,null,"BEAST<img id = ""stim"" ><div class = red_square id = ""topsquare"" ></div><img id = ""stim"" ><div class = red_square  id = ""bottomsquare"" ></div>",null,word_square,response,0,none,true,,,
html-keyboard-response,829,1473836,null,"BEAST",null,word,,,,, 'BEAST',,
html-keyboard-response,830,1474342,null,"EGYPT<img id = ""stim"" ><div class = red_square id = ""topsquare"" ></div><img id = ""stim"" ><div class = red_square  id = ""bottomsquare"" ></div>",null,word_square,response,0,none,true,,,
html-keyboard-response,831,1475845,null,"EGYPT",null,word,,,,, 'EGYPT',,
html-keyboard-response,832,1476268,420.72999995434657,"STAMP<img id = ""stim"" ><div class = green_square id = ""topsquare"" ></div><img id = ""stim"" ><div class = green_square  id = ""bottomsquare"" ></div>",32,word_square,response,1,Space,true,,,
html-keyboard-response,833,1477771,null,"STAMP",null,word,,,,, 'STAMP',,
call-function,834,1477773,,"",,,,,,,,,
html-keyboard-response,835,1477878,null,"",null,,,,,,,,
math-period,836,1480710,5141.144999943208,"",,,,,,,,,2
html-keyboard-response,837,1480814,null,"",null,,,,,,,,
math-period,838,1483737,5710.024999978486,"",,,,,,,,,1
html-keyboard-response,839,1483844,null,"",null,,,,,,,,
math-period,840,1484882,1949.8249999596737,"",,,,,,,,,3
html-keyboard-response,841,1484986,null,"",null,,,,,,,,
math-period,842,1485931,1746.1050000274554,"",,,,,,,,,4
html-keyboard-response,843,1486035,null,"",null,,,,,,,,
math-period,844,1487194,2188.4650000720285,"",,,,,,,,,3
html-keyboard-response,845,1487298,null,"",null,,,,,,,,
math-period,846,1488846,2969.0950000076555,"",,,,,,,,,2
html-keyboard-response,847,1488950,null,"",null,,,,,,,,
math-period,848,1490706,3364.000000001397,"",,,,,,,,,0
html-keyboard-response,849,1490809,null,"",null,,,,,,,,
math-period,850,1492338,2886.4149999571964,"",,,,,,,,,5
html-keyboard-response,851,1492442,null,"",null,,,,,,,,
math-period,852,1493740,2497.254999994766,"",,,,,,,,,3
html-keyboard-response,853,1493846,null,"",null,,,,,,,,
math-period,854,1495357,2658.805000013672,"",,,,,,,,,6
html-keyboard-response,855,1495461,null,"",null,,,,,,,,
math-period,856,1496423,1676.9400000339374,"",,,,,,,,,6
html-keyboard-response,857,1496528,null,"",null,,,,,,,,
math-period,858,1498918,4591.979999910109,"",,,,,,,,,4
html-keyboard-response,859,1499022,null,"",null,,,,,,,,
math-period,860,1501778,null,"",,,,,,,,,
html-keyboard-response,861,1502782,null,"Recall Period!",null,,,,,,,,
call-function,862,1502784,,"",,,,,,,,,
html-keyboard-response,863,1502891,null,"",null,,,,,,,,
recall-period,864,1505191,10586.374999955297,"",,,,,,,,,panther
html-keyboard-response,865,1505293,null,"",null,,,,,,,,
recall-period,866,1506577,3497.4399998318404,"",,,,,,,,,beast
html-keyboard-response,867,1506681,null,"",null,,,,,,,,
recall-period,868,1508631,6669.4049998768605,"",,,,,,,,,egypt
html-keyboard-response,869,1508735,null,"",null,,,,,,,,
recall-period,870,1511555,19588.520000106655,"",,,,,,,,,witness
html-keyboard-response,871,1511659,null,"",null,,,,,,,,
recall-period,872,1515997,36764.349999662954,"",,,,,,,,,victim
html-keyboard-response,873,1516101,null,"",null,,,,,,,,
recall-period,874,1517866,6723.724999988917,"",,,,,,,,,scallop
html-keyboard-response,875,1517969,null,"",null,,,,,,,,
recall-period,876,1577789,null,"",,,,,,,,,
html-keyboard-response,877,1578298,null,"Time's Up!",null,,,,,,,,
html-keyboard-response,878,1579454,1153.8399999844842,"<p> Good job! You responded correctly to 97% of the GREEN squares.</p>
                  <p>Be sure to keep your accuracy above 80%</p>
                  <p>Press any key to continue the experiment. Thank you!</p>",32,,,,,,,,
html-keyboard-response,879,1580520,1063.0249999812804,"<div style=""font-size:48px;"">Press any key to begin list 10 of 24 </div>",32,,,,,,,,
html-keyboard-response,880,1583027,null,"<div style=""font-size:60px;"">+</div>",null,,,,,,,,
html-keyboard-response,881,1583418,388.74000002397224,"MAGNET<img id = ""stim"" ><div class = green_square id = ""topsquare"" ></div><img id = ""stim"" ><div class = green_square  id = ""bottomsquare"" ></div>",32,word_square,response,1,Space,true,,,
html-keyboard-response,882,1584921,null,"MAGNET",null,word,,,,, 'MAGNET',,
html-keyboard-response,883,1585427,null,"DIVER<img id = ""stim"" ><div class = red_square id = ""topsquare"" ></div><img id = ""stim"" ><div class = red_square  id = ""bottomsquare"" ></div>",null,word_square,response,0,none,true,,,
html-keyboard-response,884,1586934,null,"DIVER",null,word,,,,, 'DIVER',,
html-keyboard-response,885,1587438,null,"RAFT<img id = ""stim"" ><div class = red_square id = ""topsquare"" ></div><img id = ""stim"" ><div class = red_square  id = ""bottomsquare"" ></div>",null,word_square,response,0,none,true,,,
html-keyboard-response,886,1588940,null,"RAFT",null,word,,,,, 'RAFT',,
html-keyboard-response,887,1589273,332.010000012815,"CARPET<img id = ""stim"" ><div class = green_square id = ""topsquare"" ></div><img id = ""stim"" ><div class = green_square  id = ""bottomsquare"" ></div>",32,word_square,response,1,Space,true,,,
html-keyboard-response,888,1590779,null,"CARPET",null,word,,,,, 'CARPET',,
html-keyboard-response,889,1591287,null,"KEEPER<img id = ""stim"" ><div class = red_square id = ""topsquare"" ></div><img id = ""stim"" ><div class = red_square  id = ""bottomsquare"" ></div>",null,word_square,response,0,none,true,,,
html-keyboard-response,890,1592790,null,"KEEPER",null,word,,,,, 'KEEPER',,
html-keyboard-response,891,1593089,296.875,"IDOL<img id = ""stim"" ><div class = green_square id = ""topsquare"" ></div><img id = ""stim"" ><div class = green_square  id = ""bottomsquare"" ></div>",32,word_square,response,1,Space,true,,,
html-keyboard-response,892,1594591,null,"IDOL",null,word,,,,, 'IDOL',,
html-keyboard-response,893,1594993,400.6200000294484,"ACTRESS<img id = ""stim"" ><div class = green_square id = ""topsquare"" ></div><img id = ""stim"" ><div class = green_square  id = ""bottomsquare"" ></div>",32,word_square,response,1,Space,true,,,
html-keyboard-response,894,1596498,null,"ACTRESS",null,word,,,,, 'ACTRESS',,
html-keyboard-response,895,1597001,null,"PATIENT<img id = ""stim"" ><div class = red_square id = ""topsquare"" ></div><img id = ""stim"" ><div class = red_square  id = ""bottomsquare"" ></div>",null,word_square,response,0,none,true,,,
html-keyboard-response,896,1598505,null,"PATIENT",null,word,,,,, 'PATIENT',,
html-keyboard-response,897,1598835,328.28000001609325,"COURSE<img id = ""stim"" ><div class = green_square id = ""topsquare"" ></div><img id = ""stim"" ><div class = green_square  id = ""bottomsquare"" ></div>",32,word_square,response,1,Space,true,,,
html-keyboard-response,898,1600339,null,"COURSE",null,word,,,,, 'COURSE',,
html-keyboard-response,899,1600846,null,"SIRLOIN<img id = ""stim"" ><div class = red_square id = ""topsquare"" ></div><img id = ""stim"" ><div class = red_square  id = ""bottomsquare"" ></div>",null,word_square,response,0,none,true,,,
html-keyboard-response,900,1602350,null,"SIRLOIN",null,word,,,,, 'SIRLOIN',,
html-keyboard-response,901,1602676,324.24000004539266,"PEOPLE<img id = ""stim"" ><div class = green_square id = ""topsquare"" ></div><img id = ""stim"" ><div class = green_square  id = ""bottomsquare"" ></div>",32,word_square,response,1,Space,true,,,
html-keyboard-response,902,1604180,null,"PEOPLE",null,word,,,,, 'PEOPLE',,
html-keyboard-response,903,1604685,null,"WIDOW<img id = ""stim"" ><div class = red_square id = ""topsquare"" ></div><img id = ""stim"" ><div class = red_square  id = ""bottomsquare"" ></div>",null,word_square,response,0,none,true,,,
html-keyboard-response,904,1606191,null,"WIDOW",null,word,,,,, 'WIDOW',,
html-keyboard-response,905,1606693,null,"GRAVE<img id = ""stim"" ><div class = red_square id = ""topsquare"" ></div><img id = ""stim"" ><div class = red_square  id = ""bottomsquare"" ></div>",null,word_square,response,0,none,true,,,
html-keyboard-response,906,1608198,null,"GRAVE",null,word,,,,, 'GRAVE',,
html-keyboard-response,907,1608532,332.5699999695644,"SURVEY<img id = ""stim"" ><div class = green_square id = ""topsquare"" ></div><img id = ""stim"" ><div class = green_square  id = ""bottomsquare"" ></div>",32,word_square,response,1,Space,true,,,
html-keyboard-response,908,1610038,null,"SURVEY",null,word,,,,, 'SURVEY',,
html-keyboard-response,909,1610414,373.4699999913573,"SHELTER<img id = ""stim"" ><div class = green_square id = ""topsquare"" ></div><img id = ""stim"" ><div class = green_square  id = ""bottomsquare"" ></div>",32,word_square,response,1,Space,true,,,
html-keyboard-response,910,1611917,null,"SHELTER",null,word,,,,, 'SHELTER',,
html-keyboard-response,911,1612419,null,"NEEDLE<img id = ""stim"" ><div class = red_square id = ""topsquare"" ></div><img id = ""stim"" ><div class = red_square  id = ""bottomsquare"" ></div>",null,word_square,response,0,none,true,,,
html-keyboard-response,912,1613925,null,"NEEDLE",null,word,,,,, 'NEEDLE',,
html-keyboard-response,913,1614432,null,"NURSE<img id = ""stim"" ><div class = red_square id = ""topsquare"" ></div><img id = ""stim"" ><div class = red_square  id = ""bottomsquare"" ></div>",null,word_square,response,0,none,true,,,
html-keyboard-response,914,1615940,null,"NURSE",null,word,,,,, 'NURSE',,
