trial_type,trial_index,time_elapsed,rt,stimulus,key_press,test_part,task,targ_cond,correctKeyCode,correct,word,value,response
pavlovia,0,961,,"",,,,,,,,,
external-html,1,7913,6636.640000157058,"",,,,,,,,,
html-keyboard-response,2,10962,3045.255000004545,"Welcome to the experiment. Press any key to begin.",32,,,,,,,,
html-keyboard-response,3,24442,13478.609999874607,"<p>You will see a list of words and colored squares in the following task.<p><p>Press the spacebar whenever you see a GREEN square.<p><p>Do not press a key if the square is RED<p><p>Press the spacebar to continue.</p>",32,,,,,,,,
html-keyboard-response,4,33035,8086.800000164658,"<p>Please try to remember as many of the words as you can, and try to think about the meaning of each word as it appears.<p><p>After the detection and encoding task you will be asked to solve some math problems for 24 seconds.<p> Please solve as many problems as you can in the time given. <p>",32,,,,,,,,
html-keyboard-response,5,43132,9596.350000007078,"After solving the math problems, you will be asked to type in as many words <p>from the previous list as you can remember for 75 seconds.<p> If you finish recalling before the 75 seconds are up,<p> just sit tight and try to think of any more words you could have missed. <p><p>We will begin with a brief practice session<p>Press the spacebar to begin the practice.</p>",32,,,,,,,,
html-keyboard-response,6,45635,null,"<div style=""font-size:60px;"">+</div>",null,,,,,,,,
html-keyboard-response,7,46137,null,"HAPPY<img id = ""stim"" ><div class = red_square id = ""topsquare"" ></div><img id = ""stim"" ><div class = red_square  id = ""bottomsquare"" ></div>",null,word_square,prac_response,0,none,true,,,
html-keyboard-response,8,47640,null,"HAPPY",null,word,,,,,HAPPY,,
html-keyboard-response,9,48142,null,"COLD<img id = ""stim"" ><div class = green_square id = ""topsquare"" ></div><img id = ""stim"" ><div class = green_square  id = ""bottomsquare"" ></div>",null,word_square,prac_response,1,Space,false,,,
html-keyboard-response,10,49645,null,"COLD",null,word,,,,,COLD,,
html-keyboard-response,11,50146,379.33499994687736,"HEAVY<img id = ""stim"" ><div class = green_square id = ""topsquare"" ></div><img id = ""stim"" ><div class = green_square  id = ""bottomsquare"" ></div>",32,word_square,prac_response,1,Space,true,,,
html-keyboard-response,12,51648,null,"HEAVY",null,word,,,,,HEAVY,,
html-keyboard-response,13,52149,null,"FUNNY<img id = ""stim"" ><div class = red_square id = ""topsquare"" ></div><img id = ""stim"" ><div class = red_square  id = ""bottomsquare"" ></div>",null,word_square,prac_response,0,none,true,,,
html-keyboard-response,14,53651,null,"FUNNY",null,word,,,,,FUNNY,,
html-keyboard-response,15,54153,299.7100001666695,"SCARY<img id = ""stim"" ><div class = green_square id = ""topsquare"" ></div><img id = ""stim"" ><div class = green_square  id = ""bottomsquare"" ></div>",32,word_square,prac_response,1,Space,true,,,
html-keyboard-response,16,55654,null,"SCARY",null,word,,,,,SCARY,,
html-keyboard-response,17,56156,null,"PEACEFUL<img id = ""stim"" ><div class = green_square id = ""topsquare"" ></div><img id = ""stim"" ><div class = green_square  id = ""bottomsquare"" ></div>",null,word_square,prac_response,1,Space,false,,,
html-keyboard-response,18,57675,null,"PEACEFUL",null,word,,,,,PEACEFUL,,
html-keyboard-response,19,58177,null,"LITTLE<img id = ""stim"" ><div class = red_square id = ""topsquare"" ></div><img id = ""stim"" ><div class = red_square  id = ""bottomsquare"" ></div>",null,word_square,prac_response,0,none,true,,,
html-keyboard-response,20,59678,null,"LITTLE",null,word,,,,,LITTLE,,
html-keyboard-response,21,60180,null,"TIRED<img id = ""stim"" ><div class = red_square id = ""topsquare"" ></div><img id = ""stim"" ><div class = red_square  id = ""bottomsquare"" ></div>",null,word_square,prac_response,0,none,true,,,
html-keyboard-response,22,61682,null,"TIRED",null,word,,,,,TIRED,,
html-keyboard-response,23,62183,null,"ENTERTAINING<img id = ""stim"" ><div class = red_square id = ""topsquare"" ></div><img id = ""stim"" ><div class = red_square  id = ""bottomsquare"" ></div>",null,word_square,prac_response,0,none,true,,,
html-keyboard-response,24,63685,null,"ENTERTAINING",null,word,,,,,ENTERTAINING,,
html-keyboard-response,25,64187,355.1200001966208,"GRATEFUL<img id = ""stim"" ><div class = green_square id = ""topsquare"" ></div><img id = ""stim"" ><div class = green_square  id = ""bottomsquare"" ></div>",32,word_square,prac_response,1,Space,true,,,
html-keyboard-response,26,65700,null,"GRATEFUL",null,word,,,,,GRATEFUL,,
html-keyboard-response,27,66202,null,"LOUD<img id = ""stim"" ><div class = red_square id = ""topsquare"" ></div><img id = ""stim"" ><div class = red_square  id = ""bottomsquare"" ></div>",null,word_square,prac_response,0,none,true,,,
html-keyboard-response,28,67703,null,"LOUD",null,word,,,,,LOUD,,
html-keyboard-response,29,68219,290.1099999435246,"SMART<img id = ""stim"" ><div class = green_square id = ""topsquare"" ></div><img id = ""stim"" ><div class = green_square  id = ""bottomsquare"" ></div>",32,word_square,prac_response,1,Space,true,,,
html-keyboard-response,30,69721,null,"SMART",null,word,,,,,SMART,,
html-keyboard-response,31,70222,null,"SMOOTH<img id = ""stim"" ><div class = green_square id = ""topsquare"" ></div><img id = ""stim"" ><div class = green_square  id = ""bottomsquare"" ></div>",null,word_square,prac_response,1,Space,false,,,
html-keyboard-response,32,71724,null,"SMOOTH",null,word,,,,,SMOOTH,,
html-keyboard-response,33,72225,null,"DISHONEST<img id = ""stim"" ><div class = red_square id = ""topsquare"" ></div><img id = ""stim"" ><div class = red_square  id = ""bottomsquare"" ></div>",null,word_square,prac_response,0,none,true,,,
html-keyboard-response,34,73727,null,"DISHONEST",null,word,,,,,DISHONEST,,
html-keyboard-response,35,74229,272.55499991588295,"WEALTHY<img id = ""stim"" ><div class = green_square id = ""topsquare"" ></div><img id = ""stim"" ><div class = green_square  id = ""bottomsquare"" ></div>",32,word_square,prac_response,1,Space,true,,,
html-keyboard-response,36,75731,null,"WEALTHY",null,word,,,,,WEALTHY,,
html-keyboard-response,37,76232,null,"BEAUTIFUL<img id = ""stim"" ><div class = red_square id = ""topsquare"" ></div><img id = ""stim"" ><div class = red_square  id = ""bottomsquare"" ></div>",null,word_square,prac_response,0,none,true,,,
html-keyboard-response,38,77734,null,"BEAUTIFUL",null,word,,,,,BEAUTIFUL,,
html-keyboard-response,39,78236,null,"DREARY<img id = ""stim"" ><div class = red_square id = ""topsquare"" ></div><img id = ""stim"" ><div class = red_square  id = ""bottomsquare"" ></div>",null,word_square,prac_response,0,none,true,,,
html-keyboard-response,40,79740,null,"DREARY",null,word,,,,,DREARY,,
html-keyboard-response,41,80253,388.0199999548495,"PLAYFUL<img id = ""stim"" ><div class = green_square id = ""topsquare"" ></div><img id = ""stim"" ><div class = green_square  id = ""bottomsquare"" ></div>",32,word_square,prac_response,1,Space,true,,,
html-keyboard-response,42,81754,null,"PLAYFUL",null,word,,,,,PLAYFUL,,
html-keyboard-response,43,87338,5581.749999895692,"<p> Good job! You responded correctly to 83% of the GREEN squares.</p>
                  <p>Be sure to keep your accuracy above 80%</p>
                  <p>We're going to try once more to make sure you understand  the task. press any key to continue. </p>",32,,,,,,,,
html-keyboard-response,44,88197,858.2099999766797,"<p>You will see a list of words and colored squares in the following task.<p><p>Press the spacebar whenever you see a GREEN square.<p><p>Do not press a key if the square is RED<p><p>Press the spacebar to continue.</p>",32,,,,,,,,
html-keyboard-response,45,90700,null,"<div style=""font-size:60px;"">+</div>",null,,,,,,,,
html-keyboard-response,46,91202,null,"HAPPY<img id = ""stim"" ><div class = red_square id = ""topsquare"" ></div><img id = ""stim"" ><div class = red_square  id = ""bottomsquare"" ></div>",null,word_square,response,0,none,true,,,
html-keyboard-response,47,92703,null,"HAPPY",null,word,,,,,HAPPY,,
html-keyboard-response,48,93115,410.0400002207607,"COLD<img id = ""stim"" ><div class = green_square id = ""topsquare"" ></div><img id = ""stim"" ><div class = green_square  id = ""bottomsquare"" ></div>",32,word_square,response,1,Space,true,,,
html-keyboard-response,49,94626,null,"COLD",null,word,,,,,COLD,,
html-keyboard-response,50,94912,283.7799999397248,"HEAVY<img id = ""stim"" ><div class = green_square id = ""topsquare"" ></div><img id = ""stim"" ><div class = green_square  id = ""bottomsquare"" ></div>",32,word_square,response,1,Space,true,,,
html-keyboard-response,51,96414,null,"HEAVY",null,word,,,,,HEAVY,,
html-keyboard-response,52,96915,null,"FUNNY<img id = ""stim"" ><div class = red_square id = ""topsquare"" ></div><img id = ""stim"" ><div class = red_square  id = ""bottomsquare"" ></div>",null,word_square,response,0,none,true,,,
html-keyboard-response,53,98418,null,"FUNNY",null,word,,,,,FUNNY,,
html-keyboard-response,54,98715,295.99000001326203,"SCARY<img id = ""stim"" ><div class = green_square id = ""topsquare"" ></div><img id = ""stim"" ><div class = green_square  id = ""bottomsquare"" ></div>",32,word_square,response,1,Space,true,,,
html-keyboard-response,55,100217,null,"SCARY",null,word,,,,,SCARY,,
html-keyboard-response,56,100567,349.0100000053644,"PEACEFUL<img id = ""stim"" ><div class = green_square id = ""topsquare"" ></div><img id = ""stim"" ><div class = green_square  id = ""bottomsquare"" ></div>",32,word_square,response,1,Space,true,,,
html-keyboard-response,57,102069,null,"PEACEFUL",null,word,,,,,PEACEFUL,,
html-keyboard-response,58,102571,null,"LITTLE<img id = ""stim"" ><div class = red_square id = ""topsquare"" ></div><img id = ""stim"" ><div class = red_square  id = ""bottomsquare"" ></div>",null,word_square,response,0,none,true,,,
html-keyboard-response,59,104073,null,"LITTLE",null,word,,,,,LITTLE,,
html-keyboard-response,60,104575,null,"TIRED<img id = ""stim"" ><div class = red_square id = ""topsquare"" ></div><img id = ""stim"" ><div class = red_square  id = ""bottomsquare"" ></div>",null,word_square,response,0,none,true,,,
html-keyboard-response,61,106077,null,"TIRED",null,word,,,,,TIRED,,
html-keyboard-response,62,106579,null,"ENTERTAINING<img id = ""stim"" ><div class = red_square id = ""topsquare"" ></div><img id = ""stim"" ><div class = red_square  id = ""bottomsquare"" ></div>",null,word_square,response,0,none,true,,,
html-keyboard-response,63,108082,null,"ENTERTAINING",null,word,,,,,ENTERTAINING,,
html-keyboard-response,64,108371,288.65500004030764,"GRATEFUL<img id = ""stim"" ><div class = green_square id = ""topsquare"" ></div><img id = ""stim"" ><div class = green_square  id = ""bottomsquare"" ></div>",32,word_square,response,1,Space,true,,,
html-keyboard-response,65,109875,null,"GRATEFUL",null,word,,,,,GRATEFUL,,
html-keyboard-response,66,110387,null,"LOUD<img id = ""stim"" ><div class = red_square id = ""topsquare"" ></div><img id = ""stim"" ><div class = red_square  id = ""bottomsquare"" ></div>",null,word_square,response,0,none,true,,,
html-keyboard-response,67,111889,null,"LOUD",null,word,,,,,LOUD,,
html-keyboard-response,68,112185,294.5399999152869,"SMART<img id = ""stim"" ><div class = green_square id = ""topsquare"" ></div><img id = ""stim"" ><div class = green_square  id = ""bottomsquare"" ></div>",32,word_square,response,1,Space,true,,,
html-keyboard-response,69,113688,null,"SMART",null,word,,,,,SMART,,
html-keyboard-response,70,114084,394.5000001695007,"SMOOTH<img id = ""stim"" ><div class = green_square id = ""topsquare"" ></div><img id = ""stim"" ><div class = green_square  id = ""bottomsquare"" ></div>",32,word_square,response,1,Space,true,,,
html-keyboard-response,71,115585,null,"SMOOTH",null,word,,,,,SMOOTH,,
html-keyboard-response,72,116097,null,"DISHONEST<img id = ""stim"" ><div class = red_square id = ""topsquare"" ></div><img id = ""stim"" ><div class = red_square  id = ""bottomsquare"" ></div>",null,word_square,response,0,none,true,,,
html-keyboard-response,73,117598,null,"DISHONEST",null,word,,,,,DISHONEST,,
html-keyboard-response,74,118001,401.6549999359995,"WEALTHY<img id = ""stim"" ><div class = green_square id = ""topsquare"" ></div><img id = ""stim"" ><div class = green_square  id = ""bottomsquare"" ></div>",32,word_square,response,1,Space,true,,,
html-keyboard-response,75,119503,null,"WEALTHY",null,word,,,,,WEALTHY,,
html-keyboard-response,76,120005,null,"BEAUTIFUL<img id = ""stim"" ><div class = red_square id = ""topsquare"" ></div><img id = ""stim"" ><div class = red_square  id = ""bottomsquare"" ></div>",null,word_square,response,0,none,true,,,
html-keyboard-response,77,121507,null,"BEAUTIFUL",null,word,,,,,BEAUTIFUL,,
html-keyboard-response,78,122009,null,"DREARY<img id = ""stim"" ><div class = red_square id = ""topsquare"" ></div><img id = ""stim"" ><div class = red_square  id = ""bottomsquare"" ></div>",null,word_square,response,0,none,true,,,
html-keyboard-response,79,123512,null,"DREARY",null,word,,,,,DREARY,,
html-keyboard-response,80,123876,362.32500011101365,"PLAYFUL<img id = ""stim"" ><div class = green_square id = ""topsquare"" ></div><img id = ""stim"" ><div class = green_square  id = ""bottomsquare"" ></div>",32,word_square,response,1,Space,true,,,
html-keyboard-response,81,125378,null,"PLAYFUL",null,word,,,,,PLAYFUL,,
html-keyboard-response,82,127882,2503.209999995306,"<p> Good job! You responded correctly to 100% of the GREEN squares.</p>
                  <p>Be sure to keep your accuracy above 80%</p>
                  <p>Press any key to begin the math and recall sections. Thank you!</p>",32,,,,,,,,
call-function,83,127883,,"",,,,,,,,,
html-keyboard-response,84,127987,null,"",null,,,,,,,,
math-period,85,137336,17481.639999896288,"",,,,,,,,,1numpad
html-keyboard-response,86,137437,null,"",null,,,,,,,,
math-period,87,143562,11789.704999653623,"",,,,,,,,,2
html-keyboard-response,88,143665,null,"",null,,,,,,,,
math-period,89,148460,8674.409999977797,"",,,,,,,,,5
html-keyboard-response,90,148563,null,"",null,,,,,,,,
math-period,91,151228,4970.294999890029,"",,,,,,,,,3
html-keyboard-response,92,151332,null,"",null,,,,,,,,
math-period,93,151884,null,"",,,,,,,,,
html-keyboard-response,94,152887,null,"Recall Period!",null,,,,,,,,
call-function,95,152887,,"",,,,,,,,,
html-keyboard-response,96,152989,null,"",null,,,,,,,,
recall-period,97,157499,21859.955000225455,"",,,,,,,,,happy
html-keyboard-response,98,157602,null,"",null,,,,,,,,
recall-period,99,158621,1017.4750001169741,"",,,,,,,,,
html-keyboard-response,100,158722,null,"",null,,,,,,,,
recall-period,101,160407,5981.330000329763,"",,,,,,,,,scary
html-keyboard-response,102,160517,null,"",null,,,,,,,,
recall-period,103,165530,36012.40000012331,"",,,,,,,,,peaceful
html-keyboard-response,104,165631,null,"",null,,,,,,,,
recall-period,105,177136,63990.87999947369,"",,,,,,,,,tired
html-keyboard-response,106,177237,null,"",null,,,,,,,,
recall-period,107,182948,51890.00999904238,"",,,,,,,,,entertained
html-keyboard-response,108,183049,null,"",null,,,,,,,,
recall-period,109,227889,44617.855000076815,"",,,,,,,,, 
html-keyboard-response,110,228392,null,"Time's Up!",null,,,,,,,,
html-keyboard-response,111,441270,212875.71499985643,"<p>We will now begin the experiment!<p><p>Please try to remember all words from each list.<p><p>Press the spacebar whenever you see a GREEN square.<p><p><p><p>Press the spacebar to begin.</p>",32,,,,,,,,
html-keyboard-response,112,445954,4181.184999877587,"<div style=""font-size:48px;"">Press any key to begin list 1 of 24 </div>",32,,,,,,,,
html-keyboard-response,113,448458,null,"<div style=""font-size:60px;"">+</div>",null,,,,,,,,
html-keyboard-response,114,448912,452.9150000307709,"TULIP<img id = ""stim"" ><div class = green_square id = ""topsquare"" ></div><img id = ""stim"" ><div class = green_square  id = ""bottomsquare"" ></div>",32,word_square,response,1,Space,true,,,
html-keyboard-response,115,450414,null,"TULIP",null,word,,,,, 'TULIP',,
html-keyboard-response,116,450918,null,"SPOUSE<img id = ""stim"" ><div class = red_square id = ""topsquare"" ></div><img id = ""stim"" ><div class = red_square  id = ""bottomsquare"" ></div>",null,word_square,response,0,none,true,,,
html-keyboard-response,117,452419,null,"SPOUSE",null,word,,,,, 'SPOUSE',,
html-keyboard-response,118,452929,null,"WIDOW<img id = ""stim"" ><div class = red_square id = ""topsquare"" ></div><img id = ""stim"" ><div class = red_square  id = ""bottomsquare"" ></div>",null,word_square,response,0,none,true,,,
html-keyboard-response,119,454430,null,"WIDOW",null,word,,,,, 'WIDOW',,
html-keyboard-response,120,454799,367.05000000074506,"DAISY<img id = ""stim"" ><div class = green_square id = ""topsquare"" ></div><img id = ""stim"" ><div class = green_square  id = ""bottomsquare"" ></div>",32,word_square,response,1,Space,true,,,
html-keyboard-response,121,456300,null,"DAISY",null,word,,,,, 'DAISY',,
html-keyboard-response,122,456803,null,"SNOB<img id = ""stim"" ><div class = red_square id = ""topsquare"" ></div><img id = ""stim"" ><div class = red_square  id = ""bottomsquare"" ></div>",null,word_square,response,0,none,true,,,
html-keyboard-response,123,458306,null,"SNOB",null,word,,,,, 'SNOB',,
html-keyboard-response,124,458808,null,"CACTUS<img id = ""stim"" ><div class = red_square id = ""topsquare"" ></div><img id = ""stim"" ><div class = red_square  id = ""bottomsquare"" ></div>",null,word_square,response,0,none,true,,,
html-keyboard-response,125,460310,null,"CACTUS",null,word,,,,, 'CACTUS',,
html-keyboard-response,126,460812,null,"MARROW<img id = ""stim"" ><div class = green_square id = ""topsquare"" ></div><img id = ""stim"" ><div class = green_square  id = ""bottomsquare"" ></div>",null,word_square,response,1,Space,false,,,
html-keyboard-response,127,462313,null,"MARROW",null,word,,,,, 'MARROW',,
html-keyboard-response,128,462815,null,"MAILMAN<img id = ""stim"" ><div class = red_square id = ""topsquare"" ></div><img id = ""stim"" ><div class = red_square  id = ""bottomsquare"" ></div>",null,word_square,response,0,none,true,,,
html-keyboard-response,129,464318,null,"MAILMAN",null,word,,,,, 'MAILMAN',,
html-keyboard-response,130,464625,305.48500013537705,"BISON<img id = ""stim"" ><div class = green_square id = ""topsquare"" ></div><img id = ""stim"" ><div class = green_square  id = ""bottomsquare"" ></div>",32,word_square,response,1,Space,true,,,
html-keyboard-response,131,466127,null,"BISON",null,word,,,,, 'BISON',,
html-keyboard-response,132,466629,null,"BATHROOM<img id = ""stim"" ><div class = red_square id = ""topsquare"" ></div><img id = ""stim"" ><div class = red_square  id = ""bottomsquare"" ></div>",null,word_square,response,0,none,true,,,
html-keyboard-response,133,468131,null,"BATHROOM",null,word,,,,, 'BATHROOM',,
html-keyboard-response,134,468632,null,"FIELD<img id = ""stim"" ><div class = red_square id = ""topsquare"" ></div><img id = ""stim"" ><div class = red_square  id = ""bottomsquare"" ></div>",null,word_square,response,0,none,true,,,
html-keyboard-response,135,470135,null,"FIELD",null,word,,,,, 'FIELD',,
html-keyboard-response,136,470456,320.5150000285357,"RODENT<img id = ""stim"" ><div class = green_square id = ""topsquare"" ></div><img id = ""stim"" ><div class = green_square  id = ""bottomsquare"" ></div>",32,word_square,response,1,Space,true,,,
html-keyboard-response,137,471958,null,"RODENT",null,word,,,,, 'RODENT',,
html-keyboard-response,138,472460,null,"BACKBONE<img id = ""stim"" ><div class = red_square id = ""topsquare"" ></div><img id = ""stim"" ><div class = red_square  id = ""bottomsquare"" ></div>",null,word_square,response,0,none,true,,,
html-keyboard-response,139,473961,null,"BACKBONE",null,word,,,,, 'BACKBONE',,
html-keyboard-response,140,474307,344.95999990031123,"OFFICE<img id = ""stim"" ><div class = green_square id = ""topsquare"" ></div><img id = ""stim"" ><div class = green_square  id = ""bottomsquare"" ></div>",32,word_square,response,1,Space,true,,,
html-keyboard-response,141,475809,null,"OFFICE",null,word,,,,, 'OFFICE',,
html-keyboard-response,142,476311,null,"TYPIST<img id = ""stim"" ><div class = red_square id = ""topsquare"" ></div><img id = ""stim"" ><div class = red_square  id = ""bottomsquare"" ></div>",null,word_square,response,0,none,true,,,
html-keyboard-response,143,477812,null,"TYPIST",null,word,,,,, 'TYPIST',,
html-keyboard-response,144,478200,387.0250000618398,"SUITCASE<img id = ""stim"" ><div class = green_square id = ""topsquare"" ></div><img id = ""stim"" ><div class = green_square  id = ""bottomsquare"" ></div>",32,word_square,response,1,Space,true,,,
html-keyboard-response,145,479715,null,"SUITCASE",null,word,,,,, 'SUITCASE',,
html-keyboard-response,146,480054,337.8800000064075,"KNAPSACK<img id = ""stim"" ><div class = green_square id = ""topsquare"" ></div><img id = ""stim"" ><div class = green_square  id = ""bottomsquare"" ></div>",32,word_square,response,1,Space,true,,,
html-keyboard-response,147,481556,null,"KNAPSACK",null,word,,,,, 'KNAPSACK',,
html-keyboard-response,148,481937,380.2749998867512,"LOBSTER<img id = ""stim"" ><div class = green_square id = ""topsquare"" ></div><img id = ""stim"" ><div class = green_square  id = ""bottomsquare"" ></div>",32,word_square,response,1,Space,true,,,
html-keyboard-response,149,483439,null,"LOBSTER",null,word,,,,, 'LOBSTER',,
call-function,150,483440,,"",,,,,,,,,
html-keyboard-response,151,483541,null,"",null,,,,,,,,
math-period,152,493878,20321.56000030227,"",,,,,,,,,1
html-keyboard-response,153,493984,null,"",null,,,,,,,,
math-period,154,496272,4190.585000207648,"",,,,,,,,,2
html-keyboard-response,155,496373,null,"",null,,,,,,,,
math-period,156,497766,2597.230000188574,"",,,,,,,,,2
html-keyboard-response,157,497870,null,"",null,,,,,,,,
math-period,158,499838,3894.940000027418,"",,,,,,,,,5
html-keyboard-response,159,499940,null,"",null,,,,,,,,
math-period,160,505124,37107.1850003209,"",,,,,,,,,1
html-keyboard-response,161,505225,null,"",null,,,,,,,,
math-period,162,507442,null,"",,,,,,,,,
html-keyboard-response,163,508444,null,"Recall Period!",null,,,,,,,,
call-function,164,508444,,"",,,,,,,,,
html-keyboard-response,165,508546,null,"",null,,,,,,,,
recall-period,166,514528,11308.524999767542,"",,,,,,,,, 
html-keyboard-response,167,514630,null,"",null,,,,,,,,
recall-period,168,517144,11634.025000501424,"",,,,,,,,,tulip
html-keyboard-response,169,517247,null,"",null,,,,,,,,
recall-period,170,517751,502.5950002018362,"",,,,,,,,,
html-keyboard-response,171,517863,null,"",null,,,,,,,,
recall-period,172,519429,7265.30999946408,"",,,,,,,,,spouse
html-keyboard-response,173,519530,null,"",null,,,,,,,,
recall-period,174,521723,9938.435000134632,"",,,,,,,,,daisy
html-keyboard-response,175,521824,null,"",null,,,,,,,,
recall-period,176,522749,3835.64499928616,"",,,,,,,,,marrow
html-keyboard-response,177,522851,null,"",null,,,,,,,,
recall-period,178,583445,null,"",,,,,,,,,
html-keyboard-response,179,583947,null,"Time's Up!",null,,,,,,,,
html-keyboard-response,180,602386,18436.985000036657,"<p> Good job! You responded correctly to 97% of the GREEN squares.</p>
                  <p>Be sure to keep your accuracy above 80%</p>
                  <p>Press any key to continue the experiment. Thank you!</p>",32,,,,,,,,
html-keyboard-response,181,603070,683.2749999593943,"<div style=""font-size:48px;"">Press any key to begin list 2 of 24 </div>",32,,,,,,,,
html-keyboard-response,182,605573,null,"<div style=""font-size:60px;"">+</div>",null,,,,,,,,
html-keyboard-response,183,605935,361.1099999397993,"BRIDGE<img id = ""stim"" ><div class = green_square id = ""topsquare"" ></div><img id = ""stim"" ><div class = green_square  id = ""bottomsquare"" ></div>",32,word_square,response,1,Space,true,,,
html-keyboard-response,184,607437,null,"BRIDGE",null,word,,,,, 'BRIDGE',,
html-keyboard-response,185,607855,417.6549999974668,"TRIGGER<img id = ""stim"" ><div class = red_square id = ""topsquare"" ></div><img id = ""stim"" ><div class = red_square  id = ""bottomsquare"" ></div>",32,word_square,response,0,none,false,,,
html-keyboard-response,186,609357,null,"TRIGGER",null,word,,,,, 'TRIGGER',,
html-keyboard-response,187,609858,null,"DRIVER<img id = ""stim"" ><div class = red_square id = ""topsquare"" ></div><img id = ""stim"" ><div class = red_square  id = ""bottomsquare"" ></div>",null,word_square,response,0,none,true,,,
html-keyboard-response,188,611360,null,"DRIVER",null,word,,,,, 'DRIVER',,
html-keyboard-response,189,611679,317.68500013276935,"PRINCESS<img id = ""stim"" ><div class = green_square id = ""topsquare"" ></div><img id = ""stim"" ><div class = green_square  id = ""bottomsquare"" ></div>",32,word_square,response,1,Space,true,,,
html-keyboard-response,190,613181,null,"PRINCESS",null,word,,,,, 'PRINCESS',,
html-keyboard-response,191,613682,null,"STREAM<img id = ""stim"" ><div class = red_square id = ""topsquare"" ></div><img id = ""stim"" ><div class = red_square  id = ""bottomsquare"" ></div>",null,word_square,response,0,none,true,,,
html-keyboard-response,192,615184,null,"STREAM",null,word,,,,, 'STREAM',,
html-keyboard-response,193,615686,null,"RUG<img id = ""stim"" ><div class = red_square id = ""topsquare"" ></div><img id = ""stim"" ><div class = red_square  id = ""bottomsquare"" ></div>",null,word_square,response,0,none,true,,,
html-keyboard-response,194,617189,null,"RUG",null,word,,,,, 'RUG',,
html-keyboard-response,195,617525,334.5049999188632,"TEAPOT<img id = ""stim"" ><div class = green_square id = ""topsquare"" ></div><img id = ""stim"" ><div class = green_square  id = ""bottomsquare"" ></div>",32,word_square,response,1,Space,true,,,
html-keyboard-response,196,619027,null,"TEAPOT",null,word,,,,, 'TEAPOT',,
html-keyboard-response,197,619529,null,"JUNGLE<img id = ""stim"" ><div class = red_square id = ""topsquare"" ></div><img id = ""stim"" ><div class = red_square  id = ""bottomsquare"" ></div>",null,word_square,response,0,none,true,,,
html-keyboard-response,198,621031,null,"JUNGLE",null,word,,,,, 'JUNGLE',,
html-keyboard-response,199,621391,359.8849999252707,"PRIMATE<img id = ""stim"" ><div class = green_square id = ""topsquare"" ></div><img id = ""stim"" ><div class = green_square  id = ""bottomsquare"" ></div>",32,word_square,response,1,Space,true,,,
html-keyboard-response,200,622894,null,"PRIMATE",null,word,,,,, 'PRIMATE',,
html-keyboard-response,201,623396,null,"CHAMPAGNE<img id = ""stim"" ><div class = red_square id = ""topsquare"" ></div><img id = ""stim"" ><div class = red_square  id = ""bottomsquare"" ></div>",null,word_square,response,0,none,true,,,
html-keyboard-response,202,624898,null,"CHAMPAGNE",null,word,,,,, 'CHAMPAGNE',,
html-keyboard-response,203,625399,null,"WRIST<img id = ""stim"" ><div class = red_square id = ""topsquare"" ></div><img id = ""stim"" ><div class = red_square  id = ""bottomsquare"" ></div>",null,word_square,response,0,none,true,,,
html-keyboard-response,204,626901,null,"WRIST",null,word,,,,, 'WRIST',,
html-keyboard-response,205,627210,308.76000015996397,"CLOCK<img id = ""stim"" ><div class = green_square id = ""topsquare"" ></div><img id = ""stim"" ><div class = green_square  id = ""bottomsquare"" ></div>",32,word_square,response,1,Space,true,,,
html-keyboard-response,206,628714,null,"CLOCK",null,word,,,,, 'CLOCK',,
html-keyboard-response,207,629216,null,"BUBBLE<img id = ""stim"" ><div class = red_square id = ""topsquare"" ></div><img id = ""stim"" ><div class = red_square  id = ""bottomsquare"" ></div>",null,word_square,response,0,none,true,,,
html-keyboard-response,208,630718,null,"BUBBLE",null,word,,,,, 'BUBBLE',,
html-keyboard-response,209,631128,408.7950000539422,"TIGER<img id = ""stim"" ><div class = green_square id = ""topsquare"" ></div><img id = ""stim"" ><div class = green_square  id = ""bottomsquare"" ></div>",32,word_square,response,1,Space,true,,,
html-keyboard-response,210,632630,null,"TIGER",null,word,,,,, 'TIGER',,
html-keyboard-response,211,633132,null,"NEPTUNE<img id = ""stim"" ><div class = red_square id = ""topsquare"" ></div><img id = ""stim"" ><div class = red_square  id = ""bottomsquare"" ></div>",null,word_square,response,0,none,true,,,
html-keyboard-response,212,634635,null,"NEPTUNE",null,word,,,,, 'NEPTUNE',,
html-keyboard-response,213,635136,null,"TILE<img id = ""stim"" ><div class = green_square id = ""topsquare"" ></div><img id = ""stim"" ><div class = green_square  id = ""bottomsquare"" ></div>",null,word_square,response,1,Space,false,,,
html-keyboard-response,214,636638,null,"TILE",null,word,,,,, 'TILE',,
html-keyboard-response,215,637140,null,"PORPOISE<img id = ""stim"" ><div class = green_square id = ""topsquare"" ></div><img id = ""stim"" ><div class = green_square  id = ""bottomsquare"" ></div>",null,word_square,response,1,Space,false,,,
html-keyboard-response,216,638643,null,"PORPOISE",null,word,,,,, 'PORPOISE',,
html-keyboard-response,217,639073,429.15500001981854,"ISLAND<img id = ""stim"" ><div class = green_square id = ""topsquare"" ></div><img id = ""stim"" ><div class = green_square  id = ""bottomsquare"" ></div>",32,word_square,response,1,Space,true,,,
html-keyboard-response,218,640586,null,"ISLAND",null,word,,,,, 'ISLAND',,
call-function,219,640587,,"",,,,,,,,,
html-keyboard-response,220,640688,null,"",null,,,,,,,,
math-period,221,644136,6424.7449999675155,"",,,,,,,,,2
html-keyboard-response,222,644237,null,"",null,,,,,,,,
math-period,223,645359,2050.5000001285225,"",,,,,,,,,1
html-keyboard-response,224,645467,null,"",null,,,,,,,,
math-period,225,647392,3665.3800001367927,"",,,,,,,,,1
html-keyboard-response,226,647494,null,"",null,,,,,,,,
math-period,227,649685,4212.0050000958145,"",,,,,,,,,0
html-keyboard-response,228,649793,null,"",null,,,,,,,,
math-period,229,651287,2832.9049998428673,"",,,,,,,,,`
html-keyboard-response,230,651390,null,"",null,,,,,,,,
math-period,231,653406,3895.314999856055,"",,,,,,,,,1
html-keyboard-response,232,653519,null,"",null,,,,,,,,
math-period,233,654968,2759.3350000679493,"",,,,,,,,,2
html-keyboard-response,234,655069,null,"",null,,,,,,,,
math-period,235,658104,10092.684999806806,"",,,,,,,,,2
html-keyboard-response,236,658205,null,"",null,,,,,,,,
math-period,237,659578,2627.8999999631196,"",,,,,,,,,1
html-keyboard-response,238,659681,null,"",null,,,,,,,,
math-period,239,661898,4268.2300000451505,"",,,,,,,,,4
html-keyboard-response,240,662000,null,"",null,,,,,,,,
math-period,241,663334,2501.2949998490512,"",,,,,,,,,3
html-keyboard-response,242,663436,null,"",null,,,,,,,,
math-period,243,664588,null,"",,,,,,,,,
html-keyboard-response,244,665590,null,"Recall Period!",null,,,,,,,,
call-function,245,665590,,"",,,,,,,,,
html-keyboard-response,246,665693,null,"",null,,,,,,,,
recall-period,247,668752,16449.855000711977,"",,,,,,,,,turtle
html-keyboard-response,248,668855,null,"",null,,,,,,,,
recall-period,249,673732,55945.71000151336,"",,,,,,,,,neptune
html-keyboard-response,250,673834,null,"",null,,,,,,,,
recall-period,251,677352,21990.995000116527,"",,,,,,,,,jungle
html-keyboard-response,252,677454,null,"",null,,,,,,,,
recall-period,253,740592,73587.6650006976,"",,,,,,,,,
html-keyboard-response,254,741094,null,"Time's Up!",null,,,,,,,,
html-keyboard-response,255,749998,8902.18500001356,"<p> Good job! You responded correctly to 93% of the GREEN squares.</p>
                  <p>Be sure to keep your accuracy above 80%</p>
                  <p>Press any key to continue the experiment. Thank you!</p>",32,,,,,,,,
html-keyboard-response,256,751729,1729.5849998481572,"<div style=""font-size:48px;"">Press any key to begin list 3 of 24 </div>",32,,,,,,,,
html-keyboard-response,257,754231,null,"<div style=""font-size:60px;"">+</div>",null,,,,,,,,
html-keyboard-response,258,754734,null,"RAISIN<img id = ""stim"" ><div class = red_square id = ""topsquare"" ></div><img id = ""stim"" ><div class = red_square  id = ""bottomsquare"" ></div>",null,word_square,response,0,none,true,,,
html-keyboard-response,259,756235,null,"RAISIN",null,word,,,,, 'RAISIN',,
html-keyboard-response,260,756548,311.46500003524125,"COLLEGE<img id = ""stim"" ><div class = green_square id = ""topsquare"" ></div><img id = ""stim"" ><div class = green_square  id = ""bottomsquare"" ></div>",32,word_square,response,1,Space,true,,,
html-keyboard-response,261,758049,null,"COLLEGE",null,word,,,,, 'COLLEGE',,
html-keyboard-response,262,758351,300.55500008165836,"POCKET<img id = ""stim"" ><div class = green_square id = ""topsquare"" ></div><img id = ""stim"" ><div class = green_square  id = ""bottomsquare"" ></div>",32,word_square,response,1,Space,true,,,
html-keyboard-response,263,759853,null,"POCKET",null,word,,,,, 'POCKET',,
html-keyboard-response,264,760354,null,"RESORT<img id = ""stim"" ><div class = red_square id = ""topsquare"" ></div><img id = ""stim"" ><div class = red_square  id = ""bottomsquare"" ></div>",null,word_square,response,0,none,true,,,
html-keyboard-response,265,761856,null,"RESORT",null,word,,,,, 'RESORT',,
html-keyboard-response,266,762265,407.68499998375773,"BUREAU<img id = ""stim"" ><div class = green_square id = ""topsquare"" ></div><img id = ""stim"" ><div class = green_square  id = ""bottomsquare"" ></div>",32,word_square,response,1,Space,true,,,
html-keyboard-response,267,763770,null,"BUREAU",null,word,,,,, 'BUREAU',,
html-keyboard-response,268,764119,348.2150000054389,"ATHLETE<img id = ""stim"" ><div class = green_square id = ""topsquare"" ></div><img id = ""stim"" ><div class = green_square  id = ""bottomsquare"" ></div>",32,word_square,response,1,Space,true,,,
html-keyboard-response,269,765622,null,"ATHLETE",null,word,,,,, 'ATHLETE',,
html-keyboard-response,270,766130,null,"SNACK<img id = ""stim"" ><div class = red_square id = ""topsquare"" ></div><img id = ""stim"" ><div class = red_square  id = ""bottomsquare"" ></div>",null,word_square,response,0,none,true,,,
html-keyboard-response,271,767632,null,"SNACK",null,word,,,,, 'SNACK',,
html-keyboard-response,272,767963,329.91499989293516,"MARKER<img id = ""stim"" ><div class = green_square id = ""topsquare"" ></div><img id = ""stim"" ><div class = green_square  id = ""bottomsquare"" ></div>",32,word_square,response,1,Space,true,,,
html-keyboard-response,273,769464,null,"MARKER",null,word,,,,, 'MARKER',,
html-keyboard-response,274,769966,null,"SHOELACE<img id = ""stim"" ><div class = red_square id = ""topsquare"" ></div><img id = ""stim"" ><div class = red_square  id = ""bottomsquare"" ></div>",null,word_square,response,0,none,true,,,
html-keyboard-response,275,771471,null,"SHOELACE",null,word,,,,, 'SHOELACE',,
html-keyboard-response,276,771727,254.5549999922514,"DORM<img id = ""stim"" ><div class = green_square id = ""topsquare"" ></div><img id = ""stim"" ><div class = green_square  id = ""bottomsquare"" ></div>",32,word_square,response,1,Space,true,,,
html-keyboard-response,277,773229,null,"DORM",null,word,,,,, 'DORM',,
html-keyboard-response,278,773536,305.580000160262,"ANTLER<img id = ""stim"" ><div class = green_square id = ""topsquare"" ></div><img id = ""stim"" ><div class = green_square  id = ""bottomsquare"" ></div>",32,word_square,response,1,Space,true,,,
html-keyboard-response,279,775038,null,"ANTLER",null,word,,,,, 'ANTLER',,
html-keyboard-response,280,775540,null,"APRON<img id = ""stim"" ><div class = red_square id = ""topsquare"" ></div><img id = ""stim"" ><div class = red_square  id = ""bottomsquare"" ></div>",null,word_square,response,0,none,true,,,
html-keyboard-response,281,777041,null,"APRON",null,word,,,,, 'APRON',,
html-keyboard-response,282,777331,288.1899999920279,"TEACHER<img id = ""stim"" ><div class = green_square id = ""topsquare"" ></div><img id = ""stim"" ><div class = green_square  id = ""bottomsquare"" ></div>",32,word_square,response,1,Space,true,,,
html-keyboard-response,283,778832,null,"TEACHER",null,word,,,,, 'TEACHER',,
html-keyboard-response,284,779335,null,"STUDENT<img id = ""stim"" ><div class = red_square id = ""topsquare"" ></div><img id = ""stim"" ><div class = red_square  id = ""bottomsquare"" ></div>",null,word_square,response,0,none,true,,,
html-keyboard-response,285,780837,null,"STUDENT",null,word,,,,, 'STUDENT',,
html-keyboard-response,286,781154,316.2849999498576,"CAFE<img id = ""stim"" ><div class = green_square id = ""topsquare"" ></div><img id = ""stim"" ><div class = green_square  id = ""bottomsquare"" ></div>",32,word_square,response,1,Space,true,,,
html-keyboard-response,287,782656,null,"CAFE",null,word,,,,, 'CAFE',,
html-keyboard-response,288,783159,null,"WARDROBE<img id = ""stim"" ><div class = red_square id = ""topsquare"" ></div><img id = ""stim"" ><div class = red_square  id = ""bottomsquare"" ></div>",null,word_square,response,0,none,true,,,
html-keyboard-response,289,784661,null,"WARDROBE",null,word,,,,, 'WARDROBE',,
html-keyboard-response,290,785163,null,"COSTUME<img id = ""stim"" ><div class = red_square id = ""topsquare"" ></div><img id = ""stim"" ><div class = red_square  id = ""bottomsquare"" ></div>",null,word_square,response,0,none,true,,,
html-keyboard-response,291,786665,null,"COSTUME",null,word,,,,, 'COSTUME',,
html-keyboard-response,292,787168,null,"PORCH<img id = ""stim"" ><div class = red_square id = ""topsquare"" ></div><img id = ""stim"" ><div class = red_square  id = ""bottomsquare"" ></div>",null,word_square,response,0,none,true,,,
html-keyboard-response,293,788669,null,"PORCH",null,word,,,,, 'PORCH',,
call-function,294,788670,,"",,,,,,,,,
html-keyboard-response,295,788773,null,"",null,,,,,,,,
math-period,296,791982,5848.065000027418,"",,,,,,,,,3
html-keyboard-response,297,792087,null,"",null,,,,,,,,
math-period,298,793811,3171.6299999970943,"",,,,,,,,,5
html-keyboard-response,299,793921,null,"",null,,,,,,,,
math-period,300,795008,2007.1850002277642,"",,,,,,,,,5
html-keyboard-response,301,795110,null,"",null,,,,,,,,
math-period,302,796759,3111.3399998284876,"",,,,,,,,,1
html-keyboard-response,303,796860,null,"",null,,,,,,,,
math-period,304,798297,2603.7149999756366,"",,,,,,,,,5
html-keyboard-response,305,798400,null,"",null,,,,,,,,
math-period,306,799810,2613.920000148937,"",,,,,,,,,2
html-keyboard-response,307,799911,null,"",null,,,,,,,,
math-period,308,801143,2281.1199999414384,"",,,,,,,,,5
html-keyboard-response,309,801245,null,"",null,,,,,,,,
math-period,310,802545,2295.529999770224,"",,,,,,,,,1
html-keyboard-response,311,802647,null,"",null,,,,,,,,
math-period,312,803515,1582.2750001680106,"",,,,,,,,,5
html-keyboard-response,313,803617,null,"",null,,,,,,,,
math-period,314,804781,2021.1299997754395,"",,,,,,,,,3
html-keyboard-response,315,804888,null,"",null,,,,,,,,
math-period,316,805811,1637.224999954924,"",,,,,,,,,5
html-keyboard-response,317,805912,null,"",null,,,,,,,,
math-period,318,807285,2504.054999910295,"",,,,,,,,,1
html-keyboard-response,319,807399,null,"",null,,,,,,,,
math-period,320,808562,2017.6649999339134,"",,,,,,,,,3
html-keyboard-response,321,808671,null,"",null,,,,,,,,
math-period,322,811227,8425.164999673143,"",,,,,,,,,2
html-keyboard-response,323,811328,null,"",null,,,,,,,,
math-period,324,812387,2007.9499997664243,"",,,,,,,,,2
html-keyboard-response,325,812488,null,"",null,,,,,,,,
math-period,326,812672,null,"",,,,,,,,,
html-keyboard-response,327,813673,null,"Recall Period!",null,,,,,,,,
call-function,328,813674,,"",,,,,,,,,
html-keyboard-response,329,813776,null,"",null,,,,,,,,
recall-period,330,888675,829321.6549986973,"",,,,,,,,,
html-keyboard-response,331,889176,null,"Time's Up!",null,,,,,,,,
html-keyboard-response,332,1337864,448685.5800000485,"<p> Good job! You responded correctly to 94% of the GREEN squares.</p>
                  <p>Be sure to keep your accuracy above 80%</p>
                  <p>Press any key to continue the experiment. Thank you!</p>",32,,,,,,,,
html-keyboard-response,333,1338243,377.32500000856817,"<div style=""font-size:48px;"">Press any key to begin list 4 of 24 </div>",32,,,,,,,,
html-keyboard-response,334,1340745,null,"<div style=""font-size:60px;"">+</div>",null,,,,,,,,
html-keyboard-response,335,1341248,null,"TROMBONE<img id = ""stim"" ><div class = red_square id = ""topsquare"" ></div><img id = ""stim"" ><div class = red_square  id = ""bottomsquare"" ></div>",null,word_square,response,0,none,true,,,
html-keyboard-response,336,1342751,null,"TROMBONE",null,word,,,,, 'TROMBONE',,
html-keyboard-response,337,1343094,341.7349997907877,"PEACH<img id = ""stim"" ><div class = green_square id = ""topsquare"" ></div><img id = ""stim"" ><div class = green_square  id = ""bottomsquare"" ></div>",32,word_square,response,1,Space,true,,,
html-keyboard-response,338,1344596,null,"PEACH",null,word,,,,, 'PEACH',,
html-keyboard-response,339,1344950,352.98499977216125,"CLOSET<img id = ""stim"" ><div class = green_square id = ""topsquare"" ></div><img id = ""stim"" ><div class = green_square  id = ""bottomsquare"" ></div>",32,word_square,response,1,Space,true,,,
html-keyboard-response,340,1346454,null,"CLOSET",null,word,,,,, 'CLOSET',,
html-keyboard-response,341,1346965,null,"SWITCH<img id = ""stim"" ><div class = red_square id = ""topsquare"" ></div><img id = ""stim"" ><div class = red_square  id = ""bottomsquare"" ></div>",null,word_square,response,0,none,true,,,
html-keyboard-response,342,1348467,null,"SWITCH",null,word,,,,, 'SWITCH',,
html-keyboard-response,343,1348776,308.1799999345094,"MATCH<img id = ""stim"" ><div class = green_square id = ""topsquare"" ></div><img id = ""stim"" ><div class = green_square  id = ""bottomsquare"" ></div>",32,word_square,response,1,Space,true,,,
html-keyboard-response,344,1350278,null,"MATCH",null,word,,,,, 'MATCH',,
html-keyboard-response,345,1350690,410.3699999395758,"WINGS<img id = ""stim"" ><div class = green_square id = ""topsquare"" ></div><img id = ""stim"" ><div class = green_square  id = ""bottomsquare"" ></div>",32,word_square,response,1,Space,true,,,
html-keyboard-response,346,1352192,null,"WINGS",null,word,,,,, 'WINGS',,
html-keyboard-response,347,1352694,null,"CRADLE<img id = ""stim"" ><div class = red_square id = ""topsquare"" ></div><img id = ""stim"" ><div class = red_square  id = ""bottomsquare"" ></div>",null,word_square,response,0,none,true,,,
html-keyboard-response,348,1354196,null,"CRADLE",null,word,,,,, 'CRADLE',,
html-keyboard-response,349,1354524,326.94000005722046,"VELVET<img id = ""stim"" ><div class = green_square id = ""topsquare"" ></div><img id = ""stim"" ><div class = green_square  id = ""bottomsquare"" ></div>",32,word_square,response,1,Space,true,,,
html-keyboard-response,350,1356026,null,"VELVET",null,word,,,,, 'VELVET',,
html-keyboard-response,351,1356529,null,"BRANDY<img id = ""stim"" ><div class = red_square id = ""topsquare"" ></div><img id = ""stim"" ><div class = red_square  id = ""bottomsquare"" ></div>",null,word_square,response,0,none,true,,,
html-keyboard-response,352,1358030,null,"BRANDY",null,word,,,,, 'BRANDY',,
html-keyboard-response,353,1358293,261.97000010870397,"DRINK<img id = ""stim"" ><div class = green_square id = ""topsquare"" ></div><img id = ""stim"" ><div class = green_square  id = ""bottomsquare"" ></div>",32,word_square,response,1,Space,true,,,
html-keyboard-response,354,1359795,null,"DRINK",null,word,,,,, 'DRINK',,
html-keyboard-response,355,1360211,414.6300000138581,"SKUNK<img id = ""stim"" ><div class = green_square id = ""topsquare"" ></div><img id = ""stim"" ><div class = green_square  id = ""bottomsquare"" ></div>",32,word_square,response,1,Space,true,,,
html-keyboard-response,356,1361713,null,"SKUNK",null,word,,,,, 'SKUNK',,
html-keyboard-response,357,1362215,null,"CROOK<img id = ""stim"" ><div class = red_square id = ""topsquare"" ></div><img id = ""stim"" ><div class = red_square  id = ""bottomsquare"" ></div>",null,word_square,response,0,none,true,,,
html-keyboard-response,358,1363717,null,"CROOK",null,word,,,,, 'CROOK',,
html-keyboard-response,359,1364052,334.01500014588237,"BEEF<img id = ""stim"" ><div class = green_square id = ""topsquare"" ></div><img id = ""stim"" ><div class = green_square  id = ""bottomsquare"" ></div>",32,word_square,response,1,Space,true,,,
html-keyboard-response,360,1365554,null,"BEEF",null,word,,,,, 'BEEF',,
html-keyboard-response,361,1366056,null,"DUST<img id = ""stim"" ><div class = red_square id = ""topsquare"" ></div><img id = ""stim"" ><div class = red_square  id = ""bottomsquare"" ></div>",null,word_square,response,0,none,true,,,
html-keyboard-response,362,1367558,null,"DUST",null,word,,,,, 'DUST',,
html-keyboard-response,363,1368056,496.97499978356063,"SIRLOIN<img id = ""stim"" ><div class = green_square id = ""topsquare"" ></div><img id = ""stim"" ><div class = green_square  id = ""bottomsquare"" ></div>",32,word_square,response,1,Space,true,,,
html-keyboard-response,364,1369557,null,"SIRLOIN",null,word,,,,, 'SIRLOIN',,
html-keyboard-response,365,1370058,null,"FLESH<img id = ""stim"" ><div class = red_square id = ""topsquare"" ></div><img id = ""stim"" ><div class = red_square  id = ""bottomsquare"" ></div>",null,word_square,response,0,none,true,,,
html-keyboard-response,366,1371561,null,"FLESH",null,word,,,,, 'FLESH',,
html-keyboard-response,367,1372063,null,"MEDAL<img id = ""stim"" ><div class = red_square id = ""topsquare"" ></div><img id = ""stim"" ><div class = red_square  id = ""bottomsquare"" ></div>",null,word_square,response,0,none,true,,,
html-keyboard-response,368,1373564,null,"MEDAL",null,word,,,,, 'MEDAL',,
html-keyboard-response,369,1374067,null,"GUITAR<img id = ""stim"" ><div class = red_square id = ""topsquare"" ></div><img id = ""stim"" ><div class = red_square  id = ""bottomsquare"" ></div>",null,word_square,response,0,none,true,,,
html-keyboard-response,370,1375570,null,"GUITAR",null,word,,,,, 'GUITAR',,
call-function,371,1375571,,"",,,,,,,,,
html-keyboard-response,372,1375673,null,"",null,,,,,,,,
math-period,373,1380097,8065.364999929443,"",,,,,,,,,2
html-keyboard-response,374,1380199,null,"",null,,,,,,,,
math-period,375,1381147,1786.1500000581145,"",,,,,,,,,2
html-keyboard-response,376,1381249,null,"",null,,,,,,,,
math-period,377,1384221,9329.154999693856,"",,,,,,,,,4
html-keyboard-response,378,1384323,null,"",null,,,,,,,,
math-period,379,1385790,2625.9300000965595,"",,,,,,,,,2
html-keyboard-response,380,1385907,null,"",null,,,,,,,,
math-period,381,1386592,1207.3549998458475,"",,,,,,,,,2
html-keyboard-response,382,1386693,null,"",null,,,,,,,,
math-period,383,1387811,2028.5300000105053,"",,,,,,,,,3
html-keyboard-response,384,1387916,null,"",null,,,,,,,,
math-period,385,1389542,3026.875000214204,"",,,,,,,,,2
html-keyboard-response,386,1389643,null,"",null,,,,,,,,
math-period,387,1390949,2393.274999689311,"",,,,,,,,,4
html-keyboard-response,388,1391051,null,"",null,,,,,,,,
math-period,389,1393537,4766.084999777377,"",,,,,,,,,0
html-keyboard-response,390,1393639,null,"",null,,,,,,,,
math-period,391,1399572,null,"",,,,,,,,,
html-keyboard-response,392,1400574,null,"Recall Period!",null,,,,,,,,
call-function,393,1400574,,"",,,,,,,,,
html-keyboard-response,394,1400676,null,"",null,,,,,,,,
recall-period,395,1409348,49575.32999943942,"",,,,,,,,,peach
html-keyboard-response,396,1409449,null,"",null,,,,,,,,
recall-period,397,1410951,7852.200000779703,"",,,,,,,,,Closet
html-keyboard-response,398,1411053,null,"",null,,,,,,,,
recall-period,399,1411811,756.2949999701232,"",,,,,,,,,
html-keyboard-response,400,1411912,null,"",null,,,,,,,,
recall-period,401,1413773,8839.735000394285,"",,,,,,,,,switch
html-keyboard-response,402,1413883,null,"",null,,,,,,,,
recall-period,403,1475576,null,"",,,,,,,,,
html-keyboard-response,404,1476077,null,"Time's Up!",null,,,,,,,,
html-keyboard-response,405,1498635,22554.059999994934,"<p> Good job! You responded correctly to 96% of the GREEN squares.</p>
                  <p>Be sure to keep your accuracy above 80%</p>
                  <p>Press any key to continue the experiment. Thank you!</p>",32,,,,,,,,
html-keyboard-response,406,1504519,5883.374999975786,"<div style=""font-size:48px;"">Press any key to begin list 5 of 24 </div>",32,,,,,,,,
html-keyboard-response,407,1507022,null,"<div style=""font-size:60px;"">+</div>",null,,,,,,,,
html-keyboard-response,408,1507411,387.48999987728894,"DRUG<img id = ""stim"" ><div class = green_square id = ""topsquare"" ></div><img id = ""stim"" ><div class = green_square  id = ""bottomsquare"" ></div>",32,word_square,response,1,Space,true,,,
html-keyboard-response,409,1508914,null,"DRUG",null,word,,,,, 'DRUG',,
html-keyboard-response,410,1509267,351.74000007100403,"CREVICE<img id = ""stim"" ><div class = green_square id = ""topsquare"" ></div><img id = ""stim"" ><div class = green_square  id = ""bottomsquare"" ></div>",32,word_square,response,1,Space,true,,,
html-keyboard-response,411,1510768,null,"CREVICE",null,word,,,,, 'CREVICE',,
html-keyboard-response,412,1511126,356.92499997094274,"GRAVEL<img id = ""stim"" ><div class = green_square id = ""topsquare"" ></div><img id = ""stim"" ><div class = green_square  id = ""bottomsquare"" ></div>",32,word_square,response,1,Space,true,,,
html-keyboard-response,413,1512628,null,"GRAVEL",null,word,,,,, 'GRAVEL',,
html-keyboard-response,414,1513129,null,"CLIMBER<img id = ""stim"" ><div class = red_square id = ""topsquare"" ></div><img id = ""stim"" ><div class = red_square  id = ""bottomsquare"" ></div>",null,word_square,response,0,none,true,,,
html-keyboard-response,415,1514631,null,"CLIMBER",null,word,,,,, 'CLIMBER',,
html-keyboard-response,416,1515133,null,"PICTURE<img id = ""stim"" ><div class = green_square id = ""topsquare"" ></div><img id = ""stim"" ><div class = green_square  id = ""bottomsquare"" ></div>",null,word_square,response,1,Space,false,,,
html-keyboard-response,417,1516635,null,"PICTURE",null,word,,,,, 'PICTURE',,
html-keyboard-response,418,1517146,null,"PORTRAIT<img id = ""stim"" ><div class = red_square id = ""topsquare"" ></div><img id = ""stim"" ><div class = red_square  id = ""bottomsquare"" ></div>",null,word_square,response,0,none,true,,,
html-keyboard-response,419,1518648,null,"PORTRAIT",null,word,,,,, 'PORTRAIT',,
html-keyboard-response,420,1518961,311.8800001684576,"CRITIC<img id = ""stim"" ><div class = green_square id = ""topsquare"" ></div><img id = ""stim"" ><div class = green_square  id = ""bottomsquare"" ></div>",32,word_square,response,1,Space,true,,,
html-keyboard-response,421,1520463,null,"CRITIC",null,word,,,,, 'CRITIC',,
html-keyboard-response,422,1520964,null,"PENCIL<img id = ""stim"" ><div class = red_square id = ""topsquare"" ></div><img id = ""stim"" ><div class = red_square  id = ""bottomsquare"" ></div>",null,word_square,response,0,none,true,,,
html-keyboard-response,423,1522467,null,"PENCIL",null,word,,,,, 'PENCIL',,
html-keyboard-response,424,1522969,null,"QUILT<img id = ""stim"" ><div class = red_square id = ""topsquare"" ></div><img id = ""stim"" ><div class = red_square  id = ""bottomsquare"" ></div>",null,word_square,response,0,none,true,,,
html-keyboard-response,425,1524471,null,"QUILT",null,word,,,,, 'QUILT',,
html-keyboard-response,426,1524742,270.09499981068075,"SUSPECT<img id = ""stim"" ><div class = green_square id = ""topsquare"" ></div><img id = ""stim"" ><div class = green_square  id = ""bottomsquare"" ></div>",32,word_square,response,1,Space,true,,,
html-keyboard-response,427,1526244,null,"SUSPECT",null,word,,,,, 'SUSPECT',,
html-keyboard-response,428,1526746,null,"PATROL<img id = ""stim"" ><div class = red_square id = ""topsquare"" ></div><img id = ""stim"" ><div class = red_square  id = ""bottomsquare"" ></div>",null,word_square,response,0,none,true,,,
html-keyboard-response,429,1528249,null,"PATROL",null,word,,,,, 'PATROL',,
html-keyboard-response,430,1528576,325.98999980837107,"RACCOON<img id = ""stim"" ><div class = green_square id = ""topsquare"" ></div><img id = ""stim"" ><div class = green_square  id = ""bottomsquare"" ></div>",32,word_square,response,1,Space,true,,,
html-keyboard-response,431,1530079,null,"RACCOON",null,word,,,,, 'RACCOON',,
html-keyboard-response,432,1530581,null,"LADDER<img id = ""stim"" ><div class = red_square id = ""topsquare"" ></div><img id = ""stim"" ><div class = red_square  id = ""bottomsquare"" ></div>",null,word_square,response,0,none,true,,,
html-keyboard-response,433,1532083,null,"LADDER",null,word,,,,, 'LADDER',,
html-keyboard-response,434,1532585,null,"GARAGE<img id = ""stim"" ><div class = red_square id = ""topsquare"" ></div><img id = ""stim"" ><div class = red_square  id = ""bottomsquare"" ></div>",null,word_square,response,0,none,true,,,
html-keyboard-response,435,1534087,null,"GARAGE",null,word,,,,, 'GARAGE',,
html-keyboard-response,436,1534394,305.9000000357628,"KITTEN<img id = ""stim"" ><div class = green_square id = ""topsquare"" ></div><img id = ""stim"" ><div class = green_square  id = ""bottomsquare"" ></div>",32,word_square,response,1,Space,true,,,
html-keyboard-response,437,1535897,null,"KITTEN",null,word,,,,, 'KITTEN',,
html-keyboard-response,438,1536398,null,"HOOK<img id = ""stim"" ><div class = red_square id = ""topsquare"" ></div><img id = ""stim"" ><div class = red_square  id = ""bottomsquare"" ></div>",null,word_square,response,0,none,true,,,
html-keyboard-response,439,1537900,null,"HOOK",null,word,,,,, 'HOOK',,
html-keyboard-response,440,1538402,null,"HEEL<img id = ""stim"" ><div class = red_square id = ""topsquare"" ></div><img id = ""stim"" ><div class = red_square  id = ""bottomsquare"" ></div>",null,word_square,response,0,none,true,,,
html-keyboard-response,441,1539904,null,"HEEL",null,word,,,,, 'HEEL',,
html-keyboard-response,442,1540231,324.98499983921647,"PASTA<img id = ""stim"" ><div class = green_square id = ""topsquare"" ></div><img id = ""stim"" ><div class = green_square  id = ""bottomsquare"" ></div>",32,word_square,response,1,Space,true,,,
html-keyboard-response,443,1541732,null,"PASTA",null,word,,,,, 'PASTA',,
call-function,444,1541732,,"",,,,,,,,,
html-keyboard-response,445,1541833,null,"",null,,,,,,,,
math-period,446,1544686,5239.074999699369,"",,,,,,,,,1
html-keyboard-response,447,1544788,null,"",null,,,,,,,,
math-period,448,1545930,2129.729999927804,"",,,,,,,,,4
html-keyboard-response,449,1546032,null,"",null,,,,,,,,
math-period,450,1548187,4158.480000216514,"",,,,,,,,,0
html-keyboard-response,451,1548301,null,"",null,,,,,,,,
math-period,452,1550258,3572.029999922961,"",,,,,,,,,4
html-keyboard-response,453,1550360,null,"",null,,,,,,,,
math-period,454,1551957,2977.750000078231,"",,,,,,,,,4
html-keyboard-response,455,1552066,null,"",null,,,,,,,,
math-period,456,1553759,3218.584999907762,"",,,,,,,,,2
html-keyboard-response,457,1553861,null,"",null,,,,,,,,
math-period,458,1555801,3709.9449997767806,"",,,,,,,,,4
html-keyboard-response,459,1555902,null,"",null,,,,,,,,
math-period,460,1557360,2781.764999963343,"",,,,,,,,,5
html-keyboard-response,461,1557462,null,"",null,,,,,,,,
math-period,462,1559078,3049.0900001022965,"",,,,,,,,,4
html-keyboard-response,463,1559189,null,"",null,,,,,,,,
math-period,464,1562006,5511.775000020862,"",,,,,,,,,0
html-keyboard-response,465,1562107,null,"",null,,,,,,,,
math-period,466,1565733,null,"",,,,,,,,,
html-keyboard-response,467,1566736,null,"Recall Period!",null,,,,,,,,
call-function,468,1566737,,"",,,,,,,,,
html-keyboard-response,469,1566839,null,"",null,,,,,,,,
recall-period,470,1607038,239119.4550001528,"",,,,,,,,,peach
html-keyboard-response,471,1607139,null,"",null,,,,,,,,
recall-period,472,1641748,null,"",,,,,,,,,
html-keyboard-response,473,1642251,null,"Time's Up!",null,,,,,,,,
html-keyboard-response,474,1643406,1153.649999992922,"<p> Good job! You responded correctly to 95% of the GREEN squares.</p>
                  <p>Be sure to keep your accuracy above 80%</p>
                  <p>Press any key to continue the experiment. Thank you!</p>",32,,,,,,,,
html-keyboard-response,475,1644180,772.6000000257045,"<div style=""font-size:48px;"">Press any key to begin list 6 of 24 </div>",32,,,,,,,,
html-keyboard-response,476,1646682,null,"<div style=""font-size:60px;"">+</div>",null,,,,,,,,
html-keyboard-response,477,1647072,388.67999985814095,"SCULPTURE<img id = ""stim"" ><div class = green_square id = ""topsquare"" ></div><img id = ""stim"" ><div class = green_square  id = ""bottomsquare"" ></div>",32,word_square,response,1,Space,true,,,
html-keyboard-response,478,1648574,null,"SCULPTURE",null,word,,,,, 'SCULPTURE',,
html-keyboard-response,479,1648999,424.49999996460974,"TERMITE<img id = ""stim"" ><div class = green_square id = ""topsquare"" ></div><img id = ""stim"" ><div class = green_square  id = ""bottomsquare"" ></div>",32,word_square,response,1,Space,true,,,
html-keyboard-response,480,1650501,null,"TERMITE",null,word,,,,, 'TERMITE',,
html-keyboard-response,481,1650797,294.96499989181757,"COCOON<img id = ""stim"" ><div class = green_square id = ""topsquare"" ></div><img id = ""stim"" ><div class = green_square  id = ""bottomsquare"" ></div>",32,word_square,response,1,Space,true,,,
html-keyboard-response,482,1652299,null,"COCOON",null,word,,,,, 'COCOON',,
html-keyboard-response,483,1652801,null,"ATTIRE<img id = ""stim"" ><div class = red_square id = ""topsquare"" ></div><img id = ""stim"" ><div class = red_square  id = ""bottomsquare"" ></div>",null,word_square,response,0,none,true,,,
html-keyboard-response,484,1654306,null,"ATTIRE",null,word,,,,, 'ATTIRE',,
html-keyboard-response,485,1654613,304.5049998909235,"COLUMN<img id = ""stim"" ><div class = green_square id = ""topsquare"" ></div><img id = ""stim"" ><div class = green_square  id = ""bottomsquare"" ></div>",32,word_square,response,1,Space,true,,,
html-keyboard-response,486,1656125,null,"COLUMN",null,word,,,,, 'COLUMN',,
html-keyboard-response,487,1656627,null,"LODGE<img id = ""stim"" ><div class = red_square id = ""topsquare"" ></div><img id = ""stim"" ><div class = red_square  id = ""bottomsquare"" ></div>",null,word_square,response,0,none,true,,,
html-keyboard-response,488,1658129,null,"LODGE",null,word,,,,, 'LODGE',,
html-keyboard-response,489,1658433,303.10500017367303,"THIMBLE<img id = ""stim"" ><div class = green_square id = ""topsquare"" ></div><img id = ""stim"" ><div class = green_square  id = ""bottomsquare"" ></div>",32,word_square,response,1,Space,true,,,
html-keyboard-response,490,1659935,null,"THIMBLE",null,word,,,,, 'THIMBLE',,
html-keyboard-response,491,1660437,null,"BANDIT<img id = ""stim"" ><div class = red_square id = ""topsquare"" ></div><img id = ""stim"" ><div class = red_square  id = ""bottomsquare"" ></div>",null,word_square,response,0,none,true,,,
html-keyboard-response,492,1661942,null,"BANDIT",null,word,,,,, 'BANDIT',,
html-keyboard-response,493,1662444,null,"ROOSTER<img id = ""stim"" ><div class = red_square id = ""topsquare"" ></div><img id = ""stim"" ><div class = red_square  id = ""bottomsquare"" ></div>",null,word_square,response,0,none,true,,,
html-keyboard-response,494,1663945,null,"ROOSTER",null,word,,,,, 'ROOSTER',,
html-keyboard-response,495,1664303,356.3500000163913,"CHEST<img id = ""stim"" ><div class = green_square id = ""topsquare"" ></div><img id = ""stim"" ><div class = green_square  id = ""bottomsquare"" ></div>",32,word_square,response,1,Space,true,,,
html-keyboard-response,496,1665805,null,"CHEST",null,word,,,,, 'CHEST',,
html-keyboard-response,497,1666307,null,"ATTIC<img id = ""stim"" ><div class = red_square id = ""topsquare"" ></div><img id = ""stim"" ><div class = red_square  id = ""bottomsquare"" ></div>",null,word_square,response,0,none,true,,,
html-keyboard-response,498,1667809,null,"ATTIC",null,word,,,,, 'ATTIC',,
html-keyboard-response,499,1668249,438.70499986223876,"MOTEL<img id = ""stim"" ><div class = green_square id = ""topsquare"" ></div><img id = ""stim"" ><div class = green_square  id = ""bottomsquare"" ></div>",32,word_square,response,1,Space,true,,,
html-keyboard-response,500,1669752,null,"MOTEL",null,word,,,,, 'MOTEL',,
html-keyboard-response,501,1670254,null,"FEAST<img id = ""stim"" ><div class = red_square id = ""topsquare"" ></div><img id = ""stim"" ><div class = red_square  id = ""bottomsquare"" ></div>",null,word_square,response,0,none,true,,,
html-keyboard-response,502,1671756,null,"FEAST",null,word,,,,, 'FEAST',,
html-keyboard-response,503,1672257,null,"SCARECROW<img id = ""stim"" ><div class = red_square id = ""topsquare"" ></div><img id = ""stim"" ><div class = red_square  id = ""bottomsquare"" ></div>",null,word_square,response,0,none,true,,,
html-keyboard-response,504,1673759,null,"SCARECROW",null,word,,,,, 'SCARECROW',,
html-keyboard-response,505,1674186,426.08000012114644,"GUARD<img id = ""stim"" ><div class = green_square id = ""topsquare"" ></div><img id = ""stim"" ><div class = green_square  id = ""bottomsquare"" ></div>",32,word_square,response,1,Space,true,,,
html-keyboard-response,506,1675689,null,"GUARD",null,word,,,,, 'GUARD',,
html-keyboard-response,507,1676191,null,"POISON<img id = ""stim"" ><div class = red_square id = ""topsquare"" ></div><img id = ""stim"" ><div class = red_square  id = ""bottomsquare"" ></div>",null,word_square,response,0,none,true,,,
html-keyboard-response,508,1677693,null,"POISON",null,word,,,,, 'POISON',,
html-keyboard-response,509,1678195,null,"SNAKE<img id = ""stim"" ><div class = red_square id = ""topsquare"" ></div><img id = ""stim"" ><div class = red_square  id = ""bottomsquare"" ></div>",null,word_square,response,0,none,true,,,
html-keyboard-response,510,1679697,null,"SNAKE",null,word,,,,, 'SNAKE',,
html-keyboard-response,511,1680042,344.24999984912574,"POLICE<img id = ""stim"" ><div class = green_square id = ""topsquare"" ></div><img id = ""stim"" ><div class = green_square  id = ""bottomsquare"" ></div>",32,word_square,response,1,Space,true,,,
html-keyboard-response,512,1681543,null,"POLICE",null,word,,,,, 'POLICE',,
call-function,513,1681544,,"",,,,,,,,,
html-keyboard-response,514,1681646,null,"",null,,,,,,,,
math-period,515,1686092,8380.54500008002,"",,,,,,,,,2
html-keyboard-response,516,1686193,null,"",null,,,,,,,,
math-period,517,1687857,2999.919999856502,"",,,,,,,,,5
html-keyboard-response,518,1687959,null,"",null,,,,,,,,
math-period,519,1688925,1737.0750000700355,"",,,,,,,,,2
html-keyboard-response,520,1689026,null,"",null,,,,,,,,
math-period,521,1690074,1890.699999872595,"",,,,,,,,,5
html-keyboard-response,522,1690190,null,"",null,,,,,,,,
math-period,523,1691327,2045.5249999649823,"",,,,,,,,,4
html-keyboard-response,524,1691429,null,"",null,,,,,,,,
math-period,525,1693141,3259.0250002685934,"",,,,,,,,,0
html-keyboard-response,526,1693243,null,"",null,,,,,,,,
math-period,527,1694842,3016.9250001199543,"",,,,,,,,,5
html-keyboard-response,528,1694944,null,"",null,,,,,,,,
math-period,529,1696840,3567.479999968782,"",,,,,,,,,4
html-keyboard-response,530,1696949,null,"",null,,,,,,,,
math-period,531,1698212,2309.6349998377264,"",,,,,,,,,6
html-keyboard-response,532,1698314,null,"",null,,,,,,,,
math-period,533,1700313,3736.3900002092123,"",,,,,,,,,3
html-keyboard-response,534,1700417,null,"",null,,,,,,,,
math-period,535,1703276,5489.2650002148,"",,,,,,,,,4
html-keyboard-response,536,1703377,null,"",null,,,,,,,,
math-period,537,1705546,null,"",,,,,,,,,
html-keyboard-response,538,1706560,null,"Recall Period!",null,,,,,,,,
call-function,539,1706561,,"",,,,,,,,,
html-keyboard-response,540,1706662,null,"",null,,,,,,,,
recall-period,541,1709834,24382.730000419542,"",,,,,,,,,thimble
html-keyboard-response,542,1709935,null,"",null,,,,,,,,
recall-period,543,1781562,null,"",,,,,,,,,
html-keyboard-response,544,1782064,null,"Time's Up!",null,,,,,,,,
html-keyboard-response,545,1814528,32462.01499993913,"<p> Good job! You responded correctly to 96% of the GREEN squares.</p>
                  <p>Be sure to keep your accuracy above 80%</p>
                  <p>Press any key to continue the experiment. Thank you!</p>",32,,,,,,,,
html-keyboard-response,546,1818803,4274.549999972805,"<div style=""font-size:48px;"">Press any key to begin list 7 of 24 </div>",32,,,,,,,,
html-keyboard-response,547,1821305,null,"<div style=""font-size:60px;"">+</div>",null,,,,,,,,
html-keyboard-response,548,1821807,null,"CABOOSE<img id = ""stim"" ><div class = red_square id = ""topsquare"" ></div><img id = ""stim"" ><div class = red_square  id = ""bottomsquare"" ></div>",null,word_square,response,0,none,true,,,
html-keyboard-response,549,1823310,null,"CABOOSE",null,word,,,,, 'CABOOSE',,
html-keyboard-response,550,1823812,null,"BANJO<img id = ""stim"" ><div class = red_square id = ""topsquare"" ></div><img id = ""stim"" ><div class = red_square  id = ""bottomsquare"" ></div>",null,word_square,response,0,none,true,,,
html-keyboard-response,551,1825314,null,"BANJO",null,word,,,,, 'BANJO',,
html-keyboard-response,552,1825816,null,"FIDDLE<img id = ""stim"" ><div class = red_square id = ""topsquare"" ></div><img id = ""stim"" ><div class = red_square  id = ""bottomsquare"" ></div>",null,word_square,response,0,none,true,,,
html-keyboard-response,553,1827317,null,"FIDDLE",null,word,,,,, 'FIDDLE',,
html-keyboard-response,554,1827624,305.7949999347329,"LONDON<img id = ""stim"" ><div class = green_square id = ""topsquare"" ></div><img id = ""stim"" ><div class = green_square  id = ""bottomsquare"" ></div>",32,word_square,response,1,Space,true,,,
html-keyboard-response,555,1829126,null,"LONDON",null,word,,,,, 'LONDON',,
html-keyboard-response,556,1829628,null,"THRONE<img id = ""stim"" ><div class = red_square id = ""topsquare"" ></div><img id = ""stim"" ><div class = red_square  id = ""bottomsquare"" ></div>",null,word_square,response,0,none,true,,,
html-keyboard-response,557,1831129,null,"THRONE",null,word,,,,, 'THRONE',,
html-keyboard-response,558,1831433,302.9050000477582,"CROSS<img id = ""stim"" ><div class = green_square id = ""topsquare"" ></div><img id = ""stim"" ><div class = green_square  id = ""bottomsquare"" ></div>",32,word_square,response,1,Space,true,,,
html-keyboard-response,559,1832934,null,"CROSS",null,word,,,,, 'CROSS',,
html-keyboard-response,560,1833448,null,"LEOPARD<img id = ""stim"" ><div class = red_square id = ""topsquare"" ></div><img id = ""stim"" ><div class = red_square  id = ""bottomsquare"" ></div>",null,word_square,response,0,none,true,,,
html-keyboard-response,561,1834950,null,"LEOPARD",null,word,,,,, 'LEOPARD',,
html-keyboard-response,562,1835231,280.65999993123114,"CHIPMUNK<img id = ""stim"" ><div class = green_square id = ""topsquare"" ></div><img id = ""stim"" ><div class = green_square  id = ""bottomsquare"" ></div>",32,word_square,response,1,Space,true,,,
html-keyboard-response,563,1836733,null,"CHIPMUNK",null,word,,,,, 'CHIPMUNK',,
html-keyboard-response,564,1837146,411.3849999848753,"ROCKET<img id = ""stim"" ><div class = green_square id = ""topsquare"" ></div><img id = ""stim"" ><div class = green_square  id = ""bottomsquare"" ></div>",32,word_square,response,1,Space,true,,,
html-keyboard-response,565,1838648,null,"ROCKET",null,word,,,,, 'ROCKET',,
html-keyboard-response,566,1839150,null,"CROWN<img id = ""stim"" ><div class = red_square id = ""topsquare"" ></div><img id = ""stim"" ><div class = red_square  id = ""bottomsquare"" ></div>",null,word_square,response,0,none,true,,,
html-keyboard-response,567,1840651,null,"CROWN",null,word,,,,, 'CROWN',,
html-keyboard-response,568,1840969,316.6300000157207,"PROTON<img id = ""stim"" ><div class = green_square id = ""topsquare"" ></div><img id = ""stim"" ><div class = green_square  id = ""bottomsquare"" ></div>",32,word_square,response,1,Space,true,,,
html-keyboard-response,569,1842471,null,"PROTON",null,word,,,,, 'PROTON',,
html-keyboard-response,570,1842973,null,"LIST<img id = ""stim"" ><div class = red_square id = ""topsquare"" ></div><img id = ""stim"" ><div class = red_square  id = ""bottomsquare"" ></div>",null,word_square,response,0,none,true,,,
html-keyboard-response,571,1844475,null,"LIST",null,word,,,,, 'LIST',,
html-keyboard-response,572,1844835,358.0000000074506,"PARTY<img id = ""stim"" ><div class = green_square id = ""topsquare"" ></div><img id = ""stim"" ><div class = green_square  id = ""bottomsquare"" ></div>",32,word_square,response,1,Space,true,,,
html-keyboard-response,573,1846337,null,"PARTY",null,word,,,,, 'PARTY',,
html-keyboard-response,574,1846683,344.77500012144446,"TOOTHBRUSH<img id = ""stim"" ><div class = green_square id = ""topsquare"" ></div><img id = ""stim"" ><div class = green_square  id = ""bottomsquare"" ></div>",32,word_square,response,1,Space,true,,,
html-keyboard-response,575,1848185,null,"TOOTHBRUSH",null,word,,,,, 'TOOTHBRUSH',,
html-keyboard-response,576,1848687,null,"LAGOON<img id = ""stim"" ><div class = red_square id = ""topsquare"" ></div><img id = ""stim"" ><div class = red_square  id = ""bottomsquare"" ></div>",null,word_square,response,0,none,true,,,
html-keyboard-response,577,1850190,null,"LAGOON",null,word,,,,, 'LAGOON',,
html-keyboard-response,578,1850614,422.7100000716746,"BOULDER<img id = ""stim"" ><div class = green_square id = ""topsquare"" ></div><img id = ""stim"" ><div class = green_square  id = ""bottomsquare"" ></div>",32,word_square,response,1,Space,true,,,
html-keyboard-response,579,1852115,null,"BOULDER",null,word,,,,, 'BOULDER',,
html-keyboard-response,580,1852617,null,"LUGGAGE<img id = ""stim"" ><div class = green_square id = ""topsquare"" ></div><img id = ""stim"" ><div class = green_square  id = ""bottomsquare"" ></div>",null,word_square,response,1,Space,false,,,
html-keyboard-response,581,1854119,null,"LUGGAGE",null,word,,,,, 'LUGGAGE',,
html-keyboard-response,582,1854621,null,"GRAPE<img id = ""stim"" ><div class = red_square id = ""topsquare"" ></div><img id = ""stim"" ><div class = red_square  id = ""bottomsquare"" ></div>",null,word_square,response,0,none,true,,,
html-keyboard-response,583,1856123,null,"GRAPE",null,word,,,,, 'GRAPE',,
call-function,584,1856123,,"",,,,,,,,,
html-keyboard-response,585,1856224,null,"",null,,,,,,,,
math-period,586,1859605,6120.719999773428,"",,,,,,,,,2
html-keyboard-response,587,1859707,null,"",null,,,,,,,,
math-period,588,1862446,4782.164999982342,"",,,,,,,,,3
html-keyboard-response,589,1862547,null,"",null,,,,,,,,
math-period,590,1864218,2492.389999795705,"",,,,,,,,,3
html-keyboard-response,591,1864320,null,"",null,,,,,,,,
math-period,592,1865503,2207.9300000332296,"",,,,,,,,,3
html-keyboard-response,593,1865620,null,"",null,,,,,,,,
math-period,594,1867680,3840.8499998040497,"",,,,,,,,,0
html-keyboard-response,595,1867782,null,"",null,,,,,,,,
math-period,596,1871463,12034.794999752194,"",,,,,,,,,2
html-keyboard-response,597,1871565,null,"",null,,,,,,,,
math-period,598,1873172,3048.059999709949,"",,,,,,,,,4
html-keyboard-response,599,1873282,null,"",null,,,,,,,,
math-period,600,1875303,3773.2949999626726,"",,,,,,,,,3
html-keyboard-response,601,1875404,null,"",null,,,,,,,,
math-period,602,1876682,2368.4650000650436,"",,,,,,,,,5
html-keyboard-response,603,1876784,null,"",null,,,,,,,,
math-period,604,1877939,2111.665000207722,"",,,,,,,,,4
html-keyboard-response,605,1878042,null,"",null,,,,,,,,
math-period,606,1879028,1825.389999896288,"",,,,,,,,,2
html-keyboard-response,607,1879130,null,"",null,,,,,,,,
math-period,608,1880125,null,"",,,,,,,,,
html-keyboard-response,609,1881127,null,"Recall Period!",null,,,,,,,,
call-function,610,1881128,,"",,,,,,,,,
html-keyboard-response,611,1881229,null,"",null,,,,,,,,
recall-period,612,1883115,8616.144999861717,"",,,,,,,,,party
html-keyboard-response,613,1883220,null,"",null,,,,,,,,
recall-period,614,1885802,21701.374998083338,"",,,,,,,,,toothbrush
html-keyboard-response,615,1885909,null,"",null,,,,,,,,
recall-period,616,1887212,4696.05999905616,"",,,,,,,,,lagoon
html-keyboard-response,617,1887314,null,"",null,,,,,,,,
recall-period,618,1889127,11078.204999677837,"",,,,,,,,,luggage
html-keyboard-response,619,1889229,null,"",null,,,,,,,,
recall-period,620,1891609,16051.845000591129,"",,,,,,,,,boulder
html-keyboard-response,621,1891710,null,"",null,,,,,,,,
recall-period,622,1956130,null,"",,,,,,,,,
html-keyboard-response,623,1956632,null,"Time's Up!",null,,,,,,,,
html-keyboard-response,624,1965307,8673.700000159442,"<p> Good job! You responded correctly to 96% of the GREEN squares.</p>
                  <p>Be sure to keep your accuracy above 80%</p>
                  <p>Press any key to continue the experiment. Thank you!</p>",32,,,,,,,,
html-keyboard-response,625,1965672,363.4000001475215,"<div style=""font-size:48px;"">Press any key to begin list 8 of 24 </div>",32,,,,,,,,
html-keyboard-response,626,1968174,null,"<div style=""font-size:60px;"">+</div>",null,,,,,,,,
html-keyboard-response,627,1968676,null,"KETTLE<img id = ""stim"" ><div class = red_square id = ""topsquare"" ></div><img id = ""stim"" ><div class = red_square  id = ""bottomsquare"" ></div>",null,word_square,response,0,none,true,,,
html-keyboard-response,628,1970178,null,"KETTLE",null,word,,,,, 'KETTLE',,
html-keyboard-response,629,1970680,null,"TRUMPET<img id = ""stim"" ><div class = red_square id = ""topsquare"" ></div><img id = ""stim"" ><div class = red_square  id = ""bottomsquare"" ></div>",null,word_square,response,0,none,true,,,
html-keyboard-response,630,1972182,null,"TRUMPET",null,word,,,,, 'TRUMPET',,
html-keyboard-response,631,1972684,null,"CRUTCH<img id = ""stim"" ><div class = red_square id = ""topsquare"" ></div><img id = ""stim"" ><div class = red_square  id = ""bottomsquare"" ></div>",null,word_square,response,0,none,true,,,
html-keyboard-response,632,1974187,null,"CRUTCH",null,word,,,,, 'CRUTCH',,
html-keyboard-response,633,1974557,369.0049999859184,"CAPTIVE<img id = ""stim"" ><div class = green_square id = ""topsquare"" ></div><img id = ""stim"" ><div class = green_square  id = ""bottomsquare"" ></div>",32,word_square,response,1,Space,true,,,
html-keyboard-response,634,1976058,null,"CAPTIVE",null,word,,,,, 'CAPTIVE',,
html-keyboard-response,635,1976561,null,"DASHBOARD<img id = ""stim"" ><div class = red_square id = ""topsquare"" ></div><img id = ""stim"" ><div class = red_square  id = ""bottomsquare"" ></div>",null,word_square,response,0,none,true,,,
html-keyboard-response,636,1978062,null,"DASHBOARD",null,word,,,,, 'DASHBOARD',,
html-keyboard-response,637,1978347,284.1499999631196,"STICKER<img id = ""stim"" ><div class = green_square id = ""topsquare"" ></div><img id = ""stim"" ><div class = green_square  id = ""bottomsquare"" ></div>",32,word_square,response,1,Space,true,,,
html-keyboard-response,638,1979849,null,"STICKER",null,word,,,,, 'STICKER',,
html-keyboard-response,639,1980351,null,"PEANUT<img id = ""stim"" ><div class = red_square id = ""topsquare"" ></div><img id = ""stim"" ><div class = red_square  id = ""bottomsquare"" ></div>",null,word_square,response,0,none,true,,,
html-keyboard-response,640,1981853,null,"PEANUT",null,word,,,,, 'PEANUT',,
html-keyboard-response,641,1982168,313.920000102371,"SNEAKER<img id = ""stim"" ><div class = green_square id = ""topsquare"" ></div><img id = ""stim"" ><div class = green_square  id = ""bottomsquare"" ></div>",32,word_square,response,1,Space,true,,,
html-keyboard-response,642,1983669,null,"SNEAKER",null,word,,,,, 'SNEAKER',,
html-keyboard-response,643,1984172,null,"OATMEAL<img id = ""stim"" ><div class = green_square id = ""topsquare"" ></div><img id = ""stim"" ><div class = green_square  id = ""bottomsquare"" ></div>",null,word_square,response,1,Space,false,,,
html-keyboard-response,644,1985674,null,"OATMEAL",null,word,,,,, 'OATMEAL',,
html-keyboard-response,645,1986175,null,"SERPENT<img id = ""stim"" ><div class = red_square id = ""topsquare"" ></div><img id = ""stim"" ><div class = red_square  id = ""bottomsquare"" ></div>",null,word_square,response,0,none,true,,,
html-keyboard-response,646,1987677,null,"SERPENT",null,word,,,,, 'SERPENT',,
html-keyboard-response,647,1988076,397.97499985434115,"DRAGON<img id = ""stim"" ><div class = green_square id = ""topsquare"" ></div><img id = ""stim"" ><div class = green_square  id = ""bottomsquare"" ></div>",32,word_square,response,1,Space,true,,,
html-keyboard-response,648,1989577,null,"DRAGON",null,word,,,,, 'DRAGON',,
html-keyboard-response,649,1990080,null,"KETCHUP<img id = ""stim"" ><div class = red_square id = ""topsquare"" ></div><img id = ""stim"" ><div class = red_square  id = ""bottomsquare"" ></div>",null,word_square,response,0,none,true,,,
html-keyboard-response,650,1991582,null,"KETCHUP",null,word,,,,, 'KETCHUP',,
html-keyboard-response,651,1991906,323.3699998818338,"BEETLE<img id = ""stim"" ><div class = green_square id = ""topsquare"" ></div><img id = ""stim"" ><div class = green_square  id = ""bottomsquare"" ></div>",32,word_square,response,1,Space,true,,,
html-keyboard-response,652,1993408,null,"BEETLE",null,word,,,,, 'BEETLE',,
html-keyboard-response,653,1993827,417.989999987185,"MUFFIN<img id = ""stim"" ><div class = green_square id = ""topsquare"" ></div><img id = ""stim"" ><div class = green_square  id = ""bottomsquare"" ></div>",32,word_square,response,1,Space,true,,,
html-keyboard-response,654,1995329,null,"MUFFIN",null,word,,,,, 'MUFFIN',,
html-keyboard-response,655,1995831,null,"PARCEL<img id = ""stim"" ><div class = red_square id = ""topsquare"" ></div><img id = ""stim"" ><div class = red_square  id = ""bottomsquare"" ></div>",null,word_square,response,0,none,true,,,
html-keyboard-response,656,1997332,null,"PARCEL",null,word,,,,, 'PARCEL',,
html-keyboard-response,657,1997745,412.2000001370907,"FUNGUS<img id = ""stim"" ><div class = green_square id = ""topsquare"" ></div><img id = ""stim"" ><div class = green_square  id = ""bottomsquare"" ></div>",32,word_square,response,1,Space,true,,,
html-keyboard-response,658,1999248,null,"FUNGUS",null,word,,,,, 'FUNGUS',,
html-keyboard-response,659,1999672,423.2450001873076,"TURNIP<img id = ""stim"" ><div class = green_square id = ""topsquare"" ></div><img id = ""stim"" ><div class = green_square  id = ""bottomsquare"" ></div>",32,word_square,response,1,Space,true,,,
html-keyboard-response,660,2001174,null,"TURNIP",null,word,,,,, 'TURNIP',,
html-keyboard-response,661,2001581,405.7050000410527,"MATTRESS<img id = ""stim"" ><div class = red_square id = ""topsquare"" ></div><img id = ""stim"" ><div class = red_square  id = ""bottomsquare"" ></div>",32,word_square,response,0,none,false,,,
html-keyboard-response,662,2003084,null,"MATTRESS",null,word,,,,, 'MATTRESS',,
call-function,663,2003085,,"",,,,,,,,,
html-keyboard-response,664,2003187,null,"",null,,,,,,,,
math-period,665,2005099,3491.749999579042,"",,,,,,,,,3
html-keyboard-response,666,2005202,null,"",null,,,,,,,,
math-period,667,2008930,6923.560000024736,"",,,,,,,,,5
html-keyboard-response,668,2009041,null,"",null,,,,,,,,
math-period,669,2010463,2671.1849998682737,"",,,,,,,,,3
html-keyboard-response,670,2010565,null,"",null,,,,,,,,
math-period,671,2012526,3650.7050001528114,"",,,,,,,,,2
html-keyboard-response,672,2012628,null,"",null,,,,,,,,
math-period,673,2013921,2395.079999929294,"",,,,,,,,,4
html-keyboard-response,674,2014024,null,"",null,,,,,,,,
math-period,675,2014994,1786.5800000727177,"",,,,,,,,,4
html-keyboard-response,676,2015096,null,"",null,,,,,,,,
math-period,677,2015700,1053.7199997343123,"",,,,,,,,,4
html-keyboard-response,678,2015802,null,"",null,,,,,,,,
math-period,679,2016766,1711.6650000680238,"",,,,,,,,,3
html-keyboard-response,680,2016869,null,"",null,,,,,,,,
math-period,681,2018647,3357.975000049919,"",,,,,,,,,3
html-keyboard-response,682,2018748,null,"",null,,,,,,,,
math-period,683,2019989,2251.6050001140684,"",,,,,,,,,1
html-keyboard-response,684,2020091,null,"",null,,,,,,,,
math-period,685,2021734,3120.074999984354,"",,,,,,,,,1
html-keyboard-response,686,2021837,null,"",null,,,,,,,,
math-period,687,2022773,1718.9450000878423,"",,,,,,,,,1
html-keyboard-response,688,2022875,null,"",null,,,,,,,,
math-period,689,2024510,2808.16000001505,"",,,,,,,,,4
html-keyboard-response,690,2024626,null,"",null,,,,,,,,
math-period,691,2026177,2853.7049998994917,"",,,,,,,,,1
html-keyboard-response,692,2026281,null,"",null,,,,,,,,
math-period,693,2027085,null,"",,,,,,,,,
html-keyboard-response,694,2028087,null,"Recall Period!",null,,,,,,,,
call-function,695,2028088,,"",,,,,,,,,
html-keyboard-response,696,2028190,null,"",null,,,,,,,,
recall-period,697,2030411,12174.324999563396,"",,,,,,,,,peanut
html-keyboard-response,698,2030513,null,"",null,,,,,,,,
recall-period,699,2031606,5005.860000150278,"",,,,,,,,,sneaker
html-keyboard-response,700,2031709,null,"",null,,,,,,,,
recall-period,701,2036099,13750.439999857917,"",,,,,,,,,oatmeal
html-keyboard-response,702,2036203,null,"",null,,,,,,,,
recall-period,703,2067406,214867.63000069186,"",,,,,,,,,muffin
html-keyboard-response,704,2067508,null,"",null,,,,,,,,
recall-period,705,2103089,null,"",,,,,,,,,
html-keyboard-response,706,2103590,null,"Time's Up!",null,,,,,,,,
html-keyboard-response,707,2117175,13583.01499998197,"<p> Good job! You responded correctly to 95% of the GREEN squares.</p>
                  <p>Be sure to keep your accuracy above 80%</p>
                  <p>Press any key to continue the experiment. Thank you!</p>",32,,,,,,,,
html-keyboard-response,708,2117600,424.4049999397248,"<div style=""font-size:48px;"">Press any key to begin list 9 of 24 </div>",32,,,,,,,,
html-keyboard-response,709,2120117,null,"<div style=""font-size:60px;"">+</div>",null,,,,,,,,
html-keyboard-response,710,2120620,null,"MUSHROOM<img id = ""stim"" ><div class = green_square id = ""topsquare"" ></div><img id = ""stim"" ><div class = green_square  id = ""bottomsquare"" ></div>",null,word_square,response,1,Space,false,,,
html-keyboard-response,711,2122123,null,"MUSHROOM",null,word,,,,, 'MUSHROOM',,
html-keyboard-response,712,2122626,null,"PORK<img id = ""stim"" ><div class = red_square id = ""topsquare"" ></div><img id = ""stim"" ><div class = red_square  id = ""bottomsquare"" ></div>",null,word_square,response,0,none,true,,,
html-keyboard-response,713,2124128,null,"PORK",null,word,,,,, 'PORK',,
html-keyboard-response,714,2124630,null,"FARMER<img id = ""stim"" ><div class = red_square id = ""topsquare"" ></div><img id = ""stim"" ><div class = red_square  id = ""bottomsquare"" ></div>",null,word_square,response,0,none,true,,,
html-keyboard-response,715,2126132,null,"FARMER",null,word,,,,, 'FARMER',,
html-keyboard-response,716,2126452,319.700000109151,"SENATE<img id = ""stim"" ><div class = green_square id = ""topsquare"" ></div><img id = ""stim"" ><div class = green_square  id = ""bottomsquare"" ></div>",32,word_square,response,1,Space,true,,,
html-keyboard-response,717,2127954,null,"SENATE",null,word,,,,, 'SENATE',,
html-keyboard-response,718,2128456,null,"FRAGRANCE<img id = ""stim"" ><div class = red_square id = ""topsquare"" ></div><img id = ""stim"" ><div class = red_square  id = ""bottomsquare"" ></div>",null,word_square,response,0,none,true,,,
html-keyboard-response,719,2129967,null,"FRAGRANCE",null,word,,,,, 'FRAGRANCE',,
html-keyboard-response,720,2130297,329.71000019460917,"MAMMAL<img id = ""stim"" ><div class = green_square id = ""topsquare"" ></div><img id = ""stim"" ><div class = green_square  id = ""bottomsquare"" ></div>",32,word_square,response,1,Space,true,,,
html-keyboard-response,721,2131800,null,"MAMMAL",null,word,,,,, 'MAMMAL',,
html-keyboard-response,722,2132303,null,"YARD<img id = ""stim"" ><div class = red_square id = ""topsquare"" ></div><img id = ""stim"" ><div class = red_square  id = ""bottomsquare"" ></div>",null,word_square,response,0,none,true,,,
html-keyboard-response,723,2133804,null,"YARD",null,word,,,,, 'YARD',,
html-keyboard-response,724,2134083,277.9600000940263,"LOFT<img id = ""stim"" ><div class = green_square id = ""topsquare"" ></div><img id = ""stim"" ><div class = green_square  id = ""bottomsquare"" ></div>",32,word_square,response,1,Space,true,,,
html-keyboard-response,725,2135585,null,"LOFT",null,word,,,,, 'LOFT',,
html-keyboard-response,726,2135964,378.45499999821186,"PERFUME<img id = ""stim"" ><div class = green_square id = ""topsquare"" ></div><img id = ""stim"" ><div class = green_square  id = ""bottomsquare"" ></div>",32,word_square,response,1,Space,true,,,
html-keyboard-response,727,2137467,null,"PERFUME",null,word,,,,, 'PERFUME',,
html-keyboard-response,728,2137765,296.7099999077618,"LANDSCAPE<img id = ""stim"" ><div class = red_square id = ""topsquare"" ></div><img id = ""stim"" ><div class = red_square  id = ""bottomsquare"" ></div>",32,word_square,response,0,none,false,,,
html-keyboard-response,729,2139267,null,"LANDSCAPE",null,word,,,,, 'LANDSCAPE',,
html-keyboard-response,730,2139769,null,"DANCER<img id = ""stim"" ><div class = red_square id = ""topsquare"" ></div><img id = ""stim"" ><div class = red_square  id = ""bottomsquare"" ></div>",null,word_square,response,0,none,true,,,
html-keyboard-response,731,2141272,null,"DANCER",null,word,,,,, 'DANCER',,
html-keyboard-response,732,2141749,476.19999991729856,"MARINE<img id = ""stim"" ><div class = green_square id = ""topsquare"" ></div><img id = ""stim"" ><div class = green_square  id = ""bottomsquare"" ></div>",32,word_square,response,1,Space,true,,,
html-keyboard-response,733,2143250,null,"MARINE",null,word,,,,, 'MARINE',,
html-keyboard-response,734,2143753,null,"ARMY<img id = ""stim"" ><div class = red_square id = ""topsquare"" ></div><img id = ""stim"" ><div class = red_square  id = ""bottomsquare"" ></div>",null,word_square,response,0,none,true,,,
html-keyboard-response,735,2145255,null,"ARMY",null,word,,,,, 'ARMY',,
html-keyboard-response,736,2145641,384.895000141114,"MARKET<img id = ""stim"" ><div class = green_square id = ""topsquare"" ></div><img id = ""stim"" ><div class = green_square  id = ""bottomsquare"" ></div>",32,word_square,response,1,Space,true,,,
html-keyboard-response,737,2147143,null,"MARKET",null,word,,,,, 'MARKET',,
html-keyboard-response,738,2147583,438.7999998871237,"HANGER<img id = ""stim"" ><div class = green_square id = ""topsquare"" ></div><img id = ""stim"" ><div class = green_square  id = ""bottomsquare"" ></div>",32,word_square,response,1,Space,true,,,
html-keyboard-response,739,2149085,null,"HANGER",null,word,,,,, 'HANGER',,
html-keyboard-response,740,2149587,null,"BLUEJAY<img id = ""stim"" ><div class = red_square id = ""topsquare"" ></div><img id = ""stim"" ><div class = red_square  id = ""bottomsquare"" ></div>",null,word_square,response,0,none,true,,,
html-keyboard-response,741,2151088,null,"BLUEJAY",null,word,,,,, 'BLUEJAY',,
html-keyboard-response,742,2151591,null,"LUNCH<img id = ""stim"" ><div class = red_square id = ""topsquare"" ></div><img id = ""stim"" ><div class = red_square  id = ""bottomsquare"" ></div>",null,word_square,response,0,none,true,,,
html-keyboard-response,743,2153093,null,"LUNCH",null,word,,,,, 'LUNCH',,
html-keyboard-response,744,2153525,430.8949999976903,"CABIN<img id = ""stim"" ><div class = green_square id = ""topsquare"" ></div><img id = ""stim"" ><div class = green_square  id = ""bottomsquare"" ></div>",32,word_square,response,1,Space,true,,,
html-keyboard-response,745,2155027,null,"CABIN",null,word,,,,, 'CABIN',,
call-function,746,2155028,,"",,,,,,,,,
html-keyboard-response,747,2155129,null,"",null,,,,,,,,
math-period,748,2164025,17398.740000091493,"",,,,,,,,,4
html-keyboard-response,749,2164130,null,"",null,,,,,,,,
math-period,750,2166561,4258.500000229105,"",,,,,,,,,3
html-keyboard-response,751,2166662,null,"",null,,,,,,,,
math-period,752,2169804,5995.305000105873,"",,,,,,,,,6
html-keyboard-response,753,2169917,null,"",null,,,,,,,,
math-period,754,2171003,1999.1900001186877,"",,,,,,,,,5
html-keyboard-response,755,2171104,null,"",null,,,,,,,,
math-period,756,2172770,3129.3549998663366,"",,,,,,,,,2
html-keyboard-response,757,2172872,null,"",null,,,,,,,,
math-period,758,2174688,5870.654999744147,"",,,,,,,,,4
html-keyboard-response,759,2174790,null,"",null,,,,,,,,
math-period,760,2176624,3449.174999957904,"",,,,,,,,,0
html-keyboard-response,761,2176736,null,"",null,,,,,,,,
math-period,762,2177949,2326.2899997644126,"",,,,,,,,,5
html-keyboard-response,763,2178050,null,"",null,,,,,,,,
math-period,764,2179029,null,"",,,,,,,,,
html-keyboard-response,765,2180031,null,"Recall Period!",null,,,,,,,,
call-function,766,2180032,,"",,,,,,,,,
html-keyboard-response,767,2180134,null,"",null,,,,,,,,
recall-period,768,2183482,19713.964998954907,"",,,,,,,,,senate
html-keyboard-response,769,2183584,null,"",null,,,,,,,,
recall-period,770,2187077,23448.25999974273,"",,,,,,,,,mushroom
html-keyboard-response,771,2187178,null,"",null,,,,,,,,
recall-period,772,2255034,null,"",,,,,,,,,
html-keyboard-response,773,2255536,null,"Time's Up!",null,,,,,,,,
html-keyboard-response,774,2257208,1670.6649998668581,"<p> Good job! You responded correctly to 94% of the GREEN squares.</p>
                  <p>Be sure to keep your accuracy above 80%</p>
                  <p>Press any key to continue the experiment. Thank you!</p>",32,,,,,,,,
html-keyboard-response,775,2257535,325.60999994166195,"<div style=""font-size:48px;"">Press any key to begin list 10 of 24 </div>",32,,,,,,,,
html-keyboard-response,776,2260053,null,"<div style=""font-size:60px;"">+</div>",null,,,,,,,,
html-keyboard-response,777,2260555,null,"BRICK<img id = ""stim"" ><div class = green_square id = ""topsquare"" ></div><img id = ""stim"" ><div class = green_square  id = ""bottomsquare"" ></div>",null,word_square,response,1,Space,false,,,
html-keyboard-response,778,2262064,null,"BRICK",null,word,,,,, 'BRICK',,
html-keyboard-response,779,2262567,null,"SUNRISE<img id = ""stim"" ><div class = red_square id = ""topsquare"" ></div><img id = ""stim"" ><div class = red_square  id = ""bottomsquare"" ></div>",null,word_square,response,0,none,true,,,
html-keyboard-response,780,2264068,null,"SUNRISE",null,word,,,,, 'SUNRISE',,
html-keyboard-response,781,2264570,null,"DIAMOND<img id = ""stim"" ><div class = red_square id = ""topsquare"" ></div><img id = ""stim"" ><div class = red_square  id = ""bottomsquare"" ></div>",null,word_square,response,0,none,true,,,
html-keyboard-response,782,2266073,null,"DIAMOND",null,word,,,,, 'DIAMOND',,
html-keyboard-response,783,2266574,null,"HATCHET<img id = ""stim"" ><div class = green_square id = ""topsquare"" ></div><img id = ""stim"" ><div class = green_square  id = ""bottomsquare"" ></div>",null,word_square,response,1,Space,false,,,
html-keyboard-response,784,2268076,null,"HATCHET",null,word,,,,, 'HATCHET',,
html-keyboard-response,785,2268578,null,"JOKER<img id = ""stim"" ><div class = red_square id = ""topsquare"" ></div><img id = ""stim"" ><div class = red_square  id = ""bottomsquare"" ></div>",null,word_square,response,0,none,true,,,
html-keyboard-response,786,2270079,null,"JOKER",null,word,,,,, 'JOKER',,
html-keyboard-response,787,2270560,479.41499995067716,"WASP<img id = ""stim"" ><div class = green_square id = ""topsquare"" ></div><img id = ""stim"" ><div class = green_square  id = ""bottomsquare"" ></div>",32,word_square,response,1,Space,true,,,
html-keyboard-response,788,2272061,null,"WASP",null,word,,,,, 'WASP',,
html-keyboard-response,789,2272563,null,"VICTOR<img id = ""stim"" ><div class = red_square id = ""topsquare"" ></div><img id = ""stim"" ><div class = red_square  id = ""bottomsquare"" ></div>",null,word_square,response,0,none,true,,,
html-keyboard-response,790,2274067,null,"VICTOR",null,word,,,,, 'VICTOR',,
html-keyboard-response,791,2274411,343.265000032261,"PIZZA<img id = ""stim"" ><div class = green_square id = ""topsquare"" ></div><img id = ""stim"" ><div class = green_square  id = ""bottomsquare"" ></div>",32,word_square,response,1,Space,true,,,
html-keyboard-response,792,2275913,null,"PIZZA",null,word,,,,, 'PIZZA',,
html-keyboard-response,793,2276294,380.27999992482364,"PASTRY<img id = ""stim"" ><div class = green_square id = ""topsquare"" ></div><img id = ""stim"" ><div class = green_square  id = ""bottomsquare"" ></div>",32,word_square,response,1,Space,true,,,
html-keyboard-response,794,2277797,null,"PASTRY",null,word,,,,, 'PASTRY',,
html-keyboard-response,795,2278299,null,"CANDY<img id = ""stim"" ><div class = red_square id = ""topsquare"" ></div><img id = ""stim"" ><div class = red_square  id = ""bottomsquare"" ></div>",null,word_square,response,0,none,true,,,
html-keyboard-response,796,2279801,null,"CANDY",null,word,,,,, 'CANDY',,
html-keyboard-response,797,2280303,null,"FOOTBALL<img id = ""stim"" ><div class = red_square id = ""topsquare"" ></div><img id = ""stim"" ><div class = red_square  id = ""bottomsquare"" ></div>",null,word_square,response,0,none,true,,,
html-keyboard-response,798,2281805,null,"FOOTBALL",null,word,,,,, 'FOOTBALL',,
html-keyboard-response,799,2282161,354.2100000195205,"ICING<img id = ""stim"" ><div class = green_square id = ""topsquare"" ></div><img id = ""stim"" ><div class = green_square  id = ""bottomsquare"" ></div>",32,word_square,response,1,Space,true,,,
html-keyboard-response,800,2283662,null,"ICING",null,word,,,,, 'ICING',,
html-keyboard-response,801,2284164,null,"STOVE<img id = ""stim"" ><div class = red_square id = ""topsquare"" ></div><img id = ""stim"" ><div class = red_square  id = ""bottomsquare"" ></div>",null,word_square,response,0,none,true,,,
html-keyboard-response,802,2285665,null,"STOVE",null,word,,,,, 'STOVE',,
html-keyboard-response,803,2286061,394.4699999410659,"RAILROAD<img id = ""stim"" ><div class = green_square id = ""topsquare"" ></div><img id = ""stim"" ><div class = green_square  id = ""bottomsquare"" ></div>",32,word_square,response,1,Space,true,,,
html-keyboard-response,804,2287562,null,"RAILROAD",null,word,,,,, 'RAILROAD',,
html-keyboard-response,805,2287953,389.1849999781698,"HORNET<img id = ""stim"" ><div class = green_square id = ""topsquare"" ></div><img id = ""stim"" ><div class = green_square  id = ""bottomsquare"" ></div>",32,word_square,response,1,Space,true,,,
html-keyboard-response,806,2289455,null,"HORNET",null,word,,,,, 'HORNET',,
html-keyboard-response,807,2289962,null,"BOXER<img id = ""stim"" ><div class = red_square id = ""topsquare"" ></div><img id = ""stim"" ><div class = red_square  id = ""bottomsquare"" ></div>",null,word_square,response,0,none,true,,,
html-keyboard-response,808,2291464,null,"BOXER",null,word,,,,, 'BOXER',,
html-keyboard-response,809,2291967,null,"SAILOR<img id = ""stim"" ><div class = red_square id = ""topsquare"" ></div><img id = ""stim"" ><div class = red_square  id = ""bottomsquare"" ></div>",null,word_square,response,0,none,true,,,
html-keyboard-response,810,2293468,null,"SAILOR",null,word,,,,, 'SAILOR',,
html-keyboard-response,811,2293914,445.3900000080466,"SHIRT<img id = ""stim"" ><div class = green_square id = ""topsquare"" ></div><img id = ""stim"" ><div class = green_square  id = ""bottomsquare"" ></div>",32,word_square,response,1,Space,true,,,
html-keyboard-response,812,2295416,null,"SHIRT",null,word,,,,, 'SHIRT',,
call-function,813,2295418,,"",,,,,,,,,
html-keyboard-response,814,2295520,null,"",null,,,,,,,,
math-period,815,2299593,6524.525000015274,"",,,,,,,,,4
html-keyboard-response,816,2299695,null,"",null,,,,,,,,
math-period,817,2302072,7583.989999489859,"",,,,,,,,,2
html-keyboard-response,818,2302174,null,"",null,,,,,,,,
math-period,819,2303379,2227.1049998234957,"",,,,,,,,,6
html-keyboard-response,820,2303481,null,"",null,,,,,,,,
math-period,821,2305066,2732.055000262335,"",,,,,,,,,1
html-keyboard-response,822,2305168,null,"",null,,,,,,,,
math-period,823,2306956,3398.2349999714643,"",,,,,,,,,1
html-keyboard-response,824,2307057,null,"",null,,,,,,,,
math-period,825,2308101,1749.3649998214096,"",,,,,,,,,4
html-keyboard-response,826,2308209,null,"",null,,,,,,,,
math-period,827,2309269,1895.740000065416,"",,,,,,,,,3
html-keyboard-response,828,2309375,null,"",null,,,,,,,,
math-period,829,2310463,1928.8699999451637,"",,,,,,,,,5
html-keyboard-response,830,2310565,null,"",null,,,,,,,,
math-period,831,2311787,2041.5399996563792,"",,,,,,,,,3
html-keyboard-response,832,2311888,null,"",null,,,,,,,,
math-period,833,2312757,1536.8000001180917,"",,,,,,,,,3
html-keyboard-response,834,2312859,null,"",null,,,,,,,,
math-period,835,2313826,1692.5150000024587,"",,,,,,,,,4
html-keyboard-response,836,2313938,null,"",null,,,,,,,,
math-period,837,2314984,1752.7599998284131,"",,,,,,,,,2
html-keyboard-response,838,2315085,null,"",null,,,,,,,,
math-period,839,2316222,2058.5649996064603,"",,,,,,,,,1
html-keyboard-response,840,2316327,null,"",null,,,,,,,,
math-period,841,2318460,6874.184999847785,"",,,,,,,,,6
html-keyboard-response,842,2318562,null,"",null,,,,,,,,
math-period,843,2319420,null,"",,,,,,,,,
html-keyboard-response,844,2320422,null,"Recall Period!",null,,,,,,,,
call-function,845,2320423,,"",,,,,,,,,
html-keyboard-response,846,2320524,null,"",null,,,,,,,,
recall-period,847,2323231,16586.3199995365,"",,,,,,,,,sunrise
html-keyboard-response,848,2323332,null,"",null,,,,,,,,
recall-period,849,2324580,5659.420000389218,"",,,,,,,,,hatchet
html-keyboard-response,850,2324681,null,"",null,,,,,,,,
recall-period,851,2326063,6016.85000048019,"",,,,,,,,,diamond
html-keyboard-response,852,2326171,null,"",null,,,,,,,,
recall-period,853,2327197,3721.1100007407367,"",,,,,,,,,pizza
html-keyboard-response,854,2327304,null,"",null,,,,,,,,
recall-period,855,2330135,6957.104999804869,"",,,,,,,,,pastry
html-keyboard-response,856,2330236,null,"",null,,,,,,,,
recall-period,857,2395436,null,"",,,,,,,,,
html-keyboard-response,858,2395948,null,"Time's Up!",null,,,,,,,,
html-keyboard-response,859,2451897,55947.374999988824,"<p> Good job! You responded correctly to 94% of the GREEN squares.</p>
                  <p>Be sure to keep your accuracy above 80%</p>
                  <p>Press any key to continue the experiment. Thank you!</p>",32,,,,,,,,
html-keyboard-response,860,2452168,269.70999990589917,"<div style=""font-size:48px;"">Press any key to begin list 11 of 24 </div>",32,,,,,,,,
html-keyboard-response,861,2454669,null,"<div style=""font-size:60px;"">+</div>",null,,,,,,,,
html-keyboard-response,862,2455171,null,"FRIEND<img id = ""stim"" ><div class = red_square id = ""topsquare"" ></div><img id = ""stim"" ><div class = red_square  id = ""bottomsquare"" ></div>",null,word_square,response,0,none,true,,,
html-keyboard-response,863,2456673,null,"FRIEND",null,word,,,,, 'FRIEND',,
html-keyboard-response,864,2457023,348.2150000054389,"CABLE<img id = ""stim"" ><div class = green_square id = ""topsquare"" ></div><img id = ""stim"" ><div class = green_square  id = ""bottomsquare"" ></div>",32,word_square,response,1,Space,true,,,
html-keyboard-response,865,2458524,null,"CABLE",null,word,,,,, 'CABLE',,
html-keyboard-response,866,2458874,348.6150000244379,"DWARF<img id = ""stim"" ><div class = green_square id = ""topsquare"" ></div><img id = ""stim"" ><div class = green_square  id = ""bottomsquare"" ></div>",32,word_square,response,1,Space,true,,,
html-keyboard-response,867,2460375,null,"DWARF",null,word,,,,, 'DWARF',,
html-keyboard-response,868,2460877,null,"PUPPY<img id = ""stim"" ><div class = red_square id = ""topsquare"" ></div><img id = ""stim"" ><div class = red_square  id = ""bottomsquare"" ></div>",null,word_square,response,0,none,true,,,
html-keyboard-response,869,2462379,null,"PUPPY",null,word,,,,, 'PUPPY',,
html-keyboard-response,870,2462779,398.2199998572469,"NOVEL<img id = ""stim"" ><div class = green_square id = ""topsquare"" ></div><img id = ""stim"" ><div class = green_square  id = ""bottomsquare"" ></div>",32,word_square,response,1,Space,true,,,
html-keyboard-response,871,2464281,null,"NOVEL",null,word,,,,, 'NOVEL',,
html-keyboard-response,872,2464783,null,"TABLET<img id = ""stim"" ><div class = red_square id = ""topsquare"" ></div><img id = ""stim"" ><div class = red_square  id = ""bottomsquare"" ></div>",null,word_square,response,0,none,true,,,
html-keyboard-response,873,2466285,null,"TABLET",null,word,,,,, 'TABLET',,
html-keyboard-response,874,2466656,370.2500001527369,"KIWI<img id = ""stim"" ><div class = green_square id = ""topsquare"" ></div><img id = ""stim"" ><div class = green_square  id = ""bottomsquare"" ></div>",32,word_square,response,1,Space,true,,,
html-keyboard-response,875,2468159,null,"KIWI",null,word,,,,, 'KIWI',,
html-keyboard-response,876,2468660,null,"BADGE<img id = ""stim"" ><div class = red_square id = ""topsquare"" ></div><img id = ""stim"" ><div class = red_square  id = ""bottomsquare"" ></div>",null,word_square,response,0,none,true,,,
