trial_type,trial_index,time_elapsed,rt,stimulus,key_press,test_part,targ_cond,correct_response,word,responses
pavlovia,0,680,,"",,,,,,
external-html,1,73375,72495.08999998216,"",,,,,,
html-keyboard-response,2,75327,1940.770000044722,"Welcome to the experiment. Press any key to begin.",13,,,,,
html-keyboard-response,3,83671,8341.230000020005,"<p>You will see a list of words and colored squares in the following task.<p><p>Press the spacebar whenever you see a GREEN square.<p><p>Do not press a key if the square is RED<p><p>Press the spacebar to continue.</p>",32,,,,,
html-keyboard-response,4,94858,10684.074999997392,"<p>Please try to remember as many of the words as you can, and try to think about the meaning of each word as it appears.<p><p>After the detection and encoding task you will be asked to solve some math problems for 24 seconds.<p> Please solve as many problems as you can in the time given. <p>",32,,,,,
html-keyboard-response,5,104120,8758.139999990817,"After solving the math problems, you will be asked to type in as many words <p>from the previous list as you can remember for 75 seconds.<p> If you finish recalling before the 75 seconds are up,<p> just sit tight and try to think of any more words you could have missed. <p><p>We will begin with a brief practice session<p>Press the spacebar to begin the practice.</p>",32,,,,,
html-keyboard-response,6,106628,null,"<div style=""font-size:60px;"">+</div>",null,,,,,
html-keyboard-response,7,107136,null,"HAPPY<img id = ""stim"" ><div class = red_square id = ""topsquare"" ></div><img id = ""stim"" ><div class = red_square  id = ""bottomsquare"" ></div>",null,word_square,D,none,,
html-keyboard-response,8,108638,null,"HAPPY",null,word,,,HAPPY,
html-keyboard-response,9,108647,null,"COLD<img id = ""stim"" ><div class = green_square id = ""topsquare"" ></div><img id = ""stim"" ><div class = green_square  id = ""bottomsquare"" ></div>",null,word_square,T,SPACEBAR,,
html-keyboard-response,10,110153,null,"COLD",null,word,,,COLD,
html-keyboard-response,11,110160,null,"HEAVY<img id = ""stim"" ><div class = green_square id = ""topsquare"" ></div><img id = ""stim"" ><div class = green_square  id = ""bottomsquare"" ></div>",null,word_square,T,SPACEBAR,,
html-keyboard-response,12,111662,null,"HEAVY",null,word,,,HEAVY,
html-keyboard-response,13,112167,null,"FUNNY<img id = ""stim"" ><div class = red_square id = ""topsquare"" ></div><img id = ""stim"" ><div class = red_square  id = ""bottomsquare"" ></div>",null,word_square,D,none,,
html-keyboard-response,14,113672,null,"FUNNY",null,word,,,FUNNY,
html-keyboard-response,15,113680,null,"SCARY<img id = ""stim"" ><div class = green_square id = ""topsquare"" ></div><img id = ""stim"" ><div class = green_square  id = ""bottomsquare"" ></div>",null,word_square,T,SPACEBAR,,
html-keyboard-response,16,115187,null,"SCARY",null,word,,,SCARY,
html-keyboard-response,17,115195,null,"PEACEFUL<img id = ""stim"" ><div class = green_square id = ""topsquare"" ></div><img id = ""stim"" ><div class = green_square  id = ""bottomsquare"" ></div>",null,word_square,T,SPACEBAR,,
html-keyboard-response,18,116697,null,"PEACEFUL",null,word,,,PEACEFUL,
html-keyboard-response,19,117200,null,"LITTLE<img id = ""stim"" ><div class = red_square id = ""topsquare"" ></div><img id = ""stim"" ><div class = red_square  id = ""bottomsquare"" ></div>",null,word_square,D,none,,
html-keyboard-response,20,118705,null,"LITTLE",null,word,,,LITTLE,
html-keyboard-response,21,119212,null,"TIRED<img id = ""stim"" ><div class = red_square id = ""topsquare"" ></div><img id = ""stim"" ><div class = red_square  id = ""bottomsquare"" ></div>",null,word_square,D,none,,
html-keyboard-response,22,120714,null,"TIRED",null,word,,,TIRED,
html-keyboard-response,23,121220,null,"ENTERTAINING<img id = ""stim"" ><div class = red_square id = ""topsquare"" ></div><img id = ""stim"" ><div class = red_square  id = ""bottomsquare"" ></div>",null,word_square,D,none,,
html-keyboard-response,24,122722,null,"ENTERTAINING",null,word,,,ENTERTAINING,
html-keyboard-response,25,122730,null,"GRATEFUL<img id = ""stim"" ><div class = green_square id = ""topsquare"" ></div><img id = ""stim"" ><div class = green_square  id = ""bottomsquare"" ></div>",null,word_square,T,SPACEBAR,,
html-keyboard-response,26,124235,null,"GRATEFUL",null,word,,,GRATEFUL,
html-keyboard-response,27,124737,null,"LOUD<img id = ""stim"" ><div class = red_square id = ""topsquare"" ></div><img id = ""stim"" ><div class = red_square  id = ""bottomsquare"" ></div>",null,word_square,D,none,,
html-keyboard-response,28,126239,null,"LOUD",null,word,,,LOUD,
html-keyboard-response,29,126246,null,"SMART<img id = ""stim"" ><div class = green_square id = ""topsquare"" ></div><img id = ""stim"" ><div class = green_square  id = ""bottomsquare"" ></div>",null,word_square,T,SPACEBAR,,
html-keyboard-response,30,127750,null,"SMART",null,word,,,SMART,
html-keyboard-response,31,127758,null,"SMOOTH<img id = ""stim"" ><div class = green_square id = ""topsquare"" ></div><img id = ""stim"" ><div class = green_square  id = ""bottomsquare"" ></div>",null,word_square,T,SPACEBAR,,
html-keyboard-response,32,129266,null,"SMOOTH",null,word,,,SMOOTH,
html-keyboard-response,33,129770,null,"DISHONEST<img id = ""stim"" ><div class = red_square id = ""topsquare"" ></div><img id = ""stim"" ><div class = red_square  id = ""bottomsquare"" ></div>",null,word_square,D,none,,
html-keyboard-response,34,131276,null,"DISHONEST",null,word,,,DISHONEST,
html-keyboard-response,35,131283,null,"WEALTHY<img id = ""stim"" ><div class = green_square id = ""topsquare"" ></div><img id = ""stim"" ><div class = green_square  id = ""bottomsquare"" ></div>",null,word_square,T,SPACEBAR,,
html-keyboard-response,36,132789,null,"WEALTHY",null,word,,,WEALTHY,
html-keyboard-response,37,133294,null,"BEAUTIFUL<img id = ""stim"" ><div class = red_square id = ""topsquare"" ></div><img id = ""stim"" ><div class = red_square  id = ""bottomsquare"" ></div>",null,word_square,D,none,,
html-keyboard-response,38,134797,null,"BEAUTIFUL",null,word,,,BEAUTIFUL,
html-keyboard-response,39,135301,null,"DREARY<img id = ""stim"" ><div class = red_square id = ""topsquare"" ></div><img id = ""stim"" ><div class = red_square  id = ""bottomsquare"" ></div>",null,word_square,D,none,,
html-keyboard-response,40,136807,null,"DREARY",null,word,,,DREARY,
html-keyboard-response,41,137310,null,"PLAYFUL<img id = ""stim"" ><div class = red_square id = ""topsquare"" ></div><img id = ""stim"" ><div class = red_square  id = ""bottomsquare"" ></div>",null,word_square,D,none,,
html-keyboard-response,42,138816,null,"PLAYFUL",null,word,,,PLAYFUL,
survey-text,43,140853,2014.1099999891594,"",,,,,,{"Q0":"3"}
survey-text,44,145324,4463.305000041146,"",,,,,,{"Q0":"5"}
survey-text,45,147571,2240.5950000393204,"",,,,,,{"Q0":"0"}
survey-text,46,148828,1249.5600000256673,"",,,,,,{"Q0":"3"}
survey-text,47,150118,1284.0399999986403,"",,,,,,{"Q0":"5"}
survey-text,48,152159,2035.9750000061467,"",,,,,,{"Q0":"2"}
survey-text,49,153467,1301.5099999611266,"",,,,,,{"Q0":"5"}
survey-text,50,155474,2000.89999998454,"",,,,,,{"Q0":"3"}
survey-text,51,157292,1811.2449999898672,"",,,,,,{"Q0":"2"}
survey-text,52,159362,2061.7950000450946,"",,,,,,{"Q0":"3"}
survey-text,53,161281,1912.4050000100397,"",,,,,,{"Q0":"2"}
survey-text,54,163175,1887.2599999886006,"",,,,,,{"Q0":"0"}
survey-text,55,169315,6132.619999989402,"",,,,,,{"Q0":"happy"}
survey-text,56,172818,3497.254999994766,"",,,,,,{"Q0":"entertaining"}
survey-text,57,174235,1410.5800000252202,"",,,,,,{"Q0":"wealthy"}
survey-text,58,179585,5342.6150000304915,"",,,,,,{"Q0":"persistent"}
survey-text,59,190604,11012.225000013132,"",,,,,,{"Q0":"grateful"}
survey-text,60,195652,5040.389999980107,"",,,,,,{"Q0":"pleased"}
survey-text,61,202981,7321.980000007898,"",,,,,,{"Q0":"pleasant"}
survey-text,62,214731,11743.0549999699,"",,,,,,{"Q0":"sad"}
survey-text,63,226253,11515.195000043605,"",,,,,,{"Q0":"good"}
survey-text,64,235638,9376.44000002183,"",,,,,,{"Q0":"enlightening"}
survey-text,65,261897,26251.634999993257,"",,,,,,{"Q0":"delightful"}
html-keyboard-response,66,266548,4647.999999986496,"<p>We will now begin the experiment!<p><p>Please try to remember all words from each list.<p><p>Press the spacebar whenever you see a GREEN square.<p><p><p><p>Press the spacebar to begin.</p>",32,,,,,
html-keyboard-response,67,270001,2951.650000002701,"<div style=""font-size:48px;"">Press any key to begin list 1 of 24 </div>",32,,,,,
html-keyboard-response,68,272510,null,"<div style=""font-size:60px;"">+</div>",null,,,,,
html-keyboard-response,69,273015,null,"NICKEL<img id = ""stim"" ><div class = red_square id = ""topsquare"" ></div><img id = ""stim"" ><div class = red_square  id = ""bottomsquare"" ></div>",null,word_square,0,SPACEBAR,,
html-keyboard-response,70,274519,null,"NICKEL",null,word,,, 'NICKEL',
html-keyboard-response,71,275025,null,"FIREPLACE<img id = ""stim"" ><div class = red_square id = ""topsquare"" ></div><img id = ""stim"" ><div class = red_square  id = ""bottomsquare"" ></div>",null,word_square,0,SPACEBAR,,
html-keyboard-response,72,276527,null,"FIREPLACE",null,word,,, 'FIREPLACE',
html-keyboard-response,73,277030,null,"ROCKET<img id = ""stim"" ><div class = green_square id = ""topsquare"" ></div><img id = ""stim"" ><div class = green_square  id = ""bottomsquare"" ></div>",null,word_square,1,SPACEBAR,,
html-keyboard-response,74,278536,null,"ROCKET",null,word,,, 'ROCKET',
html-keyboard-response,75,279043,null,"MOTEL<img id = ""stim"" ><div class = red_square id = ""topsquare"" ></div><img id = ""stim"" ><div class = red_square  id = ""bottomsquare"" ></div>",null,word_square,0,SPACEBAR,,
html-keyboard-response,76,280547,null,"MOTEL",null,word,,, 'MOTEL',
html-keyboard-response,77,281052,null,"DUNGEON<img id = ""stim"" ><div class = red_square id = ""topsquare"" ></div><img id = ""stim"" ><div class = red_square  id = ""bottomsquare"" ></div>",null,word_square,0,SPACEBAR,,
html-keyboard-response,78,282555,null,"DUNGEON",null,word,,, 'DUNGEON',
html-keyboard-response,79,282972,415.7600000035018,"ELK<img id = ""stim"" ><div class = green_square id = ""topsquare"" ></div><img id = ""stim"" ><div class = green_square  id = ""bottomsquare"" ></div>",32,word_square,1,SPACEBAR,,
html-keyboard-response,80,284474,null,"ELK",null,word,,, 'ELK',
html-keyboard-response,81,284977,null,"GRIZZLY<img id = ""stim"" ><div class = green_square id = ""topsquare"" ></div><img id = ""stim"" ><div class = green_square  id = ""bottomsquare"" ></div>",null,word_square,1,SPACEBAR,,
html-keyboard-response,82,286483,null,"GRIZZLY",null,word,,, 'GRIZZLY',
html-keyboard-response,83,286977,493.10999998124316,"RADISH<img id = ""stim"" ><div class = green_square id = ""topsquare"" ></div><img id = ""stim"" ><div class = green_square  id = ""bottomsquare"" ></div>",32,word_square,1,SPACEBAR,,
html-keyboard-response,84,288484,null,"RADISH",null,word,,, 'RADISH',
html-keyboard-response,85,288992,null,"MATCH<img id = ""stim"" ><div class = red_square id = ""topsquare"" ></div><img id = ""stim"" ><div class = red_square  id = ""bottomsquare"" ></div>",null,word_square,0,SPACEBAR,,
html-keyboard-response,86,290494,null,"MATCH",null,word,,, 'MATCH',
html-keyboard-response,87,291000,null,"FIREMAN<img id = ""stim"" ><div class = green_square id = ""topsquare"" ></div><img id = ""stim"" ><div class = green_square  id = ""bottomsquare"" ></div>",null,word_square,1,SPACEBAR,,
html-keyboard-response,88,292502,null,"FIREMAN",null,word,,, 'FIREMAN',
html-keyboard-response,89,293005,null,"TRANSPLANT<img id = ""stim"" ><div class = red_square id = ""topsquare"" ></div><img id = ""stim"" ><div class = red_square  id = ""bottomsquare"" ></div>",null,word_square,0,SPACEBAR,,
html-keyboard-response,90,294512,null,"TRANSPLANT",null,word,,, 'TRANSPLANT',
html-keyboard-response,91,295014,null,"GARBAGE<img id = ""stim"" ><div class = red_square id = ""topsquare"" ></div><img id = ""stim"" ><div class = red_square  id = ""bottomsquare"" ></div>",null,word_square,0,SPACEBAR,,
html-keyboard-response,92,296521,null,"GARBAGE",null,word,,, 'GARBAGE',
html-keyboard-response,93,297025,null,"FILM<img id = ""stim"" ><div class = green_square id = ""topsquare"" ></div><img id = ""stim"" ><div class = green_square  id = ""bottomsquare"" ></div>",null,word_square,1,SPACEBAR,,
html-keyboard-response,94,298532,null,"FILM",null,word,,, 'FILM',
html-keyboard-response,95,299039,null,"DRIVEWAY<img id = ""stim"" ><div class = red_square id = ""topsquare"" ></div><img id = ""stim"" ><div class = red_square  id = ""bottomsquare"" ></div>",null,word_square,0,SPACEBAR,,
html-keyboard-response,96,300543,null,"DRIVEWAY",null,word,,, 'DRIVEWAY',
html-keyboard-response,97,300960,415.6899999943562,"FUNGUS<img id = ""stim"" ><div class = green_square id = ""topsquare"" ></div><img id = ""stim"" ><div class = green_square  id = ""bottomsquare"" ></div>",32,word_square,1,SPACEBAR,,
html-keyboard-response,98,302467,null,"FUNGUS",null,word,,, 'FUNGUS',
html-keyboard-response,99,302874,405.1949999993667,"RAFT<img id = ""stim"" ><div class = green_square id = ""topsquare"" ></div><img id = ""stim"" ><div class = green_square  id = ""bottomsquare"" ></div>",32,word_square,1,SPACEBAR,,
html-keyboard-response,100,304380,null,"RAFT",null,word,,, 'RAFT',
html-keyboard-response,101,304884,null,"PORTRAIT<img id = ""stim"" ><div class = red_square id = ""topsquare"" ></div><img id = ""stim"" ><div class = red_square  id = ""bottomsquare"" ></div>",null,word_square,0,SPACEBAR,,
html-keyboard-response,102,306386,null,"PORTRAIT",null,word,,, 'PORTRAIT',
html-keyboard-response,103,306780,391.73499995376915,"CATTLE<img id = ""stim"" ><div class = green_square id = ""topsquare"" ></div><img id = ""stim"" ><div class = green_square  id = ""bottomsquare"" ></div>",32,word_square,1,SPACEBAR,,
html-keyboard-response,104,308286,null,"CATTLE",null,word,,, 'CATTLE',
survey-text,105,310075,1782.565000001341,"",,,,,,{"Q0":"3"}
survey-text,106,312241,2160.265000013169,"",,,,,,{"Q0":"0"}
survey-text,107,313414,1168.1650000391528,"",,,,,,{"Q0":"5"}
survey-text,108,315463,2044.0700000035577,"",,,,,,{"Q0":"3"}
survey-text,109,317013,1545.3599999891594,"",,,,,,{"Q0":"3"}
survey-text,110,318823,1805.0550000043586,"",,,,,,{"Q0":"2"}
survey-text,111,322059,3229.230000055395,"",,,,,,{"Q0":"1"}
survey-text,112,323788,1722.4300000234507,"",,,,,,{"Q0":"1"}
survey-text,113,325692,1898.5099999699742,"",,,,,,{"Q0":"2"}
survey-text,114,327080,1380.490000010468,"",,,,,,{"Q0":"4"}
survey-text,115,328384,1297.2850000369363,"",,,,,,{"Q0":"3"}
survey-text,116,329868,1478.1850000144914,"",,,,,,{"Q0":"2"}
survey-text,117,331184,1309.6500000101514,"",,,,,,{"Q0":"4"}
survey-text,118,333059,1869.620000012219,"",,,,,,{"Q0":"2"}
survey-text,119,335527,2460.735000029672,"",,,,,,{"Q0":"elk"}
survey-text,120,338133,2599.0749999764375,"",,,,,,{"Q0":"fireplace"}
survey-text,121,340388,2247.525000013411,"",,,,,,{"Q0":"fireman"}
survey-text,122,342034,1639.3200000165962,"",,,,,,{"Q0":"elk"}
survey-text,123,346515,4473.809999995865,"",,,,,,{"Q0":"film"}
survey-text,124,348117,1594.699999957811,"",,,,,,{"Q0":"fungus"}
survey-text,125,355430,7306.385000003502,"",,,,,,{"Q0":"transplant"}
survey-text,126,396909,41470.29999998631,"",,,,,,{"Q0":"fireplace"}
survey-text,127,405431,8514.589999977034,"",,,,,,{"Q0":"grizzly"}
survey-text,128,490610,85170.09500000859,"",,,,,,{"Q0":"radish"}
html-keyboard-response,129,492446,1833.2999999984168,"<div style=""font-size:48px;"">Press any key to begin list 2 of 24 </div>",13,,,,,
html-keyboard-response,130,494948,null,"<div style=""font-size:60px;"">+</div>",null,,,,,
html-keyboard-response,131,495455,null,"CONVICT<img id = ""stim"" ><div class = red_square id = ""topsquare"" ></div><img id = ""stim"" ><div class = red_square  id = ""bottomsquare"" ></div>",null,word_square,0,SPACEBAR,,
html-keyboard-response,132,496958,null,"CONVICT",null,word,,, 'CONVICT',
html-keyboard-response,133,497465,null,"OUTLAW<img id = ""stim"" ><div class = red_square id = ""topsquare"" ></div><img id = ""stim"" ><div class = red_square  id = ""bottomsquare"" ></div>",null,word_square,0,SPACEBAR,,
html-keyboard-response,134,498967,null,"OUTLAW",null,word,,, 'OUTLAW',
html-keyboard-response,135,499471,null,"COUGAR<img id = ""stim"" ><div class = green_square id = ""topsquare"" ></div><img id = ""stim"" ><div class = green_square  id = ""bottomsquare"" ></div>",null,word_square,1,SPACEBAR,,
html-keyboard-response,136,500975,null,"COUGAR",null,word,,, 'COUGAR',
html-keyboard-response,137,501478,null,"BOX<img id = ""stim"" ><div class = red_square id = ""topsquare"" ></div><img id = ""stim"" ><div class = red_square  id = ""bottomsquare"" ></div>",null,word_square,0,SPACEBAR,,
html-keyboard-response,138,502984,null,"BOX",null,word,,, 'BOX',
html-keyboard-response,139,503486,null,"TRIBE<img id = ""stim"" ><div class = red_square id = ""topsquare"" ></div><img id = ""stim"" ><div class = red_square  id = ""bottomsquare"" ></div>",null,word_square,0,SPACEBAR,,
html-keyboard-response,140,504993,null,"TRIBE",null,word,,, 'TRIBE',
html-keyboard-response,141,505500,null,"GIRL<img id = ""stim"" ><div class = green_square id = ""topsquare"" ></div><img id = ""stim"" ><div class = green_square  id = ""bottomsquare"" ></div>",null,word_square,1,SPACEBAR,,
html-keyboard-response,142,507002,null,"GIRL",null,word,,, 'GIRL',
html-keyboard-response,143,507508,null,"SHERIFF<img id = ""stim"" ><div class = green_square id = ""topsquare"" ></div><img id = ""stim"" ><div class = green_square  id = ""bottomsquare"" ></div>",null,word_square,1,SPACEBAR,,
html-keyboard-response,144,509010,null,"SHERIFF",null,word,,, 'SHERIFF',
html-keyboard-response,145,509513,null,"SENATE<img id = ""stim"" ><div class = green_square id = ""topsquare"" ></div><img id = ""stim"" ><div class = green_square  id = ""bottomsquare"" ></div>",null,word_square,1,SPACEBAR,,
html-keyboard-response,146,511019,null,"SENATE",null,word,,, 'SENATE',
html-keyboard-response,147,511522,null,"KEEPER<img id = ""stim"" ><div class = red_square id = ""topsquare"" ></div><img id = ""stim"" ><div class = red_square  id = ""bottomsquare"" ></div>",null,word_square,0,SPACEBAR,,
html-keyboard-response,148,513025,null,"KEEPER",null,word,,, 'KEEPER',
html-keyboard-response,149,513492,465.22999997250736,"DONOR<img id = ""stim"" ><div class = green_square id = ""topsquare"" ></div><img id = ""stim"" ><div class = green_square  id = ""bottomsquare"" ></div>",32,word_square,1,SPACEBAR,,
html-keyboard-response,150,514994,null,"DONOR",null,word,,, 'DONOR',
html-keyboard-response,151,515496,null,"MASK<img id = ""stim"" ><div class = red_square id = ""topsquare"" ></div><img id = ""stim"" ><div class = red_square  id = ""bottomsquare"" ></div>",null,word_square,0,SPACEBAR,,
html-keyboard-response,152,517001,null,"MASK",null,word,,, 'MASK',
html-keyboard-response,153,517507,null,"SCARF<img id = ""stim"" ><div class = red_square id = ""topsquare"" ></div><img id = ""stim"" ><div class = red_square  id = ""bottomsquare"" ></div>",null,word_square,0,SPACEBAR,,
html-keyboard-response,154,519010,null,"SCARF",null,word,,, 'SCARF',
html-keyboard-response,155,519512,500.3150000120513,"CRADLE<img id = ""stim"" ><div class = green_square id = ""topsquare"" ></div><img id = ""stim"" ><div class = green_square  id = ""bottomsquare"" ></div>",32,word_square,1,SPACEBAR,,
html-keyboard-response,156,521019,null,"CRADLE",null,word,,, 'CRADLE',
html-keyboard-response,157,521524,null,"BRAKE<img id = ""stim"" ><div class = red_square id = ""topsquare"" ></div><img id = ""stim"" ><div class = red_square  id = ""bottomsquare"" ></div>",null,word_square,0,SPACEBAR,,
html-keyboard-response,158,523028,null,"BRAKE",null,word,,, 'BRAKE',
html-keyboard-response,159,523498,469.44499999517575,"FIST<img id = ""stim"" ><div class = green_square id = ""topsquare"" ></div><img id = ""stim"" ><div class = green_square  id = ""bottomsquare"" ></div>",32,word_square,1,SPACEBAR,,
html-keyboard-response,160,525001,null,"FIST",null,word,,, 'FIST',
html-keyboard-response,161,525504,null,"HONEY<img id = ""stim"" ><div class = green_square id = ""topsquare"" ></div><img id = ""stim"" ><div class = green_square  id = ""bottomsquare"" ></div>",null,word_square,1,SPACEBAR,,
html-keyboard-response,162,527006,null,"HONEY",null,word,,, 'HONEY',
html-keyboard-response,163,527510,null,"HORNET<img id = ""stim"" ><div class = red_square id = ""topsquare"" ></div><img id = ""stim"" ><div class = red_square  id = ""bottomsquare"" ></div>",null,word_square,0,SPACEBAR,,
html-keyboard-response,164,529014,null,"HORNET",null,word,,, 'HORNET',
html-keyboard-response,165,529518,null,"BADGE<img id = ""stim"" ><div class = green_square id = ""topsquare"" ></div><img id = ""stim"" ><div class = green_square  id = ""bottomsquare"" ></div>",null,word_square,1,SPACEBAR,,
html-keyboard-response,166,531020,null,"BADGE",null,word,,, 'BADGE',
survey-text,167,533408,2381.3350000418723,"",,,,,,{"Q0":"3"}
survey-text,168,534675,1259.6250000060536,"",,,,,,{"Q0":"2"}
survey-text,169,535995,1314.3999999738298,"",,,,,,{"Q0":"5"}
survey-text,170,537809,1807.4849999975413,"",,,,,,{"Q0":"5"}
survey-text,171,539039,1223.9499999559484,"",,,,,,{"Q0":"3"}
survey-text,172,540387,1342.0949999708682,"",,,,,,{"Q0":"3"}
survey-text,173,542900,2508.785000012722,"",,,,,,{"Q0":"1"}
survey-text,174,544428,1522.1999999484979,"",,,,,,{"Q0":"3"}
survey-text,175,545681,1247.4550000042655,"",,,,,,{"Q0":"2"}
survey-text,176,547569,1880.7549999910407,"",,,,,,{"Q0":"4"}
survey-text,177,549140,1564.4800000009127,"",,,,,,{"Q0":"4"}
survey-text,178,550467,1321.135000034701,"",,,,,,{"Q0":"2"}
survey-text,179,552102,1630.170000018552,"",,,,,,{"Q0":"2"}
survey-text,180,555286,3176.4499999699183,"",,,,,,{"Q0":"1"}
survey-text,181,558260,2966.629999980796,"",,,,,,{"Q0":"sherrif"}
survey-text,182,559899,1632.1199999656528,"",,,,,,{"Q0":"outlaw"}
survey-text,183,561484,1578.815000015311,"",,,,,,{"Q0":"convict"}
survey-text,184,562571,1079.6200000331737,"",,,,,,{"Q0":"girl"}
survey-text,185,563882,1303.8800000213087,"",,,,,,{"Q0":"tribe"}
survey-text,186,565923,2033.480000041891,"",,,,,,{"Q0":"badge"}
survey-text,187,570496,4566.314999945462,"",,,,,,{"Q0":"mask"}
survey-text,188,573039,2535.5100000160746,"",,,,,,{"Q0":"scarf"}
survey-text,189,575224,2178.234999999404,"",,,,,,{"Q0":"donor"}
survey-text,190,594217,18985.264999966603,"",,,,,,{"Q0":"honey"}
survey-text,191,595629,1405.6199999758974,"",,,,,,{"Q0":"fist"}
survey-text,192,598278,2642.0250000082888,"",,,,,,{"Q0":"hornet"}
survey-text,193,619979,21693.25499999104,"",,,,,,{"Q0":"senate"}
survey-text,194,711750,91761.24000002164,"",,,,,,{"Q0":"cougar"}
html-keyboard-response,195,714942,3189.589999965392,"<div style=""font-size:48px;"">Press any key to begin list 3 of 24 </div>",32,,,,,
html-keyboard-response,196,717445,null,"<div style=""font-size:60px;"">+</div>",null,,,,,
html-keyboard-response,197,717952,null,"JUNGLE<img id = ""stim"" ><div class = green_square id = ""topsquare"" ></div><img id = ""stim"" ><div class = green_square  id = ""bottomsquare"" ></div>",null,word_square,1,SPACEBAR,,
html-keyboard-response,198,719454,null,"JUNGLE",null,word,,, 'JUNGLE',
html-keyboard-response,199,719477,21.474999957717955,"PRIMATE<img id = ""stim"" ><div class = green_square id = ""topsquare"" ></div><img id = ""stim"" ><div class = green_square  id = ""bottomsquare"" ></div>",32,word_square,1,SPACEBAR,,
html-keyboard-response,200,720980,null,"PRIMATE",null,word,,, 'PRIMATE',
html-keyboard-response,201,721486,null,"CLIMBER<img id = ""stim"" ><div class = red_square id = ""topsquare"" ></div><img id = ""stim"" ><div class = red_square  id = ""bottomsquare"" ></div>",null,word_square,0,SPACEBAR,,
html-keyboard-response,202,722993,null,"CLIMBER",null,word,,, 'CLIMBER',
html-keyboard-response,203,723409,414.1749999835156,"SUMMIT<img id = ""stim"" ><div class = green_square id = ""topsquare"" ></div><img id = ""stim"" ><div class = green_square  id = ""bottomsquare"" ></div>",32,word_square,1,SPACEBAR,,
html-keyboard-response,204,724916,null,"SUMMIT",null,word,,, 'SUMMIT',
html-keyboard-response,205,725421,null,"FLESH<img id = ""stim"" ><div class = green_square id = ""topsquare"" ></div><img id = ""stim"" ><div class = green_square  id = ""bottomsquare"" ></div>",null,word_square,1,SPACEBAR,,
html-keyboard-response,206,726924,null,"FLESH",null,word,,, 'FLESH',
html-keyboard-response,207,727427,null,"QUAIL<img id = ""stim"" ><div class = red_square id = ""topsquare"" ></div><img id = ""stim"" ><div class = red_square  id = ""bottomsquare"" ></div>",null,word_square,0,SPACEBAR,,
html-keyboard-response,208,728931,null,"QUAIL",null,word,,, 'QUAIL',
html-keyboard-response,209,729433,null,"STRING<img id = ""stim"" ><div class = red_square id = ""topsquare"" ></div><img id = ""stim"" ><div class = red_square  id = ""bottomsquare"" ></div>",null,word_square,0,SPACEBAR,,
html-keyboard-response,210,730937,null,"STRING",null,word,,, 'STRING',
html-keyboard-response,211,731443,null,"POSTAGE<img id = ""stim"" ><div class = red_square id = ""topsquare"" ></div><img id = ""stim"" ><div class = red_square  id = ""bottomsquare"" ></div>",null,word_square,0,SPACEBAR,,
html-keyboard-response,212,732946,null,"POSTAGE",null,word,,, 'POSTAGE',
html-keyboard-response,213,733340,391.6249999892898,"ARTIST<img id = ""stim"" ><div class = green_square id = ""topsquare"" ></div><img id = ""stim"" ><div class = green_square  id = ""bottomsquare"" ></div>",32,word_square,1,SPACEBAR,,
html-keyboard-response,214,734847,null,"ARTIST",null,word,,, 'ARTIST',
html-keyboard-response,215,735352,null,"SHOULDER<img id = ""stim"" ><div class = red_square id = ""topsquare"" ></div><img id = ""stim"" ><div class = red_square  id = ""bottomsquare"" ></div>",null,word_square,0,SPACEBAR,,
html-keyboard-response,216,736858,null,"SHOULDER",null,word,,, 'SHOULDER',
html-keyboard-response,217,737365,null,"GARAGE<img id = ""stim"" ><div class = green_square id = ""topsquare"" ></div><img id = ""stim"" ><div class = green_square  id = ""bottomsquare"" ></div>",null,word_square,1,SPACEBAR,,
html-keyboard-response,218,738872,null,"GARAGE",null,word,,, 'GARAGE',
html-keyboard-response,219,739312,437.644999998156,"PUPPY<img id = ""stim"" ><div class = green_square id = ""topsquare"" ></div><img id = ""stim"" ><div class = green_square  id = ""bottomsquare"" ></div>",32,word_square,1,SPACEBAR,,
html-keyboard-response,220,740819,null,"PUPPY",null,word,,, 'PUPPY',
html-keyboard-response,221,741326,null,"MONEY<img id = ""stim"" ><div class = red_square id = ""topsquare"" ></div><img id = ""stim"" ><div class = red_square  id = ""bottomsquare"" ></div>",null,word_square,0,SPACEBAR,,
html-keyboard-response,222,742830,null,"MONEY",null,word,,, 'MONEY',
html-keyboard-response,223,743282,450.2449999563396,"DRILL<img id = ""stim"" ><div class = green_square id = ""topsquare"" ></div><img id = ""stim"" ><div class = green_square  id = ""bottomsquare"" ></div>",32,word_square,1,SPACEBAR,,
html-keyboard-response,224,744789,null,"DRILL",null,word,,, 'DRILL',
html-keyboard-response,225,745291,null,"BLUEPRINT<img id = ""stim"" ><div class = red_square id = ""topsquare"" ></div><img id = ""stim"" ><div class = red_square  id = ""bottomsquare"" ></div>",null,word_square,0,SPACEBAR,,
html-keyboard-response,226,746795,null,"BLUEPRINT",null,word,,, 'BLUEPRINT',
html-keyboard-response,227,747303,null,"COURSE<img id = ""stim"" ><div class = red_square id = ""topsquare"" ></div><img id = ""stim"" ><div class = red_square  id = ""bottomsquare"" ></div>",null,word_square,0,SPACEBAR,,
html-keyboard-response,228,748809,null,"COURSE",null,word,,, 'COURSE',
html-keyboard-response,229,749234,422.1200000029057,"MAILBOX<img id = ""stim"" ><div class = green_square id = ""topsquare"" ></div><img id = ""stim"" ><div class = green_square  id = ""bottomsquare"" ></div>",32,word_square,1,SPACEBAR,,
html-keyboard-response,230,750737,null,"MAILBOX",null,word,,, 'MAILBOX',
html-keyboard-response,231,751243,null,"HAND<img id = ""stim"" ><div class = red_square id = ""topsquare"" ></div><img id = ""stim"" ><div class = red_square  id = ""bottomsquare"" ></div>",null,word_square,0,SPACEBAR,,
html-keyboard-response,232,752747,null,"HAND",null,word,,, 'HAND',
survey-text,233,754570,1816.709999984596,"",,,,,,{"Q0":"3"}
survey-text,234,756395,1818.1700000423007,"",,,,,,{"Q0":"3"}
survey-text,235,759168,2767.730000021402,"",,,,,,{"Q0":"1"}
survey-text,236,760617,1442.319999972824,"",,,,,,{"Q0":"5"}
survey-text,237,761760,1136.2349999835715,"",,,,,,{"Q0":"2"}
survey-text,238,763812,2045.8650000509806,"",,,,,,{"Q0":"3"}
survey-text,239,765599,1780.785000009928,"",,,,,,{"Q0":"2"}
survey-text,240,766944,1338.7699999730103,"",,,,,,{"Q0":"3"}
survey-text,241,769387,2436.2599999876693,"",,,,,,{"Q0":"2"}
survey-text,242,771621,2227.2999999695458,"",,,,,,{"Q0":"1"}
survey-text,243,772908,1279.2550000012852,"",,,,,,{"Q0":"5"}
survey-text,244,774393,1478.1899999943562,"",,,,,,{"Q0":"5"}
survey-text,245,777586,3186.9450000231154,"",,,,,,{"Q0":"0"}
survey-text,246,782083,4490.51499995403,"",,,,,,{"Q0":"summit"}
survey-text,247,783679,1589.3250000081025,"",,,,,,{"Q0":"jungle"}
survey-text,248,786298,2613.3550000377,"",,,,,,{"Q0":"monkey"}
survey-text,249,787974,1668.1300000054762,"",,,,,,{"Q0":"climb"}
survey-text,250,791812,3831.2899999436922,"",,,,,,{"Q0":"flesh"}
survey-text,251,792707,888.840000028722,"",,,,,,{"Q0":"hand"}
survey-text,252,794451,1737.5849999953061,"",,,,,,{"Q0":"shoulder"}
survey-text,253,795720,1262.0499999611638,"",,,,,,{"Q0":"artist"}
survey-text,254,800648,4921.155000047293,"",,,,,,{"Q0":"string"}
survey-text,255,802567,1912.0600000023842,"",,,,,,{"Q0":"postage"}
survey-text,256,805071,2497.1049999585375,"",,,,,,{"Q0":"mailbox"}
survey-text,257,809976,4898.519999987911,"",,,,,,{"Q0":"puppy"}
survey-text,258,811544,1561.2799999653362,"",,,,,,{"Q0":"garage"}
survey-text,259,812661,1110.6150000123307,"",,,,,,{"Q0":"money"}
survey-text,260,814609,1940.8549999934621,"",,,,,,{"Q0":"blueprint"}
survey-text,261,816113,1497.2149999812245,"",,,,,,{"Q0":"drill"}
survey-text,262,1171951,355808.4599999711,"",,,,,,{"Q0":"jungle"}
html-keyboard-response,263,1172712,759.1799999936484,"<div style=""font-size:48px;"">Press any key to begin list 4 of 24 </div>",13,,,,,
html-keyboard-response,264,1175222,null,"<div style=""font-size:60px;"">+</div>",null,,,,,
html-keyboard-response,265,1175729,null,"PONY<img id = ""stim"" ><div class = green_square id = ""topsquare"" ></div><img id = ""stim"" ><div class = green_square  id = ""bottomsquare"" ></div>",null,word_square,1,SPACEBAR,,
html-keyboard-response,266,1177232,null,"PONY",null,word,,, 'PONY',
html-keyboard-response,267,1177737,null,"FREEZER<img id = ""stim"" ><div class = green_square id = ""topsquare"" ></div><img id = ""stim"" ><div class = green_square  id = ""bottomsquare"" ></div>",null,word_square,1,SPACEBAR,,
html-keyboard-response,268,1179241,null,"FREEZER",null,word,,, 'FREEZER',
html-keyboard-response,269,1179748,null,"SHELF<img id = ""stim"" ><div class = red_square id = ""topsquare"" ></div><img id = ""stim"" ><div class = red_square  id = ""bottomsquare"" ></div>",null,word_square,0,SPACEBAR,,
html-keyboard-response,270,1181252,null,"SHELF",null,word,,, 'SHELF',
html-keyboard-response,271,1181756,null,"ELBOW<img id = ""stim"" ><div class = green_square id = ""topsquare"" ></div><img id = ""stim"" ><div class = green_square  id = ""bottomsquare"" ></div>",null,word_square,1,SPACEBAR,,
html-keyboard-response,272,1183261,null,"ELBOW",null,word,,, 'ELBOW',
html-keyboard-response,273,1183764,null,"GODDESS<img id = ""stim"" ><div class = green_square id = ""topsquare"" ></div><img id = ""stim"" ><div class = green_square  id = ""bottomsquare"" ></div>",null,word_square,1,SPACEBAR,,
html-keyboard-response,274,1185269,null,"GODDESS",null,word,,, 'GODDESS',
html-keyboard-response,275,1185771,null,"PITCHFORK<img id = ""stim"" ><div class = red_square id = ""topsquare"" ></div><img id = ""stim"" ><div class = red_square  id = ""bottomsquare"" ></div>",null,word_square,0,SPACEBAR,,
html-keyboard-response,276,1187276,null,"PITCHFORK",null,word,,, 'PITCHFORK',
html-keyboard-response,277,1187779,null,"CLAMP<img id = ""stim"" ><div class = red_square id = ""topsquare"" ></div><img id = ""stim"" ><div class = red_square  id = ""bottomsquare"" ></div>",null,word_square,0,SPACEBAR,,
html-keyboard-response,278,1189284,null,"CLAMP",null,word,,, 'CLAMP',
html-keyboard-response,279,1189787,null,"LIZARD<img id = ""stim"" ><div class = red_square id = ""topsquare"" ></div><img id = ""stim"" ><div class = red_square  id = ""bottomsquare"" ></div>",null,word_square,0,SPACEBAR,,
html-keyboard-response,280,1191292,null,"LIZARD",null,word,,, 'LIZARD',
html-keyboard-response,281,1191798,null,"POISON<img id = ""stim"" ><div class = green_square id = ""topsquare"" ></div><img id = ""stim"" ><div class = green_square  id = ""bottomsquare"" ></div>",null,word_square,1,SPACEBAR,,
html-keyboard-response,282,1193302,null,"POISON",null,word,,, 'POISON',
html-keyboard-response,283,1193805,null,"OUTFIT<img id = ""stim"" ><div class = red_square id = ""topsquare"" ></div><img id = ""stim"" ><div class = red_square  id = ""bottomsquare"" ></div>",null,word_square,0,SPACEBAR,,
html-keyboard-response,284,1195307,null,"OUTFIT",null,word,,, 'OUTFIT',
html-keyboard-response,285,1195811,null,"PIGEON<img id = ""stim"" ><div class = green_square id = ""topsquare"" ></div><img id = ""stim"" ><div class = green_square  id = ""bottomsquare"" ></div>",null,word_square,1,SPACEBAR,,
html-keyboard-response,286,1197315,null,"PIGEON",null,word,,, 'PIGEON',
html-keyboard-response,287,1197820,null,"TURKEY<img id = ""stim"" ><div class = green_square id = ""topsquare"" ></div><img id = ""stim"" ><div class = green_square  id = ""bottomsquare"" ></div>",null,word_square,1,SPACEBAR,,
html-keyboard-response,288,1199324,null,"TURKEY",null,word,,, 'TURKEY',
html-keyboard-response,289,1199830,null,"LADDER<img id = ""stim"" ><div class = red_square id = ""topsquare"" ></div><img id = ""stim"" ><div class = red_square  id = ""bottomsquare"" ></div>",null,word_square,0,SPACEBAR,,
html-keyboard-response,290,1201332,null,"LADDER",null,word,,, 'LADDER',
html-keyboard-response,291,1201728,393.2149999891408,"CAFE<img id = ""stim"" ><div class = green_square id = ""topsquare"" ></div><img id = ""stim"" ><div class = green_square  id = ""bottomsquare"" ></div>",32,word_square,1,SPACEBAR,,
html-keyboard-response,292,1203234,null,"CAFE",null,word,,, 'CAFE',
html-keyboard-response,293,1203739,null,"COOKBOOK<img id = ""stim"" ><div class = red_square id = ""topsquare"" ></div><img id = ""stim"" ><div class = red_square  id = ""bottomsquare"" ></div>",null,word_square,0,SPACEBAR,,
html-keyboard-response,294,1205242,null,"COOKBOOK",null,word,,, 'COOKBOOK',
html-keyboard-response,295,1205749,null,"CLOSET<img id = ""stim"" ><div class = red_square id = ""topsquare"" ></div><img id = ""stim"" ><div class = red_square  id = ""bottomsquare"" ></div>",null,word_square,0,SPACEBAR,,
html-keyboard-response,296,1207256,null,"CLOSET",null,word,,, 'CLOSET',
html-keyboard-response,297,1207711,453.0599999707192,"CRATER<img id = ""stim"" ><div class = green_square id = ""topsquare"" ></div><img id = ""stim"" ><div class = green_square  id = ""bottomsquare"" ></div>",32,word_square,1,SPACEBAR,,
html-keyboard-response,298,1209219,null,"CRATER",null,word,,, 'CRATER',
html-keyboard-response,299,1209721,null,"VALLEY<img id = ""stim"" ><div class = red_square id = ""topsquare"" ></div><img id = ""stim"" ><div class = red_square  id = ""bottomsquare"" ></div>",null,word_square,0,SPACEBAR,,
html-keyboard-response,300,1211228,null,"VALLEY",null,word,,, 'VALLEY',
survey-text,301,1212824,1590.0350000010803,"",,,,,,{"Q0":"3"}
survey-text,302,1214029,1198.119999957271,"",,,,,,{"Q0":"3"}
survey-text,303,1215174,1138.4950000210665,"",,,,,,{"Q0":"4"}
survey-text,304,1216430,1249.9250000109896,"",,,,,,{"Q0":"4"}
survey-text,305,1217881,1445.319999998901,"",,,,,,{"Q0":"1"}
survey-text,306,1219862,1974.735000054352,"",,,,,,{"Q0":"0"}
survey-text,307,1221240,1368.7550000031479,"",,,,,,{"Q0":"5"}
survey-text,308,1222501,1254.4350000098348,"",,,,,,{"Q0":"3"}
survey-text,309,1223765,1258.750000037253,"",,,,,,{"Q0":"3"}
survey-text,310,1225435,1663.3550000260584,"",,,,,,{"Q0":"3"}
survey-text,311,1226879,1437.1249999967404,"",,,,,,{"Q0":"5"}
survey-text,312,1228310,1424.910000001546,"",,,,,,{"Q0":"5"}
survey-text,313,1230301,1984.7150000277907,"",,,,,,{"Q0":"2"}
survey-text,314,1231974,1666.5350000257604,"",,,,,,{"Q0":"3"}
survey-text,315,1233230,1249.8049999703653,"",,,,,,{"Q0":"5"}
survey-text,316,1235618,2381.950000009965,"",,,,,,{"Q0":"2"}
survey-text,317,1238690,3064.825000008568,"",,,,,,{"Q0":"goddess"}
survey-text,318,1240175,1477.919999975711,"",,,,,,{"Q0":"pony"}
survey-text,319,1243784,3601.235000009183,"",,,,,,{"Q0":"freezer"}
survey-text,320,1245259,1467.304999998305,"",,,,,,{"Q0":"shelf"}
survey-text,321,1247538,2272.540000034496,"",,,,,,{"Q0":"cookbook"}
survey-text,322,1249633,2088.2850000052713,"",,,,,,{"Q0":"pigeon"}
survey-text,323,1251416,1776.2499999953434,"",,,,,,{"Q0":"turkey"}
survey-text,324,1253366,1942.9200000013225,"",,,,,,{"Q0":"crater"}
survey-text,325,1258197,4824.645000044256,"",,,,,,{"Q0":"elbow"}
survey-text,326,1265567,7363.429999968503,"",,,,,,{"Q0":"pitchfork"}
survey-text,327,1294517,28943.369999993593,"",,,,,,{"Q0":"valley"}
survey-text,328,1376225,81698.81999999052,"",,,,,,{"Q0":"crater"}
html-keyboard-response,329,1376949,721.0300000151619,"<div style=""font-size:48px;"">Press any key to begin list 5 of 24 </div>",13,,,,,
html-keyboard-response,330,1379458,null,"<div style=""font-size:60px;"">+</div>",null,,,,,
html-keyboard-response,331,1379963,null,"PALACE<img id = ""stim"" ><div class = green_square id = ""topsquare"" ></div><img id = ""stim"" ><div class = green_square  id = ""bottomsquare"" ></div>",null,word_square,1,SPACEBAR,,
html-keyboard-response,332,1381467,null,"PALACE",null,word,,, 'PALACE',
html-keyboard-response,333,1381974,null,"MILDEW<img id = ""stim"" ><div class = green_square id = ""topsquare"" ></div><img id = ""stim"" ><div class = green_square  id = ""bottomsquare"" ></div>",null,word_square,1,SPACEBAR,,
html-keyboard-response,334,1383476,null,"MILDEW",null,word,,, 'MILDEW',
html-keyboard-response,335,1383961,483.41000004438683,"SLIME<img id = ""stim"" ><div class = green_square id = ""topsquare"" ></div><img id = ""stim"" ><div class = green_square  id = ""bottomsquare"" ></div>",32,word_square,1,SPACEBAR,,
html-keyboard-response,336,1385463,null,"SLIME",null,word,,, 'SLIME',
html-keyboard-response,337,1385971,null,"EMPIRE<img id = ""stim"" ><div class = red_square id = ""topsquare"" ></div><img id = ""stim"" ><div class = red_square  id = ""bottomsquare"" ></div>",null,word_square,0,SPACEBAR,,
html-keyboard-response,338,1387478,null,"EMPIRE",null,word,,, 'EMPIRE',
html-keyboard-response,339,1387985,null,"STABLE<img id = ""stim"" ><div class = red_square id = ""topsquare"" ></div><img id = ""stim"" ><div class = red_square  id = ""bottomsquare"" ></div>",null,word_square,0,SPACEBAR,,
html-keyboard-response,340,1389490,null,"STABLE",null,word,,, 'STABLE',
html-keyboard-response,341,1389917,425.99000001791865,"DRIVER<img id = ""stim"" ><div class = green_square id = ""topsquare"" ></div><img id = ""stim"" ><div class = green_square  id = ""bottomsquare"" ></div>",32,word_square,1,SPACEBAR,,
html-keyboard-response,342,1391421,null,"DRIVER",null,word,,, 'DRIVER',
html-keyboard-response,343,1391923,null,"PUMPKIN<img id = ""stim"" ><div class = red_square id = ""topsquare"" ></div><img id = ""stim"" ><div class = red_square  id = ""bottomsquare"" ></div>",null,word_square,0,SPACEBAR,,
html-keyboard-response,344,1393430,null,"PUMPKIN",null,word,,, 'PUMPKIN',
html-keyboard-response,345,1393937,null,"MAJOR<img id = ""stim"" ><div class = red_square id = ""topsquare"" ></div><img id = ""stim"" ><div class = red_square  id = ""bottomsquare"" ></div>",null,word_square,0,SPACEBAR,,
html-keyboard-response,346,1395441,null,"MAJOR",null,word,,, 'MAJOR',
html-keyboard-response,347,1395945,null,"SPIDER<img id = ""stim"" ><div class = green_square id = ""topsquare"" ></div><img id = ""stim"" ><div class = green_square  id = ""bottomsquare"" ></div>",null,word_square,1,SPACEBAR,,
html-keyboard-response,348,1397448,null,"SPIDER",null,word,,, 'SPIDER',
html-keyboard-response,349,1397955,null,"PASTRY<img id = ""stim"" ><div class = red_square id = ""topsquare"" ></div><img id = ""stim"" ><div class = red_square  id = ""bottomsquare"" ></div>",null,word_square,0,SPACEBAR,,
html-keyboard-response,350,1399460,null,"PASTRY",null,word,,, 'PASTRY',
html-keyboard-response,351,1399961,498.65000002318993,"DRAWING<img id = ""stim"" ><div class = green_square id = ""topsquare"" ></div><img id = ""stim"" ><div class = green_square  id = ""bottomsquare"" ></div>",32,word_square,1,SPACEBAR,,
html-keyboard-response,352,1401466,null,"DRAWING",null,word,,, 'DRAWING',
html-keyboard-response,353,1401970,null,"FRAME<img id = ""stim"" ><div class = red_square id = ""topsquare"" ></div><img id = ""stim"" ><div class = red_square  id = ""bottomsquare"" ></div>",null,word_square,0,SPACEBAR,,
html-keyboard-response,354,1403477,null,"FRAME",null,word,,, 'FRAME',
html-keyboard-response,355,1403953,473.51500001968816,"ROBOT<img id = ""stim"" ><div class = green_square id = ""topsquare"" ></div><img id = ""stim"" ><div class = green_square  id = ""bottomsquare"" ></div>",32,word_square,1,SPACEBAR,,
html-keyboard-response,356,1405460,null,"ROBOT",null,word,,, 'ROBOT',
html-keyboard-response,357,1405966,null,"RECORD<img id = ""stim"" ><div class = red_square id = ""topsquare"" ></div><img id = ""stim"" ><div class = red_square  id = ""bottomsquare"" ></div>",null,word_square,0,SPACEBAR,,
html-keyboard-response,358,1407470,null,"RECORD",null,word,,, 'RECORD',
html-keyboard-response,359,1407975,null,"INSECT<img id = ""stim"" ><div class = red_square id = ""topsquare"" ></div><img id = ""stim"" ><div class = red_square  id = ""bottomsquare"" ></div>",null,word_square,0,SPACEBAR,,
html-keyboard-response,360,1409480,null,"INSECT",null,word,,, 'INSECT',
html-keyboard-response,361,1409955,473.1899999896996,"BACKBONE<img id = ""stim"" ><div class = green_square id = ""topsquare"" ></div><img id = ""stim"" ><div class = green_square  id = ""bottomsquare"" ></div>",32,word_square,1,SPACEBAR,,
html-keyboard-response,362,1411462,null,"BACKBONE",null,word,,, 'BACKBONE',
html-keyboard-response,363,1411965,null,"DOUGHNUT<img id = ""stim"" ><div class = red_square id = ""topsquare"" ></div><img id = ""stim"" ><div class = red_square  id = ""bottomsquare"" ></div>",null,word_square,0,SPACEBAR,,
html-keyboard-response,364,1413472,null,"DOUGHNUT",null,word,,, 'DOUGHNUT',
html-keyboard-response,365,1413817,343.53999997256324,"CRICKET<img id = ""stim"" ><div class = green_square id = ""topsquare"" ></div><img id = ""stim"" ><div class = green_square  id = ""bottomsquare"" ></div>",32,word_square,1,SPACEBAR,,
html-keyboard-response,366,1415324,null,"CRICKET",null,word,,, 'CRICKET',
survey-text,367,1416644,1313.1899999571033,"",,,,,,{"Q0":"3"}
survey-text,368,1419433,2783.294999971986,"",,,,,,{"Q0":"2"}
survey-text,369,1422264,2826.0749999899417,"",,,,,,{"Q0":"3"}
survey-text,370,1423411,1141.0649999743327,"",,,,,,{"Q0":"5"}
survey-text,371,1424488,1071.8800000031479,"",,,,,,{"Q0":"2"}
survey-text,372,1425933,1440.7999999821186,"",,,,,,{"Q0":"4"}
survey-text,373,1427144,1204.6350000309758,"",,,,,,{"Q0":"4"}
survey-text,374,1428384,1233.3550000330433,"",,,,,,{"Q0":"5"}
survey-text,375,1429637,1246.6899999999441,"",,,,,,{"Q0":"4"}
survey-text,376,1431103,1460.6299999868497,"",,,,,,{"Q0":"3"}
survey-text,377,1433425,2315.5850000330247,"",,,,,,{"Q0":"4"}
survey-text,378,1434712,1280.2000000374392,"",,,,,,{"Q0":"3"}
survey-text,379,1437064,2345.1200000126846,"",,,,,,{"Q0":"2"}
survey-text,380,1438284,1213.1199999712408,"",,,,,,{"Q0":"6"}
survey-text,381,1440236,1945.2400000300258,"",,,,,,{"Q0":"4"}
survey-text,382,1443166,2922.9300000006333,"",,,,,,{"Q0":"cricket"}
survey-text,383,1445698,2524.8300000093877,"",,,,,,{"Q0":"doughnut"}
survey-text,384,1448254,2548.869999998715,"",,,,,,{"Q0":"backbone"}
survey-text,385,1449920,1661.3349999533966,"",,,,,,{"Q0":"insect"}
survey-text,386,1451138,1210.9700000146404,"",,,,,,{"Q0":"slime"}
survey-text,387,1453266,2116.3999999989755,"",,,,,,{"Q0":"mildew"}
survey-text,388,1455131,1857.9199999803677,"",,,,,,{"Q0":"palace"}
survey-text,389,1457104,1966.164999990724,"",,,,,,{"Q0":"empire"}
survey-text,390,1483014,25901.43500000704,"",,,,,,{"Q0":"drawing"}
survey-text,391,1502752,19730.389999982435,"",,,,,,{"Q0":"robot"}
survey-text,392,1504463,1703.830000013113,"",,,,,,{"Q0":"frame"}
survey-text,393,1537986,33514.84000001801,"",,,,,,{"Q0":"stable"}
html-keyboard-response,394,1538765,776.9650000263937,"<div style=""font-size:48px;"">Press any key to begin list 6 of 24 </div>",13,,,,,
html-keyboard-response,395,1541274,null,"<div style=""font-size:60px;"">+</div>",null,,,,,
html-keyboard-response,396,1541779,null,"MAMMAL<img id = ""stim"" ><div class = green_square id = ""topsquare"" ></div><img id = ""stim"" ><div class = green_square  id = ""bottomsquare"" ></div>",null,word_square,1,SPACEBAR,,
html-keyboard-response,397,1543281,null,"MAMMAL",null,word,,, 'MAMMAL',
html-keyboard-response,398,1543785,null,"SNAKE<img id = ""stim"" ><div class = green_square id = ""topsquare"" ></div><img id = ""stim"" ><div class = green_square  id = ""bottomsquare"" ></div>",null,word_square,1,SPACEBAR,,
html-keyboard-response,399,1545287,null,"SNAKE",null,word,,, 'SNAKE',
html-keyboard-response,400,1545791,null,"BUGLE<img id = ""stim"" ><div class = green_square id = ""topsquare"" ></div><img id = ""stim"" ><div class = green_square  id = ""bottomsquare"" ></div>",null,word_square,1,SPACEBAR,,
html-keyboard-response,401,1547296,null,"BUGLE",null,word,,, 'BUGLE',
html-keyboard-response,402,1547803,null,"BISON<img id = ""stim"" ><div class = red_square id = ""topsquare"" ></div><img id = ""stim"" ><div class = red_square  id = ""bottomsquare"" ></div>",null,word_square,0,SPACEBAR,,
html-keyboard-response,403,1549306,null,"BISON",null,word,,, 'BISON',
html-keyboard-response,404,1549808,null,"BENCH<img id = ""stim"" ><div class = red_square id = ""topsquare"" ></div><img id = ""stim"" ><div class = red_square  id = ""bottomsquare"" ></div>",null,word_square,0,SPACEBAR,,
html-keyboard-response,405,1551310,null,"BENCH",null,word,,, 'BENCH',
html-keyboard-response,406,1551773,460.40999999968335,"DART<img id = ""stim"" ><div class = green_square id = ""topsquare"" ></div><img id = ""stim"" ><div class = green_square  id = ""bottomsquare"" ></div>",32,word_square,1,SPACEBAR,,
html-keyboard-response,407,1553281,null,"DART",null,word,,, 'DART',
html-keyboard-response,408,1553788,null,"FRIEND<img id = ""stim"" ><div class = red_square id = ""topsquare"" ></div><img id = ""stim"" ><div class = red_square  id = ""bottomsquare"" ></div>",null,word_square,0,SPACEBAR,,
html-keyboard-response,409,1555291,null,"FRIEND",null,word,,, 'FRIEND',
html-keyboard-response,410,1555794,null,"BROTHER<img id = ""stim"" ><div class = red_square id = ""topsquare"" ></div><img id = ""stim"" ><div class = red_square  id = ""bottomsquare"" ></div>",null,word_square,0,SPACEBAR,,
html-keyboard-response,411,1557301,null,"BROTHER",null,word,,, 'BROTHER',
html-keyboard-response,412,1557670,366.97999999159947,"WOMAN<img id = ""stim"" ><div class = green_square id = ""topsquare"" ></div><img id = ""stim"" ><div class = green_square  id = ""bottomsquare"" ></div>",32,word_square,1,SPACEBAR,,
html-keyboard-response,413,1559175,null,"WOMAN",null,word,,, 'WOMAN',
html-keyboard-response,414,1559683,null,"ANTLER<img id = ""stim"" ><div class = red_square id = ""topsquare"" ></div><img id = ""stim"" ><div class = red_square  id = ""bottomsquare"" ></div>",null,word_square,0,SPACEBAR,,
html-keyboard-response,415,1561188,null,"ANTLER",null,word,,, 'ANTLER',
html-keyboard-response,416,1561631,441.3899999926798,"DINER<img id = ""stim"" ><div class = green_square id = ""topsquare"" ></div><img id = ""stim"" ><div class = green_square  id = ""bottomsquare"" ></div>",32,word_square,1,SPACEBAR,,
html-keyboard-response,417,1563138,null,"DINER",null,word,,, 'DINER',
html-keyboard-response,418,1563641,null,"DOLPHIN<img id = ""stim"" ><div class = red_square id = ""topsquare"" ></div><img id = ""stim"" ><div class = red_square  id = ""bottomsquare"" ></div>",null,word_square,0,SPACEBAR,,
html-keyboard-response,419,1565145,null,"DOLPHIN",null,word,,, 'DOLPHIN',
html-keyboard-response,420,1565581,433.9350000373088,"ATLAS<img id = ""stim"" ><div class = green_square id = ""topsquare"" ></div><img id = ""stim"" ><div class = green_square  id = ""bottomsquare"" ></div>",32,word_square,1,SPACEBAR,,
html-keyboard-response,421,1567085,null,"ATLAS",null,word,,, 'ATLAS',
html-keyboard-response,422,1567588,null,"GLOBE<img id = ""stim"" ><div class = red_square id = ""topsquare"" ></div><img id = ""stim"" ><div class = red_square  id = ""bottomsquare"" ></div>",null,word_square,0,SPACEBAR,,
html-keyboard-response,423,1569093,null,"GLOBE",null,word,,, 'GLOBE',
html-keyboard-response,424,1569599,null,"LASER<img id = ""stim"" ><div class = red_square id = ""topsquare"" ></div><img id = ""stim"" ><div class = red_square  id = ""bottomsquare"" ></div>",null,word_square,0,SPACEBAR,,
html-keyboard-response,425,1571104,null,"LASER",null,word,,, 'LASER',
html-keyboard-response,426,1571612,null,"VENUS<img id = ""stim"" ><div class = green_square id = ""topsquare"" ></div><img id = ""stim"" ><div class = green_square  id = ""bottomsquare"" ></div>",null,word_square,1,SPACEBAR,,
html-keyboard-response,427,1573117,null,"VENUS",null,word,,, 'VENUS',
html-keyboard-response,428,1573620,null,"NEPTUNE<img id = ""stim"" ><div class = red_square id = ""topsquare"" ></div><img id = ""stim"" ><div class = red_square  id = ""bottomsquare"" ></div>",null,word_square,0,SPACEBAR,,
html-keyboard-response,429,1575123,null,"NEPTUNE",null,word,,, 'NEPTUNE',
html-keyboard-response,430,1575626,null,"PIMPLE<img id = ""stim"" ><div class = green_square id = ""topsquare"" ></div><img id = ""stim"" ><div class = green_square  id = ""bottomsquare"" ></div>",null,word_square,1,SPACEBAR,,
html-keyboard-response,431,1577129,null,"PIMPLE",null,word,,, 'PIMPLE',
survey-text,432,1578457,1322.2749999840744,"",,,,,,{"Q0":"4"}
survey-text,433,1579607,1142.8200000082143,"",,,,,,{"Q0":"3"}
survey-text,434,1580689,1075.505000015255,"",,,,,,{"Q0":"2"}
survey-text,435,1583173,2477.1249999757856,"",,,,,,{"Q0":"0"}
survey-text,436,1584460,1280.704999982845,"",,,,,,{"Q0":"4"}
survey-text,437,1585529,1062.679999973625,"",,,,,,{"Q0":"4"}
survey-text,438,1586834,1298.754999996163,"",,,,,,{"Q0":"1"}
survey-text,439,1587876,1035.5299999937415,"",,,,,,{"Q0":"4"}
survey-text,440,1588966,1083.8199999998324,"",,,,,,{"Q0":"5"}
survey-text,441,1590065,1092.7800000063144,"",,,,,,{"Q0":"2"}
survey-text,442,1591868,1796.3950000121258,"",,,,,,{"Q0":"2"}
survey-text,443,1592933,1058.3500000066124,"",,,,,,{"Q0":"6"}
survey-text,444,1594023,1083.4949999698438,"",,,,,,{"Q0":"3"}
survey-text,445,1595127,1097.6549999904819,"",,,,,,{"Q0":"4"}
survey-text,446,1596270,1135.7349999598227,"",,,,,,{"Q0":"6"}
survey-text,447,1597917,1640.8899999805726,"",,,,,,{"Q0":"2"}
survey-text,448,1599026,1102.565000008326,"",,,,,,{"Q0":"6"}
survey-text,449,1600040,1007.5800000340678,"",,,,,,{"Q0":"5"}
survey-text,450,1601232,1184.6899999654852,"",,,,,,{"Q0":"2"}
survey-text,451,1603782,2543.055000016466,"",,,,,,{"Q0":"pimple"}
survey-text,452,1606488,2699.9249999644235,"",,,,,,{"Q0":"woman"}
survey-text,453,1607743,1247.8199999895878,"",,,,,,{"Q0":"friend"}
survey-text,454,1609571,1821.1199999786913,"",,,,,,{"Q0":"brother"}
survey-text,455,1611001,1423.2400000328198,"",,,,,,{"Q0":"dart"}
survey-text,456,1612389,1381.3550000195391,"",,,,,,{"Q0":"mammal"}
survey-text,457,1613508,1113.9149999944493,"",,,,,,{"Q0":"snake"}
survey-text,458,1615563,2048.7799999536946,"",,,,,,{"Q0":"bison"}
survey-text,459,1618126,2558.0600000103004,"",,,,,,{"Q0":"antler"}
survey-text,460,1619703,1569.8950000223704,"",,,,,,{"Q0":"bison"}
survey-text,461,1624183,4472.985000000335,"",,,,,,{"Q0":"bugel"}
survey-text,462,1633097,8906.37500002049,"",,,,,,{"Q0":"venus"}
survey-text,463,1634831,1726.4300000388175,"",,,,,,{"Q0":"neptune"}
survey-text,464,1643575,8736.8800000404,"",,,,,,{"Q0":"laser"}
survey-text,465,1656279,12695.9200000274,"",,,,,,{"Q0":"bench"}
survey-text,466,1671010,14723.694999993313,"",,,,,,{"Q0":"darts"}
survey-text,467,1784537,113516.14999998128,"",,,,,,{"Q0":"venus"}
html-keyboard-response,468,1785064,525.0399999786168,"<div style=""font-size:48px;"">Press any key to begin list 7 of 24 </div>",13,,,,,
html-keyboard-response,469,1787570,null,"<div style=""font-size:60px;"">+</div>",null,,,,,
html-keyboard-response,470,1788074,null,"HELMET<img id = ""stim"" ><div class = red_square id = ""topsquare"" ></div><img id = ""stim"" ><div class = red_square  id = ""bottomsquare"" ></div>",null,word_square,0,SPACEBAR,,
html-keyboard-response,471,1789581,null,"HELMET",null,word,,, 'HELMET',
html-keyboard-response,472,1790087,null,"BUCKET<img id = ""stim"" ><div class = red_square id = ""topsquare"" ></div><img id = ""stim"" ><div class = red_square  id = ""bottomsquare"" ></div>",null,word_square,0,SPACEBAR,,
html-keyboard-response,473,1791589,null,"BUCKET",null,word,,, 'BUCKET',
html-keyboard-response,474,1792091,null,"SPARROW<img id = ""stim"" ><div class = red_square id = ""topsquare"" ></div><img id = ""stim"" ><div class = red_square  id = ""bottomsquare"" ></div>",null,word_square,0,SPACEBAR,,
html-keyboard-response,475,1793598,null,"SPARROW",null,word,,, 'SPARROW',
html-keyboard-response,476,1794105,null,"RAZOR<img id = ""stim"" ><div class = green_square id = ""topsquare"" ></div><img id = ""stim"" ><div class = green_square  id = ""bottomsquare"" ></div>",null,word_square,1,SPACEBAR,,
html-keyboard-response,477,1795608,null,"RAZOR",null,word,,, 'RAZOR',
html-keyboard-response,478,1796115,null,"SWORD<img id = ""stim"" ><div class = green_square id = ""topsquare"" ></div><img id = ""stim"" ><div class = green_square  id = ""bottomsquare"" ></div>",null,word_square,1,SPACEBAR,,
html-keyboard-response,479,1797617,null,"SWORD",null,word,,, 'SWORD',
html-keyboard-response,480,1798124,null,"INFANT<img id = ""stim"" ><div class = red_square id = ""topsquare"" ></div><img id = ""stim"" ><div class = red_square  id = ""bottomsquare"" ></div>",null,word_square,0,SPACEBAR,,
html-keyboard-response,481,1799627,null,"INFANT",null,word,,, 'INFANT',
html-keyboard-response,482,1800109,480.2200000267476,"BABY<img id = ""stim"" ><div class = green_square id = ""topsquare"" ></div><img id = ""stim"" ><div class = green_square  id = ""bottomsquare"" ></div>",32,word_square,1,SPACEBAR,,
html-keyboard-response,483,1801616,null,"BABY",null,word,,, 'BABY',
html-keyboard-response,484,1802060,442.2599999816157,"BRANDY<img id = ""stim"" ><div class = green_square id = ""topsquare"" ></div><img id = ""stim"" ><div class = green_square  id = ""bottomsquare"" ></div>",32,word_square,1,SPACEBAR,,
html-keyboard-response,485,1803564,null,"BRANDY",null,word,,, 'BRANDY',
html-keyboard-response,486,1804070,null,"EAGLE<img id = ""stim"" ><div class = red_square id = ""topsquare"" ></div><img id = ""stim"" ><div class = red_square  id = ""bottomsquare"" ></div>",null,word_square,0,SPACEBAR,,
html-keyboard-response,487,1805573,null,"EAGLE",null,word,,, 'EAGLE',
html-keyboard-response,488,1806044,469.55500001786277,"POCKET<img id = ""stim"" ><div class = green_square id = ""topsquare"" ></div><img id = ""stim"" ><div class = green_square  id = ""bottomsquare"" ></div>",32,word_square,1,SPACEBAR,,
html-keyboard-response,489,1807552,null,"POCKET",null,word,,, 'POCKET',
html-keyboard-response,490,1808059,null,"DOORBELL<img id = ""stim"" ><div class = red_square id = ""topsquare"" ></div><img id = ""stim"" ><div class = red_square  id = ""bottomsquare"" ></div>",null,word_square,0,SPACEBAR,,
html-keyboard-response,491,1809561,null,"DOORBELL",null,word,,, 'DOORBELL',
html-keyboard-response,492,1810064,null,"VAGRANT<img id = ""stim"" ><div class = green_square id = ""topsquare"" ></div><img id = ""stim"" ><div class = green_square  id = ""bottomsquare"" ></div>",null,word_square,1,SPACEBAR,,
html-keyboard-response,493,1811569,null,"VAGRANT",null,word,,, 'VAGRANT',
html-keyboard-response,494,1812073,null,"NOMAD<img id = ""stim"" ><div class = red_square id = ""topsquare"" ></div><img id = ""stim"" ><div class = red_square  id = ""bottomsquare"" ></div>",null,word_square,0,SPACEBAR,,
html-keyboard-response,495,1813580,null,"NOMAD",null,word,,, 'NOMAD',
html-keyboard-response,496,1813990,408.655000035651,"GLASSES<img id = ""stim"" ><div class = green_square id = ""topsquare"" ></div><img id = ""stim"" ><div class = green_square  id = ""bottomsquare"" ></div>",32,word_square,1,SPACEBAR,,
html-keyboard-response,497,1815498,null,"GLASSES",null,word,,, 'GLASSES',
html-keyboard-response,498,1815951,451.4649999910034,"HOOD<img id = ""stim"" ><div class = green_square id = ""topsquare"" ></div><img id = ""stim"" ><div class = green_square  id = ""bottomsquare"" ></div>",32,word_square,1,SPACEBAR,,
html-keyboard-response,499,1817454,null,"HOOD",null,word,,, 'HOOD',
html-keyboard-response,500,1817961,null,"SHORTS<img id = ""stim"" ><div class = red_square id = ""topsquare"" ></div><img id = ""stim"" ><div class = red_square  id = ""bottomsquare"" ></div>",null,word_square,0,SPACEBAR,,
html-keyboard-response,501,1819467,null,"SHORTS",null,word,,, 'SHORTS',
html-keyboard-response,502,1819972,null,"SIRLOIN<img id = ""stim"" ><div class = green_square id = ""topsquare"" ></div><img id = ""stim"" ><div class = green_square  id = ""bottomsquare"" ></div>",null,word_square,1,SPACEBAR,,
html-keyboard-response,503,1821475,null,"SIRLOIN",null,word,,, 'SIRLOIN',
html-keyboard-response,504,1821978,null,"ACTOR<img id = ""stim"" ><div class = red_square id = ""topsquare"" ></div><img id = ""stim"" ><div class = red_square  id = ""bottomsquare"" ></div>",null,word_square,0,SPACEBAR,,
html-keyboard-response,505,1823482,null,"ACTOR",null,word,,, 'ACTOR',
survey-text,506,1824866,1380.5649999994785,"",,,,,,{"Q0":"5"}
survey-text,507,1825811,938.0299999611452,"",,,,,,{"Q0":"5"}
survey-text,508,1827194,1376.7949999892153,"",,,,,,{"Q0":"4"}
survey-text,509,1828897,1696.5750000090338,"",,,,,,{"Q0":"3"}
survey-text,510,1830061,1157.0449999999255,"",,,,,,{"Q0":"5"}
survey-text,511,1831041,973.4399999724701,"",,,,,,{"Q0":"4"}
survey-text,512,1832327,1279.1650000144728,"",,,,,,{"Q0":"5"}
survey-text,513,1833554,1220.5700000049546,"",,,,,,{"Q0":"5"}
survey-text,514,1835425,1864.25500002224,"",,,,,,{"Q0":"3"}
survey-text,515,1837905,2473.0299999937415,"",,,,,,{"Q0":"1"}
survey-text,516,1838890,978.5799999954179,"",,,,,,{"Q0":"5"}
survey-text,517,1840617,1720.6700000097044,"",,,,,,{"Q0":"3"}
survey-text,518,1842064,1440.0449999957345,"",,,,,,{"Q0":"4"}
survey-text,519,1843070,999.6599999722093,"",,,,,,{"Q0":"5"}
survey-text,520,1844208,1131.7850000341423,"",,,,,,{"Q0":"1"}
survey-text,521,1846371,2156.7050000303425,"",,,,,,{"Q0":"1"}
survey-text,522,1847713,1334.8300000070594,"",,,,,,{"Q0":"3"}
survey-text,523,1850304,2583.5100000258535,"",,,,,,{"Q0":"vagrant"}
survey-text,524,1852618,2307.4849999975413,"",,,,,,{"Q0":"nomad"}
survey-text,525,1855077,2451.3999999617226,"",,,,,,{"Q0":"glasses"}
survey-text,526,1856402,1319.2099999869242,"",,,,,,{"Q0":"hood"}
survey-text,527,1857949,1539.9299999698997,"",,,,,,{"Q0":"shorts"}
survey-text,528,1860272,2316.0849999985658,"",,,,,,{"Q0":"actor"}
survey-text,529,1862279,2000.2199999871664,"",,,,,,{"Q0":"sirloin"}
survey-text,530,1867560,5273.619999992661,"",,,,,,{"Q0":"doorbell"}
survey-text,531,1875162,7594.845000014175,"",,,,,,{"Q0":"baby"}
survey-text,532,1876994,1825.249999994412,"",,,,,,{"Q0":"infant"}
survey-text,533,1915375,38372.405000030994,"",,,,,,{"Q0":"eagle"}
survey-text,534,1917762,2379.959999991115,"",,,,,,{"Q0":"pocket"}
survey-text,535,1921177,3407.6050000148825,"",,,,,,{"Q0":"sparrow"}
survey-text,536,1922611,1426.355000003241,"",,,,,,{"Q0":"sharp"}
survey-text,537,1924084,1465.6449999893084,"",,,,,,{"Q0":"sword"}
html-keyboard-response,538,1926891,2804.19500003336,"<div style=""font-size:48px;"">Press any key to begin list 8 of 24 </div>",13,,,,,
html-keyboard-response,539,1929396,null,"<div style=""font-size:60px;"">+</div>",null,,,,,
html-keyboard-response,540,1929901,null,"CURTAIN<img id = ""stim"" ><div class = red_square id = ""topsquare"" ></div><img id = ""stim"" ><div class = red_square  id = ""bottomsquare"" ></div>",null,word_square,0,SPACEBAR,,
html-keyboard-response,541,1931404,null,"CURTAIN",null,word,,, 'CURTAIN',
html-keyboard-response,542,1931907,null,"SHIRT<img id = ""stim"" ><div class = red_square id = ""topsquare"" ></div><img id = ""stim"" ><div class = red_square  id = ""bottomsquare"" ></div>",null,word_square,0,SPACEBAR,,
html-keyboard-response,543,1933413,null,"SHIRT",null,word,,, 'SHIRT',
html-keyboard-response,544,1933920,null,"CANVAS<img id = ""stim"" ><div class = red_square id = ""topsquare"" ></div><img id = ""stim"" ><div class = red_square  id = ""bottomsquare"" ></div>",null,word_square,0,SPACEBAR,,
html-keyboard-response,545,1935424,null,"CANVAS",null,word,,, 'CANVAS',
html-keyboard-response,546,1935848,421.7599999974482,"PENCIL<img id = ""stim"" ><div class = green_square id = ""topsquare"" ></div><img id = ""stim"" ><div class = green_square  id = ""bottomsquare"" ></div>",32,word_square,1,SPACEBAR,,
html-keyboard-response,547,1937352,null,"PENCIL",null,word,,, 'PENCIL',
html-keyboard-response,548,1937858,null,"MARROW<img id = ""stim"" ><div class = green_square id = ""topsquare"" ></div><img id = ""stim"" ><div class = green_square  id = ""bottomsquare"" ></div>",null,word_square,1,SPACEBAR,,
html-keyboard-response,549,1939360,null,"MARROW",null,word,,, 'MARROW',
html-keyboard-response,550,1939865,null,"JAPAN<img id = ""stim"" ><div class = red_square id = ""topsquare"" ></div><img id = ""stim"" ><div class = red_square  id = ""bottomsquare"" ></div>",null,word_square,0,SPACEBAR,,
html-keyboard-response,551,1941372,null,"JAPAN",null,word,,, 'JAPAN',
html-keyboard-response,552,1941861,486.79499997524545,"BEAVER<img id = ""stim"" ><div class = green_square id = ""topsquare"" ></div><img id = ""stim"" ><div class = green_square  id = ""bottomsquare"" ></div>",32,word_square,1,SPACEBAR,,
html-keyboard-response,553,1943364,null,"BEAVER",null,word,,, 'BEAVER',
html-keyboard-response,554,1943791,425.5750000011176,"HAMMER<img id = ""stim"" ><div class = green_square id = ""topsquare"" ></div><img id = ""stim"" ><div class = green_square  id = ""bottomsquare"" ></div>",32,word_square,1,SPACEBAR,,
html-keyboard-response,555,1945298,null,"HAMMER",null,word,,, 'HAMMER',
html-keyboard-response,556,1945805,null,"STONE<img id = ""stim"" ><div class = red_square id = ""topsquare"" ></div><img id = ""stim"" ><div class = red_square  id = ""bottomsquare"" ></div>",null,word_square,0,SPACEBAR,,
html-keyboard-response,557,1947311,null,"STONE",null,word,,, 'STONE',
html-keyboard-response,558,1947747,433.69000003440306,"VICTIM<img id = ""stim"" ><div class = green_square id = ""topsquare"" ></div><img id = ""stim"" ><div class = green_square  id = ""bottomsquare"" ></div>",32,word_square,1,SPACEBAR,,
html-keyboard-response,559,1949254,null,"VICTIM",null,word,,, 'VICTIM',
html-keyboard-response,560,1949762,null,"SUSPECT<img id = ""stim"" ><div class = red_square id = ""topsquare"" ></div><img id = ""stim"" ><div class = red_square  id = ""bottomsquare"" ></div>",null,word_square,0,SPACEBAR,,
html-keyboard-response,561,1951269,null,"SUSPECT",null,word,,, 'SUSPECT',
html-keyboard-response,562,1951751,480.3599999868311,"CREVICE<img id = ""stim"" ><div class = green_square id = ""topsquare"" ></div><img id = ""stim"" ><div class = green_square  id = ""bottomsquare"" ></div>",32,word_square,1,SPACEBAR,,
html-keyboard-response,563,1953258,null,"CREVICE",null,word,,, 'CREVICE',
html-keyboard-response,564,1953765,null,"POSSUM<img id = ""stim"" ><div class = red_square id = ""topsquare"" ></div><img id = ""stim"" ><div class = red_square  id = ""bottomsquare"" ></div>",null,word_square,0,SPACEBAR,,
html-keyboard-response,565,1955272,null,"POSSUM",null,word,,, 'POSSUM',
html-keyboard-response,566,1955768,493.64000000059605,"HAWK<img id = ""stim"" ><div class = green_square id = ""topsquare"" ></div><img id = ""stim"" ><div class = green_square  id = ""bottomsquare"" ></div>",32,word_square,1,SPACEBAR,,
html-keyboard-response,567,1957275,null,"HAWK",null,word,,, 'HAWK',
html-keyboard-response,568,1957780,null,"SCARECROW<img id = ""stim"" ><div class = green_square id = ""topsquare"" ></div><img id = ""stim"" ><div class = green_square  id = ""bottomsquare"" ></div>",null,word_square,1,SPACEBAR,,
html-keyboard-response,569,1959285,null,"SCARECROW",null,word,,, 'SCARECROW',
html-keyboard-response,570,1959792,null,"SUNSET<img id = ""stim"" ><div class = red_square id = ""topsquare"" ></div><img id = ""stim"" ><div class = red_square  id = ""bottomsquare"" ></div>",null,word_square,0,SPACEBAR,,
html-keyboard-response,571,1961297,null,"SUNSET",null,word,,, 'SUNSET',
html-keyboard-response,572,1961803,null,"SUNRISE<img id = ""stim"" ><div class = green_square id = ""topsquare"" ></div><img id = ""stim"" ><div class = green_square  id = ""bottomsquare"" ></div>",null,word_square,1,SPACEBAR,,
html-keyboard-response,573,1963310,null,"SUNRISE",null,word,,, 'SUNRISE',
html-keyboard-response,574,1963817,null,"STAMP<img id = ""stim"" ><div class = red_square id = ""topsquare"" ></div><img id = ""stim"" ><div class = red_square  id = ""bottomsquare"" ></div>",null,word_square,0,SPACEBAR,,
html-keyboard-response,575,1965321,null,"STAMP",null,word,,, 'STAMP',
survey-text,576,1968796,3468.9999999827705,"",,,,,,{"Q0":"1"}
survey-text,577,1970142,1339.9450000142679,"",,,,,,{"Q0":"4"}
survey-text,578,1971285,1138.3199999690987,"",,,,,,{"Q0":"5"}
survey-text,579,1972659,1367.934999987483,"",,,,,,{"Q0":"4"}
survey-text,580,1974247,1580.2200000034645,"",,,,,,{"Q0":"2"}
survey-text,581,1975325,1071.5150000178255,"",,,,,,{"Q0":"4"}
survey-text,582,1976400,1069.3899999605492,"",,,,,,{"Q0":"3"}
survey-text,583,1977555,1147.4099999759346,"",,,,,,{"Q0":"4"}
survey-text,584,1979293,1731.9600000046194,"",,,,,,{"Q0":"4"}
survey-text,585,1980367,1066.419999988284,"",,,,,,{"Q0":"5"}
survey-text,586,1981815,1442.2299999860115,"",,,,,,{"Q0":"3"}
survey-text,587,1983741,1919.3799999775365,"",,,,,,{"Q0":"5"}
survey-text,588,1985679,1930.8799999998882,"",,,,,,{"Q0":"5"}
survey-text,589,1986833,1147.2000000067055,"",,,,,,{"Q0":"2"}
survey-text,590,1988541,1701.0250000166707,"",,,,,,{"Q0":"0"}
survey-text,591,1989972,1423.9749999833293,"",,,,,,{"Q0":"2"}
survey-text,592,1993648,3668.589999957476,"",,,,,,{"Q0":"scarecrow"}
survey-text,593,1995256,1600.6800000322983,"",,,,,,{"Q0":"hawk"}
survey-text,594,1997761,2497.879999980796,"",,,,,,{"Q0":"possum"}
survey-text,595,1999594,1825.955000007525,"",,,,,,{"Q0":"crevice"}
survey-text,596,2002957,3355.595000030007,"",,,,,,{"Q0":"sunset"}
survey-text,597,2004369,1404.5500000356697,"",,,,,,{"Q0":"sunrise"}
survey-text,598,2006153,1777.3199999937788,"",,,,,,{"Q0":"suspect"}
survey-text,599,2008002,1841.7650000192225,"",,,,,,{"Q0":"victim"}
survey-text,600,2009348,1338.8799999956973,"",,,,,,{"Q0":"stone"}
survey-text,601,2010623,1268.4899999876507,"",,,,,,{"Q0":"hammer"}
survey-text,602,2013724,3093.634999997448,"",,,,,,{"Q0":"beaver"}
survey-text,603,2051718,37985.39499996696,"",,,,,,{"Q0":"hide"}
survey-text,604,2118524,66795.61999998987,"",,,,,,{"Q0":"pencil"}
html-keyboard-response,605,2119474,947.3850000067614,"<div style=""font-size:48px;"">Press any key to begin list 9 of 24 </div>",13,,,,,
html-keyboard-response,606,2121977,null,"<div style=""font-size:60px;"">+</div>",null,,,,,
html-keyboard-response,607,2122482,null,"POND<img id = ""stim"" ><div class = red_square id = ""topsquare"" ></div><img id = ""stim"" ><div class = red_square  id = ""bottomsquare"" ></div>",null,word_square,0,SPACEBAR,,
html-keyboard-response,608,2123984,null,"POND",null,word,,, 'POND',
html-keyboard-response,609,2124490,null,"GYMNAST<img id = ""stim"" ><div class = green_square id = ""topsquare"" ></div><img id = ""stim"" ><div class = green_square  id = ""bottomsquare"" ></div>",null,word_square,1,SPACEBAR,,
html-keyboard-response,610,2125993,null,"GYMNAST",null,word,,, 'GYMNAST',
html-keyboard-response,611,2126496,null,"MEDAL<img id = ""stim"" ><div class = red_square id = ""topsquare"" ></div><img id = ""stim"" ><div class = red_square  id = ""bottomsquare"" ></div>",null,word_square,0,SPACEBAR,,
html-keyboard-response,612,2128001,null,"MEDAL",null,word,,, 'MEDAL',
html-keyboard-response,613,2128483,480.64500000327826,"CIRCUS<img id = ""stim"" ><div class = green_square id = ""topsquare"" ></div><img id = ""stim"" ><div class = green_square  id = ""bottomsquare"" ></div>",32,word_square,1,SPACEBAR,,
html-keyboard-response,614,2129991,null,"CIRCUS",null,word,,, 'CIRCUS',
html-keyboard-response,615,2130494,null,"DENTIST<img id = ""stim"" ><div class = green_square id = ""topsquare"" ></div><img id = ""stim"" ><div class = green_square  id = ""bottomsquare"" ></div>",null,word_square,1,SPACEBAR,,
html-keyboard-response,616,2131998,null,"DENTIST",null,word,,, 'DENTIST',
html-keyboard-response,617,2132505,null,"FLASHLIGHT<img id = ""stim"" ><div class = red_square id = ""topsquare"" ></div><img id = ""stim"" ><div class = red_square  id = ""bottomsquare"" ></div>",null,word_square,0,SPACEBAR,,
html-keyboard-response,618,2134009,null,"FLASHLIGHT",null,word,,, 'FLASHLIGHT',
html-keyboard-response,619,2134517,null,"CRACKER<img id = ""stim"" ><div class = red_square id = ""topsquare"" ></div><img id = ""stim"" ><div class = red_square  id = ""bottomsquare"" ></div>",null,word_square,0,SPACEBAR,,
html-keyboard-response,620,2136019,null,"CRACKER",null,word,,, 'CRACKER',
html-keyboard-response,621,2136462,441.72500004060566,"MONSTER<img id = ""stim"" ><div class = green_square id = ""topsquare"" ></div><img id = ""stim"" ><div class = green_square  id = ""bottomsquare"" ></div>",32,word_square,1,SPACEBAR,,
html-keyboard-response,622,2137969,null,"MONSTER",null,word,,, 'MONSTER',
html-keyboard-response,623,2138473,null,"PEANUT<img id = ""stim"" ><div class = green_square id = ""topsquare"" ></div><img id = ""stim"" ><div class = green_square  id = ""bottomsquare"" ></div>",null,word_square,1,SPACEBAR,,
html-keyboard-response,624,2139976,null,"PEANUT",null,word,,, 'PEANUT',
html-keyboard-response,625,2140352,374.57499996526167,"BUNNY<img id = ""stim"" ><div class = green_square id = ""topsquare"" ></div><img id = ""stim"" ><div class = green_square  id = ""bottomsquare"" ></div>",32,word_square,1,SPACEBAR,,
html-keyboard-response,626,2141860,null,"BUNNY",null,word,,, 'BUNNY',
html-keyboard-response,627,2142367,null,"BLACKBOARD<img id = ""stim"" ><div class = red_square id = ""topsquare"" ></div><img id = ""stim"" ><div class = red_square  id = ""bottomsquare"" ></div>",null,word_square,0,SPACEBAR,,
html-keyboard-response,628,2143874,null,"BLACKBOARD",null,word,,, 'BLACKBOARD',
html-keyboard-response,629,2144382,null,"BOARD<img id = ""stim"" ><div class = red_square id = ""topsquare"" ></div><img id = ""stim"" ><div class = red_square  id = ""bottomsquare"" ></div>",null,word_square,0,SPACEBAR,,
html-keyboard-response,630,2145886,null,"BOARD",null,word,,, 'BOARD',
html-keyboard-response,631,2146393,null,"COLLEGE<img id = ""stim"" ><div class = green_square id = ""topsquare"" ></div><img id = ""stim"" ><div class = green_square  id = ""bottomsquare"" ></div>",null,word_square,1,SPACEBAR,,
html-keyboard-response,632,2147897,null,"COLLEGE",null,word,,, 'COLLEGE',
html-keyboard-response,633,2148403,null,"THRONE<img id = ""stim"" ><div class = red_square id = ""topsquare"" ></div><img id = ""stim"" ><div class = red_square  id = ""bottomsquare"" ></div>",null,word_square,0,SPACEBAR,,
html-keyboard-response,634,2149905,null,"THRONE",null,word,,, 'THRONE',
html-keyboard-response,635,2150354,446.6450000181794,"ZEBRA<img id = ""stim"" ><div class = green_square id = ""topsquare"" ></div><img id = ""stim"" ><div class = green_square  id = ""bottomsquare"" ></div>",32,word_square,1,SPACEBAR,,
html-keyboard-response,636,2151859,null,"ZEBRA",null,word,,, 'ZEBRA',
html-keyboard-response,637,2152362,null,"BUGGY<img id = ""stim"" ><div class = red_square id = ""topsquare"" ></div><img id = ""stim"" ><div class = red_square  id = ""bottomsquare"" ></div>",null,word_square,0,SPACEBAR,,
html-keyboard-response,638,2153867,null,"BUGGY",null,word,,, 'BUGGY',
html-keyboard-response,639,2154374,null,"WINGS<img id = ""stim"" ><div class = red_square id = ""topsquare"" ></div><img id = ""stim"" ><div class = red_square  id = ""bottomsquare"" ></div>",null,word_square,0,SPACEBAR,,
html-keyboard-response,640,2155880,null,"WINGS",null,word,,, 'WINGS',
html-keyboard-response,641,2156294,411.88000002875924,"TEACHER<img id = ""stim"" ><div class = green_square id = ""topsquare"" ></div><img id = ""stim"" ><div class = green_square  id = ""bottomsquare"" ></div>",32,word_square,1,SPACEBAR,,
html-keyboard-response,642,2157797,null,"TEACHER",null,word,,, 'TEACHER',
survey-text,643,2159259,1455.7500000228174,"",,,,,,{"Q0":"5"}
survey-text,644,2161742,2476.0499999974854,"",,,,,,{"Q0":"0"}
survey-text,645,2163062,1312.7450000029057,"",,,,,,{"Q0":"4"}
survey-text,646,2164229,1160.425000009127,"",,,,,,{"Q0":"5"}
survey-text,647,2165504,1268.4550000121817,"",,,,,,{"Q0":"1"}
survey-text,648,2166989,1477.9400000115857,"",,,,,,{"Q0":"3"}
survey-text,649,2168641,1645.0450000120327,"",,,,,,{"Q0":"2"}
survey-text,650,2169876,1229.430000006687,"",,,,,,{"Q0":"3"}
survey-text,651,2171156,1272.5849999696948,"",,,,,,{"Q0":"3"}
survey-text,652,2172716,1550.6950000417419,"",,,,,,{"Q0":"1"}
survey-text,653,2173838,1115.3550000162795,"",,,,,,{"Q0":"3"}
survey-text,654,2174894,1049.0800000261515,"",,,,,,{"Q0":"5"}
survey-text,655,2176419,1518.2849999982864,"",,,,,,{"Q0":"3"}
survey-text,656,2178749,2323.045000026468,"",,,,,,{"Q0":"2"}
survey-text,657,2179855,1097.4450000212528,"",,,,,,{"Q0":"4"}
survey-text,658,2181601,1739.159999997355,"",,,,,,{"Q0":"4"}
survey-text,659,2182870,1262.1299999882467,"",,,,,,{"Q0":"2"}
survey-text,660,2186523,3645.650000020396,"",,,,,,{"Q0":"teacher"}
survey-text,661,2188206,1676.5700000105426,"",,,,,,{"Q0":"buggy"}
survey-text,662,2189475,1261.7750000208616,"",,,,,,{"Q0":"wings"}
survey-text,663,2190866,1383.2500000135042,"",,,,,,{"Q0":"zebra"}
survey-text,664,2192195,1323.0749999638647,"",,,,,,{"Q0":"throne"}
survey-text,665,2193610,1407.6249999925494,"",,,,,,{"Q0":"college"}
survey-text,666,2194835,1217.9299999843352,"",,,,,,{"Q0":"board"}
survey-text,667,2196878,2035.5449999915436,"",,,,,,{"Q0":"blackboard"}
survey-text,668,2300357,103458.90999998664,"",,,,,,{"Q0":"bunny"}
html-keyboard-response,669,2301153,792.8800000227056,"<div style=""font-size:48px;"">Press any key to begin list 10 of 24 </div>",13,,,,,
html-keyboard-response,670,2303661,null,"<div style=""font-size:60px;"">+</div>",null,,,,,
html-keyboard-response,671,2304168,null,"VIKING<img id = ""stim"" ><div class = red_square id = ""topsquare"" ></div><img id = ""stim"" ><div class = red_square  id = ""bottomsquare"" ></div>",null,word_square,0,SPACEBAR,,
html-keyboard-response,672,2305671,null,"VIKING",null,word,,, 'VIKING',
html-keyboard-response,673,2306178,null,"YACHT<img id = ""stim"" ><div class = green_square id = ""topsquare"" ></div><img id = ""stim"" ><div class = green_square  id = ""bottomsquare"" ></div>",null,word_square,1,SPACEBAR,,
html-keyboard-response,674,2307682,null,"YACHT",null,word,,, 'YACHT',
html-keyboard-response,675,2308184,null,"TOURIST<img id = ""stim"" ><div class = red_square id = ""topsquare"" ></div><img id = ""stim"" ><div class = red_square  id = ""bottomsquare"" ></div>",null,word_square,0,SPACEBAR,,
html-keyboard-response,676,2309688,null,"TOURIST",null,word,,, 'TOURIST',
html-keyboard-response,677,2310167,477.6900000288151,"DIME<img id = ""stim"" ><div class = green_square id = ""topsquare"" ></div><img id = ""stim"" ><div class = green_square  id = ""bottomsquare"" ></div>",32,word_square,1,SPACEBAR,,
html-keyboard-response,678,2311673,null,"DIME",null,word,,, 'DIME',
html-keyboard-response,679,2312177,null,"PERCH<img id = ""stim"" ><div class = green_square id = ""topsquare"" ></div><img id = ""stim"" ><div class = green_square  id = ""bottomsquare"" ></div>",null,word_square,1,SPACEBAR,,
html-keyboard-response,680,2313679,null,"PERCH",null,word,,, 'PERCH',
html-keyboard-response,681,2314182,null,"JUDGE<img id = ""stim"" ><div class = red_square id = ""topsquare"" ></div><img id = ""stim"" ><div class = red_square  id = ""bottomsquare"" ></div>",null,word_square,0,SPACEBAR,,
html-keyboard-response,682,2315690,null,"JUDGE",null,word,,, 'JUDGE',
html-keyboard-response,683,2316197,null,"BLADE<img id = ""stim"" ><div class = red_square id = ""topsquare"" ></div><img id = ""stim"" ><div class = red_square  id = ""bottomsquare"" ></div>",null,word_square,0,SPACEBAR,,
html-keyboard-response,684,2317702,null,"BLADE",null,word,,, 'BLADE',
html-keyboard-response,685,2318127,424.0200000349432,"SCISSORS<img id = ""stim"" ><div class = green_square id = ""topsquare"" ></div><img id = ""stim"" ><div class = green_square  id = ""bottomsquare"" ></div>",32,word_square,1,SPACEBAR,,
html-keyboard-response,686,2319631,null,"SCISSORS",null,word,,, 'SCISSORS',
html-keyboard-response,687,2320062,427.1350000053644,"HAYSTACK<img id = ""stim"" ><div class = green_square id = ""topsquare"" ></div><img id = ""stim"" ><div class = green_square  id = ""bottomsquare"" ></div>",32,word_square,1,SPACEBAR,,
html-keyboard-response,688,2321569,null,"HAYSTACK",null,word,,, 'HAYSTACK',
html-keyboard-response,689,2322073,null,"SUITCASE<img id = ""stim"" ><div class = green_square id = ""topsquare"" ></div><img id = ""stim"" ><div class = green_square  id = ""bottomsquare"" ></div>",null,word_square,1,SPACEBAR,,
html-keyboard-response,690,2323576,null,"SUITCASE",null,word,,, 'SUITCASE',
html-keyboard-response,691,2324082,null,"PAPER<img id = ""stim"" ><div class = red_square id = ""topsquare"" ></div><img id = ""stim"" ><div class = red_square  id = ""bottomsquare"" ></div>",null,word_square,0,SPACEBAR,,
html-keyboard-response,692,2325585,null,"PAPER",null,word,,, 'PAPER',
html-keyboard-response,693,2326088,null,"JOURNAL<img id = ""stim"" ><div class = red_square id = ""topsquare"" ></div><img id = ""stim"" ><div class = red_square  id = ""bottomsquare"" ></div>",null,word_square,0,SPACEBAR,,
html-keyboard-response,694,2327595,null,"JOURNAL",null,word,,, 'JOURNAL',
html-keyboard-response,695,2327919,321.1850000079721,"STRANGER<img id = ""stim"" ><div class = green_square id = ""topsquare"" ></div><img id = ""stim"" ><div class = green_square  id = ""bottomsquare"" ></div>",32,word_square,1,SPACEBAR,,
html-keyboard-response,696,2329426,null,"STRANGER",null,word,,, 'STRANGER',
html-keyboard-response,697,2329930,null,"EUROPE<img id = ""stim"" ><div class = red_square id = ""topsquare"" ></div><img id = ""stim"" ><div class = red_square  id = ""bottomsquare"" ></div>",null,word_square,0,SPACEBAR,,
html-keyboard-response,698,2331433,null,"EUROPE",null,word,,, 'EUROPE',
html-keyboard-response,699,2331813,377.5000000023283,"SARDINE<img id = ""stim"" ><div class = green_square id = ""topsquare"" ></div><img id = ""stim"" ><div class = green_square  id = ""bottomsquare"" ></div>",32,word_square,1,SPACEBAR,,
html-keyboard-response,700,2333316,null,"SARDINE",null,word,,, 'SARDINE',
html-keyboard-response,701,2333824,null,"HOOK<img id = ""stim"" ><div class = red_square id = ""topsquare"" ></div><img id = ""stim"" ><div class = red_square  id = ""bottomsquare"" ></div>",null,word_square,0,SPACEBAR,,
html-keyboard-response,702,2335331,null,"HOOK",null,word,,, 'HOOK',
html-keyboard-response,703,2335838,null,"ORANGE<img id = ""stim"" ><div class = red_square id = ""topsquare"" ></div><img id = ""stim"" ><div class = red_square  id = ""bottomsquare"" ></div>",null,word_square,0,SPACEBAR,,
html-keyboard-response,704,2337346,null,"ORANGE",null,word,,, 'ORANGE',
html-keyboard-response,705,2337827,479.6449999557808,"DAISY<img id = ""stim"" ><div class = green_square id = ""topsquare"" ></div><img id = ""stim"" ><div class = green_square  id = ""bottomsquare"" ></div>",32,word_square,1,SPACEBAR,,
html-keyboard-response,706,2339332,null,"DAISY",null,word,,, 'DAISY',
survey-text,707,2340709,1370.954999991227,"",,,,,,{"Q0":"6"}
survey-text,708,2342907,2190.6200000084937,"",,,,,,{"Q0":"1"}
survey-text,709,2344653,1739.2749999999069,"",,,,,,{"Q0":"0"}
survey-text,710,2345771,1110.9750000177883,"",,,,,,{"Q0":"5"}
survey-text,711,2346869,1091.530000034254,"",,,,,,{"Q0":"3"}
survey-text,712,2347959,1082.3450000025332,"",,,,,,{"Q0":"4"}
survey-text,713,2349226,1258.6349999764934,"",,,,,,{"Q0":"1"}
survey-text,714,2350736,1503.2500000088476,"",,,,,,{"Q0":"4"}
survey-text,715,2352064,1321.1749999900348,"",,,,,,{"Q0":"2"}
survey-text,716,2354349,2278.7150000222027,"",,,,,,{"Q0":"1"}
survey-text,717,2355392,1035.9900000039488,"",,,,,,{"Q0":"4"}
survey-text,718,2356740,1341.0649999859743,"",,,,,,{"Q0":"5"}
survey-text,719,2357945,1198.5299999942072,"",,,,,,{"Q0":"2"}
survey-text,720,2360028,2076.055000012275,"",,,,,,{"Q0":"2"}
survey-text,721,2361283,1249.1599999484606,"",,,,,,{"Q0":"1"}
survey-text,722,2362542,1252.455000008922,"",,,,,,{"Q0":"5"}
survey-text,723,2365134,2584.915000014007,"",,,,,,{"Q0":"0"}
survey-text,724,2368159,3017.8799999994226,"",,,,,,{"Q0":"viking"}
survey-text,725,2370572,2405.514999991283,"",,,,,,{"Q0":"yacht"}
survey-text,726,2372260,1680.8949999976903,"",,,,,,{"Q0":"tourist"}
survey-text,727,2373510,1242.8250000230037,"",,,,,,{"Q0":"dime"}
survey-text,728,2375114,1596.7550000059418,"",,,,,,{"Q0":"perch"}
survey-text,729,2378632,3511.575000011362,"",,,,,,{"Q0":"europe"}
survey-text,730,2389196,10558.045000012498,"",,,,,,{"Q0":"judge"}
survey-text,731,2391712,2509.014999959618,"",,,,,,{"Q0":"scissors"}
survey-text,732,2393008,1290.000000037253,"",,,,,,{"Q0":"blade"}
survey-text,733,2456842,63824.80999996187,"",,,,,,{"Q0":"orange"}
html-keyboard-response,734,2457516,671.9300000113435,"<div style=""font-size:48px;"">Press any key to begin list 11 of 24 </div>",13,,,,,
html-keyboard-response,735,2460027,null,"<div style=""font-size:60px;"">+</div>",null,,,,,
html-keyboard-response,736,2460530,null,"BACON<img id = ""stim"" ><div class = green_square id = ""topsquare"" ></div><img id = ""stim"" ><div class = green_square  id = ""bottomsquare"" ></div>",null,word_square,1,SPACEBAR,,
html-keyboard-response,737,2462033,null,"BACON",null,word,,, 'BACON',
html-keyboard-response,738,2462536,null,"SKUNK<img id = ""stim"" ><div class = red_square id = ""topsquare"" ></div><img id = ""stim"" ><div class = red_square  id = ""bottomsquare"" ></div>",null,word_square,0,SPACEBAR,,
html-keyboard-response,739,2464039,null,"SKUNK",null,word,,, 'SKUNK',
html-keyboard-response,740,2464473,431.26000004122034,"CARPET<img id = ""stim"" ><div class = green_square id = ""topsquare"" ></div><img id = ""stim"" ><div class = green_square  id = ""bottomsquare"" ></div>",32,word_square,1,SPACEBAR,,
html-keyboard-response,741,2465979,null,"CARPET",null,word,,, 'CARPET',
html-keyboard-response,742,2466483,null,"GUARD<img id = ""stim"" ><div class = red_square id = ""topsquare"" ></div><img id = ""stim"" ><div class = red_square  id = ""bottomsquare"" ></div>",null,word_square,0,SPACEBAR,,
html-keyboard-response,743,2467991,null,"GUARD",null,word,,, 'GUARD',
html-keyboard-response,744,2468494,null,"GROUND<img id = ""stim"" ><div class = red_square id = ""topsquare"" ></div><img id = ""stim"" ><div class = red_square  id = ""bottomsquare"" ></div>",null,word_square,0,SPACEBAR,,
html-keyboard-response,745,2470001,null,"GROUND",null,word,,, 'GROUND',
html-keyboard-response,746,2470372,368.77499998081475,"ANKLE<img id = ""stim"" ><div class = green_square id = ""topsquare"" ></div><img id = ""stim"" ><div class = green_square  id = ""bottomsquare"" ></div>",32,word_square,1,SPACEBAR,,
html-keyboard-response,747,2471879,null,"ANKLE",null,word,,, 'ANKLE',
html-keyboard-response,748,2472306,425.4899999941699,"LODGE<img id = ""stim"" ><div class = green_square id = ""topsquare"" ></div><img id = ""stim"" ><div class = green_square  id = ""bottomsquare"" ></div>",32,word_square,1,SPACEBAR,,
html-keyboard-response,749,2473814,null,"LODGE",null,word,,, 'LODGE',
html-keyboard-response,750,2474321,null,"DOG<img id = ""stim"" ><div class = red_square id = ""topsquare"" ></div><img id = ""stim"" ><div class = red_square  id = ""bottomsquare"" ></div>",null,word_square,0,SPACEBAR,,
html-keyboard-response,751,2475828,null,"DOG",null,word,,, 'DOG',
html-keyboard-response,752,2476336,null,"SEAFOOD<img id = ""stim"" ><div class = red_square id = ""topsquare"" ></div><img id = ""stim"" ><div class = red_square  id = ""bottomsquare"" ></div>",null,word_square,0,SPACEBAR,,
html-keyboard-response,753,2477843,null,"SEAFOOD",null,word,,, 'SEAFOOD',
html-keyboard-response,754,2478348,null,"BANQUET<img id = ""stim"" ><div class = red_square id = ""topsquare"" ></div><img id = ""stim"" ><div class = red_square  id = ""bottomsquare"" ></div>",null,word_square,0,SPACEBAR,,
html-keyboard-response,755,2479855,null,"BANQUET",null,word,,, 'BANQUET',
html-keyboard-response,756,2480256,399.1050000186078,"DORM<img id = ""stim"" ><div class = green_square id = ""topsquare"" ></div><img id = ""stim"" ><div class = green_square  id = ""bottomsquare"" ></div>",32,word_square,1,SPACEBAR,,
html-keyboard-response,757,2481764,null,"DORM",null,word,,, 'DORM',
html-keyboard-response,758,2482184,418.4450000175275,"OMELET<img id = ""stim"" ><div class = green_square id = ""topsquare"" ></div><img id = ""stim"" ><div class = green_square  id = ""bottomsquare"" ></div>",32,word_square,1,SPACEBAR,,
html-keyboard-response,759,2483691,null,"OMELET",null,word,,, 'OMELET',
html-keyboard-response,760,2484194,null,"HUSBAND<img id = ""stim"" ><div class = red_square id = ""topsquare"" ></div><img id = ""stim"" ><div class = red_square  id = ""bottomsquare"" ></div>",null,word_square,0,SPACEBAR,,
html-keyboard-response,761,2485702,null,"HUSBAND",null,word,,, 'HUSBAND',
html-keyboard-response,762,2486127,423.7100000027567,"COLONEL<img id = ""stim"" ><div class = green_square id = ""topsquare"" ></div><img id = ""stim"" ><div class = green_square  id = ""bottomsquare"" ></div>",32,word_square,1,SPACEBAR,,
html-keyboard-response,763,2487633,null,"COLONEL",null,word,,, 'COLONEL',
html-keyboard-response,764,2488136,null,"CLIFF<img id = ""stim"" ><div class = red_square id = ""topsquare"" ></div><img id = ""stim"" ><div class = red_square  id = ""bottomsquare"" ></div>",null,word_square,0,SPACEBAR,,
html-keyboard-response,765,2489643,null,"CLIFF",null,word,,, 'CLIFF',
html-keyboard-response,766,2490066,421.17500002495944,"LAGOON<img id = ""stim"" ><div class = green_square id = ""topsquare"" ></div><img id = ""stim"" ><div class = green_square  id = ""bottomsquare"" ></div>",32,word_square,1,SPACEBAR,,
html-keyboard-response,767,2491570,null,"LAGOON",null,word,,, 'LAGOON',
html-keyboard-response,768,2492076,null,"BUREAU<img id = ""stim"" ><div class = green_square id = ""topsquare"" ></div><img id = ""stim"" ><div class = green_square  id = ""bottomsquare"" ></div>",null,word_square,1,SPACEBAR,,
html-keyboard-response,769,2493579,null,"BUREAU",null,word,,, 'BUREAU',
html-keyboard-response,770,2494086,null,"CHEST<img id = ""stim"" ><div class = red_square id = ""topsquare"" ></div><img id = ""stim"" ><div class = red_square  id = ""bottomsquare"" ></div>",null,word_square,0,SPACEBAR,,
html-keyboard-response,771,2495589,null,"CHEST",null,word,,, 'CHEST',
survey-text,772,2496839,1243.8400000100955,"",,,,,,{"Q0":"4"}
survey-text,773,2498463,1616.9649999937974,"",,,,,,{"Q0":"2"}
survey-text,774,2500154,1684.1249999706633,"",,,,,,{"Q0":"5"}
survey-text,775,2501516,1355.100000044331,"",,,,,,{"Q0":"4"}
survey-text,776,2503027,1504.2350000003353,"",,,,,,{"Q0":"2"}
survey-text,777,2504330,1295.8250000374392,"",,,,,,{"Q0":"5"}
survey-text,778,2506019,1681.9350000005215,"",,,,,,{"Q0":"1"}
survey-text,779,2507565,1539.3850000109524,"",,,,,,{"Q0":"1"}
survey-text,780,2509320,1748.9250000216998,"",,,,,,{"Q0":"0"}
survey-text,781,2510667,1339.8100000340492,"",,,,,,{"Q0":"5"}
survey-text,782,2511629,955.130000016652,"",,,,,,{"Q0":"4"}
survey-text,783,2512787,1149.9649999896064,"",,,,,,{"Q0":"1"}
survey-text,784,2514080,1286.8999999482185,"",,,,,,{"Q0":"2"}
survey-text,785,2515153,1066.3599999970756,"",,,,,,{"Q0":"4"}
survey-text,786,2517012,1850.9850000264123,"",,,,,,{"Q0":"2"}
survey-text,787,2518945,1927.20500001451,"",,,,,,{"Q0":"4"}
survey-text,788,2520431,1480.2649999619462,"",,,,,,{"Q0":"6"}
survey-text,789,2526588,6149.74500000244,"",,,,,,{"Q0":"chest"}
survey-text,790,2533180,6584.269999992102,"",,,,,,{"Q0":"husband"}
survey-text,791,2535475,2287.0400000247173,"",,,,,,{"Q0":"banquet"}
survey-text,792,2537852,2369.2600000067614,"",,,,,,{"Q0":"omlete"}
survey-text,793,2540702,2841.9449999928474,"",,,,,,{"Q0":"seafood"}
survey-text,794,2541977,1268.6150000081398,"",,,,,,{"Q0":"dorm"}
survey-text,795,2546261,4275.774999987334,"",,,,,,{"Q0":"bureau"}
survey-text,796,2556189,9920.840000035241,"",,,,,,{"Q0":"lagoon"}
survey-text,797,2557575,1379.0400000289083,"",,,,,,{"Q0":"cliff"}
survey-text,798,2576152,18569.425000052433,"",,,,,,{"Q0":"dog"}
survey-text,799,2592868,16708.12000002479,"",,,,,,{"Q0":"ankle"}
survey-text,800,2644138,51260.17000002321,"",,,,,,{"Q0":"dolphin"}
html-keyboard-response,801,2644739,598.8900000229478,"<div style=""font-size:48px;"">Press any key to begin list 12 of 24 </div>",13,,,,,
html-keyboard-response,802,2647246,null,"<div style=""font-size:60px;"">+</div>",null,,,,,
html-keyboard-response,803,2647748,null,"BLENDER<img id = ""stim"" ><div class = green_square id = ""topsquare"" ></div><img id = ""stim"" ><div class = green_square  id = ""bottomsquare"" ></div>",null,word_square,1,SPACEBAR,,
html-keyboard-response,804,2649255,null,"BLENDER",null,word,,, 'BLENDER',
html-keyboard-response,805,2649758,null,"IDOL<img id = ""stim"" ><div class = red_square id = ""topsquare"" ></div><img id = ""stim"" ><div class = red_square  id = ""bottomsquare"" ></div>",null,word_square,0,SPACEBAR,,
html-keyboard-response,806,2651263,null,"IDOL",null,word,,, 'IDOL',
html-keyboard-response,807,2651686,419.97500002617016,"TERMITE<img id = ""stim"" ><div class = green_square id = ""topsquare"" ></div><img id = ""stim"" ><div class = green_square  id = ""bottomsquare"" ></div>",32,word_square,1,SPACEBAR,,
html-keyboard-response,808,2653189,null,"TERMITE",null,word,,, 'TERMITE',
html-keyboard-response,809,2653692,null,"SKILLET<img id = ""stim"" ><div class = red_square id = ""topsquare"" ></div><img id = ""stim"" ><div class = red_square  id = ""bottomsquare"" ></div>",null,word_square,0,SPACEBAR,,
html-keyboard-response,810,2655198,null,"SKILLET",null,word,,, 'SKILLET',
html-keyboard-response,811,2655702,null,"TRUMPET<img id = ""stim"" ><div class = red_square id = ""topsquare"" ></div><img id = ""stim"" ><div class = red_square  id = ""bottomsquare"" ></div>",null,word_square,0,SPACEBAR,,
html-keyboard-response,812,2657204,null,"TRUMPET",null,word,,, 'TRUMPET',
html-keyboard-response,813,2657707,null,"CEILING<img id = ""stim"" ><div class = green_square id = ""topsquare"" ></div><img id = ""stim"" ><div class = green_square  id = ""bottomsquare"" ></div>",null,word_square,1,SPACEBAR,,
html-keyboard-response,814,2659214,null,"CEILING",null,word,,, 'CEILING',
html-keyboard-response,815,2659589,373.10500000603497,"CANYON<img id = ""stim"" ><div class = green_square id = ""topsquare"" ></div><img id = ""stim"" ><div class = green_square  id = ""bottomsquare"" ></div>",32,word_square,1,SPACEBAR,,
html-keyboard-response,816,2661096,null,"CANYON",null,word,,, 'CANYON',
html-keyboard-response,817,2661602,null,"SLOPE<img id = ""stim"" ><div class = red_square id = ""topsquare"" ></div><img id = ""stim"" ><div class = red_square  id = ""bottomsquare"" ></div>",null,word_square,0,SPACEBAR,,
html-keyboard-response,818,2663104,null,"SLOPE",null,word,,, 'SLOPE',
html-keyboard-response,819,2663611,null,"PLIERS<img id = ""stim"" ><div class = red_square id = ""topsquare"" ></div><img id = ""stim"" ><div class = red_square  id = ""bottomsquare"" ></div>",null,word_square,0,SPACEBAR,,
html-keyboard-response,820,2665115,null,"PLIERS",null,word,,, 'PLIERS',
html-keyboard-response,821,2665622,null,"CROSS<img id = ""stim"" ><div class = red_square id = ""topsquare"" ></div><img id = ""stim"" ><div class = red_square  id = ""bottomsquare"" ></div>",null,word_square,0,SPACEBAR,,
html-keyboard-response,822,2667129,null,"CROSS",null,word,,, 'CROSS',
html-keyboard-response,823,2667582,450.9049999760464,"TEMPLE<img id = ""stim"" ><div class = green_square id = ""topsquare"" ></div><img id = ""stim"" ><div class = green_square  id = ""bottomsquare"" ></div>",32,word_square,1,SPACEBAR,,
html-keyboard-response,824,2669091,null,"TEMPLE",null,word,,, 'TEMPLE',
html-keyboard-response,825,2669557,463.6900000041351,"DRESSER<img id = ""stim"" ><div class = green_square id = ""topsquare"" ></div><img id = ""stim"" ><div class = green_square  id = ""bottomsquare"" ></div>",32,word_square,1,SPACEBAR,,
html-keyboard-response,826,2671061,null,"DRESSER",null,word,,, 'DRESSER',
html-keyboard-response,827,2671567,null,"BISCUIT<img id = ""stim"" ><div class = red_square id = ""topsquare"" ></div><img id = ""stim"" ><div class = red_square  id = ""bottomsquare"" ></div>",null,word_square,0,SPACEBAR,,
html-keyboard-response,828,2673075,null,"BISCUIT",null,word,,, 'BISCUIT',
html-keyboard-response,829,2673438,360.86999997496605,"LILY<img id = ""stim"" ><div class = green_square id = ""topsquare"" ></div><img id = ""stim"" ><div class = green_square  id = ""bottomsquare"" ></div>",32,word_square,1,SPACEBAR,,
html-keyboard-response,830,2674946,null,"LILY",null,word,,, 'LILY',
html-keyboard-response,831,2675451,null,"BOUQUET<img id = ""stim"" ><div class = red_square id = ""topsquare"" ></div><img id = ""stim"" ><div class = red_square  id = ""bottomsquare"" ></div>",null,word_square,0,SPACEBAR,,
html-keyboard-response,832,2676957,null,"BOUQUET",null,word,,, 'BOUQUET',
html-keyboard-response,833,2677348,388.89999996172264,"STAPLER<img id = ""stim"" ><div class = green_square id = ""topsquare"" ></div><img id = ""stim"" ><div class = green_square  id = ""bottomsquare"" ></div>",32,word_square,1,SPACEBAR,,
html-keyboard-response,834,2678851,null,"STAPLER",null,word,,, 'STAPLER',
html-keyboard-response,835,2679283,430.61999999918044,"STATUE<img id = ""stim"" ><div class = green_square id = ""topsquare"" ></div><img id = ""stim"" ><div class = green_square  id = ""bottomsquare"" ></div>",32,word_square,1,SPACEBAR,,
html-keyboard-response,836,2680791,null,"STATUE",null,word,,, 'STATUE',
html-keyboard-response,837,2681295,null,"NEEDLE<img id = ""stim"" ><div class = red_square id = ""topsquare"" ></div><img id = ""stim"" ><div class = red_square  id = ""bottomsquare"" ></div>",null,word_square,0,SPACEBAR,,
html-keyboard-response,838,2682801,null,"NEEDLE",null,word,,, 'NEEDLE',
survey-text,839,2684227,1419.240000017453,"",,,,,,{"Q0":"4"}
survey-text,840,2685282,1046.9149999553338,"",,,,,,{"Q0":"6"}
survey-text,841,2686831,1541.9800000381656,"",,,,,,{"Q0":"4"}
survey-text,842,2687854,1017.4299999489449,"",,,,,,{"Q0":"4"}
survey-text,843,2689138,1276.4449999667704,"",,,,,,{"Q0":"1"}
survey-text,844,2690521,1375.8099999977276,"",,,,,,{"Q0":"6"}
survey-text,845,2691621,1093.2799999718554,"",,,,,,{"Q0":"3"}
survey-text,846,2693118,1489.179999975022,"",,,,,,{"Q0":"4"}
survey-text,847,2694467,1342.6650000037625,"",,,,,,{"Q0":"2"}
survey-text,848,2695620,1145.920000039041,"",,,,,,{"Q0":"3"}
survey-text,849,2696667,1040.5500000342727,"",,,,,,{"Q0":"6"}
survey-text,850,2697740,1065.2199999894947,"",,,,,,{"Q0":"5"}
survey-text,851,2698947,1200.8700000005774,"",,,,,,{"Q0":"3"}
survey-text,852,2700292,1338.4749999968335,"",,,,,,{"Q0":"4"}
survey-text,853,2704142,3843.1100000161678,"",,,,,,{"Q0":"2"}
survey-text,854,2705512,1361.9199999957345,"",,,,,,{"Q0":"2"}
survey-text,855,2708360,2841.2699999753386,"",,,,,,{"Q0":"2"}
survey-text,856,2710670,2302.7000000001863,"",,,,,,{"Q0":"needle"}
survey-text,857,2713236,2558.245000021998,"",,,,,,{"Q0":"statue"}
survey-text,858,2715006,1762.6499999896623,"",,,,,,{"Q0":"cross"}
survey-text,859,2716818,1804.3799999868497,"",,,,,,{"Q0":"temple"}
survey-text,860,2719281,2454.7049999819137,"",,,,,,{"Q0":"pliers"}
survey-text,861,2721030,1742.0199999469332,"",,,,,,{"Q0":"lily"}
survey-text,862,2723247,2210.0399999762885,"",,,,,,{"Q0":"bouquet"}
survey-text,863,2765878,42621.455000014976,"",,,,,,{"Q0":"pliers"}
survey-text,864,2782652,16766.089999990072,"",,,,,,{"Q0":"dresser"}
survey-text,865,2860226,77563.8199999812,"",,,,,,{"Q0":"guard"}
html-keyboard-response,866,2860817,588.5049999924377,"<div style=""font-size:48px;"">Press any key to begin list 13 of 24 </div>",13,,,,,
html-keyboard-response,867,2863323,null,"<div style=""font-size:60px;"">+</div>",null,,,,,
html-keyboard-response,868,2863826,null,"GERM<img id = ""stim"" ><div class = red_square id = ""topsquare"" ></div><img id = ""stim"" ><div class = red_square  id = ""bottomsquare"" ></div>",null,word_square,0,SPACEBAR,,
html-keyboard-response,869,2865333,null,"GERM",null,word,,, 'GERM',
html-keyboard-response,870,2865840,null,"TREASURE<img id = ""stim"" ><div class = green_square id = ""topsquare"" ></div><img id = ""stim"" ><div class = green_square  id = ""bottomsquare"" ></div>",null,word_square,1,SPACEBAR,,
html-keyboard-response,871,2867343,null,"TREASURE",null,word,,, 'TREASURE',
html-keyboard-response,872,2867812,467.00000000419095,"SICKLE<img id = ""stim"" ><div class = green_square id = ""topsquare"" ></div><img id = ""stim"" ><div class = green_square  id = ""bottomsquare"" ></div>",32,word_square,1,SPACEBAR,,
html-keyboard-response,873,2869317,null,"SICKLE",null,word,,, 'SICKLE',
html-keyboard-response,874,2869824,null,"CHISEL<img id = ""stim"" ><div class = red_square id = ""topsquare"" ></div><img id = ""stim"" ><div class = red_square  id = ""bottomsquare"" ></div>",null,word_square,0,SPACEBAR,,
html-keyboard-response,875,2871327,null,"CHISEL",null,word,,, 'CHISEL',
html-keyboard-response,876,2871832,null,"SALESMAN<img id = ""stim"" ><div class = red_square id = ""topsquare"" ></div><img id = ""stim"" ><div class = red_square  id = ""bottomsquare"" ></div>",null,word_square,0,SPACEBAR,,
html-keyboard-response,877,2873339,null,"SALESMAN",null,word,,, 'SALESMAN',
html-keyboard-response,878,2873826,484.3399999663234,"SHOELACE<img id = ""stim"" ><div class = green_square id = ""topsquare"" ></div><img id = ""stim"" ><div class = green_square  id = ""bottomsquare"" ></div>",32,word_square,1,SPACEBAR,,
html-keyboard-response,879,2875333,null,"SHOELACE",null,word,,, 'SHOELACE',
html-keyboard-response,880,2875752,417.03000001143664,"DAD<img id = ""stim"" ><div class = green_square id = ""topsquare"" ></div><img id = ""stim"" ><div class = green_square  id = ""bottomsquare"" ></div>",32,word_square,1,SPACEBAR,,
html-keyboard-response,881,2877258,null,"DAD",null,word,,, 'DAD',
