trial_type,trial_index,time_elapsed,rt,stimulus,key_press,test_part,task,targ_cond,correctKeyCode,correct,word,value,response
pavlovia,0,660,,"",,,,,,,,,
external-html,1,8254,7582.040000008419,"",,,,,,,,,
html-keyboard-response,2,11043,2785.25000018999,"Welcome to the experiment. Press any key to begin.",32,,,,,,,,
html-keyboard-response,3,20177,9132.144999923185,"<p>You will see a list of words and colored squares in the following task.<p><p>Press the spacebar whenever you see a red square.<p><p>Do not press a key if the square is green<p><p>Press the spacebar to continue.</p>",32,,,,,,,,
html-keyboard-response,4,27297,6613.1700000260025,"<p>Please try to remember as many of the words as you can, and try to think about the meaning of each word as it appears.<p><p>After the detection and encoding task you will be asked to solve some math problems for 24 seconds.<p> Please solve as many problems as you can in the time given. <p>",32,,,,,,,,
html-keyboard-response,5,40253,12440.054999897256,"After solving the math problems, you will be asked to type in as many words <p>from the previous list as you can remember for 75 seconds.<p> If you finish recalling before the 75 seconds are up,<p> just sit tight and try to think of any more words you could have missed. <p><p>We will begin with a brief practice session<p>Press the spacebar to begin the practice.</p>",32,,,,,,,,
html-keyboard-response,6,42770,null,"<div style=""font-size:60px;"">+</div>",null,,,,,,,,
html-keyboard-response,7,43288,null,"HAPPY<img id = ""stim"" ><div class = green_square id = ""topsquare"" ></div><img id = ""stim"" ><div class = green_square  id = ""bottomsquare"" ></div>",null,word_square,prac_response,0,none,true,,,
html-keyboard-response,8,44794,null,"HAPPY",null,word,,,,,HAPPY,,
html-keyboard-response,9,45310,391.44000015221536,"COLD<img id = ""stim"" ><div class = red_square id = ""topsquare"" ></div><img id = ""stim"" ><div class = red_square  id = ""bottomsquare"" ></div>",32,word_square,prac_response,1,Space,true,,,
html-keyboard-response,10,46816,null,"COLD",null,word,,,,,COLD,,
html-keyboard-response,11,47323,489.0050000976771,"HEAVY<img id = ""stim"" ><div class = red_square id = ""topsquare"" ></div><img id = ""stim"" ><div class = red_square  id = ""bottomsquare"" ></div>",32,word_square,prac_response,1,Space,true,,,
html-keyboard-response,12,48829,null,"HEAVY",null,word,,,,,HEAVY,,
html-keyboard-response,13,49333,null,"FUNNY<img id = ""stim"" ><div class = green_square id = ""topsquare"" ></div><img id = ""stim"" ><div class = green_square  id = ""bottomsquare"" ></div>",null,word_square,prac_response,0,none,true,,,
html-keyboard-response,14,50846,null,"FUNNY",null,word,,,,,FUNNY,,
html-keyboard-response,15,51359,null,"SCARY<img id = ""stim"" ><div class = red_square id = ""topsquare"" ></div><img id = ""stim"" ><div class = red_square  id = ""bottomsquare"" ></div>",null,word_square,prac_response,1,Space,false,,,
html-keyboard-response,16,52876,null,"SCARY",null,word,,,,,SCARY,,
html-keyboard-response,17,53381,null,"PEACEFUL<img id = ""stim"" ><div class = red_square id = ""topsquare"" ></div><img id = ""stim"" ><div class = red_square  id = ""bottomsquare"" ></div>",null,word_square,prac_response,1,Space,false,,,
html-keyboard-response,18,54884,null,"PEACEFUL",null,word,,,,,PEACEFUL,,
html-keyboard-response,19,55401,null,"LITTLE<img id = ""stim"" ><div class = green_square id = ""topsquare"" ></div><img id = ""stim"" ><div class = green_square  id = ""bottomsquare"" ></div>",null,word_square,prac_response,0,none,true,,,
html-keyboard-response,20,56906,null,"LITTLE",null,word,,,,,LITTLE,,
html-keyboard-response,21,57412,null,"TIRED<img id = ""stim"" ><div class = green_square id = ""topsquare"" ></div><img id = ""stim"" ><div class = green_square  id = ""bottomsquare"" ></div>",null,word_square,prac_response,0,none,true,,,
html-keyboard-response,22,58915,null,"TIRED",null,word,,,,,TIRED,,
html-keyboard-response,23,59433,null,"ENTERTAINING<img id = ""stim"" ><div class = green_square id = ""topsquare"" ></div><img id = ""stim"" ><div class = green_square  id = ""bottomsquare"" ></div>",null,word_square,prac_response,0,none,true,,,
html-keyboard-response,24,60938,null,"ENTERTAINING",null,word,,,,,ENTERTAINING,,
html-keyboard-response,25,61440,null,"GRATEFUL<img id = ""stim"" ><div class = red_square id = ""topsquare"" ></div><img id = ""stim"" ><div class = red_square  id = ""bottomsquare"" ></div>",null,word_square,prac_response,1,Space,false,,,
html-keyboard-response,26,62955,null,"GRATEFUL",null,word,,,,,GRATEFUL,,
html-keyboard-response,27,63472,null,"LOUD<img id = ""stim"" ><div class = green_square id = ""topsquare"" ></div><img id = ""stim"" ><div class = green_square  id = ""bottomsquare"" ></div>",null,word_square,prac_response,0,none,true,,,
html-keyboard-response,28,64978,null,"LOUD",null,word,,,,,LOUD,,
html-keyboard-response,29,65481,null,"SMART<img id = ""stim"" ><div class = red_square id = ""topsquare"" ></div><img id = ""stim"" ><div class = red_square  id = ""bottomsquare"" ></div>",null,word_square,prac_response,1,Space,false,,,
html-keyboard-response,30,66995,null,"SMART",null,word,,,,,SMART,,
html-keyboard-response,31,67512,365.96000008285046,"SMOOTH<img id = ""stim"" ><div class = red_square id = ""topsquare"" ></div><img id = ""stim"" ><div class = red_square  id = ""bottomsquare"" ></div>",32,word_square,prac_response,1,Space,true,,,
html-keyboard-response,32,69017,null,"SMOOTH",null,word,,,,,SMOOTH,,
html-keyboard-response,33,69531,null,"DISHONEST<img id = ""stim"" ><div class = green_square id = ""topsquare"" ></div><img id = ""stim"" ><div class = green_square  id = ""bottomsquare"" ></div>",null,word_square,prac_response,0,none,true,,,
html-keyboard-response,34,71034,null,"DISHONEST",null,word,,,,,DISHONEST,,
html-keyboard-response,35,71551,362.9999998956919,"WEALTHY<img id = ""stim"" ><div class = red_square id = ""topsquare"" ></div><img id = ""stim"" ><div class = red_square  id = ""bottomsquare"" ></div>",32,word_square,prac_response,1,Space,true,,,
html-keyboard-response,36,73068,null,"WEALTHY",null,word,,,,,WEALTHY,,
html-keyboard-response,37,73571,null,"BEAUTIFUL<img id = ""stim"" ><div class = green_square id = ""topsquare"" ></div><img id = ""stim"" ><div class = green_square  id = ""bottomsquare"" ></div>",null,word_square,prac_response,0,none,true,,,
html-keyboard-response,38,75082,null,"BEAUTIFUL",null,word,,,,,BEAUTIFUL,,
html-keyboard-response,39,75583,null,"DREARY<img id = ""stim"" ><div class = green_square id = ""topsquare"" ></div><img id = ""stim"" ><div class = green_square  id = ""bottomsquare"" ></div>",null,word_square,prac_response,0,none,true,,,
html-keyboard-response,40,77098,null,"DREARY",null,word,,,,,DREARY,,
html-keyboard-response,41,77600,null,"PLAYFUL<img id = ""stim"" ><div class = red_square id = ""topsquare"" ></div><img id = ""stim"" ><div class = red_square  id = ""bottomsquare"" ></div>",null,word_square,prac_response,1,Space,false,,,
html-keyboard-response,42,79111,null,"PLAYFUL",null,word,,,,,PLAYFUL,,
html-keyboard-response,43,82324,3210.2250000461936,"<p> Uh oh. You responded correctly on 72% of the red squares.</p>
                  <p>We need you keep your accuracy above 80%</p>
                  <p>We're going to try once more to make sure you understand the task. press any key to continue.</p>",32,,,,,,,,
html-keyboard-response,44,83678,1353.099999949336,"<p>You will see a list of words and colored squares in the following task.<p><p>Press the spacebar whenever you see a red square.<p><p>Do not press a key if the square is green<p><p>Press the spacebar to continue.</p>",32,,,,,,,,
html-keyboard-response,45,86193,null,"<div style=""font-size:60px;"">+</div>",null,,,,,,,,
html-keyboard-response,46,86697,null,"HAPPY<img id = ""stim"" ><div class = green_square id = ""topsquare"" ></div><img id = ""stim"" ><div class = green_square  id = ""bottomsquare"" ></div>",null,word_square,response,0,none,true,,,
html-keyboard-response,47,88201,null,"HAPPY",null,word,,,,,HAPPY,,
html-keyboard-response,48,88607,404.69500003382564,"COLD<img id = ""stim"" ><div class = red_square id = ""topsquare"" ></div><img id = ""stim"" ><div class = red_square  id = ""bottomsquare"" ></div>",32,word_square,response,1,Space,true,,,
html-keyboard-response,49,90109,null,"COLD",null,word,,,,,COLD,,
html-keyboard-response,50,90525,414.84500002115965,"HEAVY<img id = ""stim"" ><div class = red_square id = ""topsquare"" ></div><img id = ""stim"" ><div class = red_square  id = ""bottomsquare"" ></div>",32,word_square,response,1,Space,true,,,
html-keyboard-response,51,92033,null,"HEAVY",null,word,,,,,HEAVY,,
html-keyboard-response,52,92546,null,"FUNNY<img id = ""stim"" ><div class = green_square id = ""topsquare"" ></div><img id = ""stim"" ><div class = green_square  id = ""bottomsquare"" ></div>",null,word_square,response,0,none,true,,,
html-keyboard-response,53,94061,null,"FUNNY",null,word,,,,,FUNNY,,
html-keyboard-response,54,94559,495.9400000516325,"SCARY<img id = ""stim"" ><div class = red_square id = ""topsquare"" ></div><img id = ""stim"" ><div class = red_square  id = ""bottomsquare"" ></div>",32,word_square,response,1,Space,true,,,
html-keyboard-response,55,96066,null,"SCARY",null,word,,,,,SCARY,,
html-keyboard-response,56,96492,424.3649998679757,"PEACEFUL<img id = ""stim"" ><div class = red_square id = ""topsquare"" ></div><img id = ""stim"" ><div class = red_square  id = ""bottomsquare"" ></div>",32,word_square,response,1,Space,true,,,
html-keyboard-response,57,97998,null,"PEACEFUL",null,word,,,,,PEACEFUL,,
html-keyboard-response,58,98515,null,"LITTLE<img id = ""stim"" ><div class = green_square id = ""topsquare"" ></div><img id = ""stim"" ><div class = green_square  id = ""bottomsquare"" ></div>",null,word_square,response,0,none,true,,,
html-keyboard-response,59,100023,null,"LITTLE",null,word,,,,,LITTLE,,
html-keyboard-response,60,100540,null,"TIRED<img id = ""stim"" ><div class = green_square id = ""topsquare"" ></div><img id = ""stim"" ><div class = green_square  id = ""bottomsquare"" ></div>",null,word_square,response,0,none,true,,,
html-keyboard-response,61,102046,null,"TIRED",null,word,,,,,TIRED,,
html-keyboard-response,62,102563,null,"ENTERTAINING<img id = ""stim"" ><div class = green_square id = ""topsquare"" ></div><img id = ""stim"" ><div class = green_square  id = ""bottomsquare"" ></div>",null,word_square,response,0,none,true,,,
html-keyboard-response,63,104071,null,"ENTERTAINING",null,word,,,,,ENTERTAINING,,
html-keyboard-response,64,104493,420.3099999576807,"GRATEFUL<img id = ""stim"" ><div class = red_square id = ""topsquare"" ></div><img id = ""stim"" ><div class = red_square  id = ""bottomsquare"" ></div>",32,word_square,response,1,Space,true,,,
html-keyboard-response,65,106005,null,"GRATEFUL",null,word,,,,,GRATEFUL,,
html-keyboard-response,66,106508,null,"LOUD<img id = ""stim"" ><div class = green_square id = ""topsquare"" ></div><img id = ""stim"" ><div class = green_square  id = ""bottomsquare"" ></div>",null,word_square,response,0,none,true,,,
html-keyboard-response,67,108016,null,"LOUD",null,word,,,,,LOUD,,
html-keyboard-response,68,108322,304.81499992311,"SMART<img id = ""stim"" ><div class = red_square id = ""topsquare"" ></div><img id = ""stim"" ><div class = red_square  id = ""bottomsquare"" ></div>",32,word_square,response,1,Space,true,,,
html-keyboard-response,69,109840,null,"SMART",null,word,,,,,SMART,,
html-keyboard-response,70,110355,null,"SMOOTH<img id = ""stim"" ><div class = red_square id = ""topsquare"" ></div><img id = ""stim"" ><div class = red_square  id = ""bottomsquare"" ></div>",null,word_square,response,1,Space,false,,,
html-keyboard-response,71,111870,null,"SMOOTH",null,word,,,,,SMOOTH,,
html-keyboard-response,72,112387,null,"DISHONEST<img id = ""stim"" ><div class = green_square id = ""topsquare"" ></div><img id = ""stim"" ><div class = green_square  id = ""bottomsquare"" ></div>",null,word_square,response,0,none,true,,,
html-keyboard-response,73,113903,null,"DISHONEST",null,word,,,,,DISHONEST,,
html-keyboard-response,74,114335,430.2050000987947,"WEALTHY<img id = ""stim"" ><div class = red_square id = ""topsquare"" ></div><img id = ""stim"" ><div class = red_square  id = ""bottomsquare"" ></div>",32,word_square,response,1,Space,true,,,
html-keyboard-response,75,115852,null,"WEALTHY",null,word,,,,,WEALTHY,,
html-keyboard-response,76,116371,null,"BEAUTIFUL<img id = ""stim"" ><div class = green_square id = ""topsquare"" ></div><img id = ""stim"" ><div class = green_square  id = ""bottomsquare"" ></div>",null,word_square,response,0,none,true,,,
html-keyboard-response,77,117888,null,"BEAUTIFUL",null,word,,,,,BEAUTIFUL,,
html-keyboard-response,78,118406,null,"DREARY<img id = ""stim"" ><div class = green_square id = ""topsquare"" ></div><img id = ""stim"" ><div class = green_square  id = ""bottomsquare"" ></div>",null,word_square,response,0,none,true,,,
html-keyboard-response,79,119920,null,"DREARY",null,word,,,,,DREARY,,
html-keyboard-response,80,120320,396.48999995552003,"PLAYFUL<img id = ""stim"" ><div class = red_square id = ""topsquare"" ></div><img id = ""stim"" ><div class = red_square  id = ""bottomsquare"" ></div>",32,word_square,response,1,Space,true,,,
html-keyboard-response,81,121836,null,"PLAYFUL",null,word,,,,,PLAYFUL,,
html-keyboard-response,82,127943,6105.6649999227375,"<p> Good job! You responded correctly to 94% of the red squares.</p>
                  <p>Be sure to keep your accuracy above 80%</p>
                  <p>Press any key to begin the math and recall sections. Thank you!</p>",32,,,,,,,,
call-function,83,127944,,"",,,,,,,,,
html-keyboard-response,84,128060,null,"",null,,,,,,,,
math-period,85,133276,9885.935000143945,"",,,,,,,,,1
html-keyboard-response,86,133393,null,"",null,,,,,,,,
math-period,87,135202,3454.9449996557087,"",,,,,,,,,5
html-keyboard-response,88,135305,null,"",null,,,,,,,,
math-period,89,137482,4234.835000010207,"",,,,,,,,,2
html-keyboard-response,90,137584,null,"",null,,,,,,,,
math-period,91,139508,3696.105000330135,"",,,,,,,,,4
html-keyboard-response,92,139610,null,"",null,,,,,,,,
math-period,93,140819,2238.1849999073893,"",,,,,,,,,4
html-keyboard-response,94,140920,null,"",null,,,,,,,,
math-period,95,142518,3032.7949998900294,"",,,,,,,,,4
html-keyboard-response,96,142621,null,"",null,,,,,,,,
math-period,97,144708,4044.1449999343604,"",,,,,,,,,3
html-keyboard-response,98,144812,null,"",null,,,,,,,,
math-period,99,146189,2585.625000298023,"",,,,,,,,,6
html-keyboard-response,100,146291,null,"",null,,,,,,,,
math-period,101,148135,3550.8599998429418,"",,,,,,,,,5
html-keyboard-response,102,148238,null,"",null,,,,,,,,
math-period,103,149438,2237.914999714121,"",,,,,,,,,5
html-keyboard-response,104,149540,null,"",null,,,,,,,,
math-period,105,151164,3103.7999999243766,"",,,,,,,,,2
html-keyboard-response,106,151267,null,"",null,,,,,,,,
math-period,107,151956,null,"",,,,,,,,,
html-keyboard-response,108,152959,null,"Recall Period!",null,,,,,,,,
call-function,109,152960,,"",,,,,,,,,
html-keyboard-response,110,153068,null,"",null,,,,,,,,
recall-period,111,160056,67480.40500143543,"",,,,,,,,,Beautiful
html-keyboard-response,112,160169,null,"",null,,,,,,,,
recall-period,113,161683,6552.485000574961,"",,,,,,,,,Heacy
html-keyboard-response,114,161785,null,"",null,,,,,,,,
recall-period,115,164846,17158.189999870956,"",,,,,,,,,Grateful
html-keyboard-response,116,164954,null,"",null,,,,,,,,
recall-period,117,167360,11840.8450006973,"",,,,,,,,,Peaceful
html-keyboard-response,118,167475,null,"",null,,,,,,,,
recall-period,119,168794,5153.4050004556775,"",,,,,,,,,Funny
html-keyboard-response,120,168896,null,"",null,,,,,,,,
recall-period,121,171613,21680.730001069605,"",,,,,,,,,Entertaining
html-keyboard-response,122,171720,null,"",null,,,,,,,,
recall-period,123,175128,17908.210000488907,"",,,,,,,,,Scary
html-keyboard-response,124,175231,null,"",null,,,,,,,,
recall-period,125,178388,15119.650000706315,"",,,,,,,,,Heavy
html-keyboard-response,126,178493,null,"",null,,,,,,,,
recall-period,127,187323,49999.75500092842,"",,,,,,,,,Cold
html-keyboard-response,128,187425,null,"",null,,,,,,,,
recall-period,129,227967,null,"",,,,,,,,,
html-keyboard-response,130,228484,null,"Time's Up!",null,,,,,,,,
html-keyboard-response,131,231901,3415.569999953732,"<p>We will now begin the experiment!<p><p>Please try to remember all words from each list.<p><p>Press the spacebar whenever you see a red square.<p><p><p><p>Press the spacebar to begin.</p>",13,,,,,,,,
html-keyboard-response,132,235104,2690.7049999572337,"<div style=""font-size:48px;"">Press any key to begin list 1 of 24 </div>",32,,,,,,,,
html-keyboard-response,133,237618,null,"<div style=""font-size:60px;"">+</div>",null,,,,,,,,
html-keyboard-response,134,238136,null,"SHELTER<img id = ""stim"" ><div class = green_square id = ""topsquare"" ></div><img id = ""stim"" ><div class = green_square  id = ""bottomsquare"" ></div>",null,word_square,response,0,none,true,,,
html-keyboard-response,135,239652,null,"SHELTER",null,word,,,,, 'SHELTER',,
html-keyboard-response,136,240018,364.39500004053116,"DORM<img id = ""stim"" ><div class = red_square id = ""topsquare"" ></div><img id = ""stim"" ><div class = red_square  id = ""bottomsquare"" ></div>",32,word_square,response,1,Space,true,,,
html-keyboard-response,137,241533,null,"DORM",null,word,,,,, 'DORM',,
html-keyboard-response,138,242050,null,"TURKEY<img id = ""stim"" ><div class = green_square id = ""topsquare"" ></div><img id = ""stim"" ><div class = green_square  id = ""bottomsquare"" ></div>",null,word_square,response,0,none,true,,,
html-keyboard-response,139,243555,null,"TURKEY",null,word,,,,, 'TURKEY',,
html-keyboard-response,140,244014,457.14000007137656,"EGYPT<img id = ""stim"" ><div class = red_square id = ""topsquare"" ></div><img id = ""stim"" ><div class = red_square  id = ""bottomsquare"" ></div>",32,word_square,response,1,Space,true,,,
html-keyboard-response,141,245529,null,"EGYPT",null,word,,,,, 'EGYPT',,
html-keyboard-response,142,246031,null,"CROOK<img id = ""stim"" ><div class = green_square id = ""topsquare"" ></div><img id = ""stim"" ><div class = green_square  id = ""bottomsquare"" ></div>",null,word_square,response,0,none,true,,,
html-keyboard-response,143,247538,null,"CROOK",null,word,,,,, 'CROOK',,
html-keyboard-response,144,248042,null,"PEOPLE<img id = ""stim"" ><div class = green_square id = ""topsquare"" ></div><img id = ""stim"" ><div class = green_square  id = ""bottomsquare"" ></div>",null,word_square,response,0,none,true,,,
html-keyboard-response,145,249555,null,"PEOPLE",null,word,,,,, 'PEOPLE',,
html-keyboard-response,146,250011,453.94999999552965,"SPARROW<img id = ""stim"" ><div class = red_square id = ""topsquare"" ></div><img id = ""stim"" ><div class = red_square  id = ""bottomsquare"" ></div>",32,word_square,response,1,Space,true,,,
html-keyboard-response,147,251515,null,"SPARROW",null,word,,,,, 'SPARROW',,
html-keyboard-response,148,252018,null,"QUARTER<img id = ""stim"" ><div class = green_square id = ""topsquare"" ></div><img id = ""stim"" ><div class = green_square  id = ""bottomsquare"" ></div>",null,word_square,response,0,none,true,,,
html-keyboard-response,149,253533,null,"QUARTER",null,word,,,,, 'QUARTER',,
html-keyboard-response,150,254049,null,"MONEY<img id = ""stim"" ><div class = green_square id = ""topsquare"" ></div><img id = ""stim"" ><div class = green_square  id = ""bottomsquare"" ></div>",null,word_square,response,0,none,true,,,
html-keyboard-response,151,255552,null,"MONEY",null,word,,,,, 'MONEY',,
html-keyboard-response,152,255931,377.4850000627339,"COBRA<img id = ""stim"" ><div class = red_square id = ""topsquare"" ></div><img id = ""stim"" ><div class = red_square  id = ""bottomsquare"" ></div>",32,word_square,response,1,Space,true,,,
html-keyboard-response,153,257445,null,"COBRA",null,word,,,,, 'COBRA',,
html-keyboard-response,154,257834,387.8049999475479,"YARD<img id = ""stim"" ><div class = red_square id = ""topsquare"" ></div><img id = ""stim"" ><div class = red_square  id = ""bottomsquare"" ></div>",32,word_square,response,1,Space,true,,,
html-keyboard-response,155,259338,null,"YARD",null,word,,,,, 'YARD',,
html-keyboard-response,156,259841,null,"VESSEL<img id = ""stim"" ><div class = green_square id = ""topsquare"" ></div><img id = ""stim"" ><div class = green_square  id = ""bottomsquare"" ></div>",null,word_square,response,0,none,true,,,
html-keyboard-response,157,261358,null,"VESSEL",null,word,,,,, 'VESSEL',,
html-keyboard-response,158,261733,373.494999948889,"POISON<img id = ""stim"" ><div class = red_square id = ""topsquare"" ></div><img id = ""stim"" ><div class = red_square  id = ""bottomsquare"" ></div>",32,word_square,response,1,Space,true,,,
html-keyboard-response,159,263241,null,"POISON",null,word,,,,, 'POISON',,
html-keyboard-response,160,263759,null,"TREAT<img id = ""stim"" ><div class = green_square id = ""topsquare"" ></div><img id = ""stim"" ><div class = green_square  id = ""bottomsquare"" ></div>",null,word_square,response,0,none,true,,,
html-keyboard-response,161,265263,null,"TREAT",null,word,,,,, 'TREAT',,
html-keyboard-response,162,265766,null,"BRIEFCASE<img id = ""stim"" ><div class = green_square id = ""topsquare"" ></div><img id = ""stim"" ><div class = green_square  id = ""bottomsquare"" ></div>",null,word_square,response,0,none,true,,,
html-keyboard-response,163,267273,null,"BRIEFCASE",null,word,,,,, 'BRIEFCASE',,
html-keyboard-response,164,267643,368.7100000679493,"CARTON<img id = ""stim"" ><div class = red_square id = ""topsquare"" ></div><img id = ""stim"" ><div class = red_square  id = ""bottomsquare"" ></div>",32,word_square,response,1,Space,true,,,
html-keyboard-response,165,269153,null,"CARTON",null,word,,,,, 'CARTON',,
html-keyboard-response,166,269658,null,"TART<img id = ""stim"" ><div class = red_square id = ""topsquare"" ></div><img id = ""stim"" ><div class = red_square  id = ""bottomsquare"" ></div>",null,word_square,response,1,Space,false,,,
html-keyboard-response,167,271173,null,"TART",null,word,,,,, 'TART',,
html-keyboard-response,168,271670,495.75000000186265,"FOSSIL<img id = ""stim"" ><div class = red_square id = ""topsquare"" ></div><img id = ""stim"" ><div class = red_square  id = ""bottomsquare"" ></div>",32,word_square,response,1,Space,true,,,
html-keyboard-response,169,273181,null,"FOSSIL",null,word,,,,, 'FOSSIL',,
call-function,170,273182,,"",,,,,,,,,
html-keyboard-response,171,273291,null,"",null,,,,,,,,
math-period,172,275635,4420.225000008941,"",,,,,,,,,4
html-keyboard-response,173,275738,null,"",null,,,,,,,,
math-period,174,277608,3590.3650000691414,"",,,,,,,,,3
html-keyboard-response,175,277719,null,"",null,,,,,,,,
math-period,176,279358,3087.0250000152737,"",,,,,,,,,4
html-keyboard-response,177,279465,null,"",null,,,,,,,,
math-period,178,280982,2875.4499999340624,"",,,,,,,,,1
html-keyboard-response,179,281085,null,"",null,,,,,,,,
math-period,180,282238,2180.1249999552965,"",,,,,,,,,4
html-keyboard-response,181,282354,null,"",null,,,,,,,,
math-period,182,283544,2238.859999924898,"",,,,,,,,,5
html-keyboard-response,183,283648,null,"",null,,,,,,,,
math-period,184,284983,2525.355000048876,"",,,,,,,,,1
html-keyboard-response,185,285092,null,"",null,,,,,,,,
math-period,186,286379,2376.4049999881536,"",,,,,,,,,6
html-keyboard-response,187,286481,null,"",null,,,,,,,,
math-period,188,287530,1946.2949999142438,"",,,,,,,,,4
html-keyboard-response,189,287636,null,"",null,,,,,,,,
math-period,190,288821,2237.629999872297,"",,,,,,,,,3
html-keyboard-response,191,288923,null,"",null,,,,,,,,
math-period,192,290089,2192.9999999701977,"",,,,,,,,,4
html-keyboard-response,193,290192,null,"",null,,,,,,,,
math-period,194,291290,2038.6049998924136,"",,,,,,,,,4
html-keyboard-response,195,291392,null,"",null,,,,,,,,
math-period,196,292513,2093.2749998755753,"",,,,,,,,,3
html-keyboard-response,197,292630,null,"",null,,,,,,,,
math-period,198,293841,2289.5900001749396,"",,,,,,,,,5
html-keyboard-response,199,293958,null,"",null,,,,,,,,
math-period,200,295449,2857.91499982588,"",,,,,,,,,1
html-keyboard-response,201,295550,null,"",null,,,,,,,,
math-period,202,297190,null,"",,,,,,,,,
html-keyboard-response,203,298205,null,"Recall Period!",null,,,,,,,,
call-function,204,298206,,"",,,,,,,,,
html-keyboard-response,205,298308,null,"",null,,,,,,,,
recall-period,206,302562,24737.595001235604,"",,,,,,,,,Shelter
html-keyboard-response,207,302675,null,"",null,,,,,,,,
recall-period,208,304420,8167.625000467524,"",,,,,,,,,Happy
html-keyboard-response,209,304522,null,"",null,,,,,,,,
recall-period,210,373212,null,"",,,,,,,,,
html-keyboard-response,211,373730,null,"Time's Up!",null,,,,,,,,
html-keyboard-response,212,433958,60226.215000031516,"<p> Good job! You responded correctly to 94% of the red squares.</p>
                  <p>Be sure to keep your accuracy above 80%</p>
                  <p>Press any key to continue the experiment. Thank you!</p>",32,,,,,,,,
html-keyboard-response,213,435451,1491.3549998309463,"<div style=""font-size:48px;"">Press any key to begin list 2 of 24 </div>",32,,,,,,,,
html-keyboard-response,214,437965,null,"<div style=""font-size:60px;"">+</div>",null,,,,,,,,
html-keyboard-response,215,438473,null,"PARENT<img id = ""stim"" ><div class = green_square id = ""topsquare"" ></div><img id = ""stim"" ><div class = green_square  id = ""bottomsquare"" ></div>",null,word_square,response,0,none,true,,,
html-keyboard-response,216,439983,null,"PARENT",null,word,,,,, 'PARENT',,
html-keyboard-response,217,440361,375.8600000292063,"KEEPER<img id = ""stim"" ><div class = red_square id = ""topsquare"" ></div><img id = ""stim"" ><div class = red_square  id = ""bottomsquare"" ></div>",32,word_square,response,1,Space,true,,,
html-keyboard-response,218,441874,null,"KEEPER",null,word,,,,, 'KEEPER',,
html-keyboard-response,219,442391,null,"GODDESS<img id = ""stim"" ><div class = green_square id = ""topsquare"" ></div><img id = ""stim"" ><div class = green_square  id = ""bottomsquare"" ></div>",null,word_square,response,0,none,true,,,
html-keyboard-response,220,443899,null,"GODDESS",null,word,,,,, 'GODDESS',,
html-keyboard-response,221,444401,null,"DANCER<img id = ""stim"" ><div class = red_square id = ""topsquare"" ></div><img id = ""stim"" ><div class = red_square  id = ""bottomsquare"" ></div>",null,word_square,response,1,Space,false,,,
html-keyboard-response,222,445909,null,"DANCER",null,word,,,,, 'DANCER',,
html-keyboard-response,223,446425,null,"FACE<img id = ""stim"" ><div class = green_square id = ""topsquare"" ></div><img id = ""stim"" ><div class = green_square  id = ""bottomsquare"" ></div>",null,word_square,response,0,none,true,,,
html-keyboard-response,224,447941,null,"FACE",null,word,,,,, 'FACE',,
html-keyboard-response,225,448459,null,"LADY<img id = ""stim"" ><div class = green_square id = ""topsquare"" ></div><img id = ""stim"" ><div class = green_square  id = ""bottomsquare"" ></div>",null,word_square,response,0,none,true,,,
html-keyboard-response,226,449966,null,"LADY",null,word,,,,, 'LADY',,
html-keyboard-response,227,450481,null,"MISTER<img id = ""stim"" ><div class = red_square id = ""topsquare"" ></div><img id = ""stim"" ><div class = red_square  id = ""bottomsquare"" ></div>",null,word_square,response,1,Space,false,,,
html-keyboard-response,228,451983,null,"MISTER",null,word,,,,, 'MISTER',,
html-keyboard-response,229,452002,17.054999945685267,"HERO<img id = ""stim"" ><div class = green_square id = ""topsquare"" ></div><img id = ""stim"" ><div class = green_square  id = ""bottomsquare"" ></div>",32,word_square,response,0,none,false,,,
html-keyboard-response,230,453518,null,"HERO",null,word,,,,, 'HERO',,
html-keyboard-response,231,454021,null,"SUPPER<img id = ""stim"" ><div class = green_square id = ""topsquare"" ></div><img id = ""stim"" ><div class = green_square  id = ""bottomsquare"" ></div>",null,word_square,response,0,none,true,,,
html-keyboard-response,232,455526,null,"SUPPER",null,word,,,,, 'SUPPER',,
html-keyboard-response,233,456032,null,"PRIEST<img id = ""stim"" ><div class = red_square id = ""topsquare"" ></div><img id = ""stim"" ><div class = red_square  id = ""bottomsquare"" ></div>",null,word_square,response,1,Space,false,,,
html-keyboard-response,234,457534,null,"PRIEST",null,word,,,,, 'PRIEST',,
html-keyboard-response,235,458050,null,"PADDLE<img id = ""stim"" ><div class = red_square id = ""topsquare"" ></div><img id = ""stim"" ><div class = red_square  id = ""bottomsquare"" ></div>",null,word_square,response,1,Space,false,,,
html-keyboard-response,236,459566,null,"PADDLE",null,word,,,,, 'PADDLE',,
html-keyboard-response,237,460084,null,"VICTIM<img id = ""stim"" ><div class = green_square id = ""topsquare"" ></div><img id = ""stim"" ><div class = green_square  id = ""bottomsquare"" ></div>",null,word_square,response,0,none,true,,,
html-keyboard-response,238,461593,null,"VICTIM",null,word,,,,, 'VICTIM',,
html-keyboard-response,239,462090,494.49000018648803,"RUG<img id = ""stim"" ><div class = red_square id = ""topsquare"" ></div><img id = ""stim"" ><div class = red_square  id = ""bottomsquare"" ></div>",32,word_square,response,1,Space,true,,,
html-keyboard-response,240,463598,null,"RUG",null,word,,,,, 'RUG',,
html-keyboard-response,241,464113,null,"COFFIN<img id = ""stim"" ><div class = green_square id = ""topsquare"" ></div><img id = ""stim"" ><div class = green_square  id = ""bottomsquare"" ></div>",null,word_square,response,0,none,true,,,
html-keyboard-response,242,465618,null,"COFFIN",null,word,,,,, 'COFFIN',,
html-keyboard-response,243,466122,null,"ALMOND<img id = ""stim"" ><div class = green_square id = ""topsquare"" ></div><img id = ""stim"" ><div class = green_square  id = ""bottomsquare"" ></div>",null,word_square,response,0,none,true,,,
html-keyboard-response,244,467632,null,"ALMOND",null,word,,,,, 'ALMOND',,
html-keyboard-response,245,468138,null,"ACTOR<img id = ""stim"" ><div class = red_square id = ""topsquare"" ></div><img id = ""stim"" ><div class = red_square  id = ""bottomsquare"" ></div>",null,word_square,response,1,Space,false,,,
html-keyboard-response,246,469643,null,"ACTOR",null,word,,,,, 'ACTOR',,
html-keyboard-response,247,470159,null,"JUGGLER<img id = ""stim"" ><div class = red_square id = ""topsquare"" ></div><img id = ""stim"" ><div class = red_square  id = ""bottomsquare"" ></div>",null,word_square,response,1,Space,false,,,
html-keyboard-response,248,471674,null,"JUGGLER",null,word,,,,, 'JUGGLER',,
html-keyboard-response,249,472176,null,"DUNGEON<img id = ""stim"" ><div class = red_square id = ""topsquare"" ></div><img id = ""stim"" ><div class = red_square  id = ""bottomsquare"" ></div>",null,word_square,response,1,Space,false,,,
html-keyboard-response,250,473684,null,"DUNGEON",null,word,,,,, 'DUNGEON',,
call-function,251,473685,,"",,,,,,,,,
html-keyboard-response,252,473794,null,"",null,,,,,,,,
math-period,253,477081,4834.8450001794845,"",,,,,,,,,5
html-keyboard-response,254,477183,null,"",null,,,,,,,,
math-period,255,478378,2231.19999980554,"",,,,,,,,,4
html-keyboard-response,256,478488,null,"",null,,,,,,,,
math-period,257,479996,2769.5899999234825,"",,,,,,,,,3
html-keyboard-response,258,480103,null,"",null,,,,,,,,
math-period,259,482417,4498.520000139251,"",,,,,,,,,3
html-keyboard-response,260,482532,null,"",null,,,,,,,,
math-period,261,483699,2187.7899998798966,"",,,,,,,,,3
html-keyboard-response,262,483813,null,"",null,,,,,,,,
math-period,263,485326,2831.775000086054,"",,,,,,,,,3
html-keyboard-response,264,485429,null,"",null,,,,,,,,
math-period,265,486847,2629.8550001811236,"",,,,,,,,,5
html-keyboard-response,266,486948,null,"",null,,,,,,,,
math-period,267,488395,2721.4099999982864,"",,,,,,,,,2
html-keyboard-response,268,488503,null,"",null,,,,,,,,
math-period,269,489981,2509.6050000283867,"",,,,,,,,,1
html-keyboard-response,270,490083,null,"",null,,,,,,,,
math-period,271,491597,2795.204999856651,"",,,,,,,,,2
html-keyboard-response,272,491699,null,"",null,,,,,,,,
math-period,273,493029,2451.300000073388,"",,,,,,,,,3
html-keyboard-response,274,493131,null,"",null,,,,,,,,
math-period,275,495486,4489.195000147447,"",,,,,,,,,4
html-keyboard-response,276,495588,null,"",null,,,,,,,,
math-period,277,496875,2403.5300000105053,"",,,,,,,,,3
html-keyboard-response,278,496983,null,"",null,,,,,,,,
math-period,279,497688,null,"",,,,,,,,,
html-keyboard-response,280,498704,null,"Recall Period!",null,,,,,,,,
call-function,281,498706,,"",,,,,,,,,
html-keyboard-response,282,498815,null,"",null,,,,,,,,
recall-period,283,501036,13411.010001087561,"",,,,,,,,,Parent
html-keyboard-response,284,501145,null,"",null,,,,,,,,
recall-period,285,503738,13466.35999949649,"",,,,,,,,,Keeper
html-keyboard-response,286,503846,null,"",null,,,,,,,,
recall-period,287,508231,34285.73000105098,"",,,,,,,,,Goddess
html-keyboard-response,288,508339,null,"",null,,,,,,,,
recall-period,289,511047,12661.240000277758,"",,,,,,,,,Coffin
html-keyboard-response,290,511149,null,"",null,,,,,,,,
recall-period,291,514546,20621.895000571385,"",,,,,,,,,Almond
html-keyboard-response,292,514652,null,"",null,,,,,,,,
recall-period,293,524263,52009.36500006355,"",,,,,,,,,Lady
html-keyboard-response,294,524365,null,"",null,,,,,,,,
recall-period,295,525818,5227.594999596477,"",,,,,,,,,Face
html-keyboard-response,296,525925,null,"",null,,,,,,,,
recall-period,297,547085,21158.8149999734,"",,,,,,,,,
html-keyboard-response,298,547187,null,"",null,,,,,,,,
recall-period,299,573719,null,"",,,,,,,,,
html-keyboard-response,300,574223,null,"Time's Up!",null,,,,,,,,
html-keyboard-response,301,798508,224283.7349998299,"<p> Good job! You responded correctly to 81% of the red squares.</p>
                  <p>Be sure to keep your accuracy above 80%</p>
                  <p>Press any key to continue the experiment. Thank you!</p>",32,,,,,,,,
html-keyboard-response,302,800114,1604.6149998437613,"<div style=""font-size:48px;"">Press any key to begin list 3 of 24 </div>",32,,,,,,,,
html-keyboard-response,303,802634,null,"<div style=""font-size:60px;"">+</div>",null,,,,,,,,
html-keyboard-response,304,803147,null,"UNCLE<img id = ""stim"" ><div class = red_square id = ""topsquare"" ></div><img id = ""stim"" ><div class = red_square  id = ""bottomsquare"" ></div>",null,word_square,response,1,Space,false,,,
html-keyboard-response,305,804653,null,"UNCLE",null,word,,,,, 'UNCLE',,
html-keyboard-response,306,805156,null,"PAIL<img id = ""stim"" ><div class = green_square id = ""topsquare"" ></div><img id = ""stim"" ><div class = green_square  id = ""bottomsquare"" ></div>",null,word_square,response,0,none,true,,,
html-keyboard-response,307,806660,null,"PAIL",null,word,,,,, 'PAIL',,
html-keyboard-response,308,807122,460.3549998719245,"STREAM<img id = ""stim"" ><div class = red_square id = ""topsquare"" ></div><img id = ""stim"" ><div class = red_square  id = ""bottomsquare"" ></div>",32,word_square,response,1,Space,true,,,
html-keyboard-response,309,808635,null,"STREAM",null,word,,,,, 'STREAM',,
html-keyboard-response,310,809153,null,"OUTFIT<img id = ""stim"" ><div class = green_square id = ""topsquare"" ></div><img id = ""stim"" ><div class = green_square  id = ""bottomsquare"" ></div>",null,word_square,response,0,none,true,,,
html-keyboard-response,311,810656,null,"OUTFIT",null,word,,,,, 'OUTFIT',,
html-keyboard-response,312,811090,432.17500019818544,"SOLDIER<img id = ""stim"" ><div class = red_square id = ""topsquare"" ></div><img id = ""stim"" ><div class = red_square  id = ""bottomsquare"" ></div>",32,word_square,response,1,Space,true,,,
html-keyboard-response,313,812594,null,"SOLDIER",null,word,,,,, 'SOLDIER',,
html-keyboard-response,314,813109,null,"LUMBER<img id = ""stim"" ><div class = red_square id = ""topsquare"" ></div><img id = ""stim"" ><div class = red_square  id = ""bottomsquare"" ></div>",null,word_square,response,1,Space,false,,,
html-keyboard-response,315,814614,null,"LUMBER",null,word,,,,, 'LUMBER',,
html-keyboard-response,316,815131,null,"LACE<img id = ""stim"" ><div class = green_square id = ""topsquare"" ></div><img id = ""stim"" ><div class = green_square  id = ""bottomsquare"" ></div>",null,word_square,response,0,none,true,,,
html-keyboard-response,317,816637,null,"LACE",null,word,,,,, 'LACE',,
html-keyboard-response,318,817155,null,"COUSIN<img id = ""stim"" ><div class = red_square id = ""topsquare"" ></div><img id = ""stim"" ><div class = red_square  id = ""bottomsquare"" ></div>",null,word_square,response,1,Space,false,,,
html-keyboard-response,319,818673,null,"COUSIN",null,word,,,,, 'COUSIN',,
html-keyboard-response,320,819174,null,"CAPE<img id = ""stim"" ><div class = red_square id = ""topsquare"" ></div><img id = ""stim"" ><div class = red_square  id = ""bottomsquare"" ></div>",null,word_square,response,1,Space,false,,,
html-keyboard-response,321,820679,null,"CAPE",null,word,,,,, 'CAPE',,
html-keyboard-response,322,821182,null,"JUNGLE<img id = ""stim"" ><div class = green_square id = ""topsquare"" ></div><img id = ""stim"" ><div class = green_square  id = ""bottomsquare"" ></div>",null,word_square,response,0,none,true,,,
html-keyboard-response,323,822687,null,"JUNGLE",null,word,,,,, 'JUNGLE',,
html-keyboard-response,324,823204,null,"LION<img id = ""stim"" ><div class = green_square id = ""topsquare"" ></div><img id = ""stim"" ><div class = green_square  id = ""bottomsquare"" ></div>",null,word_square,response,0,none,true,,,
html-keyboard-response,325,824708,null,"LION",null,word,,,,, 'LION',,
html-keyboard-response,326,825212,null,"CHEST<img id = ""stim"" ><div class = red_square id = ""topsquare"" ></div><img id = ""stim"" ><div class = red_square  id = ""bottomsquare"" ></div>",null,word_square,response,1,Space,false,,,
html-keyboard-response,327,826715,null,"CHEST",null,word,,,,, 'CHEST',,
html-keyboard-response,328,827219,null,"SALMON<img id = ""stim"" ><div class = green_square id = ""topsquare"" ></div><img id = ""stim"" ><div class = green_square  id = ""bottomsquare"" ></div>",null,word_square,response,0,none,true,,,
html-keyboard-response,329,828722,null,"SALMON",null,word,,,,, 'SALMON',,
html-keyboard-response,330,829240,null,"CRAB<img id = ""stim"" ><div class = red_square id = ""topsquare"" ></div><img id = ""stim"" ><div class = red_square  id = ""bottomsquare"" ></div>",null,word_square,response,1,Space,false,,,
html-keyboard-response,331,830744,null,"CRAB",null,word,,,,, 'CRAB',,
html-keyboard-response,332,831249,null,"FROG<img id = ""stim"" ><div class = red_square id = ""topsquare"" ></div><img id = ""stim"" ><div class = red_square  id = ""bottomsquare"" ></div>",null,word_square,response,1,Space,false,,,
html-keyboard-response,333,832755,null,"FROG",null,word,,,,, 'FROG',,
html-keyboard-response,334,833258,null,"SHAMPOO<img id = ""stim"" ><div class = green_square id = ""topsquare"" ></div><img id = ""stim"" ><div class = green_square  id = ""bottomsquare"" ></div>",null,word_square,response,0,none,true,,,
html-keyboard-response,335,834774,null,"SHAMPOO",null,word,,,,, 'SHAMPOO',,
html-keyboard-response,336,835279,null,"HAMMER<img id = ""stim"" ><div class = green_square id = ""topsquare"" ></div><img id = ""stim"" ><div class = green_square  id = ""bottomsquare"" ></div>",null,word_square,response,0,none,true,,,
html-keyboard-response,337,836796,null,"HAMMER",null,word,,,,, 'HAMMER',,
html-keyboard-response,338,837310,null,"HAND<img id = ""stim"" ><div class = green_square id = ""topsquare"" ></div><img id = ""stim"" ><div class = green_square  id = ""bottomsquare"" ></div>",null,word_square,response,0,none,true,,,
html-keyboard-response,339,838817,null,"HAND",null,word,,,,, 'HAND',,
call-function,340,838817,,"",,,,,,,,,
html-keyboard-response,341,838925,null,"",null,,,,,,,,
math-period,342,843451,7468.085000291467,"",,,,,,,,,1
html-keyboard-response,343,843553,null,"",null,,,,,,,,
math-period,344,845821,4423.384999856353,"",,,,,,,,,4
html-keyboard-response,345,845923,null,"",null,,,,,,,,
math-period,346,847240,2512.4299998860806,"",,,,,,,,,1
html-keyboard-response,347,847355,null,"",null,,,,,,,,
math-period,348,848547,2238.690000027418,"",,,,,,,,,4
html-keyboard-response,349,848649,null,"",null,,,,,,,,
math-period,350,849969,2522.6700000930578,"",,,,,,,,,6
html-keyboard-response,351,850077,null,"",null,,,,,,,,
math-period,352,851296,2300.269999774173,"",,,,,,,,,1
html-keyboard-response,353,851402,null,"",null,,,,,,,,
math-period,354,852445,1924.8500000685453,"",,,,,,,,,4
html-keyboard-response,355,852551,null,"",null,,,,,,,,
math-period,356,853787,2308.0949999857694,"",,,,,,,,,5
html-keyboard-response,357,853890,null,"",null,,,,,,,,
math-period,358,855553,2761.699999915436,"",,,,,,,,,3
html-keyboard-response,359,855655,null,"",null,,,,,,,,
math-period,360,856419,1312.995000043884,"",,,,,,,,,3
html-keyboard-response,361,856521,null,"",null,,,,,,,,
math-period,362,857708,2195.209999801591,"",,,,,,,,,5
html-keyboard-response,363,857822,null,"",null,,,,,,,,
math-period,364,858963,2083.4099997300655,"",,,,,,,,,6
html-keyboard-response,365,859077,null,"",null,,,,,,,,
math-period,366,860098,1020.0800001621246,"",,,,,,,,,
html-keyboard-response,367,860201,null,"",null,,,,,,,,
math-period,368,861189,1857.2750000748783,"",,,,,,,,,3
html-keyboard-response,369,861292,null,"",null,,,,,,,,
math-period,370,862819,1505.1800000946969,"",,,,,,,,,1
html-keyboard-response,371,863833,null,"Recall Period!",null,,,,,,,,
call-function,372,863834,,"",,,,,,,,,
html-keyboard-response,373,863945,null,"",null,,,,,,,,
recall-period,374,870331,37098.164999857545,"",,,,,,,,,Uncle
html-keyboard-response,375,870447,null,"",null,,,,,,,,
recall-period,376,873826,17437.440000474453,"",,,,,,,,,Salon
html-keyboard-response,377,873927,null,"",null,,,,,,,,
recall-period,378,875980,9955.590000608936,"",,,,,,,,,Jungle
html-keyboard-response,379,876097,null,"",null,,,,,,,,
recall-period,380,877545,5582.7299994416535,"",,,,,,,,,Bait
html-keyboard-response,381,877648,null,"",null,,,,,,,,
recall-period,382,880626,11459.15999962017,"",,,,,,,,,Sail
html-keyboard-response,383,880728,null,"",null,,,,,,,,
recall-period,384,885580,25981.714999768883,"",,,,,,,,,Lace
html-keyboard-response,385,885693,null,"",null,,,,,,,,
recall-period,386,887081,4607.1549996268,"",,,,,,,,,Chest
html-keyboard-response,387,887186,null,"",null,,,,,,,,
recall-period,388,896962,73377.17499956489,"",,,,,,,,,Hammer
html-keyboard-response,389,897064,null,"",null,,,,,,,,
recall-period,390,909374,69822.44999962859,"",,,,,,,,,Crab
html-keyboard-response,391,909476,null,"",null,,,,,,,,
recall-period,392,911383,6520.419999491423,"",,,,,,,,,Frog
html-keyboard-response,393,911485,null,"",null,,,,,,,,
recall-period,394,938846,null,"",,,,,,,,,
html-keyboard-response,395,939362,null,"Time's Up!",null,,,,,,,,
html-keyboard-response,396,943537,4172.335000010207,"<p> Uh oh. You responded correctly on 76% of the red squares.</p>
                  <p>We need you keep your accuracy above 80%</p>
                  <p>Press any key to continue the experiment. Thank you!</p>",32,,,,,,,,
html-keyboard-response,397,946800,3261.2300000619143,"<div style=""font-size:48px;"">Press any key to begin list 4 of 24 </div>",32,,,,,,,,
html-keyboard-response,398,949312,null,"<div style=""font-size:60px;"">+</div>",null,,,,,,,,
html-keyboard-response,399,949829,null,"BOULDER<img id = ""stim"" ><div class = red_square id = ""topsquare"" ></div><img id = ""stim"" ><div class = red_square  id = ""bottomsquare"" ></div>",null,word_square,response,1,Space,false,,,
html-keyboard-response,400,951332,null,"BOULDER",null,word,,,,, 'BOULDER',,
html-keyboard-response,401,951835,null,"QUAIL<img id = ""stim"" ><div class = green_square id = ""topsquare"" ></div><img id = ""stim"" ><div class = green_square  id = ""bottomsquare"" ></div>",null,word_square,response,0,none,true,,,
html-keyboard-response,402,953337,null,"QUAIL",null,word,,,,, 'QUAIL',,
html-keyboard-response,403,953831,491.5650000330061,"CASHIER<img id = ""stim"" ><div class = red_square id = ""topsquare"" ></div><img id = ""stim"" ><div class = red_square  id = ""bottomsquare"" ></div>",32,word_square,response,1,Space,true,,,
html-keyboard-response,404,955343,null,"CASHIER",null,word,,,,, 'CASHIER',,
html-keyboard-response,405,955846,null,"PORPOISE<img id = ""stim"" ><div class = green_square id = ""topsquare"" ></div><img id = ""stim"" ><div class = green_square  id = ""bottomsquare"" ></div>",null,word_square,response,0,none,true,,,
html-keyboard-response,406,957348,null,"PORPOISE",null,word,,,,, 'PORPOISE',,
html-keyboard-response,407,957851,null,"DRILL<img id = ""stim"" ><div class = red_square id = ""topsquare"" ></div><img id = ""stim"" ><div class = red_square  id = ""bottomsquare"" ></div>",null,word_square,response,1,Space,false,,,
html-keyboard-response,408,959356,null,"DRILL",null,word,,,,, 'DRILL',,
html-keyboard-response,409,959860,null,"SUMMIT<img id = ""stim"" ><div class = red_square id = ""topsquare"" ></div><img id = ""stim"" ><div class = red_square  id = ""bottomsquare"" ></div>",null,word_square,response,1,Space,false,,,
html-keyboard-response,410,961372,null,"SUMMIT",null,word,,,,, 'SUMMIT',,
html-keyboard-response,411,961874,null,"SHOVEL<img id = ""stim"" ><div class = green_square id = ""topsquare"" ></div><img id = ""stim"" ><div class = green_square  id = ""bottomsquare"" ></div>",null,word_square,response,0,none,true,,,
html-keyboard-response,412,963385,null,"SHOVEL",null,word,,,,, 'SHOVEL',,
html-keyboard-response,413,963853,466.1449999548495,"ULCER<img id = ""stim"" ><div class = red_square id = ""topsquare"" ></div><img id = ""stim"" ><div class = red_square  id = ""bottomsquare"" ></div>",32,word_square,response,1,Space,true,,,
html-keyboard-response,414,965359,null,"ULCER",null,word,,,,, 'ULCER',,
html-keyboard-response,415,965865,504.6800000127405,"BELLY<img id = ""stim"" ><div class = red_square id = ""topsquare"" ></div><img id = ""stim"" ><div class = red_square  id = ""bottomsquare"" ></div>",32,word_square,response,1,Space,true,,,
html-keyboard-response,416,967380,null,"BELLY",null,word,,,,, 'BELLY',,
html-keyboard-response,417,967884,null,"BAKER<img id = ""stim"" ><div class = green_square id = ""topsquare"" ></div><img id = ""stim"" ><div class = green_square  id = ""bottomsquare"" ></div>",null,word_square,response,0,none,true,,,
html-keyboard-response,418,969401,null,"BAKER",null,word,,,,, 'BAKER',,
html-keyboard-response,419,969904,null,"WAGON<img id = ""stim"" ><div class = green_square id = ""topsquare"" ></div><img id = ""stim"" ><div class = green_square  id = ""bottomsquare"" ></div>",null,word_square,response,0,none,true,,,
html-keyboard-response,420,971409,null,"WAGON",null,word,,,,, 'WAGON',,
html-keyboard-response,421,971912,null,"ELK<img id = ""stim"" ><div class = red_square id = ""topsquare"" ></div><img id = ""stim"" ><div class = red_square  id = ""bottomsquare"" ></div>",null,word_square,response,1,Space,false,,,
html-keyboard-response,422,973420,null,"ELK",null,word,,,,, 'ELK',,
html-keyboard-response,423,973922,null,"BUGGY<img id = ""stim"" ><div class = green_square id = ""topsquare"" ></div><img id = ""stim"" ><div class = green_square  id = ""bottomsquare"" ></div>",null,word_square,response,0,none,true,,,
html-keyboard-response,424,975436,null,"BUGGY",null,word,,,,, 'BUGGY',,
html-keyboard-response,425,975938,null,"CABLE<img id = ""stim"" ><div class = red_square id = ""topsquare"" ></div><img id = ""stim"" ><div class = red_square  id = ""bottomsquare"" ></div>",null,word_square,response,1,Space,false,,,
html-keyboard-response,426,977442,null,"CABLE",null,word,,,,, 'CABLE',,
html-keyboard-response,427,977945,null,"CORAL<img id = ""stim"" ><div class = red_square id = ""topsquare"" ></div><img id = ""stim"" ><div class = red_square  id = ""bottomsquare"" ></div>",null,word_square,response,1,Space,false,,,
html-keyboard-response,428,979450,null,"CORAL",null,word,,,,, 'CORAL',,
html-keyboard-response,429,979952,null,"CARRIAGE<img id = ""stim"" ><div class = green_square id = ""topsquare"" ></div><img id = ""stim"" ><div class = green_square  id = ""bottomsquare"" ></div>",null,word_square,response,0,none,true,,,
html-keyboard-response,430,981456,null,"CARRIAGE",null,word,,,,, 'CARRIAGE',,
html-keyboard-response,431,981958,null,"VENUS<img id = ""stim"" ><div class = green_square id = ""topsquare"" ></div><img id = ""stim"" ><div class = green_square  id = ""bottomsquare"" ></div>",null,word_square,response,0,none,true,,,
html-keyboard-response,432,983469,null,"VENUS",null,word,,,,, 'VENUS',,
html-keyboard-response,433,983970,null,"MARS<img id = ""stim"" ><div class = green_square id = ""topsquare"" ></div><img id = ""stim"" ><div class = green_square  id = ""bottomsquare"" ></div>",null,word_square,response,0,none,true,,,
html-keyboard-response,434,985478,null,"MARS",null,word,,,,, 'MARS',,
call-function,435,985479,,"",,,,,,,,,
html-keyboard-response,436,985581,null,"",null,,,,,,,,
math-period,437,989868,8402.770000277087,"",,,,,,,,,3
html-keyboard-response,438,989970,null,"",null,,,,,,,,
math-period,439,991480,2887.2099998407066,"",,,,,,,,,5
html-keyboard-response,440,991595,null,"",null,,,,,,,,
math-period,441,993146,2990.310000255704,"",,,,,,,,,2
html-keyboard-response,442,993256,null,"",null,,,,,,,,
math-period,443,994507,2393.530000001192,"",,,,,,,,,3
html-keyboard-response,444,994620,null,"",null,,,,,,,,
math-period,445,998234,25609.814998926595,"",,,,,,,,,2
html-keyboard-response,446,998336,null,"",null,,,,,,,,
math-period,447,999998,2973.0649997945875,"",,,,,,,,,5
html-keyboard-response,448,1000109,null,"",null,,,,,,,,
math-period,449,1001515,2665.444999933243,"",,,,,,,,,5
html-keyboard-response,450,1001618,null,"",null,,,,,,,,
math-period,451,1002817,2205.8000001125038,"",,,,,,,,,5
html-keyboard-response,452,1002918,null,"",null,,,,,,,,
math-period,453,1003885,1749.5200000703335,"",,,,,,,,,5
html-keyboard-response,454,1003986,null,"",null,,,,,,,,
math-period,455,1005347,2580.5749997962266,"",,,,,,,,,4
html-keyboard-response,456,1005449,null,"",null,,,,,,,,
math-period,457,1006646,2291.040000040084,"",,,,,,,,,6
html-keyboard-response,458,1006762,null,"",null,,,,,,,,
math-period,459,1008835,3940.3649996966124,"",,,,,,,,,1
html-keyboard-response,460,1008952,null,"",null,,,,,,,,
math-period,461,1009496,null,"",,,,,,,,,
html-keyboard-response,462,1010499,null,"Recall Period!",null,,,,,,,,
call-function,463,1010500,,"",,,,,,,,,
html-keyboard-response,464,1010602,null,"",null,,,,,,,,
recall-period,465,1012599,10252.069999463856,"",,,,,,,,,Baker
html-keyboard-response,466,1012712,null,"",null,,,,,,,,
recall-period,467,1014416,6835.149999707937,"",,,,,,,,,Wagon
html-keyboard-response,468,1014526,null,"",null,,,,,,,,
recall-period,469,1016669,14329.684998840094,"",,,,,,,,,Porpoise
html-keyboard-response,470,1016781,null,"",null,,,,,,,,
recall-period,471,1017705,2519.589999690652,"",,,,,,,,,Elk
html-keyboard-response,472,1017813,null,"",null,,,,,,,,
recall-period,473,1020392,13681.495000608265,"",,,,,,,,,Boulder
html-keyboard-response,474,1020495,null,"",null,,,,,,,,
recall-period,475,1023906,18341.37999918312,"",,,,,,,,,Summit
html-keyboard-response,476,1024015,null,"",null,,,,,,,,
recall-period,477,1085513,null,"",,,,,,,,,
html-keyboard-response,478,1086022,null,"Time's Up!",null,,,,,,,,
html-keyboard-response,479,1086190,166.14499990828335,"<p> Uh oh. You responded correctly on 74% of the red squares.</p>
                  <p>We need you keep your accuracy above 80%</p>
                  <p>Press any key to continue the experiment. Thank you!</p>",32,,,,,,,,
html-keyboard-response,480,1086556,364.3900000024587,"<div style=""font-size:48px;"">Press any key to begin list 5 of 24 </div>",32,,,,,,,,
html-keyboard-response,481,1089084,null,"<div style=""font-size:60px;"">+</div>",null,,,,,,,,
html-keyboard-response,482,1089589,null,"BANQUET<img id = ""stim"" ><div class = green_square id = ""topsquare"" ></div><img id = ""stim"" ><div class = green_square  id = ""bottomsquare"" ></div>",null,word_square,response,0,none,true,,,
html-keyboard-response,483,1091094,null,"BANQUET",null,word,,,,, 'BANQUET',,
html-keyboard-response,484,1091612,null,"MEAT<img id = ""stim"" ><div class = green_square id = ""topsquare"" ></div><img id = ""stim"" ><div class = green_square  id = ""bottomsquare"" ></div>",null,word_square,response,0,none,true,,,
html-keyboard-response,485,1093114,null,"MEAT",null,word,,,,, 'MEAT',,
html-keyboard-response,486,1093619,null,"PLIERS<img id = ""stim"" ><div class = red_square id = ""topsquare"" ></div><img id = ""stim"" ><div class = red_square  id = ""bottomsquare"" ></div>",null,word_square,response,1,Space,false,,,
html-keyboard-response,487,1095125,null,"PLIERS",null,word,,,,, 'PLIERS',,
html-keyboard-response,488,1095631,null,"PERMIT<img id = ""stim"" ><div class = green_square id = ""topsquare"" ></div><img id = ""stim"" ><div class = green_square  id = ""bottomsquare"" ></div>",null,word_square,response,0,none,true,,,
html-keyboard-response,489,1097146,null,"PERMIT",null,word,,,,, 'PERMIT',,
html-keyboard-response,490,1097663,null,"HANDCUFFS<img id = ""stim"" ><div class = red_square id = ""topsquare"" ></div><img id = ""stim"" ><div class = red_square  id = ""bottomsquare"" ></div>",null,word_square,response,1,Space,false,,,
html-keyboard-response,491,1099169,null,"HANDCUFFS",null,word,,,,, 'HANDCUFFS',,
html-keyboard-response,492,1099686,null,"SNEAKER<img id = ""stim"" ><div class = green_square id = ""topsquare"" ></div><img id = ""stim"" ><div class = green_square  id = ""bottomsquare"" ></div>",null,word_square,response,0,none,true,,,
html-keyboard-response,493,1101192,null,"SNEAKER",null,word,,,,, 'SNEAKER',,
html-keyboard-response,494,1101710,null,"IGLOO<img id = ""stim"" ><div class = red_square id = ""topsquare"" ></div><img id = ""stim"" ><div class = red_square  id = ""bottomsquare"" ></div>",null,word_square,response,1,Space,false,,,
html-keyboard-response,495,1103215,null,"IGLOO",null,word,,,,, 'IGLOO',,
html-keyboard-response,496,1103724,null,"KLEENEX<img id = ""stim"" ><div class = green_square id = ""topsquare"" ></div><img id = ""stim"" ><div class = green_square  id = ""bottomsquare"" ></div>",null,word_square,response,0,none,true,,,
html-keyboard-response,497,1105239,null,"KLEENEX",null,word,,,,, 'KLEENEX',,
html-keyboard-response,498,1105755,null,"STICKER<img id = ""stim"" ><div class = red_square id = ""topsquare"" ></div><img id = ""stim"" ><div class = red_square  id = ""bottomsquare"" ></div>",null,word_square,response,1,Space,false,,,
html-keyboard-response,499,1107263,null,"STICKER",null,word,,,,, 'STICKER',,
html-keyboard-response,500,1107778,null,"TILE<img id = ""stim"" ><div class = green_square id = ""topsquare"" ></div><img id = ""stim"" ><div class = green_square  id = ""bottomsquare"" ></div>",null,word_square,response,0,none,true,,,
html-keyboard-response,501,1109284,null,"TILE",null,word,,,,, 'TILE',,
html-keyboard-response,502,1109788,null,"DWARF<img id = ""stim"" ><div class = green_square id = ""topsquare"" ></div><img id = ""stim"" ><div class = green_square  id = ""bottomsquare"" ></div>",null,word_square,response,0,none,true,,,
html-keyboard-response,503,1111290,null,"DWARF",null,word,,,,, 'DWARF',,
html-keyboard-response,504,1111784,492.5049999728799,"TEACHER<img id = ""stim"" ><div class = red_square id = ""topsquare"" ></div><img id = ""stim"" ><div class = red_square  id = ""bottomsquare"" ></div>",32,word_square,response,1,Space,true,,,
html-keyboard-response,505,1113298,null,"TEACHER",null,word,,,,, 'TEACHER',,
html-keyboard-response,506,1113815,null,"CHIPMUNK<img id = ""stim"" ><div class = red_square id = ""topsquare"" ></div><img id = ""stim"" ><div class = red_square  id = ""bottomsquare"" ></div>",null,word_square,response,1,Space,false,,,
html-keyboard-response,507,1115321,null,"CHIPMUNK",null,word,,,,, 'CHIPMUNK',,
html-keyboard-response,508,1115742,419.1750001627952,"POSSUM<img id = ""stim"" ><div class = red_square id = ""topsquare"" ></div><img id = ""stim"" ><div class = red_square  id = ""bottomsquare"" ></div>",32,word_square,response,1,Space,true,,,
html-keyboard-response,509,1117250,null,"POSSUM",null,word,,,,, 'POSSUM',,
html-keyboard-response,510,1117702,450.4350000061095,"STAMP<img id = ""stim"" ><div class = red_square id = ""topsquare"" ></div><img id = ""stim"" ><div class = red_square  id = ""bottomsquare"" ></div>",32,word_square,response,1,Space,true,,,
html-keyboard-response,511,1119214,null,"STAMP",null,word,,,,, 'STAMP',,
html-keyboard-response,512,1119726,null,"GROUND<img id = ""stim"" ><div class = green_square id = ""topsquare"" ></div><img id = ""stim"" ><div class = green_square  id = ""bottomsquare"" ></div>",null,word_square,response,0,none,true,,,
html-keyboard-response,513,1121232,null,"GROUND",null,word,,,,, 'GROUND',,
html-keyboard-response,514,1121735,null,"KETTLE<img id = ""stim"" ><div class = green_square id = ""topsquare"" ></div><img id = ""stim"" ><div class = green_square  id = ""bottomsquare"" ></div>",null,word_square,response,0,none,true,,,
html-keyboard-response,515,1123239,null,"KETTLE",null,word,,,,, 'KETTLE',,
html-keyboard-response,516,1123757,null,"DESSERT<img id = ""stim"" ><div class = red_square id = ""topsquare"" ></div><img id = ""stim"" ><div class = red_square  id = ""bottomsquare"" ></div>",null,word_square,response,1,Space,false,,,
html-keyboard-response,517,1125262,null,"DESSERT",null,word,,,,, 'DESSERT',,
call-function,518,1125264,,"",,,,,,,,,
html-keyboard-response,519,1125377,null,"",null,,,,,,,,
math-period,520,1126901,2747.325000120327,"",,,,,,,,,2
html-keyboard-response,521,1127009,null,"",null,,,,,,,,
math-period,522,1128750,3305.350000038743,"",,,,,,,,,3
html-keyboard-response,523,1128852,null,"",null,,,,,,,,
math-period,524,1130935,3985.364999854937,"",,,,,,,,,4
html-keyboard-response,525,1131050,null,"",null,,,,,,,,
math-period,526,1132348,2441.849999828264,"",,,,,,,,,1
html-keyboard-response,527,1132462,null,"",null,,,,,,,,
math-period,528,1133591,2032.1299999486655,"",,,,,,,,,2
html-keyboard-response,529,1133692,null,"",null,,,,,,,,
math-period,530,1135181,2821.1099999025464,"",,,,,,,,,6
html-keyboard-response,531,1135284,null,"",null,,,,,,,,
math-period,532,1136603,2479.3149998877198,"",,,,,,,,,2
html-keyboard-response,533,1136705,null,"",null,,,,,,,,
math-period,534,1137789,1947.6400001440197,"",,,,,,,,,3
html-keyboard-response,535,1137891,null,"",null,,,,,,,,
math-period,536,1139581,3172.0150001347065,"",,,,,,,,,2
html-keyboard-response,537,1139684,null,"",null,,,,,,,,
math-period,538,1141483,3432.5800000224262,"",,,,,,,,,5
html-keyboard-response,539,1141585,null,"",null,,,,,,,,
math-period,540,1143559,3772.624999983236,"",,,,,,,,,2
html-keyboard-response,541,1143666,null,"",null,,,,,,,,
math-period,542,1145595,3572.229999816045,"",,,,,,,,,1
html-keyboard-response,543,1145697,null,"",null,,,,,,,,
math-period,544,1147575,3461.4399999845773,"",,,,,,,,,1
html-keyboard-response,545,1147687,null,"",null,,,,,,,,
math-period,546,1149277,null,"",,,,,,,,,
html-keyboard-response,547,1150283,null,"Recall Period!",null,,,,,,,,
call-function,548,1150284,,"",,,,,,,,,
html-keyboard-response,549,1150386,null,"",null,,,,,,,,
recall-period,550,1151358,970.3100000042468,"",,,,,,,,,
html-keyboard-response,551,1151461,null,"",null,,,,,,,,
recall-period,552,1152887,5763.4949998464435,"",,,,,,,,,Stmao
html-keyboard-response,553,1152998,null,"",null,,,,,,,,
recall-period,554,1155720,14954.979999922216,"",,,,,,,,,Kettle
html-keyboard-response,555,1155823,null,"",null,,,,,,,,
recall-period,556,1159888,17364.024999551475,"",,,,,,,,,Mound
html-keyboard-response,557,1159995,null,"",null,,,,,,,,
recall-period,558,1162028,9654.795000562444,"",,,,,,,,,Dessert
html-keyboard-response,559,1162130,null,"",null,,,,,,,,
recall-period,560,1164699,9474.135000724345,"",,,,,,,,,Permit
html-keyboard-response,561,1164800,null,"",null,,,,,,,,
recall-period,562,1167017,10946.800000034273,"",,,,,,,,,Possum
html-keyboard-response,563,1167129,null,"",null,,,,,,,,
recall-period,564,1169779,14842.959999106824,"",,,,,,,,,Chipmunk
html-keyboard-response,565,1169891,null,"",null,,,,,,,,
recall-period,566,1174240,29464.650000212714,"",,,,,,,,,Permit
html-keyboard-response,567,1174342,null,"",null,,,,,,,,
recall-period,568,1225295,null,"",,,,,,,,,
html-keyboard-response,569,1225798,null,"Time's Up!",null,,,,,,,,
html-keyboard-response,570,1228968,3168.00000006333,"<p> Uh oh. You responded correctly on 73% of the red squares.</p>
                  <p>We need you keep your accuracy above 80%</p>
                  <p>Press any key to continue the experiment. Thank you!</p>",32,,,,,,,,
html-keyboard-response,571,1230266,1296.8600001186132,"<div style=""font-size:48px;"">Press any key to begin list 6 of 24 </div>",32,,,,,,,,
html-keyboard-response,572,1232783,null,"<div style=""font-size:60px;"">+</div>",null,,,,,,,,
html-keyboard-response,573,1233287,null,"LUGGAGE<img id = ""stim"" ><div class = green_square id = ""topsquare"" ></div><img id = ""stim"" ><div class = green_square  id = ""bottomsquare"" ></div>",null,word_square,response,0,none,true,,,
html-keyboard-response,574,1234794,null,"LUGGAGE",null,word,,,,, 'LUGGAGE',,
html-keyboard-response,575,1235309,null,"SNACK<img id = ""stim"" ><div class = green_square id = ""topsquare"" ></div><img id = ""stim"" ><div class = green_square  id = ""bottomsquare"" ></div>",null,word_square,response,0,none,true,,,
html-keyboard-response,576,1236812,null,"SNACK",null,word,,,,, 'SNACK',,
html-keyboard-response,577,1237315,null,"BISCUIT<img id = ""stim"" ><div class = red_square id = ""topsquare"" ></div><img id = ""stim"" ><div class = red_square  id = ""bottomsquare"" ></div>",null,word_square,response,1,Space,false,,,
html-keyboard-response,578,1238822,null,"BISCUIT",null,word,,,,, 'BISCUIT',,
html-keyboard-response,579,1239337,null,"SHIRT<img id = ""stim"" ><div class = green_square id = ""topsquare"" ></div><img id = ""stim"" ><div class = green_square  id = ""bottomsquare"" ></div>",null,word_square,response,0,none,true,,,
html-keyboard-response,580,1240842,null,"SHIRT",null,word,,,,, 'SHIRT',,
html-keyboard-response,581,1241266,421.8999999575317,"AIRPORT<img id = ""stim"" ><div class = red_square id = ""topsquare"" ></div><img id = ""stim"" ><div class = red_square  id = ""bottomsquare"" ></div>",32,word_square,response,1,Space,true,,,
html-keyboard-response,582,1242779,null,"AIRPORT",null,word,,,,, 'AIRPORT',,
html-keyboard-response,583,1243296,null,"BANK<img id = ""stim"" ><div class = green_square id = ""topsquare"" ></div><img id = ""stim"" ><div class = green_square  id = ""bottomsquare"" ></div>",null,word_square,response,0,none,true,,,
html-keyboard-response,584,1244804,null,"BANK",null,word,,,,, 'BANK',,
html-keyboard-response,585,1245323,null,"CREATURE<img id = ""stim"" ><div class = red_square id = ""topsquare"" ></div><img id = ""stim"" ><div class = red_square  id = ""bottomsquare"" ></div>",null,word_square,response,1,Space,false,,,
html-keyboard-response,586,1246826,null,"CREATURE",null,word,,,,, 'CREATURE',,
html-keyboard-response,587,1247343,null,"HEEL<img id = ""stim"" ><div class = green_square id = ""topsquare"" ></div><img id = ""stim"" ><div class = green_square  id = ""bottomsquare"" ></div>",null,word_square,response,0,none,true,,,
html-keyboard-response,588,1248860,null,"HEEL",null,word,,,,, 'HEEL',,
html-keyboard-response,589,1249374,null,"SOCKET<img id = ""stim"" ><div class = red_square id = ""topsquare"" ></div><img id = ""stim"" ><div class = red_square  id = ""bottomsquare"" ></div>",null,word_square,response,1,Space,false,,,
html-keyboard-response,590,1250892,null,"SOCKET",null,word,,,,, 'SOCKET',,
html-keyboard-response,591,1251406,null,"DOLPHIN<img id = ""stim"" ><div class = green_square id = ""topsquare"" ></div><img id = ""stim"" ><div class = green_square  id = ""bottomsquare"" ></div>",null,word_square,response,0,none,true,,,
html-keyboard-response,592,1252916,null,"DOLPHIN",null,word,,,,, 'DOLPHIN',,
html-keyboard-response,593,1253422,null,"DRIVEWAY<img id = ""stim"" ><div class = green_square id = ""topsquare"" ></div><img id = ""stim"" ><div class = green_square  id = ""bottomsquare"" ></div>",null,word_square,response,0,none,true,,,
html-keyboard-response,594,1254935,null,"DRIVEWAY",null,word,,,,, 'DRIVEWAY',,
html-keyboard-response,595,1255329,391.44999999552965,"BULLET<img id = ""stim"" ><div class = red_square id = ""topsquare"" ></div><img id = ""stim"" ><div class = red_square  id = ""bottomsquare"" ></div>",32,word_square,response,1,Space,true,,,
html-keyboard-response,596,1256839,null,"BULLET",null,word,,,,, 'BULLET',,
html-keyboard-response,597,1257342,null,"RIBBON<img id = ""stim"" ><div class = red_square id = ""topsquare"" ></div><img id = ""stim"" ><div class = red_square  id = ""bottomsquare"" ></div>",null,word_square,response,1,Space,false,,,
html-keyboard-response,598,1258846,null,"RIBBON",null,word,,,,, 'RIBBON',,
html-keyboard-response,599,1259226,378.545000217855,"STONE<img id = ""stim"" ><div class = red_square id = ""topsquare"" ></div><img id = ""stim"" ><div class = red_square  id = ""bottomsquare"" ></div>",32,word_square,response,1,Space,true,,,
html-keyboard-response,600,1260740,null,"STONE",null,word,,,,, 'STONE',,
html-keyboard-response,601,1261258,null,"PEBBLE<img id = ""stim"" ><div class = red_square id = ""topsquare"" ></div><img id = ""stim"" ><div class = red_square  id = ""bottomsquare"" ></div>",null,word_square,response,1,Space,false,,,
html-keyboard-response,602,1262774,null,"PEBBLE",null,word,,,,, 'PEBBLE',,
html-keyboard-response,603,1263292,null,"PRISON<img id = ""stim"" ><div class = green_square id = ""topsquare"" ></div><img id = ""stim"" ><div class = green_square  id = ""bottomsquare"" ></div>",null,word_square,response,0,none,true,,,
html-keyboard-response,604,1264802,null,"PRISON",null,word,,,,, 'PRISON',,
html-keyboard-response,605,1265314,null,"GLASSES<img id = ""stim"" ><div class = green_square id = ""topsquare"" ></div><img id = ""stim"" ><div class = green_square  id = ""bottomsquare"" ></div>",null,word_square,response,0,none,true,,,
html-keyboard-response,606,1266825,null,"GLASSES",null,word,,,,, 'GLASSES',,
html-keyboard-response,607,1267163,335.7350002042949,"DAD<img id = ""stim"" ><div class = red_square id = ""topsquare"" ></div><img id = ""stim"" ><div class = red_square  id = ""bottomsquare"" ></div>",32,word_square,response,1,Space,true,,,
html-keyboard-response,608,1268678,null,"DAD",null,word,,,,, 'DAD',,
call-function,609,1268679,,"",,,,,,,,,
html-keyboard-response,610,1268780,null,"",null,,,,,,,,
math-period,611,1270200,2609.320000046864,"",,,,,,,,,3
html-keyboard-response,612,1270303,null,"",null,,,,,,,,
math-period,613,1271452,2051.899999845773,"",,,,,,,,,4
html-keyboard-response,614,1271566,null,"",null,,,,,,,,
math-period,615,1273020,2694.2000000271946,"",,,,,,,,,1
html-keyboard-response,616,1273122,null,"",null,,,,,,,,
math-period,617,1274388,2343.400000128895,"",,,,,,,,,2
html-keyboard-response,618,1274491,null,"",null,,,,,,,,
math-period,619,1275986,2780.684999888763,"",,,,,,,,,4
html-keyboard-response,620,1276102,null,"",null,,,,,,,,
math-period,621,1277120,1876.1149998754263,"",,,,,,,,,3
html-keyboard-response,622,1277228,null,"",null,,,,,,,,
math-period,623,1280111,12605.349999386817,"",,,,,,,,,4
html-keyboard-response,624,1280213,null,"",null,,,,,,,,
math-period,625,1281603,2633.2150001544505,"",,,,,,,,,2
html-keyboard-response,626,1281705,null,"",null,,,,,,,,
math-period,627,1284775,5992.67499987036,"",,,,,,,,,3
html-keyboard-response,628,1284877,null,"",null,,,,,,,,
math-period,629,1287303,4621.779999928549,"",,,,,,,,,1
html-keyboard-response,630,1287406,null,"",null,,,,,,,,
math-period,631,1288580,2201.609999872744,"",,,,,,,,,3
html-keyboard-response,632,1288689,null,"",null,,,,,,,,
math-period,633,1290438,3316.7199997697026,"",,,,,,,,,2
html-keyboard-response,634,1290547,null,"",null,,,,,,,,
math-period,635,1292303,3376.4650002121925,"",,,,,,,,,3
html-keyboard-response,636,1292405,null,"",null,,,,,,,,
math-period,637,1292694,null,"",,,,,,,,,
html-keyboard-response,638,1293705,null,"Recall Period!",null,,,,,,,,
call-function,639,1293706,,"",,,,,,,,,
html-keyboard-response,640,1293808,null,"",null,,,,,,,,
recall-period,641,1298786,38103.459999430925,"",,,,,,,,,Biscuit
html-keyboard-response,642,1298888,null,"",null,,,,,,,,
recall-period,643,1301346,14476.639999775216,"",,,,,,,,,luggage
html-keyboard-response,644,1301447,null,"",null,,,,,,,,
recall-period,645,1306865,11262.915001017973,"",,,,,,,,,airport
html-keyboard-response,646,1306976,null,"",null,,,,,,,,
recall-period,647,1368919,null,"",,,,,,,,,
html-keyboard-response,648,1369925,null,"Time's Up!",null,,,,,,,,
html-keyboard-response,649,1388419,18492.57000000216,"<p> Uh oh. You responded correctly on 73% of the red squares.</p>
                  <p>We need you keep your accuracy above 80%</p>
                  <p>Press any key to continue the experiment. Thank you!</p>",32,,,,,,,,
html-keyboard-response,650,1395332,6912.259999895468,"<div style=""font-size:48px;"">Press any key to begin list 7 of 24 </div>",32,,,,,,,,
html-keyboard-response,651,1397839,null,"<div style=""font-size:60px;"">+</div>",null,,,,,,,,
html-keyboard-response,652,1398350,null,"CELLAR<img id = ""stim"" ><div class = red_square id = ""topsquare"" ></div><img id = ""stim"" ><div class = red_square  id = ""bottomsquare"" ></div>",null,word_square,response,1,Space,false,,,
html-keyboard-response,653,1399867,null,"CELLAR",null,word,,,,, 'CELLAR',,
html-keyboard-response,654,1400287,417.9999998304993,"GRAPE<img id = ""stim"" ><div class = red_square id = ""topsquare"" ></div><img id = ""stim"" ><div class = red_square  id = ""bottomsquare"" ></div>",32,word_square,response,1,Space,true,,,
html-keyboard-response,655,1401805,null,"GRAPE",null,word,,,,, 'GRAPE',,
html-keyboard-response,656,1402320,null,"RUBY<img id = ""stim"" ><div class = green_square id = ""topsquare"" ></div><img id = ""stim"" ><div class = green_square  id = ""bottomsquare"" ></div>",null,word_square,response,0,none,true,,,
html-keyboard-response,657,1403837,null,"RUBY",null,word,,,,, 'RUBY',,
html-keyboard-response,658,1404253,413.1599999964237,"CONVENT<img id = ""stim"" ><div class = red_square id = ""topsquare"" ></div><img id = ""stim"" ><div class = red_square  id = ""bottomsquare"" ></div>",32,word_square,response,1,Space,true,,,
html-keyboard-response,659,1405760,null,"CONVENT",null,word,,,,, 'CONVENT',,
html-keyboard-response,660,1406275,null,"HAMMOCK<img id = ""stim"" ><div class = green_square id = ""topsquare"" ></div><img id = ""stim"" ><div class = green_square  id = ""bottomsquare"" ></div>",null,word_square,response,0,none,true,,,
html-keyboard-response,661,1407789,null,"HAMMOCK",null,word,,,,, 'HAMMOCK',,
html-keyboard-response,662,1408189,398.34000007249415,"PONY<img id = ""stim"" ><div class = red_square id = ""topsquare"" ></div><img id = ""stim"" ><div class = red_square  id = ""bottomsquare"" ></div>",32,word_square,response,1,Space,true,,,
html-keyboard-response,663,1409699,null,"PONY",null,word,,,,, 'PONY',,
html-keyboard-response,664,1410208,null,"SHOULDER<img id = ""stim"" ><div class = green_square id = ""topsquare"" ></div><img id = ""stim"" ><div class = green_square  id = ""bottomsquare"" ></div>",null,word_square,response,0,none,true,,,
html-keyboard-response,665,1411722,null,"SHOULDER",null,word,,,,, 'SHOULDER',,
html-keyboard-response,666,1412048,324.10499989055097,"COCOON<img id = ""stim"" ><div class = red_square id = ""topsquare"" ></div><img id = ""stim"" ><div class = red_square  id = ""bottomsquare"" ></div>",32,word_square,response,1,Space,true,,,
html-keyboard-response,667,1413557,null,"COCOON",null,word,,,,, 'COCOON',,
html-keyboard-response,668,1414070,null,"SNAKE<img id = ""stim"" ><div class = green_square id = ""topsquare"" ></div><img id = ""stim"" ><div class = green_square  id = ""bottomsquare"" ></div>",null,word_square,response,0,none,true,,,
html-keyboard-response,669,1415588,null,"SNAKE",null,word,,,,, 'SNAKE',,
html-keyboard-response,670,1415972,382.86000001244247,"RATTLE<img id = ""stim"" ><div class = red_square id = ""topsquare"" ></div><img id = ""stim"" ><div class = red_square  id = ""bottomsquare"" ></div>",32,word_square,response,1,Space,true,,,
html-keyboard-response,671,1417476,null,"RATTLE",null,word,,,,, 'RATTLE',,
html-keyboard-response,672,1417948,470.60499992221594,"RABBIT<img id = ""stim"" ><div class = red_square id = ""topsquare"" ></div><img id = ""stim"" ><div class = red_square  id = ""bottomsquare"" ></div>",32,word_square,response,1,Space,true,,,
html-keyboard-response,673,1419464,null,"RABBIT",null,word,,,,, 'RABBIT',,
html-keyboard-response,674,1419968,null,"GREASE<img id = ""stim"" ><div class = green_square id = ""topsquare"" ></div><img id = ""stim"" ><div class = green_square  id = ""bottomsquare"" ></div>",null,word_square,response,0,none,true,,,
html-keyboard-response,675,1421483,null,"GREASE",null,word,,,,, 'GREASE',,
html-keyboard-response,676,1421992,null,"EUROPE<img id = ""stim"" ><div class = green_square id = ""topsquare"" ></div><img id = ""stim"" ><div class = green_square  id = ""bottomsquare"" ></div>",null,word_square,response,0,none,true,,,
html-keyboard-response,677,1423509,null,"EUROPE",null,word,,,,, 'EUROPE',,
html-keyboard-response,678,1424023,null,"GIRL<img id = ""stim"" ><div class = green_square id = ""topsquare"" ></div><img id = ""stim"" ><div class = green_square  id = ""bottomsquare"" ></div>",null,word_square,response,0,none,true,,,
html-keyboard-response,679,1425527,null,"GIRL",null,word,,,,, 'GIRL',,
html-keyboard-response,680,1426039,null,"SODA<img id = ""stim"" ><div class = green_square id = ""topsquare"" ></div><img id = ""stim"" ><div class = green_square  id = ""bottomsquare"" ></div>",null,word_square,response,0,none,true,,,
html-keyboard-response,681,1427543,null,"SODA",null,word,,,,, 'SODA',,
html-keyboard-response,682,1427963,418.0550000164658,"ANCHOR<img id = ""stim"" ><div class = red_square id = ""topsquare"" ></div><img id = ""stim"" ><div class = red_square  id = ""bottomsquare"" ></div>",32,word_square,response,1,Space,true,,,
html-keyboard-response,683,1429466,null,"ANCHOR",null,word,,,,, 'ANCHOR',,
html-keyboard-response,684,1429886,418.7099998816848,"CARROT<img id = ""stim"" ><div class = red_square id = ""topsquare"" ></div><img id = ""stim"" ><div class = red_square  id = ""bottomsquare"" ></div>",32,word_square,response,1,Space,true,,,
html-keyboard-response,685,1431396,null,"CARROT",null,word,,,,, 'CARROT',,
html-keyboard-response,686,1431901,null,"PIRATE<img id = ""stim"" ><div class = green_square id = ""topsquare"" ></div><img id = ""stim"" ><div class = green_square  id = ""bottomsquare"" ></div>",null,word_square,response,0,none,true,,,
html-keyboard-response,687,1433407,null,"PIRATE",null,word,,,,, 'PIRATE',,
call-function,688,1433408,,"",,,,,,,,,
html-keyboard-response,689,1433516,null,"",null,,,,,,,,
math-period,690,1436922,5484.900000039488,"",,,,,,,,,3
html-keyboard-response,691,1437035,null,"",null,,,,,,,,
math-period,692,1438660,3044.599999906495,"",,,,,,,,,1
html-keyboard-response,693,1438762,null,"",null,,,,,,,,
math-period,694,1440663,3647.025000071153,"",,,,,,,,,4
html-keyboard-response,695,1440766,null,"",null,,,,,,,,
math-period,696,1441879,2080.8950003702193,"",,,,,,,,,1
html-keyboard-response,697,1441985,null,"",null,,,,,,,,
math-period,698,1443406,2638.7599997688085,"",,,,,,,,,6
html-keyboard-response,699,1443521,null,"",null,,,,,,,,
math-period,700,1445383,3588.9100001659244,"",,,,,,,,,3
html-keyboard-response,701,1445486,null,"",null,,,,,,,,
math-period,702,1447125,3157.5600001960993,"",,,,,,,,,1
html-keyboard-response,703,1447227,null,"",null,,,,,,,,
math-period,704,1448457,2272.1150000579655,"",,,,,,,,,6
html-keyboard-response,705,1448559,null,"",null,,,,,,,,
math-period,706,1449752,1192.2349999658763,"",,,,,,,,,
html-keyboard-response,707,1449854,null,"",null,,,,,,,,
math-period,708,1452670,5475.149999838322,"",,,,,,,,,1
html-keyboard-response,709,1452772,null,"",null,,,,,,,,
math-period,710,1453978,2226.115000201389,"",,,,,,,,,4
html-keyboard-response,711,1454079,null,"",null,,,,,,,,
math-period,712,1455205,2085.2399999275804,"",,,,,,,,,3
html-keyboard-response,713,1455314,null,"",null,,,,,,,,
math-period,714,1456607,2426.3449998106807,"",,,,,,,,,1
html-keyboard-response,715,1456720,null,"",null,,,,,,,,
math-period,716,1457422,null,"",,,,,,,,,
html-keyboard-response,717,1458425,null,"Recall Period!",null,,,,,,,,
call-function,718,1458426,,"",,,,,,,,,
html-keyboard-response,719,1458535,null,"",null,,,,,,,,
recall-period,720,1461581,18081.835000775754,"",,,,,,,,,Convent
html-keyboard-response,721,1461688,null,"",null,,,,,,,,
recall-period,722,1466768,33240.27999909595,"",,,,,,,,,raccoon
html-keyboard-response,723,1466873,null,"",null,,,,,,,,
recall-period,724,1468140,4840.335000073537,"",,,,,,,,,rabbit
html-keyboard-response,725,1468252,null,"",null,,,,,,,,
recall-period,726,1469642,5125.355000607669,"",,,,,,,,,rattle
html-keyboard-response,727,1469745,null,"",null,,,,,,,,
recall-period,728,1473537,16351.805000565946,"",,,,,,,,,pony
html-keyboard-response,729,1473640,null,"",null,,,,,,,,
recall-period,730,1533923,null,"",,,,,,,,,
html-keyboard-response,731,1534915,null,"Time's Up!",null,,,,,,,,
html-keyboard-response,732,1663747,128830.4249998182,"<p> Uh oh. You responded correctly on 76% of the red squares.</p>
                  <p>We need you keep your accuracy above 80%</p>
                  <p>Press any key to continue the experiment. Thank you!</p>",32,,,,,,,,
html-keyboard-response,733,1664736,987.104999832809,"<div style=""font-size:48px;"">Press any key to begin list 8 of 24 </div>",32,,,,,,,,
html-keyboard-response,734,1667243,null,"<div style=""font-size:60px;"">+</div>",null,,,,,,,,
html-keyboard-response,735,1667755,null,"BRUNETTE<img id = ""stim"" ><div class = red_square id = ""topsquare"" ></div><img id = ""stim"" ><div class = red_square  id = ""bottomsquare"" ></div>",null,word_square,response,1,Space,false,,,
html-keyboard-response,736,1669267,null,"BRUNETTE",null,word,,,,, 'BRUNETTE',,
html-keyboard-response,737,1669660,391.3100000936538,"BRIDE<img id = ""stim"" ><div class = red_square id = ""topsquare"" ></div><img id = ""stim"" ><div class = red_square  id = ""bottomsquare"" ></div>",32,word_square,response,1,Space,true,,,
html-keyboard-response,738,1671168,null,"BRIDE",null,word,,,,, 'BRIDE',,
html-keyboard-response,739,1671673,null,"GRASS<img id = ""stim"" ><div class = green_square id = ""topsquare"" ></div><img id = ""stim"" ><div class = green_square  id = ""bottomsquare"" ></div>",null,word_square,response,0,none,true,,,
html-keyboard-response,740,1673176,null,"GRASS",null,word,,,,, 'GRASS',,
html-keyboard-response,741,1673691,null,"LIST<img id = ""stim"" ><div class = red_square id = ""topsquare"" ></div><img id = ""stim"" ><div class = red_square  id = ""bottomsquare"" ></div>",null,word_square,response,1,Space,false,,,
html-keyboard-response,742,1675208,null,"LIST",null,word,,,,, 'LIST',,
html-keyboard-response,743,1675721,null,"RULER<img id = ""stim"" ><div class = green_square id = ""topsquare"" ></div><img id = ""stim"" ><div class = green_square  id = ""bottomsquare"" ></div>",null,word_square,response,0,none,true,,,
html-keyboard-response,744,1677230,null,"RULER",null,word,,,,, 'RULER',,
html-keyboard-response,745,1677704,472.48999984003603,"NEPHEW<img id = ""stim"" ><div class = red_square id = ""topsquare"" ></div><img id = ""stim"" ><div class = red_square  id = ""bottomsquare"" ></div>",32,word_square,response,1,Space,true,,,
html-keyboard-response,746,1679218,null,"NEPHEW",null,word,,,,, 'NEPHEW',,
html-keyboard-response,747,1679723,null,"APPLE<img id = ""stim"" ><div class = green_square id = ""topsquare"" ></div><img id = ""stim"" ><div class = green_square  id = ""bottomsquare"" ></div>",null,word_square,response,0,none,true,,,
html-keyboard-response,748,1681237,null,"APPLE",null,word,,,,, 'APPLE',,
html-keyboard-response,749,1681742,null,"INMATE<img id = ""stim"" ><div class = red_square id = ""topsquare"" ></div><img id = ""stim"" ><div class = red_square  id = ""bottomsquare"" ></div>",null,word_square,response,1,Space,false,,,
html-keyboard-response,750,1683250,null,"INMATE",null,word,,,,, 'INMATE',,
html-keyboard-response,751,1683752,null,"PECAN<img id = ""stim"" ><div class = green_square id = ""topsquare"" ></div><img id = ""stim"" ><div class = green_square  id = ""bottomsquare"" ></div>",null,word_square,response,0,none,true,,,
html-keyboard-response,752,1685269,null,"PECAN",null,word,,,,, 'PECAN',,
html-keyboard-response,753,1685680,409.0499999001622,"BANDAGE<img id = ""stim"" ><div class = red_square id = ""topsquare"" ></div><img id = ""stim"" ><div class = red_square  id = ""bottomsquare"" ></div>",32,word_square,response,1,Space,true,,,
html-keyboard-response,754,1687192,null,"BANDAGE",null,word,,,,, 'BANDAGE',,
html-keyboard-response,755,1687710,null,"HATCHET<img id = ""stim"" ><div class = red_square id = ""topsquare"" ></div><img id = ""stim"" ><div class = red_square  id = ""bottomsquare"" ></div>",null,word_square,response,1,Space,false,,,
html-keyboard-response,756,1689217,null,"HATCHET",null,word,,,,, 'HATCHET',,
html-keyboard-response,757,1689734,null,"BUTCHER<img id = ""stim"" ><div class = green_square id = ""topsquare"" ></div><img id = ""stim"" ><div class = green_square  id = ""bottomsquare"" ></div>",null,word_square,response,0,none,true,,,
html-keyboard-response,758,1691237,null,"BUTCHER",null,word,,,,, 'BUTCHER',,
html-keyboard-response,759,1691753,null,"THRONE<img id = ""stim"" ><div class = green_square id = ""topsquare"" ></div><img id = ""stim"" ><div class = green_square  id = ""bottomsquare"" ></div>",null,word_square,response,0,none,true,,,
html-keyboard-response,760,1693257,null,"THRONE",null,word,,,,, 'THRONE',,
html-keyboard-response,761,1693774,null,"PALACE<img id = ""stim"" ><div class = green_square id = ""topsquare"" ></div><img id = ""stim"" ><div class = green_square  id = ""bottomsquare"" ></div>",null,word_square,response,0,none,true,,,
html-keyboard-response,762,1695287,null,"PALACE",null,word,,,,, 'PALACE',,
html-keyboard-response,763,1695792,null,"PIGMENT<img id = ""stim"" ><div class = green_square id = ""topsquare"" ></div><img id = ""stim"" ><div class = green_square  id = ""bottomsquare"" ></div>",null,word_square,response,0,none,true,,,
html-keyboard-response,764,1697296,null,"PIGMENT",null,word,,,,, 'PIGMENT',,
html-keyboard-response,765,1697723,424.42500009201467,"SCULPTURE<img id = ""stim"" ><div class = red_square id = ""topsquare"" ></div><img id = ""stim"" ><div class = red_square  id = ""bottomsquare"" ></div>",32,word_square,response,1,Space,true,,,
html-keyboard-response,766,1699238,null,"SCULPTURE",null,word,,,,, 'SCULPTURE',,
html-keyboard-response,767,1699756,null,"WRIST<img id = ""stim"" ><div class = red_square id = ""topsquare"" ></div><img id = ""stim"" ><div class = red_square  id = ""bottomsquare"" ></div>",null,word_square,response,1,Space,false,,,
html-keyboard-response,768,1701260,null,"WRIST",null,word,,,,, 'WRIST',,
html-keyboard-response,769,1701777,null,"PEANUT<img id = ""stim"" ><div class = green_square id = ""topsquare"" ></div><img id = ""stim"" ><div class = green_square  id = ""bottomsquare"" ></div>",null,word_square,response,0,none,true,,,
html-keyboard-response,770,1703296,null,"PEANUT",null,word,,,,, 'PEANUT',,
call-function,771,1703298,,"",,,,,,,,,
html-keyboard-response,772,1703400,null,"",null,,,,,,,,
math-period,773,1706218,4998.660000273958,"",,,,,,,,,2
html-keyboard-response,774,1706320,null,"",null,,,,,,,,
math-period,775,1707772,2587.200000183657,"",,,,,,,,,4
html-keyboard-response,776,1707876,null,"",null,,,,,,,,
math-period,777,1710754,5339.655000017956,"",,,,,,,,,4
html-keyboard-response,778,1710868,null,"",null,,,,,,,,
math-period,779,1715065,8162.800000049174,"",,,,,,,,,1
html-keyboard-response,780,1715167,null,"",null,,,,,,,,
math-period,781,1723402,16277.655000099912,"",,,,,,,,,2
html-keyboard-response,782,1723504,null,"",null,,,,,,,,
math-period,783,1726616,10903.250000206754,"",,,,,,,,,4
html-keyboard-response,784,1726721,null,"",null,,,,,,,,
math-period,785,1727301,null,"",,,,,,,,,
html-keyboard-response,786,1728309,null,"Recall Period!",null,,,,,,,,
call-function,787,1728310,,"",,,,,,,,,
html-keyboard-response,788,1728417,null,"",null,,,,,,,,
recall-period,789,1731351,16500.93000032939,"",,,,,,,,,Butcher
html-keyboard-response,790,1731453,null,"",null,,,,,,,,
recall-period,791,1732919,6465.974999591708,"",,,,,,,,,throne
html-keyboard-response,792,1733034,null,"",null,,,,,,,,
recall-period,793,1734763,6796.080000465736,"",,,,,,,,,palace
html-keyboard-response,794,1734865,null,"",null,,,,,,,,
recall-period,795,1737864,16191.12499943003,"",,,,,,,,,nephew
html-keyboard-response,796,1737968,null,"",null,,,,,,,,
recall-period,797,1803313,null,"",,,,,,,,,
html-keyboard-response,798,1803831,null,"Time's Up!",null,,,,,,,,
html-keyboard-response,799,2538095,734268.1350000203,"<p> Uh oh. You responded correctly on 75% of the red squares.</p>
                  <p>We need you keep your accuracy above 80%</p>
                  <p>Press any key to continue the experiment. Thank you!</p>",32,,,,,,,,
html-keyboard-response,800,2547400,9302.819999866188,"<div style=""font-size:48px;"">Press any key to begin list 9 of 24 </div>",32,,,,,,,,
html-keyboard-response,801,2549922,null,"<div style=""font-size:60px;"">+</div>",null,,,,,,,,
html-keyboard-response,802,2550429,null,"LIZARD<img id = ""stim"" ><div class = green_square id = ""topsquare"" ></div><img id = ""stim"" ><div class = green_square  id = ""bottomsquare"" ></div>",null,word_square,response,0,none,true,,,
html-keyboard-response,803,2551936,null,"LIZARD",null,word,,,,, 'LIZARD',,
html-keyboard-response,804,2552302,362.70499997772276,"BUTLER<img id = ""stim"" ><div class = red_square id = ""topsquare"" ></div><img id = ""stim"" ><div class = red_square  id = ""bottomsquare"" ></div>",32,word_square,response,1,Space,true,,,
html-keyboard-response,805,2553813,null,"BUTLER",null,word,,,,, 'BUTLER',,
html-keyboard-response,806,2554323,null,"SUITCASE<img id = ""stim"" ><div class = green_square id = ""topsquare"" ></div><img id = ""stim"" ><div class = green_square  id = ""bottomsquare"" ></div>",null,word_square,response,0,none,true,,,
html-keyboard-response,807,2555834,null,"SUITCASE",null,word,,,,, 'SUITCASE',,
html-keyboard-response,808,2556351,null,"JEEP<img id = ""stim"" ><div class = green_square id = ""topsquare"" ></div><img id = ""stim"" ><div class = green_square  id = ""bottomsquare"" ></div>",null,word_square,response,0,none,true,,,
html-keyboard-response,809,2557867,null,"JEEP",null,word,,,,, 'JEEP',,
html-keyboard-response,810,2558220,348.9699999336153,"FRIES<img id = ""stim"" ><div class = red_square id = ""topsquare"" ></div><img id = ""stim"" ><div class = red_square  id = ""bottomsquare"" ></div>",32,word_square,response,1,Space,true,,,
html-keyboard-response,811,2559726,null,"FRIES",null,word,,,,, 'FRIES',,
html-keyboard-response,812,2560243,null,"LANDSCAPE<img id = ""stim"" ><div class = green_square id = ""topsquare"" ></div><img id = ""stim"" ><div class = green_square  id = ""bottomsquare"" ></div>",null,word_square,response,0,none,true,,,
html-keyboard-response,813,2561746,null,"LANDSCAPE",null,word,,,,, 'LANDSCAPE',,
html-keyboard-response,814,2562182,432.62499989941716,"FUNGUS<img id = ""stim"" ><div class = red_square id = ""topsquare"" ></div><img id = ""stim"" ><div class = red_square  id = ""bottomsquare"" ></div>",32,word_square,response,1,Space,true,,,
html-keyboard-response,815,2563697,null,"FUNGUS",null,word,,,,, 'FUNGUS',,
html-keyboard-response,816,2564216,null,"MILDEW<img id = ""stim"" ><div class = green_square id = ""topsquare"" ></div><img id = ""stim"" ><div class = green_square  id = ""bottomsquare"" ></div>",null,word_square,response,0,none,true,,,
html-keyboard-response,817,2565725,null,"MILDEW",null,word,,,,, 'MILDEW',,
html-keyboard-response,818,2566152,423.63999993540347,"NURSE<img id = ""stim"" ><div class = red_square id = ""topsquare"" ></div><img id = ""stim"" ><div class = red_square  id = ""bottomsquare"" ></div>",32,word_square,response,1,Space,true,,,
html-keyboard-response,819,2567668,null,"NURSE",null,word,,,,, 'NURSE',,
html-keyboard-response,820,2568177,null,"STRANGER<img id = ""stim"" ><div class = red_square id = ""topsquare"" ></div><img id = ""stim"" ><div class = red_square  id = ""bottomsquare"" ></div>",null,word_square,response,1,Space,false,,,
html-keyboard-response,821,2569691,null,"STRANGER",null,word,,,,, 'STRANGER',,
html-keyboard-response,822,2570198,null,"ANGEL<img id = ""stim"" ><div class = green_square id = ""topsquare"" ></div><img id = ""stim"" ><div class = green_square  id = ""bottomsquare"" ></div>",null,word_square,response,0,none,true,,,
html-keyboard-response,823,2571706,null,"ANGEL",null,word,,,,, 'ANGEL',,
html-keyboard-response,824,2572212,null,"TOURIST<img id = ""stim"" ><div class = green_square id = ""topsquare"" ></div><img id = ""stim"" ><div class = green_square  id = ""bottomsquare"" ></div>",null,word_square,response,0,none,true,,,
html-keyboard-response,825,2573724,null,"TOURIST",null,word,,,,, 'TOURIST',,
html-keyboard-response,826,2574174,447.1549999434501,"SLIDE<img id = ""stim"" ><div class = red_square id = ""topsquare"" ></div><img id = ""stim"" ><div class = red_square  id = ""bottomsquare"" ></div>",32,word_square,response,1,Space,true,,,
html-keyboard-response,827,2575688,null,"SLIDE",null,word,,,,, 'SLIDE',,
html-keyboard-response,828,2576197,null,"MASK<img id = ""stim"" ><div class = red_square id = ""topsquare"" ></div><img id = ""stim"" ><div class = red_square  id = ""bottomsquare"" ></div>",null,word_square,response,1,Space,false,,,
html-keyboard-response,829,2577714,null,"MASK",null,word,,,,, 'MASK',,
html-keyboard-response,830,2578157,439.69999998807907,"CLIFF<img id = ""stim"" ><div class = red_square id = ""topsquare"" ></div><img id = ""stim"" ><div class = red_square  id = ""bottomsquare"" ></div>",32,word_square,response,1,Space,true,,,
html-keyboard-response,831,2579662,null,"CLIFF",null,word,,,,, 'CLIFF',,
html-keyboard-response,832,2580175,null,"SHERIFF<img id = ""stim"" ><div class = green_square id = ""topsquare"" ></div><img id = ""stim"" ><div class = green_square  id = ""bottomsquare"" ></div>",null,word_square,response,0,none,true,,,
html-keyboard-response,833,2581697,null,"SHERIFF",null,word,,,,, 'SHERIFF',,
html-keyboard-response,834,2582206,null,"RAFT<img id = ""stim"" ><div class = green_square id = ""topsquare"" ></div><img id = ""stim"" ><div class = green_square  id = ""bottomsquare"" ></div>",null,word_square,response,0,none,true,,,
html-keyboard-response,835,2583718,null,"RAFT",null,word,,,,, 'RAFT',,
html-keyboard-response,836,2584224,null,"BLACKBOARD<img id = ""stim"" ><div class = red_square id = ""topsquare"" ></div><img id = ""stim"" ><div class = red_square  id = ""bottomsquare"" ></div>",null,word_square,response,1,Space,false,,,
html-keyboard-response,837,2585741,null,"BLACKBOARD",null,word,,,,, 'BLACKBOARD',,
call-function,838,2585743,,"",,,,,,,,,
html-keyboard-response,839,2585845,null,"",null,,,,,,,,
math-period,840,2588280,3825.3349997103214,"",,,,,,,,,4
html-keyboard-response,841,2588399,null,"",null,,,,,,,,
math-period,842,2589715,2429.045000113547,"",,,,,,,,,2
html-keyboard-response,843,2589823,null,"",null,,,,,,,,
math-period,844,2591913,4026.460000080988,"",,,,,,,,,3
html-keyboard-response,845,2592027,null,"",null,,,,,,,,
math-period,846,2594172,4032.514999853447,"",,,,,,,,,1
html-keyboard-response,847,2594288,null,"",null,,,,,,,,
math-period,848,2595813,2871.6650002170354,"",,,,,,,,,5
html-keyboard-response,849,2595921,null,"",null,,,,,,,,
math-period,850,2597324,2668.650000123307,"",,,,,,,,,5
html-keyboard-response,851,2597428,null,"",null,,,,,,,,
math-period,852,2600479,5950.510000111535,"",,,,,,,,,2
html-keyboard-response,853,2600588,null,"",null,,,,,,,,
math-period,854,2601990,1398.320000153035,"",,,,,,,,,
html-keyboard-response,855,2602095,null,"",null,,,,,,,,
math-period,856,2603079,1828.1049998477101,"",,,,,,,,,2
html-keyboard-response,857,2603184,null,"",null,,,,,,,,
math-period,858,2605153,3718.7550000380725,"",,,,,,,,,2
html-keyboard-response,859,2605259,null,"",null,,,,,,,,
math-period,860,2607219,3773.7600000109524,"",,,,,,,,,2
html-keyboard-response,861,2607329,null,"",null,,,,,,,,
math-period,862,2608546,2176.6150002367795,"",,,,,,,,,4
html-keyboard-response,863,2608650,null,"",null,,,,,,,,
math-period,864,2609760,null,"",,,,,,,,,
html-keyboard-response,865,2610768,null,"Recall Period!",null,,,,,,,,
call-function,866,2610770,,"",,,,,,,,,
html-keyboard-response,867,2610875,null,"",null,,,,,,,,
recall-period,868,2617544,94322.95499765314,"",,,,,,,,,Lizard
html-keyboard-response,869,2617658,null,"",null,,,,,,,,
recall-period,870,2618549,2927.3649998940527,"",,,,,,,,,fries
html-keyboard-response,871,2618659,null,"",null,,,,,,,,
recall-period,872,2622224,17910.475000040606,"",,,,,,,,,fungus
html-keyboard-response,873,2622343,null,"",null,,,,,,,,
recall-period,874,2623877,5436.169999651611,"",,,,,,,,,nurse
html-keyboard-response,875,2623985,null,"",null,,,,,,,,
recall-period,876,2627334,22307.935000862926,"",,,,,,,,,stranger
html-keyboard-response,877,2627450,null,"",null,,,,,,,,
recall-period,878,2629529,9278.01000000909,"",,,,,,,,,clidd
html-keyboard-response,879,2629639,null,"",null,,,,,,,,
recall-period,880,2631559,8589.85499967821,"",,,,,,,,,cliff
html-keyboard-response,881,2631670,null,"",null,,,,,,,,
recall-period,882,2637357,28413.97999948822,"",,,,,,,,,slide
html-keyboard-response,883,2637459,null,"",null,,,,,,,,
recall-period,884,2643218,45733.55499887839,"",,,,,,,,,blackboard
html-keyboard-response,885,2643328,null,"",null,,,,,,,,
recall-period,886,2670961,189146.50500006974,"",,,,,,,,,butler
html-keyboard-response,887,2671078,null,"",null,,,,,,,,
recall-period,888,2685774,null,"",,,,,,,,,
html-keyboard-response,889,2686287,null,"Time's Up!",null,,,,,,,,
html-keyboard-response,890,2720462,34175.18500005826,"<p> Uh oh. You responded correctly on 76% of the red squares.</p>
                  <p>We need you keep your accuracy above 80%</p>
                  <p>Press any key to continue the experiment. Thank you!</p>",32,,,,,,,,
html-keyboard-response,891,2721874,1408.4300000686198,"<div style=""font-size:48px;"">Press any key to begin list 10 of 24 </div>",32,,,,,,,,
html-keyboard-response,892,2724391,null,"<div style=""font-size:60px;"">+</div>",null,,,,,,,,
html-keyboard-response,893,2724898,null,"CONVICT<img id = ""stim"" ><div class = green_square id = ""topsquare"" ></div><img id = ""stim"" ><div class = green_square  id = ""bottomsquare"" ></div>",null,word_square,response,0,none,true,,,
html-keyboard-response,894,2726402,null,"CONVICT",null,word,,,,, 'CONVICT',,
html-keyboard-response,895,2726821,415.38999998010695,"BEAST<img id = ""stim"" ><div class = red_square id = ""topsquare"" ></div><img id = ""stim"" ><div class = red_square  id = ""bottomsquare"" ></div>",32,word_square,response,1,Space,true,,,
html-keyboard-response,896,2728338,null,"BEAST",null,word,,,,, 'BEAST',,
html-keyboard-response,897,2728846,null,"SQUIRREL<img id = ""stim"" ><div class = green_square id = ""topsquare"" ></div><img id = ""stim"" ><div class = green_square  id = ""bottomsquare"" ></div>",null,word_square,response,0,none,true,,,
html-keyboard-response,898,2730351,null,"SQUIRREL",null,word,,,,, 'SQUIRREL',,
html-keyboard-response,899,2730860,null,"AUTHOR<img id = ""stim"" ><div class = green_square id = ""topsquare"" ></div><img id = ""stim"" ><div class = green_square  id = ""bottomsquare"" ></div>",null,word_square,response,0,none,true,,,
html-keyboard-response,900,2732364,null,"AUTHOR",null,word,,,,, 'AUTHOR',,
html-keyboard-response,901,2732720,353.42500009573996,"SERPENT<img id = ""stim"" ><div class = red_square id = ""topsquare"" ></div><img id = ""stim"" ><div class = red_square  id = ""bottomsquare"" ></div>",32,word_square,response,1,Space,true,,,
html-keyboard-response,902,2734231,null,"SERPENT",null,word,,,,, 'SERPENT',,
html-keyboard-response,903,2734746,null,"ICING<img id = ""stim"" ><div class = green_square id = ""topsquare"" ></div><img id = ""stim"" ><div class = green_square  id = ""bottomsquare"" ></div>",null,word_square,response,0,none,true,,,
html-keyboard-response,904,2736249,null,"ICING",null,word,,,,, 'ICING',,
html-keyboard-response,905,2736661,408.8049998972565,"SHORTCAKE<img id = ""stim"" ><div class = red_square id = ""topsquare"" ></div><img id = ""stim"" ><div class = red_square  id = ""bottomsquare"" ></div>",32,word_square,response,1,Space,true,,,
html-keyboard-response,906,2738171,null,"SHORTCAKE",null,word,,,,, 'SHORTCAKE',,
html-keyboard-response,907,2738690,null,"REPTILE<img id = ""stim"" ><div class = green_square id = ""topsquare"" ></div><img id = ""stim"" ><div class = green_square  id = ""bottomsquare"" ></div>",null,word_square,response,0,none,true,,,
html-keyboard-response,908,2740200,null,"REPTILE",null,word,,,,, 'REPTILE',,
html-keyboard-response,909,2740708,null,"DOORBELL<img id = ""stim"" ><div class = red_square id = ""topsquare"" ></div><img id = ""stim"" ><div class = red_square  id = ""bottomsquare"" ></div>",null,word_square,response,1,Space,false,,,
html-keyboard-response,910,2742216,null,"DOORBELL",null,word,,,,, 'DOORBELL',,
html-keyboard-response,911,2742727,null,"PASTRY<img id = ""stim"" ><div class = red_square id = ""topsquare"" ></div><img id = ""stim"" ><div class = red_square  id = ""bottomsquare"" ></div>",null,word_square,response,1,Space,false,,,
html-keyboard-response,912,2744240,null,"PASTRY",null,word,,,,, 'PASTRY',,
html-keyboard-response,913,2744757,null,"SCOUT<img id = ""stim"" ><div class = green_square id = ""topsquare"" ></div><img id = ""stim"" ><div class = green_square  id = ""bottomsquare"" ></div>",null,word_square,response,0,none,true,,,
html-keyboard-response,914,2746261,null,"SCOUT",null,word,,,,, 'SCOUT',,
html-keyboard-response,915,2746773,null,"PIGEON<img id = ""stim"" ><div class = green_square id = ""topsquare"" ></div><img id = ""stim"" ><div class = green_square  id = ""bottomsquare"" ></div>",null,word_square,response,0,none,true,,,
html-keyboard-response,916,2748278,null,"PIGEON",null,word,,,,, 'PIGEON',,
html-keyboard-response,917,2748673,392.91499997489154,"WIDOW<img id = ""stim"" ><div class = red_square id = ""topsquare"" ></div><img id = ""stim"" ><div class = red_square  id = ""bottomsquare"" ></div>",32,word_square,response,1,Space,true,,,
html-keyboard-response,918,2750183,null,"WIDOW",null,word,,,,, 'WIDOW',,
html-keyboard-response,919,2750687,null,"SUBWAY<img id = ""stim"" ><div class = red_square id = ""topsquare"" ></div><img id = ""stim"" ><div class = red_square  id = ""bottomsquare"" ></div>",null,word_square,response,1,Space,false,,,
html-keyboard-response,920,2752196,null,"SUBWAY",null,word,,,,, 'SUBWAY',,
html-keyboard-response,921,2752700,null,"CROWN<img id = ""stim"" ><div class = red_square id = ""topsquare"" ></div><img id = ""stim"" ><div class = red_square  id = ""bottomsquare"" ></div>",null,word_square,response,1,Space,false,,,
html-keyboard-response,922,2754208,null,"CROWN",null,word,,,,, 'CROWN',,
html-keyboard-response,923,2754712,null,"EMPIRE<img id = ""stim"" ><div class = green_square id = ""topsquare"" ></div><img id = ""stim"" ><div class = green_square  id = ""bottomsquare"" ></div>",null,word_square,response,0,none,true,,,
html-keyboard-response,924,2756216,null,"EMPIRE",null,word,,,,, 'EMPIRE',,
