trial_type,trial_index,time_elapsed,rt,stimulus,key_press,test_part,task,targ_cond,correctKeyCode,correct,word,responses,correct_response
pavlovia,0,760,,"",,,,,,,,,
external-html,1,65418,64380.050000036135,"",,,,,,,,,
html-keyboard-response,2,67564,2141.139999963343,"Welcome to the experiment. Press any key to begin.",32,,,,,,,,
html-keyboard-response,3,79288,11722.014999948442,"<p>You will see a list of words and colored squares in the following task.<p><p>Press the spacebar whenever you see a GREEN square.<p><p>Do not press a key if the square is RED<p><p>Press the spacebar to continue.</p>",32,,,,,,,,
html-keyboard-response,4,88891,9098.019999917597,"<p>Please try to remember as many of the words as you can, and try to think about the meaning of each word as it appears.<p><p>After the detection and encoding task you will be asked to solve some math problems for 24 seconds.<p> Please solve as many problems as you can in the time given. <p>",32,,,,,,,,
html-keyboard-response,5,99565,10169.684999855235,"After solving the math problems, you will be asked to type in as many words <p>from the previous list as you can remember for 75 seconds.<p> If you finish recalling before the 75 seconds are up,<p> just sit tight and try to think of any more words you could have missed. <p><p>We will begin with a brief practice session<p>Press the spacebar to begin the practice.</p>",32,,,,,,,,
html-keyboard-response,6,102073,null,"<div style=""font-size:60px;"">+</div>",null,,,,,,,,
html-keyboard-response,7,102580,null,"HAPPY<img id = ""stim"" ><div class = red_square id = ""topsquare"" ></div><img id = ""stim"" ><div class = red_square  id = ""bottomsquare"" ></div>",null,word_square,response,0,none,true,,,
html-keyboard-response,8,104083,null,"HAPPY",null,word,,,,,HAPPY,,
html-keyboard-response,9,104587,null,"COLD<img id = ""stim"" ><div class = green_square id = ""topsquare"" ></div><img id = ""stim"" ><div class = green_square  id = ""bottomsquare"" ></div>",null,word_square,response,1,Space,false,,,
html-keyboard-response,10,106090,null,"COLD",null,word,,,,,COLD,,
html-keyboard-response,11,106595,null,"HEAVY<img id = ""stim"" ><div class = green_square id = ""topsquare"" ></div><img id = ""stim"" ><div class = green_square  id = ""bottomsquare"" ></div>",null,word_square,response,1,Space,false,,,
html-keyboard-response,12,108099,null,"HEAVY",null,word,,,,,HEAVY,,
html-keyboard-response,13,108606,null,"FUNNY<img id = ""stim"" ><div class = red_square id = ""topsquare"" ></div><img id = ""stim"" ><div class = red_square  id = ""bottomsquare"" ></div>",null,word_square,response,0,none,true,,,
html-keyboard-response,14,110110,null,"FUNNY",null,word,,,,,FUNNY,,
html-keyboard-response,15,110617,null,"SCARY<img id = ""stim"" ><div class = green_square id = ""topsquare"" ></div><img id = ""stim"" ><div class = green_square  id = ""bottomsquare"" ></div>",null,word_square,response,1,Space,false,,,
html-keyboard-response,16,112119,null,"SCARY",null,word,,,,,SCARY,,
html-keyboard-response,17,112622,null,"PEACEFUL<img id = ""stim"" ><div class = green_square id = ""topsquare"" ></div><img id = ""stim"" ><div class = green_square  id = ""bottomsquare"" ></div>",null,word_square,response,1,Space,false,,,
html-keyboard-response,18,114127,null,"PEACEFUL",null,word,,,,,PEACEFUL,,
html-keyboard-response,19,114634,null,"LITTLE<img id = ""stim"" ><div class = red_square id = ""topsquare"" ></div><img id = ""stim"" ><div class = red_square  id = ""bottomsquare"" ></div>",null,word_square,response,0,none,true,,,
html-keyboard-response,20,116136,null,"LITTLE",null,word,,,,,LITTLE,,
html-keyboard-response,21,116644,null,"TIRED<img id = ""stim"" ><div class = red_square id = ""topsquare"" ></div><img id = ""stim"" ><div class = red_square  id = ""bottomsquare"" ></div>",null,word_square,response,0,none,true,,,
html-keyboard-response,22,118146,null,"TIRED",null,word,,,,,TIRED,,
html-keyboard-response,23,118653,null,"ENTERTAINING<img id = ""stim"" ><div class = red_square id = ""topsquare"" ></div><img id = ""stim"" ><div class = red_square  id = ""bottomsquare"" ></div>",null,word_square,response,0,none,true,,,
html-keyboard-response,24,120155,null,"ENTERTAINING",null,word,,,,,ENTERTAINING,,
html-keyboard-response,25,120663,null,"GRATEFUL<img id = ""stim"" ><div class = green_square id = ""topsquare"" ></div><img id = ""stim"" ><div class = green_square  id = ""bottomsquare"" ></div>",null,word_square,response,1,Space,false,,,
html-keyboard-response,26,122165,null,"GRATEFUL",null,word,,,,,GRATEFUL,,
html-keyboard-response,27,122671,null,"LOUD<img id = ""stim"" ><div class = red_square id = ""topsquare"" ></div><img id = ""stim"" ><div class = red_square  id = ""bottomsquare"" ></div>",null,word_square,response,0,none,true,,,
html-keyboard-response,28,124174,null,"LOUD",null,word,,,,,LOUD,,
html-keyboard-response,29,124678,null,"SMART<img id = ""stim"" ><div class = green_square id = ""topsquare"" ></div><img id = ""stim"" ><div class = green_square  id = ""bottomsquare"" ></div>",null,word_square,response,1,Space,false,,,
html-keyboard-response,30,126181,null,"SMART",null,word,,,,,SMART,,
html-keyboard-response,31,126686,null,"SMOOTH<img id = ""stim"" ><div class = green_square id = ""topsquare"" ></div><img id = ""stim"" ><div class = green_square  id = ""bottomsquare"" ></div>",null,word_square,response,1,Space,false,,,
html-keyboard-response,32,128189,null,"SMOOTH",null,word,,,,,SMOOTH,,
html-keyboard-response,33,128696,null,"DISHONEST<img id = ""stim"" ><div class = red_square id = ""topsquare"" ></div><img id = ""stim"" ><div class = red_square  id = ""bottomsquare"" ></div>",null,word_square,response,0,none,true,,,
html-keyboard-response,34,130198,null,"DISHONEST",null,word,,,,,DISHONEST,,
html-keyboard-response,35,130706,null,"WEALTHY<img id = ""stim"" ><div class = green_square id = ""topsquare"" ></div><img id = ""stim"" ><div class = green_square  id = ""bottomsquare"" ></div>",null,word_square,response,1,Space,false,,,
html-keyboard-response,36,132207,null,"WEALTHY",null,word,,,,,WEALTHY,,
html-keyboard-response,37,132715,null,"BEAUTIFUL<img id = ""stim"" ><div class = red_square id = ""topsquare"" ></div><img id = ""stim"" ><div class = red_square  id = ""bottomsquare"" ></div>",null,word_square,response,0,none,true,,,
html-keyboard-response,38,134216,null,"BEAUTIFUL",null,word,,,,,BEAUTIFUL,,
html-keyboard-response,39,134722,null,"DREARY<img id = ""stim"" ><div class = red_square id = ""topsquare"" ></div><img id = ""stim"" ><div class = red_square  id = ""bottomsquare"" ></div>",null,word_square,response,0,none,true,,,
html-keyboard-response,40,136223,null,"DREARY",null,word,,,,,DREARY,,
html-keyboard-response,41,136726,null,"PLAYFUL<img id = ""stim"" ><div class = red_square id = ""topsquare"" ></div><img id = ""stim"" ><div class = red_square  id = ""bottomsquare"" ></div>",null,word_square,response,0,none,true,,,
html-keyboard-response,42,138231,null,"PLAYFUL",null,word,,,,,PLAYFUL,,
survey-text,43,140878,2637.730000074953,"",,,,,,,,{"Q0":"3"},
survey-text,44,143110,2226.5699999406934,"",,,,,,,,{"Q0":"2"},
survey-text,45,144783,1668.2400000281632,"",,,,,,,,{"Q0":"5"},
survey-text,46,146144,1357.3499999474734,"",,,,,,,,{"Q0":"3"},
survey-text,47,147163,1014.3750000279397,"",,,,,,,,{"Q0":"2"},
survey-text,48,148487,1320.3499999362975,"",,,,,,,,{"Q0":"4"},
survey-text,49,149957,1465.444999979809,"",,,,,,,,{"Q0":"2"},
survey-text,50,151064,1102.7049999684095,"",,,,,,,,{"Q0":"2"},
survey-text,51,153790,2721.3850000407547,"",,,,,,,,{"Q0":"2"},
survey-text,52,155281,1487.165000056848,"",,,,,,,,{"Q0":"3"},
survey-text,53,156286,1000.2250000834465,"",,,,,,,,{"Q0":"3"},
survey-text,54,157675,1384.180000051856,"",,,,,,,,{"Q0":"4"},
survey-text,55,159114,1434.879999840632,"",,,,,,,,{"Q0":"6"},
survey-text,56,160558,1439.869999885559,"",,,,,,,,{"Q0":"3"},
survey-text,57,161872,1309.2449998948723,"",,,,,,,,{"Q0":"2"},
survey-text,58,163441,1564.0249999705702,"",,,,,,,,{"Q0":"1"},
survey-text,59,167666,4220.214999979362,"",,,,,,,,{"Q0":"happy"},
survey-text,60,169039,1368.6249998863786,"",,,,,,,,{"Q0":"angry"},
survey-text,61,173872,4829.20500007458,"",,,,,,,,{"Q0":"beautiful"},
survey-text,62,176946,3070.575000019744,"",,,,,,,,{"Q0":"angry"},
survey-text,63,191414,14463.740000035614,"",,,,,,,,{"Q0":"loud"},
survey-text,64,237174,45756.6250001546,"",,,,,,,,{"Q0":"cold"},
survey-text,65,331742,94564.68000006862,"",,,,,,,,{"Q0":"i cant remember any more"},
html-keyboard-response,66,342670,10921.945000067353,"<p> Uh oh. You responded correctly on 56% of the GREEN squares.</p>
                  <p>We need you keep your accuracy above 80%</p>
                  <p>Press any key to begin the experiment. Thank you!</p>",32,,,,,,,,
html-keyboard-response,67,350402,7730.345000047237,"<p>We will now begin the experiment!<p><p>Please try to remember all words from each list.<p><p>Press the spacebar whenever you see a GREEN square.<p><p><p><p>Press the spacebar to begin.</p>",32,,,,,,,,
html-keyboard-response,68,352838,1931.3749999273568,"<div style=""font-size:48px;"">Press any key to begin list 1 of 24 </div>",32,,,,,,,,
html-keyboard-response,69,355349,null,"<div style=""font-size:60px;"">+</div>",null,,,,,,,,
html-keyboard-response,70,355853,null,"PIRATE<img id = ""stim"" ><div class = red_square id = ""topsquare"" ></div><img id = ""stim"" ><div class = red_square  id = ""bottomsquare"" ></div>",null,word_square,,0,,,,,SPACEBAR
html-keyboard-response,71,357358,null,"PIRATE",null,word,,,,, 'PIRATE',,
html-keyboard-response,72,357861,null,"SHELTER<img id = ""stim"" ><div class = red_square id = ""topsquare"" ></div><img id = ""stim"" ><div class = red_square  id = ""bottomsquare"" ></div>",null,word_square,,0,,,,,SPACEBAR
html-keyboard-response,73,359366,null,"SHELTER",null,word,,,,, 'SHELTER',,
html-keyboard-response,74,359873,null,"WOLF<img id = ""stim"" ><div class = green_square id = ""topsquare"" ></div><img id = ""stim"" ><div class = green_square  id = ""bottomsquare"" ></div>",null,word_square,,1,,,,,SPACEBAR
html-keyboard-response,75,361375,null,"WOLF",null,word,,,,, 'WOLF',,
html-keyboard-response,76,361879,null,"CLOUD<img id = ""stim"" ><div class = red_square id = ""topsquare"" ></div><img id = ""stim"" ><div class = red_square  id = ""bottomsquare"" ></div>",null,word_square,,0,,,,,SPACEBAR
html-keyboard-response,77,363384,null,"CLOUD",null,word,,,,, 'CLOUD',,
html-keyboard-response,78,363887,null,"COMET<img id = ""stim"" ><div class = green_square id = ""topsquare"" ></div><img id = ""stim"" ><div class = green_square  id = ""bottomsquare"" ></div>",null,word_square,,1,,,,,SPACEBAR
html-keyboard-response,79,365393,null,"COMET",null,word,,,,, 'COMET',,
html-keyboard-response,80,365895,499.4399999268353,"JAR<img id = ""stim"" ><div class = green_square id = ""topsquare"" ></div><img id = ""stim"" ><div class = green_square  id = ""bottomsquare"" ></div>",32,word_square,,1,,,,,SPACEBAR
html-keyboard-response,81,367397,null,"JAR",null,word,,,,, 'JAR',,
html-keyboard-response,82,367904,null,"BEAVER<img id = ""stim"" ><div class = red_square id = ""topsquare"" ></div><img id = ""stim"" ><div class = red_square  id = ""bottomsquare"" ></div>",null,word_square,,0,,,,,SPACEBAR
html-keyboard-response,83,369407,null,"BEAVER",null,word,,,,, 'BEAVER',,
html-keyboard-response,84,369912,null,"WASHER<img id = ""stim"" ><div class = red_square id = ""topsquare"" ></div><img id = ""stim"" ><div class = red_square  id = ""bottomsquare"" ></div>",null,word_square,,0,,,,,SPACEBAR
html-keyboard-response,85,371416,null,"WASHER",null,word,,,,, 'WASHER',,
html-keyboard-response,86,371923,null,"SWAMP<img id = ""stim"" ><div class = green_square id = ""topsquare"" ></div><img id = ""stim"" ><div class = green_square  id = ""bottomsquare"" ></div>",null,word_square,,1,,,,,SPACEBAR
html-keyboard-response,87,373425,null,"SWAMP",null,word,,,,, 'SWAMP',,
html-keyboard-response,88,373931,null,"COOKBOOK<img id = ""stim"" ><div class = red_square id = ""topsquare"" ></div><img id = ""stim"" ><div class = red_square  id = ""bottomsquare"" ></div>",null,word_square,,0,,,,,SPACEBAR
html-keyboard-response,89,375435,null,"COOKBOOK",null,word,,,,, 'COOKBOOK',,
html-keyboard-response,90,375940,null,"TURTLE<img id = ""stim"" ><div class = green_square id = ""topsquare"" ></div><img id = ""stim"" ><div class = green_square  id = ""bottomsquare"" ></div>",null,word_square,,1,,,,,SPACEBAR
html-keyboard-response,91,377442,null,"TURTLE",null,word,,,,, 'TURTLE',,
html-keyboard-response,92,377947,null,"SLUG<img id = ""stim"" ><div class = green_square id = ""topsquare"" ></div><img id = ""stim"" ><div class = green_square  id = ""bottomsquare"" ></div>",null,word_square,,1,,,,,SPACEBAR
html-keyboard-response,93,379451,null,"SLUG",null,word,,,,, 'SLUG',,
html-keyboard-response,94,379956,null,"CURTAIN<img id = ""stim"" ><div class = red_square id = ""topsquare"" ></div><img id = ""stim"" ><div class = red_square  id = ""bottomsquare"" ></div>",null,word_square,,0,,,,,SPACEBAR
html-keyboard-response,95,381460,null,"CURTAIN",null,word,,,,, 'CURTAIN',,
html-keyboard-response,96,381967,null,"IDOL<img id = ""stim"" ><div class = green_square id = ""topsquare"" ></div><img id = ""stim"" ><div class = green_square  id = ""bottomsquare"" ></div>",null,word_square,,1,,,,,SPACEBAR
html-keyboard-response,97,383470,null,"IDOL",null,word,,,,, 'IDOL',,
html-keyboard-response,98,383977,null,"HANDCUFFS<img id = ""stim"" ><div class = green_square id = ""topsquare"" ></div><img id = ""stim"" ><div class = green_square  id = ""bottomsquare"" ></div>",null,word_square,,1,,,,,SPACEBAR
html-keyboard-response,99,385479,null,"HANDCUFFS",null,word,,,,, 'HANDCUFFS',,
html-keyboard-response,100,385983,null,"ZIPPER<img id = ""stim"" ><div class = red_square id = ""topsquare"" ></div><img id = ""stim"" ><div class = red_square  id = ""bottomsquare"" ></div>",null,word_square,,0,,,,,SPACEBAR
html-keyboard-response,101,387485,null,"ZIPPER",null,word,,,,, 'ZIPPER',,
html-keyboard-response,102,387989,null,"SKIRT<img id = ""stim"" ><div class = red_square id = ""topsquare"" ></div><img id = ""stim"" ><div class = red_square  id = ""bottomsquare"" ></div>",null,word_square,,0,,,,,SPACEBAR
html-keyboard-response,103,389495,null,"SKIRT",null,word,,,,, 'SKIRT',,
html-keyboard-response,104,389976,479.5199998188764,"BANQUET<img id = ""stim"" ><div class = green_square id = ""topsquare"" ></div><img id = ""stim"" ><div class = green_square  id = ""bottomsquare"" ></div>",32,word_square,,1,,,,,SPACEBAR
html-keyboard-response,105,391483,null,"BANQUET",null,word,,,,, 'BANQUET',,
survey-text,106,393914,2426.1950000654906,"",,,,,,,,{"Q0":"5"},
survey-text,107,395703,1783.419999992475,"",,,,,,,,{"Q0":"4"},
survey-text,108,396824,1116.5299999993294,"",,,,,,,,{"Q0":"2"},
survey-text,109,399319,2492.1200000680983,"",,,,,,,,{"Q0":"0"},
survey-text,110,400484,1160.8700000215322,"",,,,,,,,{"Q0":"6"},
survey-text,111,401750,1261.3450000062585,"",,,,,,,,{"Q0":"5"},
survey-text,112,402917,1162.959999870509,"",,,,,,,,{"Q0":"5"},
survey-text,113,403937,1016.1649999208748,"",,,,,,,,{"Q0":"3"},
survey-text,114,405067,1125.125000020489,"",,,,,,,,{"Q0":"3"},
survey-text,115,406300,1229.225000133738,"",,,,,,,,{"Q0":"1"},
survey-text,116,409869,3564.690000144765,"",,,,,,,,{"Q0":"1"},
survey-text,117,411299,1426.0050000157207,"",,,,,,,,{"Q0":"5"},
survey-text,118,412617,1313.5699999984354,"",,,,,,,,{"Q0":"6"},
survey-text,119,413847,1225.5450000520796,"",,,,,,,,{"Q0":"6"},
survey-text,120,415162,1310.9150000382215,"",,,,,,,,{"Q0":"5"},
survey-text,121,416687,1520.5550000537187,"",,,,,,,,{"Q0":"1"},
survey-text,122,419574,2883.2450001500547,"",,,,,,,,{"Q0":"wold"},
survey-text,123,421207,1628.2150000333786,"",,,,,,,,{"Q0":"wolf"},
survey-text,124,422946,1735.1299999281764,"",,,,,,,,{"Q0":"comet"},
survey-text,125,435921,12970.10500007309,"",,,,,,,,{"Q0":"turtle"},
survey-text,126,437630,1704.145000083372,"",,,,,,,,{"Q0":"swamp"},
survey-text,127,440517,2882.279999786988,"",,,,,,,,{"Q0":"idol"},
survey-text,128,463073,22551.035000011325,"",,,,,,,,{"Q0":"y"},
survey-text,129,481000,17922.335000010207,"",,,,,,,,{"Q0":"swirl"},
survey-text,130,482765,1760.0849999580532,"",,,,,,,,{"Q0":"idk"},
survey-text,131,490743,7974.570000078529,"",,,,,,,,{"Q0":"swamp"},
survey-text,132,497009,6260.314999846742,"",,,,,,,,{"Q0":"g"},
html-keyboard-response,133,499863,2852.3899998981506,"<p> Uh oh. You responded correctly on 56% of the GREEN squares.</p>
                  <p>We need you keep your accuracy above 80%</p>
                  <p>Press any key to continue the experiment. Thank you!</p>",32,,,,,,,,
html-keyboard-response,134,530240,30375.54999999702,"<div style=""font-size:48px;"">Press any key to begin list 2 of 24 </div>",32,,,,,,,,
html-keyboard-response,135,532751,null,"<div style=""font-size:60px;"">+</div>",null,,,,,,,,
html-keyboard-response,136,533257,null,"SALMON<img id = ""stim"" ><div class = red_square id = ""topsquare"" ></div><img id = ""stim"" ><div class = red_square  id = ""bottomsquare"" ></div>",null,word_square,,0,,,,,SPACEBAR
html-keyboard-response,137,534760,null,"SALMON",null,word,,,,, 'SALMON',,
html-keyboard-response,138,535268,null,"TAXI<img id = ""stim"" ><div class = red_square id = ""topsquare"" ></div><img id = ""stim"" ><div class = red_square  id = ""bottomsquare"" ></div>",null,word_square,,0,,,,,SPACEBAR
html-keyboard-response,139,536769,null,"TAXI",null,word,,,,, 'TAXI',,
html-keyboard-response,140,537279,null,"RUST<img id = ""stim"" ><div class = green_square id = ""topsquare"" ></div><img id = ""stim"" ><div class = green_square  id = ""bottomsquare"" ></div>",null,word_square,,1,,,,,SPACEBAR
html-keyboard-response,141,538781,null,"RUST",null,word,,,,, 'RUST',,
html-keyboard-response,142,539288,null,"BRICK<img id = ""stim"" ><div class = red_square id = ""topsquare"" ></div><img id = ""stim"" ><div class = red_square  id = ""bottomsquare"" ></div>",null,word_square,,0,,,,,SPACEBAR
html-keyboard-response,143,540791,null,"BRICK",null,word,,,,, 'BRICK',,
html-keyboard-response,144,541262,468.8750000204891,"CORAL<img id = ""stim"" ><div class = green_square id = ""topsquare"" ></div><img id = ""stim"" ><div class = green_square  id = ""bottomsquare"" ></div>",32,word_square,,1,,,,,SPACEBAR
html-keyboard-response,145,542767,null,"CORAL",null,word,,,,, 'CORAL',,
html-keyboard-response,146,543274,null,"ATTIRE<img id = ""stim"" ><div class = green_square id = ""topsquare"" ></div><img id = ""stim"" ><div class = green_square  id = ""bottomsquare"" ></div>",null,word_square,,1,,,,,SPACEBAR
html-keyboard-response,147,544781,null,"ATTIRE",null,word,,,,, 'ATTIRE',,
html-keyboard-response,148,545288,null,"CRACKER<img id = ""stim"" ><div class = red_square id = ""topsquare"" ></div><img id = ""stim"" ><div class = red_square  id = ""bottomsquare"" ></div>",null,word_square,,0,,,,,SPACEBAR
html-keyboard-response,149,546796,null,"CRACKER",null,word,,,,, 'CRACKER',,
html-keyboard-response,150,547303,null,"LETTER<img id = ""stim"" ><div class = red_square id = ""topsquare"" ></div><img id = ""stim"" ><div class = red_square  id = ""bottomsquare"" ></div>",null,word_square,,0,,,,,SPACEBAR
html-keyboard-response,151,548808,null,"LETTER",null,word,,,,, 'LETTER',,
html-keyboard-response,152,549304,494.55499998293817,"BOYFRIEND<img id = ""stim"" ><div class = green_square id = ""topsquare"" ></div><img id = ""stim"" ><div class = green_square  id = ""bottomsquare"" ></div>",32,word_square,,1,,,,,SPACEBAR
html-keyboard-response,153,550809,null,"BOYFRIEND",null,word,,,,, 'BOYFRIEND',,
html-keyboard-response,154,551316,null,"FLUTE<img id = ""stim"" ><div class = red_square id = ""topsquare"" ></div><img id = ""stim"" ><div class = red_square  id = ""bottomsquare"" ></div>",null,word_square,,0,,,,,SPACEBAR
html-keyboard-response,155,552820,null,"FLUTE",null,word,,,,, 'FLUTE',,
html-keyboard-response,156,553244,421.6650000307709,"BANJO<img id = ""stim"" ><div class = green_square id = ""topsquare"" ></div><img id = ""stim"" ><div class = green_square  id = ""bottomsquare"" ></div>",32,word_square,,1,,,,,SPACEBAR
html-keyboard-response,157,554745,null,"BANJO",null,word,,,,, 'BANJO',,
html-keyboard-response,158,555253,null,"RIVER<img id = ""stim"" ><div class = green_square id = ""topsquare"" ></div><img id = ""stim"" ><div class = green_square  id = ""bottomsquare"" ></div>",null,word_square,,1,,,,,SPACEBAR
html-keyboard-response,159,556760,null,"RIVER",null,word,,,,, 'RIVER',,
html-keyboard-response,160,557263,null,"FOSSIL<img id = ""stim"" ><div class = red_square id = ""topsquare"" ></div><img id = ""stim"" ><div class = red_square  id = ""bottomsquare"" ></div>",null,word_square,,0,,,,,SPACEBAR
html-keyboard-response,161,558770,null,"FOSSIL",null,word,,,,, 'FOSSIL',,
html-keyboard-response,162,559199,427.1849999204278,"FRAGRANCE<img id = ""stim"" ><div class = green_square id = ""topsquare"" ></div><img id = ""stim"" ><div class = green_square  id = ""bottomsquare"" ></div>",32,word_square,,1,,,,,SPACEBAR
html-keyboard-response,163,560701,null,"FRAGRANCE",null,word,,,,, 'FRAGRANCE',,
html-keyboard-response,164,561207,null,"CABIN<img id = ""stim"" ><div class = green_square id = ""topsquare"" ></div><img id = ""stim"" ><div class = green_square  id = ""bottomsquare"" ></div>",null,word_square,,1,,,,,SPACEBAR
html-keyboard-response,165,562708,null,"CABIN",null,word,,,,, 'CABIN',,
html-keyboard-response,166,563215,null,"BOXER<img id = ""stim"" ><div class = red_square id = ""topsquare"" ></div><img id = ""stim"" ><div class = red_square  id = ""bottomsquare"" ></div>",null,word_square,,0,,,,,SPACEBAR
html-keyboard-response,167,564718,null,"BOXER",null,word,,,,, 'BOXER',,
html-keyboard-response,168,565226,null,"PARTNER<img id = ""stim"" ><div class = red_square id = ""topsquare"" ></div><img id = ""stim"" ><div class = red_square  id = ""bottomsquare"" ></div>",null,word_square,,0,,,,,SPACEBAR
html-keyboard-response,169,566733,null,"PARTNER",null,word,,,,, 'PARTNER',,
html-keyboard-response,170,567240,null,"CATCHER<img id = ""stim"" ><div class = green_square id = ""topsquare"" ></div><img id = ""stim"" ><div class = green_square  id = ""bottomsquare"" ></div>",null,word_square,,1,,,,,SPACEBAR
html-keyboard-response,171,568747,null,"CATCHER",null,word,,,,, 'CATCHER',,
survey-text,172,572602,3850.7699999026954,"",,,,,,,,{"Q0":"4"},
survey-text,173,576454,3847.2500001080334,"",,,,,,,,{"Q0":"1"},
survey-text,174,578295,1836.5149998571724,"",,,,,,,,{"Q0":"3"},
survey-text,175,579310,1010.8350000809878,"",,,,,,,,{"Q0":"3"},
survey-text,176,580586,1270.570000167936,"",,,,,,,,{"Q0":"1"},
survey-text,177,582592,2002.0299998577684,"",,,,,,,,{"Q0":"2"},
survey-text,178,584623,2028.090000152588,"",,,,,,,,{"Q0":"2"},
survey-text,179,586066,1438.075000187382,"",,,,,,,,{"Q0":"4"},
survey-text,180,589980,3910.169999813661,"",,,,,,,,{"Q0":"1"},
survey-text,181,591370,1385.8900000341237,"",,,,,,,,{"Q0":"4"},
survey-text,182,592585,1210.81000007689,"",,,,,,,,{"Q0":"4"},
survey-text,183,593722,1132.160000037402,"",,,,,,,,{"Q0":"3"},
survey-text,184,600308,6582.055000122637,"",,,,,,,,{"Q0":"fragrance"},
survey-text,185,606222,5909.869999857619,"",,,,,,,,{"Q0":"partner"},
survey-text,186,608834,2607.5499998405576,"",,,,,,,,{"Q0":"boyfriend"},
survey-text,187,612388,3548.3450000174344,"",,,,,,,,{"Q0":"taxi"},
survey-text,188,620849,8456.509999930859,"",,,,,,,,{"Q0":"coral"},
survey-text,189,622998,2144.1299999132752,"",,,,,,,,{"Q0":"attire"},
survey-text,190,631385,8382.634999928996,"",,,,,,,,{"Q0":"banjo"},
survey-text,191,633191,1801.6650001518428,"",,,,,,,,{"Q0":"river"},
survey-text,192,639223,6028.135000029579,"",,,,,,,,{"Q0":"cabin"},
survey-text,193,644902,5675.490000052378,"",,,,,,,,{"Q0":"catcher"},
survey-text,194,650512,5605.4000000003725,"",,,,,,,,{"Q0":"taxi"},
survey-text,195,652560,2043.390000006184,"",,,,,,,,{"Q0":"rust"},
survey-text,196,656174,3609.999999869615,"",,,,,,,,{"Q0":"brick"},
survey-text,197,664998,8818.944999948144,"",,,,,,,,{"Q0":"let"},
survey-text,198,670800,5797.084999969229,"",,,,,,,,{"Q0":"idk"},
html-keyboard-response,199,679633,8830.099999904633,"<p> Uh oh. You responded correctly on 56% of the GREEN squares.</p>
                  <p>We need you keep your accuracy above 80%</p>
                  <p>Press any key to continue the experiment. Thank you!</p>",32,,,,,,,,
html-keyboard-response,200,694724,15089.914999902248,"<div style=""font-size:48px;"">Press any key to begin list 3 of 24 </div>",32,,,,,,,,
html-keyboard-response,201,697234,null,"<div style=""font-size:60px;"">+</div>",null,,,,,,,,
html-keyboard-response,202,697741,null,"DAD<img id = ""stim"" ><div class = green_square id = ""topsquare"" ></div><img id = ""stim"" ><div class = green_square  id = ""bottomsquare"" ></div>",null,word_square,,1,,,,,SPACEBAR
html-keyboard-response,203,699244,null,"DAD",null,word,,,,, 'DAD',,
html-keyboard-response,204,699751,null,"FLESH<img id = ""stim"" ><div class = green_square id = ""topsquare"" ></div><img id = ""stim"" ><div class = green_square  id = ""bottomsquare"" ></div>",null,word_square,,1,,,,,SPACEBAR
html-keyboard-response,205,701255,null,"FLESH",null,word,,,,, 'FLESH',,
html-keyboard-response,206,701758,null,"LANDSCAPE<img id = ""stim"" ><div class = red_square id = ""topsquare"" ></div><img id = ""stim"" ><div class = red_square  id = ""bottomsquare"" ></div>",null,word_square,,0,,,,,SPACEBAR
html-keyboard-response,207,703263,null,"LANDSCAPE",null,word,,,,, 'LANDSCAPE',,
html-keyboard-response,208,703770,null,"TOURIST<img id = ""stim"" ><div class = green_square id = ""topsquare"" ></div><img id = ""stim"" ><div class = green_square  id = ""bottomsquare"" ></div>",null,word_square,,1,,,,,SPACEBAR
html-keyboard-response,209,705272,null,"TOURIST",null,word,,,,, 'TOURIST',,
html-keyboard-response,210,705780,null,"CHICKEN<img id = ""stim"" ><div class = red_square id = ""topsquare"" ></div><img id = ""stim"" ><div class = red_square  id = ""bottomsquare"" ></div>",null,word_square,,0,,,,,SPACEBAR
html-keyboard-response,211,707285,null,"CHICKEN",null,word,,,,, 'CHICKEN',,
html-keyboard-response,212,707792,null,"COBWEB<img id = ""stim"" ><div class = red_square id = ""topsquare"" ></div><img id = ""stim"" ><div class = red_square  id = ""bottomsquare"" ></div>",null,word_square,,0,,,,,SPACEBAR
html-keyboard-response,213,709295,null,"COBWEB",null,word,,,,, 'COBWEB',,
html-keyboard-response,214,709800,null,"KETCHUP<img id = ""stim"" ><div class = green_square id = ""topsquare"" ></div><img id = ""stim"" ><div class = green_square  id = ""bottomsquare"" ></div>",null,word_square,,1,,,,,SPACEBAR
html-keyboard-response,215,711303,null,"KETCHUP",null,word,,,,, 'KETCHUP',,
html-keyboard-response,216,711810,null,"RELISH<img id = ""stim"" ><div class = green_square id = ""topsquare"" ></div><img id = ""stim"" ><div class = green_square  id = ""bottomsquare"" ></div>",null,word_square,,1,,,,,SPACEBAR
html-keyboard-response,217,713312,null,"RELISH",null,word,,,,, 'RELISH',,
html-keyboard-response,218,713817,null,"CABBAGE<img id = ""stim"" ><div class = red_square id = ""topsquare"" ></div><img id = ""stim"" ><div class = red_square  id = ""bottomsquare"" ></div>",null,word_square,,0,,,,,SPACEBAR
html-keyboard-response,219,715324,null,"CABBAGE",null,word,,,,, 'CABBAGE',,
html-keyboard-response,220,715832,null,"SCALLOP<img id = ""stim"" ><div class = green_square id = ""topsquare"" ></div><img id = ""stim"" ><div class = green_square  id = ""bottomsquare"" ></div>",null,word_square,,1,,,,,SPACEBAR
html-keyboard-response,221,717333,null,"SCALLOP",null,word,,,,, 'SCALLOP',,
html-keyboard-response,222,717841,null,"SUITCASE<img id = ""stim"" ><div class = red_square id = ""topsquare"" ></div><img id = ""stim"" ><div class = red_square  id = ""bottomsquare"" ></div>",null,word_square,,0,,,,,SPACEBAR
html-keyboard-response,223,719344,null,"SUITCASE",null,word,,,,, 'SUITCASE',,
html-keyboard-response,224,719706,360.48500007018447,"DASHBOARD<img id = ""stim"" ><div class = red_square id = ""topsquare"" ></div><img id = ""stim"" ><div class = red_square  id = ""bottomsquare"" ></div>",32,word_square,,0,,,,,SPACEBAR
html-keyboard-response,225,721208,null,"DASHBOARD",null,word,,,,, 'DASHBOARD',,
html-keyboard-response,226,721716,null,"EYELASH<img id = ""stim"" ><div class = green_square id = ""topsquare"" ></div><img id = ""stim"" ><div class = green_square  id = ""bottomsquare"" ></div>",null,word_square,,1,,,,,SPACEBAR
html-keyboard-response,227,723218,null,"EYELASH",null,word,,,,, 'EYELASH',,
html-keyboard-response,228,723606,386.64499996230006,"FRECKLE<img id = ""stim"" ><div class = red_square id = ""topsquare"" ></div><img id = ""stim"" ><div class = red_square  id = ""bottomsquare"" ></div>",32,word_square,,0,,,,,SPACEBAR
html-keyboard-response,229,725109,null,"FRECKLE",null,word,,,,, 'FRECKLE',,
html-keyboard-response,230,725616,null,"INFANT<img id = ""stim"" ><div class = red_square id = ""topsquare"" ></div><img id = ""stim"" ><div class = red_square  id = ""bottomsquare"" ></div>",null,word_square,,0,,,,,SPACEBAR
html-keyboard-response,231,727122,null,"INFANT",null,word,,,,, 'INFANT',,
html-keyboard-response,232,727629,null,"HAMPER<img id = ""stim"" ><div class = green_square id = ""topsquare"" ></div><img id = ""stim"" ><div class = green_square  id = ""bottomsquare"" ></div>",null,word_square,,1,,,,,SPACEBAR
html-keyboard-response,233,729136,null,"HAMPER",null,word,,,,, 'HAMPER',,
html-keyboard-response,234,729643,null,"NECKLACE<img id = ""stim"" ><div class = green_square id = ""topsquare"" ></div><img id = ""stim"" ><div class = green_square  id = ""bottomsquare"" ></div>",null,word_square,,1,,,,,SPACEBAR
html-keyboard-response,235,731151,null,"NECKLACE",null,word,,,,, 'NECKLACE',,
html-keyboard-response,236,731658,null,"WAREHOUSE<img id = ""stim"" ><div class = red_square id = ""topsquare"" ></div><img id = ""stim"" ><div class = red_square  id = ""bottomsquare"" ></div>",null,word_square,,0,,,,,SPACEBAR
html-keyboard-response,237,733165,null,"WAREHOUSE",null,word,,,,, 'WAREHOUSE',,
survey-text,238,735374,2204.6449999324977,"",,,,,,,,{"Q0":"6"},
survey-text,239,736652,1274.4299999903888,"",,,,,,,,{"Q0":"3"},
survey-text,240,738659,2002.9450000729412,"",,,,,,,,{"Q0":"1"},
survey-text,241,740025,1362.4950000084937,"",,,,,,,,{"Q0":"4"},
survey-text,242,741309,1280.1150002051145,"",,,,,,,,{"Q0":"5"},
survey-text,243,742867,1553.4800000023097,"",,,,,,,,{"Q0":"4"},
survey-text,244,744851,1979.4950000941753,"",,,,,,,,{"Q0":"5"},
survey-text,245,745966,1110.8450000174344,"",,,,,,,,{"Q0":"2"},
survey-text,246,747499,1528.565000044182,"",,,,,,,,{"Q0":"1"},
survey-text,247,750386,2881.7000000271946,"",,,,,,,,{"Q0":"3"},
survey-text,248,754219,3829.6149999368936,"",,,,,,,,{"Q0":"3"},
survey-text,249,755479,1255.620000185445,"",,,,,,,,{"Q0":"3"},
survey-text,250,758891,3409.419999923557,"",,,,,,,,{"Q0":"2"},
survey-text,251,763257,4362.505000084639,"",,,,,,,,{"Q0":"eyelast"},
survey-text,252,765695,2435.0850000046194,"",,,,,,,,{"Q0":"ketchup"},
survey-text,253,770322,4623.410000000149,"",,,,,,,,{"Q0":"relish "},
survey-text,254,773325,2998.4150000382215,"",,,,,,,,{"Q0":"necklace"},
survey-text,255,774951,1621.999999973923,"",,,,,,,,{"Q0":"hamper"},
survey-text,256,777736,2781.070000026375,"",,,,,,,,{"Q0":"dad"},
survey-text,257,779108,1367.1750000212342,"",,,,,,,,{"Q0":"flesh "},
survey-text,258,783473,4361.694999970496,"",,,,,,,,{"Q0":"tourist"},
survey-text,259,805103,21625.090000219643,"",,,,,,,,{"Q0":"cabbage"},
survey-text,260,830408,25300.79500004649,"",,,,,,,,{"Q0":"idk"},
survey-text,261,833386,2974.2099998984486,"",,,,,,,,{"Q0":"scallop"},
survey-text,262,846381,12992.160000139847,"",,,,,,,,{"Q0":"infant"},
html-keyboard-response,263,852582,6199.3299999739975,"<p> Uh oh. You responded correctly on 56% of the GREEN squares.</p>
                  <p>We need you keep your accuracy above 80%</p>
                  <p>Press any key to continue the experiment. Thank you!</p>",32,,,,,,,,
html-keyboard-response,264,854352,1768.7699999660254,"<div style=""font-size:48px;"">Press any key to begin list 4 of 24 </div>",32,,,,,,,,
html-keyboard-response,265,856858,null,"<div style=""font-size:60px;"">+</div>",null,,,,,,,,
html-keyboard-response,266,857365,null,"FLIPPER<img id = ""stim"" ><div class = green_square id = ""topsquare"" ></div><img id = ""stim"" ><div class = green_square  id = ""bottomsquare"" ></div>",null,word_square,,1,,,,,SPACEBAR
html-keyboard-response,267,858868,null,"FLIPPER",null,word,,,,, 'FLIPPER',,
html-keyboard-response,268,859374,null,"YARD<img id = ""stim"" ><div class = green_square id = ""topsquare"" ></div><img id = ""stim"" ><div class = green_square  id = ""bottomsquare"" ></div>",null,word_square,,1,,,,,SPACEBAR
html-keyboard-response,269,860878,null,"YARD",null,word,,,,, 'YARD',,
html-keyboard-response,270,861384,null,"CLAMP<img id = ""stim"" ><div class = red_square id = ""topsquare"" ></div><img id = ""stim"" ><div class = red_square  id = ""bottomsquare"" ></div>",null,word_square,,0,,,,,SPACEBAR
html-keyboard-response,271,862886,null,"CLAMP",null,word,,,,, 'CLAMP',,
html-keyboard-response,272,863388,null,"PEPPER<img id = ""stim"" ><div class = green_square id = ""topsquare"" ></div><img id = ""stim"" ><div class = green_square  id = ""bottomsquare"" ></div>",null,word_square,,1,,,,,SPACEBAR
html-keyboard-response,273,864891,null,"PEPPER",null,word,,,,, 'PEPPER',,
html-keyboard-response,274,865393,null,"PARCEL<img id = ""stim"" ><div class = red_square id = ""topsquare"" ></div><img id = ""stim"" ><div class = red_square  id = ""bottomsquare"" ></div>",null,word_square,,0,,,,,SPACEBAR
html-keyboard-response,275,866899,null,"PARCEL",null,word,,,,, 'PARCEL',,
html-keyboard-response,276,867403,null,"CLIFF<img id = ""stim"" ><div class = red_square id = ""topsquare"" ></div><img id = ""stim"" ><div class = red_square  id = ""bottomsquare"" ></div>",null,word_square,,0,,,,,SPACEBAR
html-keyboard-response,277,868906,null,"CLIFF",null,word,,,,, 'CLIFF',,
html-keyboard-response,278,869410,null,"SKUNK<img id = ""stim"" ><div class = green_square id = ""topsquare"" ></div><img id = ""stim"" ><div class = green_square  id = ""bottomsquare"" ></div>",null,word_square,,1,,,,,SPACEBAR
html-keyboard-response,279,870915,null,"SKUNK",null,word,,,,, 'SKUNK',,
html-keyboard-response,280,871417,null,"POSSUM<img id = ""stim"" ><div class = green_square id = ""topsquare"" ></div><img id = ""stim"" ><div class = green_square  id = ""bottomsquare"" ></div>",null,word_square,,1,,,,,SPACEBAR
html-keyboard-response,281,872921,null,"POSSUM",null,word,,,,, 'POSSUM',,
html-keyboard-response,282,873426,null,"SUGAR<img id = ""stim"" ><div class = red_square id = ""topsquare"" ></div><img id = ""stim"" ><div class = red_square  id = ""bottomsquare"" ></div>",null,word_square,,0,,,,,SPACEBAR
html-keyboard-response,283,874931,null,"SUGAR",null,word,,,,, 'SUGAR',,
html-keyboard-response,284,875434,null,"SKATE<img id = ""stim"" ><div class = green_square id = ""topsquare"" ></div><img id = ""stim"" ><div class = green_square  id = ""bottomsquare"" ></div>",null,word_square,,1,,,,,SPACEBAR
html-keyboard-response,285,876937,null,"SKATE",null,word,,,,, 'SKATE',,
html-keyboard-response,286,877442,null,"TRUCK<img id = ""stim"" ><div class = red_square id = ""topsquare"" ></div><img id = ""stim"" ><div class = red_square  id = ""bottomsquare"" ></div>",null,word_square,,0,,,,,SPACEBAR
html-keyboard-response,287,878944,null,"TRUCK",null,word,,,,, 'TRUCK',,
html-keyboard-response,288,879447,null,"HOOD<img id = ""stim"" ><div class = red_square id = ""topsquare"" ></div><img id = ""stim"" ><div class = red_square  id = ""bottomsquare"" ></div>",null,word_square,,0,,,,,SPACEBAR
html-keyboard-response,289,880954,null,"HOOD",null,word,,,,, 'HOOD',,
html-keyboard-response,290,881461,null,"EUROPE<img id = ""stim"" ><div class = green_square id = ""topsquare"" ></div><img id = ""stim"" ><div class = green_square  id = ""bottomsquare"" ></div>",null,word_square,,1,,,,,SPACEBAR
html-keyboard-response,291,882964,null,"EUROPE",null,word,,,,, 'EUROPE',,
html-keyboard-response,292,883469,null,"ASIA<img id = ""stim"" ><div class = red_square id = ""topsquare"" ></div><img id = ""stim"" ><div class = red_square  id = ""bottomsquare"" ></div>",null,word_square,,0,,,,,SPACEBAR
html-keyboard-response,293,884972,null,"ASIA",null,word,,,,, 'ASIA',,
html-keyboard-response,294,885475,null,"BEAST<img id = ""stim"" ><div class = red_square id = ""topsquare"" ></div><img id = ""stim"" ><div class = red_square  id = ""bottomsquare"" ></div>",null,word_square,,0,,,,,SPACEBAR
html-keyboard-response,295,886978,null,"BEAST",null,word,,,,, 'BEAST',,
html-keyboard-response,296,887481,null,"SHARK<img id = ""stim"" ><div class = green_square id = ""topsquare"" ></div><img id = ""stim"" ><div class = green_square  id = ""bottomsquare"" ></div>",null,word_square,,1,,,,,SPACEBAR
html-keyboard-response,297,888985,null,"SHARK",null,word,,,,, 'SHARK',,
html-keyboard-response,298,889488,null,"WAGON<img id = ""stim"" ><div class = green_square id = ""topsquare"" ></div><img id = ""stim"" ><div class = green_square  id = ""bottomsquare"" ></div>",null,word_square,,1,,,,,SPACEBAR
html-keyboard-response,299,890992,null,"WAGON",null,word,,,,, 'WAGON',,
html-keyboard-response,300,891494,null,"BRAKE<img id = ""stim"" ><div class = red_square id = ""topsquare"" ></div><img id = ""stim"" ><div class = red_square  id = ""bottomsquare"" ></div>",null,word_square,,0,,,,,SPACEBAR
html-keyboard-response,301,892996,null,"BRAKE",null,word,,,,, 'BRAKE',,
survey-text,302,894561,1561.4100000821054,"",,,,,,,,{"Q0":"4"},
survey-text,303,895565,1000.7549999281764,"",,,,,,,,{"Q0":"3"},
survey-text,304,896464,895.3200001269579,"",,,,,,,,{"Q0":"3"},
survey-text,305,898748,2280.3299999795854,"",,,,,,,,{"Q0":"2"},
survey-text,306,899992,1240.2650001458824,"",,,,,,,,{"Q0":"2"},
survey-text,307,901076,1079.365000128746,"",,,,,,,,{"Q0":"2"},
survey-text,308,902652,1572.165000019595,"",,,,,,,,{"Q0":"5"},
survey-text,309,903770,1114.5300001371652,"",,,,,,,,{"Q0":"6"},
survey-text,310,904494,721.045000012964,"",,,,,,,,{"Q0":"6"},
survey-text,311,905823,1324.2300001438707,"",,,,,,,,{"Q0":"5"},
survey-text,312,906975,1148.4550000168383,"",,,,,,,,{"Q0":"2"},
survey-text,313,908167,1188.9599999412894,"",,,,,,,,{"Q0":"6"},
survey-text,314,909394,1222.9650001972914,"",,,,,,,,{"Q0":"5"},
survey-text,315,912318,2920.5400000791997,"",,,,,,,,{"Q0":"0"},
survey-text,316,914352,2029.4099999591708,"",,,,,,,,{"Q0":"2"},
survey-text,317,915069,713.1799999624491,"",,,,,,,,{"Q0":"2"},
survey-text,318,916182,1109.5550002064556,"",,,,,,,,{"Q0":"3"},
survey-text,319,918562,2376.5650000423193,"",,,,,,,,{"Q0":"3"},
survey-text,320,923084,4517.53000007011,"",,,,,,,,{"Q0":"flipper"},
survey-text,321,924900,1812.279999954626,"",,,,,,,,{"Q0":"yard"},
survey-text,322,928560,3654.89499992691,"",,,,,,,,{"Q0":"wagon"},
survey-text,323,929718,1154.3499999679625,"",,,,,,,,{"Q0":"shark"},
survey-text,324,931231,1508.12999997288,"",,,,,,,,{"Q0":"beast"},
survey-text,325,934156,2921.695000026375,"",,,,,,,,{"Q0":"skunk"},
survey-text,326,971538,37379.075000062585,"",,,,,,,,{"Q0":"idk"},
survey-text,327,972587,1045.7649999298155,"",,,,,,,,{"Q0":"idk"},
survey-text,328,973353,762.224999954924,"",,,,,,,,{"Q0":"idk"},
survey-text,329,976093,2736.6100000217557,"",,,,,,,,{"Q0":"idk"},
survey-text,330,977290,1192.700000014156,"",,,,,,,,{"Q0":"idk"},
survey-text,331,978151,856.7850000690669,"",,,,,,,,{"Q0":"idk"},
survey-text,332,978796,640.7300001010299,"",,,,,,,,{"Q0":"dikd"},
survey-text,333,979964,1164.0499997884035,"",,,,,,,,{"Q0":"idk"},
survey-text,334,980595,627.9749998357147,"",,,,,,,,{"Q0":"idk"},
survey-text,335,981276,676.9049998838454,"",,,,,,,,{"Q0":"dikd"},
survey-text,336,984801,3521.3900001253933,"",,,,,,,,{"Q0":"idk"},
survey-text,337,1069193,84389.2099999357,"",,,,,,,,{"Q0":"i"},
html-keyboard-response,338,1080630,11435.560000129044,"<p> Uh oh. You responded correctly on 56% of the GREEN squares.</p>
                  <p>We need you keep your accuracy above 80%</p>
                  <p>Press any key to continue the experiment. Thank you!</p>",32,,,,,,,,
html-keyboard-response,339,1083994,3361.314999870956,"<div style=""font-size:48px;"">Press any key to begin list 5 of 24 </div>",32,,,,,,,,
html-keyboard-response,340,1086502,null,"<div style=""font-size:60px;"">+</div>",null,,,,,,,,
html-keyboard-response,341,1087010,null,"SOFTBALL<img id = ""stim"" ><div class = green_square id = ""topsquare"" ></div><img id = ""stim"" ><div class = green_square  id = ""bottomsquare"" ></div>",null,word_square,,1,,,,,SPACEBAR
html-keyboard-response,342,1088512,null,"SOFTBALL",null,word,,,,, 'SOFTBALL',,
html-keyboard-response,343,1089014,null,"HEADBAND<img id = ""stim"" ><div class = red_square id = ""topsquare"" ></div><img id = ""stim"" ><div class = red_square  id = ""bottomsquare"" ></div>",null,word_square,,0,,,,,SPACEBAR
html-keyboard-response,344,1090520,null,"HEADBAND",null,word,,,,, 'HEADBAND',,
html-keyboard-response,345,1091028,null,"KIDNEY<img id = ""stim"" ><div class = red_square id = ""topsquare"" ></div><img id = ""stim"" ><div class = red_square  id = ""bottomsquare"" ></div>",null,word_square,,0,,,,,SPACEBAR
html-keyboard-response,346,1092530,null,"KIDNEY",null,word,,,,, 'KIDNEY',,
html-keyboard-response,347,1093037,null,"DUNGEON<img id = ""stim"" ><div class = green_square id = ""topsquare"" ></div><img id = ""stim"" ><div class = green_square  id = ""bottomsquare"" ></div>",null,word_square,,1,,,,,SPACEBAR
html-keyboard-response,348,1094540,null,"DUNGEON",null,word,,,,, 'DUNGEON',,
html-keyboard-response,349,1095043,null,"SERPENT<img id = ""stim"" ><div class = red_square id = ""topsquare"" ></div><img id = ""stim"" ><div class = red_square  id = ""bottomsquare"" ></div>",null,word_square,,0,,,,,SPACEBAR
html-keyboard-response,350,1096547,null,"SERPENT",null,word,,,,, 'SERPENT',,
html-keyboard-response,351,1097054,null,"SUNSET<img id = ""stim"" ><div class = red_square id = ""topsquare"" ></div><img id = ""stim"" ><div class = red_square  id = ""bottomsquare"" ></div>",null,word_square,,0,,,,,SPACEBAR
html-keyboard-response,352,1098556,null,"SUNSET",null,word,,,,, 'SUNSET',,
html-keyboard-response,353,1099063,null,"BEAKER<img id = ""stim"" ><div class = green_square id = ""topsquare"" ></div><img id = ""stim"" ><div class = green_square  id = ""bottomsquare"" ></div>",null,word_square,,1,,,,,SPACEBAR
html-keyboard-response,354,1100566,null,"BEAKER",null,word,,,,, 'BEAKER',,
html-keyboard-response,355,1101074,null,"LAMP<img id = ""stim"" ><div class = red_square id = ""topsquare"" ></div><img id = ""stim"" ><div class = red_square  id = ""bottomsquare"" ></div>",null,word_square,,0,,,,,SPACEBAR
html-keyboard-response,356,1102576,null,"LAMP",null,word,,,,, 'LAMP',,
html-keyboard-response,357,1103083,null,"WIDOW<img id = ""stim"" ><div class = green_square id = ""topsquare"" ></div><img id = ""stim"" ><div class = green_square  id = ""bottomsquare"" ></div>",null,word_square,,1,,,,,SPACEBAR
html-keyboard-response,358,1104586,null,"WIDOW",null,word,,,,, 'WIDOW',,
html-keyboard-response,359,1105093,null,"PEOPLE<img id = ""stim"" ><div class = red_square id = ""topsquare"" ></div><img id = ""stim"" ><div class = red_square  id = ""bottomsquare"" ></div>",null,word_square,,0,,,,,SPACEBAR
html-keyboard-response,360,1106595,null,"PEOPLE",null,word,,,,, 'PEOPLE',,
html-keyboard-response,361,1107102,null,"CRICKET<img id = ""stim"" ><div class = green_square id = ""topsquare"" ></div><img id = ""stim"" ><div class = green_square  id = ""bottomsquare"" ></div>",null,word_square,,1,,,,,SPACEBAR
html-keyboard-response,362,1108604,null,"CRICKET",null,word,,,,, 'CRICKET',,
html-keyboard-response,363,1109110,null,"BANDIT<img id = ""stim"" ><div class = green_square id = ""topsquare"" ></div><img id = ""stim"" ><div class = green_square  id = ""bottomsquare"" ></div>",null,word_square,,1,,,,,SPACEBAR
html-keyboard-response,364,1110613,null,"BANDIT",null,word,,,,, 'BANDIT',,
html-keyboard-response,365,1111120,null,"SPHINX<img id = ""stim"" ><div class = red_square id = ""topsquare"" ></div><img id = ""stim"" ><div class = red_square  id = ""bottomsquare"" ></div>",null,word_square,,0,,,,,SPACEBAR
html-keyboard-response,366,1112623,null,"SPHINX",null,word,,,,, 'SPHINX',,
html-keyboard-response,367,1113127,null,"PANTHER<img id = ""stim"" ><div class = red_square id = ""topsquare"" ></div><img id = ""stim"" ><div class = red_square  id = ""bottomsquare"" ></div>",null,word_square,,0,,,,,SPACEBAR
html-keyboard-response,368,1114631,null,"PANTHER",null,word,,,,, 'PANTHER',,
html-keyboard-response,369,1115135,null,"BATHTUB<img id = ""stim"" ><div class = green_square id = ""topsquare"" ></div><img id = ""stim"" ><div class = green_square  id = ""bottomsquare"" ></div>",null,word_square,,1,,,,,SPACEBAR
html-keyboard-response,370,1116640,null,"BATHTUB",null,word,,,,, 'BATHTUB',,
html-keyboard-response,371,1117145,null,"CANAL<img id = ""stim"" ><div class = green_square id = ""topsquare"" ></div><img id = ""stim"" ><div class = green_square  id = ""bottomsquare"" ></div>",null,word_square,,1,,,,,SPACEBAR
html-keyboard-response,372,1118647,null,"CANAL",null,word,,,,, 'CANAL',,
html-keyboard-response,373,1119154,null,"QUARTER<img id = ""stim"" ><div class = red_square id = ""topsquare"" ></div><img id = ""stim"" ><div class = red_square  id = ""bottomsquare"" ></div>",null,word_square,,0,,,,,SPACEBAR
html-keyboard-response,374,1120657,null,"QUARTER",null,word,,,,, 'QUARTER',,
html-keyboard-response,375,1121161,null,"BANK<img id = ""stim"" ><div class = green_square id = ""topsquare"" ></div><img id = ""stim"" ><div class = green_square  id = ""bottomsquare"" ></div>",null,word_square,,1,,,,,SPACEBAR
html-keyboard-response,376,1122666,null,"BANK",null,word,,,,, 'BANK',,
survey-text,377,1125222,2551.1999998707324,"",,,,,,,,{"Q0":"2"},
survey-text,378,1126226,999.5099999941885,"",,,,,,,,{"Q0":"2"},
survey-text,379,1128517,2286.450000014156,"",,,,,,,,{"Q0":"0"},
survey-text,380,1129877,1356.3949998933822,"",,,,,,,,{"Q0":"4"},
survey-text,381,1133036,3154.249999905005,"",,,,,,,,{"Q0":"2"},
survey-text,382,1135235,2194.7999999392778,"",,,,,,,,{"Q0":"1"},
survey-text,383,1136617,1377.7550000231713,"",,,,,,,,{"Q0":"3"},
survey-text,384,1138742,2121.335000032559,"",,,,,,,,{"Q0":"5"},
survey-text,385,1140019,1271.1650000419468,"",,,,,,,,{"Q0":"4"},
survey-text,386,1141161,1137.5600001774728,"",,,,,,,,{"Q0":"3"},
survey-text,387,1142736,1570.4699999187142,"",,,,,,,,{"Q0":"5"},
survey-text,388,1143918,1177.4500000756234,"",,,,,,,,{"Q0":"5"},
survey-text,389,1145049,1126.5549999661744,"",,,,,,,,{"Q0":"3"},
survey-text,390,1146937,1883.4400000050664,"",,,,,,,,{"Q0":"5"},
survey-text,391,1150616,3675.2700000070035,"",,,,,,,,{"Q0":"headband"},
survey-text,392,1152432,1810.994999948889,"",,,,,,,,{"Q0":"softball"},
survey-text,393,1154579,2142.3599999397993,"",,,,,,,,{"Q0":"dungeon"},
survey-text,394,1155917,1334.9299998953938,"",,,,,,,,{"Q0":"kidney"},
survey-text,395,1159624,3703.250000020489,"",,,,,,,,{"Q0":"serpent"},
survey-text,396,1161487,1858.6099999956787,"",,,,,,,,{"Q0":"sunset"},
survey-text,397,1167715,6224.114999873564,"",,,,,,,,{"Q0":"beach"},
survey-text,398,1169123,1404.7799999825656,"",,,,,,,,{"Q0":"canal"},
survey-text,399,1211539,42412.29999996722,"",,,,,,,,{"Q0":"bank"},
survey-text,400,1216163,4619.184999959543,"",,,,,,,,{"Q0":"merchant"},
survey-text,401,1250122,33955.674999859184,"",,,,,,,,{"Q0":"drift"},
html-keyboard-response,402,1256934,6809.235000051558,"<p> Uh oh. You responded correctly on 56% of the GREEN squares.</p>
                  <p>We need you keep your accuracy above 80%</p>
                  <p>Press any key to continue the experiment. Thank you!</p>",32,,,,,,,,
html-keyboard-response,403,1257881,944.2899997811764,"<div style=""font-size:48px;"">Press any key to begin list 6 of 24 </div>",32,,,,,,,,
html-keyboard-response,404,1260387,null,"<div style=""font-size:60px;"">+</div>",null,,,,,,,,
html-keyboard-response,405,1260894,null,"GREASE<img id = ""stim"" ><div class = green_square id = ""topsquare"" ></div><img id = ""stim"" ><div class = green_square  id = ""bottomsquare"" ></div>",null,word_square,,1,,,,,SPACEBAR
html-keyboard-response,406,1262396,null,"GREASE",null,word,,,,, 'GREASE',,
html-keyboard-response,407,1262901,null,"VALVE<img id = ""stim"" ><div class = red_square id = ""topsquare"" ></div><img id = ""stim"" ><div class = red_square  id = ""bottomsquare"" ></div>",null,word_square,,0,,,,,SPACEBAR
html-keyboard-response,408,1264407,null,"VALVE",null,word,,,,, 'VALVE',,
html-keyboard-response,409,1264914,null,"SCOTCH<img id = ""stim"" ><div class = red_square id = ""topsquare"" ></div><img id = ""stim"" ><div class = red_square  id = ""bottomsquare"" ></div>",null,word_square,,0,,,,,SPACEBAR
html-keyboard-response,410,1266416,null,"SCOTCH",null,word,,,,, 'SCOTCH',,
html-keyboard-response,411,1266924,null,"MONARCH<img id = ""stim"" ><div class = green_square id = ""topsquare"" ></div><img id = ""stim"" ><div class = green_square  id = ""bottomsquare"" ></div>",null,word_square,,1,,,,,SPACEBAR
html-keyboard-response,412,1268426,null,"MONARCH",null,word,,,,, 'MONARCH',,
html-keyboard-response,413,1268933,null,"SCAPEGOAT<img id = ""stim"" ><div class = red_square id = ""topsquare"" ></div><img id = ""stim"" ><div class = red_square  id = ""bottomsquare"" ></div>",null,word_square,,0,,,,,SPACEBAR
html-keyboard-response,414,1270436,null,"SCAPEGOAT",null,word,,,,, 'SCAPEGOAT',,
html-keyboard-response,415,1270944,null,"VIKING<img id = ""stim"" ><div class = red_square id = ""topsquare"" ></div><img id = ""stim"" ><div class = red_square  id = ""bottomsquare"" ></div>",null,word_square,,0,,,,,SPACEBAR
html-keyboard-response,416,1272451,null,"VIKING",null,word,,,,, 'VIKING',,
html-keyboard-response,417,1272958,null,"DRINK<img id = ""stim"" ><div class = green_square id = ""topsquare"" ></div><img id = ""stim"" ><div class = green_square  id = ""bottomsquare"" ></div>",null,word_square,,1,,,,,SPACEBAR
html-keyboard-response,418,1274460,null,"DRINK",null,word,,,,, 'DRINK',,
html-keyboard-response,419,1274965,null,"PEACH<img id = ""stim"" ><div class = red_square id = ""topsquare"" ></div><img id = ""stim"" ><div class = red_square  id = ""bottomsquare"" ></div>",null,word_square,,0,,,,,SPACEBAR
html-keyboard-response,420,1276469,null,"PEACH",null,word,,,,, 'PEACH',,
html-keyboard-response,421,1276974,null,"NAPKIN<img id = ""stim"" ><div class = green_square id = ""topsquare"" ></div><img id = ""stim"" ><div class = green_square  id = ""bottomsquare"" ></div>",null,word_square,,1,,,,,SPACEBAR
html-keyboard-response,422,1278479,null,"NAPKIN",null,word,,,,, 'NAPKIN',,
html-keyboard-response,423,1278982,null,"AUTHOR<img id = ""stim"" ><div class = red_square id = ""topsquare"" ></div><img id = ""stim"" ><div class = red_square  id = ""bottomsquare"" ></div>",null,word_square,,0,,,,,SPACEBAR
html-keyboard-response,424,1280487,null,"AUTHOR",null,word,,,,, 'AUTHOR',,
html-keyboard-response,425,1280992,null,"NOVEL<img id = ""stim"" ><div class = green_square id = ""topsquare"" ></div><img id = ""stim"" ><div class = green_square  id = ""bottomsquare"" ></div>",null,word_square,,1,,,,,SPACEBAR
html-keyboard-response,426,1282496,null,"NOVEL",null,word,,,,, 'NOVEL',,
html-keyboard-response,427,1283004,null,"HOUSE<img id = ""stim"" ><div class = green_square id = ""topsquare"" ></div><img id = ""stim"" ><div class = green_square  id = ""bottomsquare"" ></div>",null,word_square,,1,,,,,SPACEBAR
html-keyboard-response,428,1284506,null,"HOUSE",null,word,,,,, 'HOUSE',,
html-keyboard-response,429,1285013,null,"RECORD<img id = ""stim"" ><div class = red_square id = ""topsquare"" ></div><img id = ""stim"" ><div class = red_square  id = ""bottomsquare"" ></div>",null,word_square,,0,,,,,SPACEBAR
html-keyboard-response,430,1286515,null,"RECORD",null,word,,,,, 'RECORD',,
html-keyboard-response,431,1287022,null,"BUG<img id = ""stim"" ><div class = red_square id = ""topsquare"" ></div><img id = ""stim"" ><div class = red_square  id = ""bottomsquare"" ></div>",null,word_square,,0,,,,,SPACEBAR
html-keyboard-response,432,1288525,null,"BUG",null,word,,,,, 'BUG',,
html-keyboard-response,433,1288938,411.14500002004206,"WASP<img id = ""stim"" ><div class = green_square id = ""topsquare"" ></div><img id = ""stim"" ><div class = green_square  id = ""bottomsquare"" ></div>",32,word_square,,1,,,,,SPACEBAR
html-keyboard-response,434,1290443,null,"WASP",null,word,,,,, 'WASP',,
html-keyboard-response,435,1290950,null,"LODGE<img id = ""stim"" ><div class = green_square id = ""topsquare"" ></div><img id = ""stim"" ><div class = green_square  id = ""bottomsquare"" ></div>",null,word_square,,1,,,,,SPACEBAR
html-keyboard-response,436,1292458,null,"LODGE",null,word,,,,, 'LODGE',,
html-keyboard-response,437,1292964,null,"CIRCUS<img id = ""stim"" ><div class = red_square id = ""topsquare"" ></div><img id = ""stim"" ><div class = red_square  id = ""bottomsquare"" ></div>",null,word_square,,0,,,,,SPACEBAR
html-keyboard-response,438,1294471,null,"CIRCUS",null,word,,,,, 'CIRCUS',,
html-keyboard-response,439,1294977,null,"RULER<img id = ""stim"" ><div class = green_square id = ""topsquare"" ></div><img id = ""stim"" ><div class = green_square  id = ""bottomsquare"" ></div>",null,word_square,,1,,,,,SPACEBAR
html-keyboard-response,440,1296485,null,"RULER",null,word,,,,, 'RULER',,
survey-text,441,1297894,1404.8049999400973,"",,,,,,,,{"Q0":"3"},
survey-text,442,1300228,2330.8650001417845,"",,,,,,,,{"Q0":"0"},
survey-text,443,1301578,1345.2400001697242,"",,,,,,,,{"Q0":"1"},
survey-text,444,1302327,744.9199999682605,"",,,,,,,,{"Q0":"1"},
survey-text,445,1305514,3181.9450000766665,"",,,,,,,,{"Q0":"1"},
survey-text,446,1308226,2707.759999902919,"",,,,,,,,{"Q0":"0"},
survey-text,447,1309813,1582.5549999717623,"",,,,,,,,{"Q0":"1"},
survey-text,448,1310955,1137.6050000544637,"",,,,,,,,{"Q0":"3"},
survey-text,449,1312149,1188.8550000730902,"",,,,,,,,{"Q0":"2"},
survey-text,450,1315252,3099.0699999965727,"",,,,,,,,{"Q0":"2"},
survey-text,451,1316480,1223.740000044927,"",,,,,,,,{"Q0":"3"},
survey-text,452,1317751,1266.0550000146031,"",,,,,,,,{"Q0":"6"},
survey-text,453,1318913,1158.8649998884648,"",,,,,,,,{"Q0":"3"},
survey-text,454,1320815,1897.5450000725687,"",,,,,,,,{"Q0":"2"},
survey-text,455,1323609,2790.389999980107,"",,,,,,,,{"Q0":"grease"},
survey-text,456,1325076,1463.2800000254065,"",,,,,,,,{"Q0":"valve"},
survey-text,457,1327874,2793.6050000134856,"",,,,,,,,{"Q0":"scoth"},
survey-text,458,1333167,5288.36499992758,"",,,,,,,,{"Q0":"scotch"},
survey-text,459,1334699,1526.1450000107288,"",,,,,,,,{"Q0":"author"},
survey-text,460,1336094,1391.0950000863522,"",,,,,,,,{"Q0":"book"},
survey-text,461,1337419,1320.3900000080466,"",,,,,,,,{"Q0":"house"},
survey-text,462,1342754,5331.405000062659,"",,,,,,,,{"Q0":"monarch "},
survey-text,463,1347470,4711.06499992311,"",,,,,,,,{"Q0":"viking"},
survey-text,464,1351894,4419.6699999738485,"",,,,,,,,{"Q0":"bug"},
survey-text,465,1353509,1610.5400000233203,"",,,,,,,,{"Q0":"lodge"},
survey-text,466,1356876,3363.365000113845,"",,,,,,,,{"Q0":"bee"},
survey-text,467,1400394,43514.72999993712,"",,,,,,,,{"Q0":"idk"},
html-keyboard-response,468,1403208,2810.3750001173466,"<p> Uh oh. You responded correctly on 56% of the GREEN squares.</p>
                  <p>We need you keep your accuracy above 80%</p>
                  <p>Press any key to continue the experiment. Thank you!</p>",32,,,,,,,,
html-keyboard-response,469,1404341,1132.1250000037253,"<div style=""font-size:48px;"">Press any key to begin list 7 of 24 </div>",32,,,,,,,,
html-keyboard-response,470,1406845,null,"<div style=""font-size:60px;"">+</div>",null,,,,,,,,
html-keyboard-response,471,1407352,null,"PENCIL<img id = ""stim"" ><div class = red_square id = ""topsquare"" ></div><img id = ""stim"" ><div class = red_square  id = ""bottomsquare"" ></div>",null,word_square,,0,,,,,SPACEBAR
html-keyboard-response,472,1408856,null,"PENCIL",null,word,,,,, 'PENCIL',,
html-keyboard-response,473,1409362,null,"TREAT<img id = ""stim"" ><div class = green_square id = ""topsquare"" ></div><img id = ""stim"" ><div class = green_square  id = ""bottomsquare"" ></div>",null,word_square,,1,,,,,SPACEBAR
html-keyboard-response,474,1410864,null,"TREAT",null,word,,,,, 'TREAT',,
html-keyboard-response,475,1411370,null,"FOX<img id = ""stim"" ><div class = green_square id = ""topsquare"" ></div><img id = ""stim"" ><div class = green_square  id = ""bottomsquare"" ></div>",null,word_square,,1,,,,,SPACEBAR
html-keyboard-response,476,1412873,null,"FOX",null,word,,,,, 'FOX',,
html-keyboard-response,477,1413380,null,"BRANDY<img id = ""stim"" ><div class = red_square id = ""topsquare"" ></div><img id = ""stim"" ><div class = red_square  id = ""bottomsquare"" ></div>",null,word_square,,0,,,,,SPACEBAR
html-keyboard-response,478,1414883,null,"BRANDY",null,word,,,,, 'BRANDY',,
html-keyboard-response,479,1415386,null,"BOARD<img id = ""stim"" ><div class = green_square id = ""topsquare"" ></div><img id = ""stim"" ><div class = green_square  id = ""bottomsquare"" ></div>",null,word_square,,1,,,,,SPACEBAR
html-keyboard-response,480,1416891,null,"BOARD",null,word,,,,, 'BOARD',,
html-keyboard-response,481,1417397,null,"BUTLER<img id = ""stim"" ><div class = green_square id = ""topsquare"" ></div><img id = ""stim"" ><div class = green_square  id = ""bottomsquare"" ></div>",null,word_square,,1,,,,,SPACEBAR
html-keyboard-response,482,1418900,null,"BUTLER",null,word,,,,, 'BUTLER',,
html-keyboard-response,483,1419407,null,"MOP<img id = ""stim"" ><div class = red_square id = ""topsquare"" ></div><img id = ""stim"" ><div class = red_square  id = ""bottomsquare"" ></div>",null,word_square,,0,,,,,SPACEBAR
html-keyboard-response,484,1420910,null,"MOP",null,word,,,,, 'MOP',,
html-keyboard-response,485,1421413,null,"RUG<img id = ""stim"" ><div class = green_square id = ""topsquare"" ></div><img id = ""stim"" ><div class = green_square  id = ""bottomsquare"" ></div>",null,word_square,,1,,,,,SPACEBAR
html-keyboard-response,486,1422919,null,"RUG",null,word,,,,, 'RUG',,
html-keyboard-response,487,1423427,null,"LITTER<img id = ""stim"" ><div class = red_square id = ""topsquare"" ></div><img id = ""stim"" ><div class = red_square  id = ""bottomsquare"" ></div>",null,word_square,,0,,,,,SPACEBAR
html-keyboard-response,488,1424929,null,"LITTER",null,word,,,,, 'LITTER',,
html-keyboard-response,489,1425420,489.2499998677522,"WRENCH<img id = ""stim"" ><div class = green_square id = ""topsquare"" ></div><img id = ""stim"" ><div class = green_square  id = ""bottomsquare"" ></div>",32,word_square,,1,,,,,SPACEBAR
html-keyboard-response,490,1426927,null,"WRENCH",null,word,,,,, 'WRENCH',,
html-keyboard-response,491,1427435,null,"COUNTRY<img id = ""stim"" ><div class = red_square id = ""topsquare"" ></div><img id = ""stim"" ><div class = red_square  id = ""bottomsquare"" ></div>",null,word_square,,0,,,,,SPACEBAR
html-keyboard-response,492,1428939,null,"COUNTRY",null,word,,,,, 'COUNTRY',,
html-keyboard-response,493,1429445,null,"JAPAN<img id = ""stim"" ><div class = red_square id = ""topsquare"" ></div><img id = ""stim"" ><div class = red_square  id = ""bottomsquare"" ></div>",null,word_square,,0,,,,,SPACEBAR
html-keyboard-response,494,1430951,null,"JAPAN",null,word,,,,, 'JAPAN',,
html-keyboard-response,495,1431456,null,"GAVEL<img id = ""stim"" ><div class = green_square id = ""topsquare"" ></div><img id = ""stim"" ><div class = green_square  id = ""bottomsquare"" ></div>",null,word_square,,1,,,,,SPACEBAR
html-keyboard-response,496,1432961,null,"GAVEL",null,word,,,,, 'GAVEL',,
html-keyboard-response,497,1433469,null,"CHAMPAGNE<img id = ""stim"" ><div class = green_square id = ""topsquare"" ></div><img id = ""stim"" ><div class = green_square  id = ""bottomsquare"" ></div>",null,word_square,,1,,,,,SPACEBAR
html-keyboard-response,498,1434972,null,"CHAMPAGNE",null,word,,,,, 'CHAMPAGNE',,
html-keyboard-response,499,1435481,null,"MILDEW<img id = ""stim"" ><div class = red_square id = ""topsquare"" ></div><img id = ""stim"" ><div class = red_square  id = ""bottomsquare"" ></div>",null,word_square,,0,,,,,SPACEBAR
html-keyboard-response,500,1436984,null,"MILDEW",null,word,,,,, 'MILDEW',,
html-keyboard-response,501,1437489,null,"VAGRANT<img id = ""stim"" ><div class = red_square id = ""topsquare"" ></div><img id = ""stim"" ><div class = red_square  id = ""bottomsquare"" ></div>",null,word_square,,0,,,,,SPACEBAR
html-keyboard-response,502,1438992,null,"VAGRANT",null,word,,,,, 'VAGRANT',,
html-keyboard-response,503,1439455,460.9300000593066,"SANDWICH<img id = ""stim"" ><div class = green_square id = ""topsquare"" ></div><img id = ""stim"" ><div class = green_square  id = ""bottomsquare"" ></div>",32,word_square,,1,,,,,SPACEBAR
html-keyboard-response,504,1440961,null,"SANDWICH",null,word,,,,, 'SANDWICH',,
html-keyboard-response,505,1441464,null,"BEETLE<img id = ""stim"" ><div class = red_square id = ""topsquare"" ></div><img id = ""stim"" ><div class = red_square  id = ""bottomsquare"" ></div>",null,word_square,,0,,,,,SPACEBAR
html-keyboard-response,506,1442968,null,"BEETLE",null,word,,,,, 'BEETLE',,
survey-text,507,1444857,1884.1049999464303,"",,,,,,,,{"Q0":"2"},
survey-text,508,1445947,1085.939999902621,"",,,,,,,,{"Q0":"3"},
survey-text,509,1447149,1197.4549998994917,"",,,,,,,,{"Q0":"2"},
survey-text,510,1448445,1291.925000026822,"",,,,,,,,{"Q0":"5"},
survey-text,511,1449471,1021.1399998515844,"",,,,,,,,{"Q0":"3"},
survey-text,512,1450209,734.5700000878423,"",,,,,,,,{"Q0":"3"},
survey-text,513,1453168,2954.145000083372,"",,,,,,,,{"Q0":"1"},
survey-text,514,1454807,1635.0150001235306,"",,,,,,,,{"Q0":"4"},
survey-text,515,1456883,2071.405000053346,"",,,,,,,,{"Q0":"1"},
survey-text,516,1459480,2592.3899998888373,"",,,,,,,,{"Q0":"1"},
survey-text,517,1460586,1103.1050002202392,"",,,,,,,,{"Q0":"3"},
survey-text,518,1462090,1499.3000000249594,"",,,,,,,,{"Q0":"6"},
survey-text,519,1463156,1062.0549998711795,"",,,,,,,,{"Q0":"3"},
survey-text,520,1464231,1069.829999934882,"",,,,,,,,{"Q0":"3"},
survey-text,521,1466026,1791.0000002011657,"",,,,,,,,{"Q0":"2"},
survey-text,522,1467467,1435.4150001890957,"",,,,,,,,{"Q0":"4"},
survey-text,523,1471118,3647.4200000520796,"",,,,,,,,{"Q0":"board"},
survey-text,524,1472197,1073.3000000473112,"",,,,,,,,{"Q0":"fox"},
survey-text,525,1474831,2629.5000000391155,"",,,,,,,,{"Q0":"treat "},
survey-text,526,1476695,1859.7599999047816,"",,,,,,,,{"Q0":"pencil"},
survey-text,527,1480547,3846.445000031963,"",,,,,,,,{"Q0":"vagrant"},
survey-text,528,1483375,2821.724999928847,"",,,,,,,,{"Q0":"litter"},
survey-text,529,1484350,970.9900000598282,"",,,,,,,,{"Q0":"rug "},
survey-text,530,1486513,2157.324999803677,"",,,,,,,,{"Q0":"box"},
survey-text,531,1519613,33096.72000003047,"",,,,,,,,{"Q0":"fox"},
survey-text,532,1535669,16050.8550000377,"",,,,,,,,{"Q0":"idk"},
survey-text,533,1585081,49408.05500000715,"",,,,,,,,{"Q0":"briske"},
html-keyboard-response,534,1593123,8039.280000142753,"<p> Uh oh. You responded correctly on 56% of the GREEN squares.</p>
                  <p>We need you keep your accuracy above 80%</p>
                  <p>Press any key to continue the experiment. Thank you!</p>",78,,,,,,,,
html-keyboard-response,535,1599617,6491.415000054985,"<div style=""font-size:48px;"">Press any key to begin list 8 of 24 </div>",32,,,,,,,,
html-keyboard-response,536,1602123,null,"<div style=""font-size:60px;"">+</div>",null,,,,,,,,
html-keyboard-response,537,1602629,null,"VAMPIRE<img id = ""stim"" ><div class = red_square id = ""topsquare"" ></div><img id = ""stim"" ><div class = red_square  id = ""bottomsquare"" ></div>",null,word_square,,0,,,,,SPACEBAR
html-keyboard-response,538,1604131,null,"VAMPIRE",null,word,,,,, 'VAMPIRE',,
html-keyboard-response,539,1604637,null,"INSECT<img id = ""stim"" ><div class = green_square id = ""topsquare"" ></div><img id = ""stim"" ><div class = green_square  id = ""bottomsquare"" ></div>",null,word_square,,1,,,,,SPACEBAR
html-keyboard-response,540,1606140,null,"INSECT",null,word,,,,, 'INSECT',,
html-keyboard-response,541,1606645,null,"TWIG<img id = ""stim"" ><div class = green_square id = ""topsquare"" ></div><img id = ""stim"" ><div class = green_square  id = ""bottomsquare"" ></div>",null,word_square,,1,,,,,SPACEBAR
html-keyboard-response,542,1608148,null,"TWIG",null,word,,,,, 'TWIG',,
html-keyboard-response,543,1608654,null,"SHRUB<img id = ""stim"" ><div class = red_square id = ""topsquare"" ></div><img id = ""stim"" ><div class = red_square  id = ""bottomsquare"" ></div>",null,word_square,,0,,,,,SPACEBAR
html-keyboard-response,544,1610157,null,"SHRUB",null,word,,,,, 'SHRUB',,
html-keyboard-response,545,1610664,null,"DRILL<img id = ""stim"" ><div class = green_square id = ""topsquare"" ></div><img id = ""stim"" ><div class = green_square  id = ""bottomsquare"" ></div>",null,word_square,,1,,,,,SPACEBAR
html-keyboard-response,546,1612167,null,"DRILL",null,word,,,,, 'DRILL',,
html-keyboard-response,547,1612670,null,"DIVER<img id = ""stim"" ><div class = green_square id = ""topsquare"" ></div><img id = ""stim"" ><div class = green_square  id = ""bottomsquare"" ></div>",null,word_square,,1,,,,,SPACEBAR
html-keyboard-response,548,1614177,null,"DIVER",null,word,,,,, 'DIVER',,
html-keyboard-response,549,1614681,null,"BUBBLE<img id = ""stim"" ><div class = red_square id = ""topsquare"" ></div><img id = ""stim"" ><div class = red_square  id = ""bottomsquare"" ></div>",null,word_square,,0,,,,,SPACEBAR
html-keyboard-response,550,1616186,null,"BUBBLE",null,word,,,,, 'BUBBLE',,
html-keyboard-response,551,1616682,494.9749999213964,"BREAST<img id = ""stim"" ><div class = green_square id = ""topsquare"" ></div><img id = ""stim"" ><div class = green_square  id = ""bottomsquare"" ></div>",32,word_square,,1,,,,,SPACEBAR
html-keyboard-response,552,1618188,null,"BREAST",null,word,,,,, 'BREAST',,
html-keyboard-response,553,1618693,null,"CREVICE<img id = ""stim"" ><div class = red_square id = ""topsquare"" ></div><img id = ""stim"" ><div class = red_square  id = ""bottomsquare"" ></div>",null,word_square,,0,,,,,SPACEBAR
html-keyboard-response,554,1620197,null,"CREVICE",null,word,,,,, 'CREVICE',,
html-keyboard-response,555,1620700,null,"DRUG<img id = ""stim"" ><div class = green_square id = ""topsquare"" ></div><img id = ""stim"" ><div class = green_square  id = ""bottomsquare"" ></div>",null,word_square,,1,,,,,SPACEBAR
html-keyboard-response,556,1622206,null,"DRUG",null,word,,,,, 'DRUG',,
html-keyboard-response,557,1622714,null,"FIGHTER<img id = ""stim"" ><div class = red_square id = ""topsquare"" ></div><img id = ""stim"" ><div class = red_square  id = ""bottomsquare"" ></div>",null,word_square,,0,,,,,SPACEBAR
html-keyboard-response,558,1624216,null,"FIGHTER",null,word,,,,, 'FIGHTER',,
html-keyboard-response,559,1624723,null,"GRILL<img id = ""stim"" ><div class = red_square id = ""topsquare"" ></div><img id = ""stim"" ><div class = red_square  id = ""bottomsquare"" ></div>",null,word_square,,0,,,,,SPACEBAR
html-keyboard-response,560,1626226,null,"GRILL",null,word,,,,, 'GRILL',,
html-keyboard-response,561,1626731,null,"SHAMPOO<img id = ""stim"" ><div class = green_square id = ""topsquare"" ></div><img id = ""stim"" ><div class = green_square  id = ""bottomsquare"" ></div>",null,word_square,,1,,,,,SPACEBAR
html-keyboard-response,562,1628234,null,"SHAMPOO",null,word,,,,, 'SHAMPOO',,
html-keyboard-response,563,1628741,null,"SKILLET<img id = ""stim"" ><div class = green_square id = ""topsquare"" ></div><img id = ""stim"" ><div class = green_square  id = ""bottomsquare"" ></div>",null,word_square,,1,,,,,SPACEBAR
html-keyboard-response,564,1630243,null,"SKILLET",null,word,,,,, 'SKILLET',,
html-keyboard-response,565,1630750,null,"PUPIL<img id = ""stim"" ><div class = red_square id = ""topsquare"" ></div><img id = ""stim"" ><div class = red_square  id = ""bottomsquare"" ></div>",null,word_square,,0,,,,,SPACEBAR
html-keyboard-response,566,1632252,null,"PUPIL",null,word,,,,, 'PUPIL',,
html-keyboard-response,567,1632759,null,"FLOWER<img id = ""stim"" ><div class = red_square id = ""topsquare"" ></div><img id = ""stim"" ><div class = red_square  id = ""bottomsquare"" ></div>",null,word_square,,0,,,,,SPACEBAR
html-keyboard-response,568,1634262,null,"FLOWER",null,word,,,,, 'FLOWER',,
html-keyboard-response,569,1634769,null,"VALLEY<img id = ""stim"" ><div class = green_square id = ""topsquare"" ></div><img id = ""stim"" ><div class = green_square  id = ""bottomsquare"" ></div>",null,word_square,,1,,,,,SPACEBAR
html-keyboard-response,570,1636274,null,"VALLEY",null,word,,,,, 'VALLEY',,
html-keyboard-response,571,1636781,null,"FRIES<img id = ""stim"" ><div class = red_square id = ""topsquare"" ></div><img id = ""stim"" ><div class = red_square  id = ""bottomsquare"" ></div>",null,word_square,,0,,,,,SPACEBAR
html-keyboard-response,572,1638285,null,"FRIES",null,word,,,,, 'FRIES',,
survey-text,573,1640012,1722.6700000464916,"",,,,,,,,{"Q0":"5"},
survey-text,574,1641247,1230.2200000267476,"",,,,,,,,{"Q0":"4"},
survey-text,575,1643137,1885.1550000254065,"",,,,,,,,{"Q0":"1"},
survey-text,576,1644288,1146.4549999218434,"",,,,,,,,{"Q0":"4"},
survey-text,577,1645594,1300.5999999586493,"",,,,,,,,{"Q0":"4"},
survey-text,578,1649365,3767.049999907613,"",,,,,,,,{"Q0":"1"},
survey-text,579,1650727,1358.2000001333654,"",,,,,,,,{"Q0":"2"},
survey-text,580,1651950,1218.2099998462945,"",,,,,,,,{"Q0":"3"},
survey-text,581,1653224,1269.8749999981374,"",,,,,,,,{"Q0":"4"},
survey-text,582,1654361,1132.4050000403076,"",,,,,,,,{"Q0":"3"},
survey-text,583,1656546,2180.3150000050664,"",,,,,,,,{"Q0":"5"},
survey-text,584,1658650,2099.195000017062,"",,,,,,,,{"Q0":"2"},
survey-text,585,1659938,1284.0549999382347,"",,,,,,,,{"Q0":"3"},
survey-text,586,1661952,2010.3450000751764,"",,,,,,,,{"Q0":"1"},
survey-text,587,1664055,2100.835000164807,"",,,,,,,,{"Q0":"2"},
survey-text,588,1666982,2924.5000001974404,"",,,,,,,,{"Q0":"insect"},
survey-text,589,1668539,1552.9350000433624,"",,,,,,,,{"Q0":"vampire"},
survey-text,590,1670870,2326.6450001392514,"",,,,,,,,{"Q0":"twig"},
survey-text,591,1673569,2694.355000043288,"",,,,,,,,{"Q0":"valley "},
survey-text,592,1676188,2615.209999959916,"",,,,,,,,{"Q0":"flowers"},
survey-text,593,1677796,1604.2749998159707,"",,,,,,,,{"Q0":"pupil"},
survey-text,594,1684184,6382.904999889433,"",,,,,,,,{"Q0":"diver"},
survey-text,595,1706087,21897.515000076964,"",,,,,,,,{"Q0":"grill"},
survey-text,596,1756774,50683.19500004873,"",,,,,,,,{"Q0":"burger"},
html-keyboard-response,597,1759811,3034.5949998591095,"<p> Uh oh. You responded correctly on 56% of the GREEN squares.</p>
                  <p>We need you keep your accuracy above 80%</p>
                  <p>Press any key to continue the experiment. Thank you!</p>",78,,,,,,,,
html-keyboard-response,598,1759824,12.044999981299043,"<div style=""font-size:48px;"">Press any key to begin list 9 of 24 </div>",32,,,,,,,,
html-keyboard-response,599,1762331,null,"<div style=""font-size:60px;"">+</div>",null,,,,,,,,
html-keyboard-response,600,1762836,null,"WATER<img id = ""stim"" ><div class = red_square id = ""topsquare"" ></div><img id = ""stim"" ><div class = red_square  id = ""bottomsquare"" ></div>",null,word_square,,0,,,,,SPACEBAR
html-keyboard-response,601,1764341,null,"WATER",null,word,,,,, 'WATER',,
html-keyboard-response,602,1764848,null,"BRIDGE<img id = ""stim"" ><div class = red_square id = ""topsquare"" ></div><img id = ""stim"" ><div class = red_square  id = ""bottomsquare"" ></div>",null,word_square,,0,,,,,SPACEBAR
html-keyboard-response,603,1766351,null,"BRIDGE",null,word,,,,, 'BRIDGE',,
html-keyboard-response,604,1766855,null,"PAVEMENT<img id = ""stim"" ><div class = green_square id = ""topsquare"" ></div><img id = ""stim"" ><div class = green_square  id = ""bottomsquare"" ></div>",null,word_square,,1,,,,,SPACEBAR
html-keyboard-response,605,1768357,null,"PAVEMENT",null,word,,,,, 'PAVEMENT',,
html-keyboard-response,606,1768864,null,"GAZELLE<img id = ""stim"" ><div class = green_square id = ""topsquare"" ></div><img id = ""stim"" ><div class = green_square  id = ""bottomsquare"" ></div>",null,word_square,,1,,,,,SPACEBAR
html-keyboard-response,607,1770367,null,"GAZELLE",null,word,,,,, 'GAZELLE',,
html-keyboard-response,608,1770875,null,"BROOK<img id = ""stim"" ><div class = green_square id = ""topsquare"" ></div><img id = ""stim"" ><div class = green_square  id = ""bottomsquare"" ></div>",null,word_square,,1,,,,,SPACEBAR
html-keyboard-response,609,1772378,null,"BROOK",null,word,,,,, 'BROOK',,
html-keyboard-response,610,1772884,null,"LAKE<img id = ""stim"" ><div class = red_square id = ""topsquare"" ></div><img id = ""stim"" ><div class = red_square  id = ""bottomsquare"" ></div>",null,word_square,,0,,,,,SPACEBAR
html-keyboard-response,611,1774389,null,"LAKE",null,word,,,,, 'LAKE',,
html-keyboard-response,612,1774896,null,"LUNCH<img id = ""stim"" ><div class = green_square id = ""topsquare"" ></div><img id = ""stim"" ><div class = green_square  id = ""bottomsquare"" ></div>",null,word_square,,1,,,,,SPACEBAR
html-keyboard-response,613,1776399,null,"LUNCH",null,word,,,,, 'LUNCH',,
html-keyboard-response,614,1776895,493.6200000811368,"KITCHEN<img id = ""stim"" ><div class = green_square id = ""topsquare"" ></div><img id = ""stim"" ><div class = green_square  id = ""bottomsquare"" ></div>",32,word_square,,1,,,,,SPACEBAR
html-keyboard-response,615,1778400,null,"KITCHEN",null,word,,,,, 'KITCHEN',,
html-keyboard-response,616,1778908,null,"GANGSTER<img id = ""stim"" ><div class = red_square id = ""topsquare"" ></div><img id = ""stim"" ><div class = red_square  id = ""bottomsquare"" ></div>",null,word_square,,0,,,,,SPACEBAR
html-keyboard-response,617,1780410,null,"GANGSTER",null,word,,,,, 'GANGSTER',,
html-keyboard-response,618,1780880,467.3450000118464,"ELK<img id = ""stim"" ><div class = green_square id = ""topsquare"" ></div><img id = ""stim"" ><div class = green_square  id = ""bottomsquare"" ></div>",32,word_square,,1,,,,,SPACEBAR
html-keyboard-response,619,1782387,null,"ELK",null,word,,,,, 'ELK',,
html-keyboard-response,620,1782895,null,"BEEF<img id = ""stim"" ><div class = red_square id = ""topsquare"" ></div><img id = ""stim"" ><div class = red_square  id = ""bottomsquare"" ></div>",null,word_square,,0,,,,,SPACEBAR
html-keyboard-response,621,1784399,null,"BEEF",null,word,,,,, 'BEEF',,
html-keyboard-response,622,1784906,null,"RIFLE<img id = ""stim"" ><div class = green_square id = ""topsquare"" ></div><img id = ""stim"" ><div class = green_square  id = ""bottomsquare"" ></div>",null,word_square,,1,,,,,SPACEBAR
html-keyboard-response,623,1786412,null,"RIFLE",null,word,,,,, 'RIFLE',,
html-keyboard-response,624,1786917,null,"PALACE<img id = ""stim"" ><div class = red_square id = ""topsquare"" ></div><img id = ""stim"" ><div class = red_square  id = ""bottomsquare"" ></div>",null,word_square,,0,,,,,SPACEBAR
html-keyboard-response,625,1788421,null,"PALACE",null,word,,,,, 'PALACE',,
html-keyboard-response,626,1788927,null,"PUMPKIN<img id = ""stim"" ><div class = red_square id = ""topsquare"" ></div><img id = ""stim"" ><div class = red_square  id = ""bottomsquare"" ></div>",null,word_square,,0,,,,,SPACEBAR
html-keyboard-response,627,1790430,null,"PUMPKIN",null,word,,,,, 'PUMPKIN',,
html-keyboard-response,628,1790935,null,"MEAT<img id = ""stim"" ><div class = green_square id = ""topsquare"" ></div><img id = ""stim"" ><div class = green_square  id = ""bottomsquare"" ></div>",null,word_square,,1,,,,,SPACEBAR
html-keyboard-response,629,1792438,null,"MEAT",null,word,,,,, 'MEAT',,
html-keyboard-response,630,1792946,null,"DOCTOR<img id = ""stim"" ><div class = red_square id = ""topsquare"" ></div><img id = ""stim"" ><div class = red_square  id = ""bottomsquare"" ></div>",null,word_square,,0,,,,,SPACEBAR
html-keyboard-response,631,1794448,null,"DOCTOR",null,word,,,,, 'DOCTOR',,
html-keyboard-response,632,1794955,null,"BUNNY<img id = ""stim"" ><div class = red_square id = ""topsquare"" ></div><img id = ""stim"" ><div class = red_square  id = ""bottomsquare"" ></div>",null,word_square,,0,,,,,SPACEBAR
html-keyboard-response,633,1796460,null,"BUNNY",null,word,,,,, 'BUNNY',,
html-keyboard-response,634,1796964,null,"EMPIRE<img id = ""stim"" ><div class = green_square id = ""topsquare"" ></div><img id = ""stim"" ><div class = green_square  id = ""bottomsquare"" ></div>",null,word_square,,1,,,,,SPACEBAR
html-keyboard-response,635,1798467,null,"EMPIRE",null,word,,,,, 'EMPIRE',,
survey-text,636,1800037,1566.4850000757724,"",,,,,,,,{"Q0":"5"},
survey-text,637,1801186,1144.4099999498576,"",,,,,,,,{"Q0":"3"},
survey-text,638,1802287,1097.7050000801682,"",,,,,,,,{"Q0":"4"},
survey-text,639,1805151,2859.965000068769,"",,,,,,,,{"Q0":"2"},
survey-text,640,1806201,1046.834999928251,"",,,,,,,,{"Q0":"3"},
survey-text,641,1807296,1090.5999999959022,"",,,,,,,,{"Q0":"3"},
survey-text,642,1809035,1732.9049999825656,"",,,,,,,,{"Q0":"5"},
survey-text,643,1810661,1622.484999941662,"",,,,,,,,{"Q0":"1"},
survey-text,644,1812766,2100.530000170693,"",,,,,,,,{"Q0":"3"},
survey-text,645,1814100,1330.2499998826534,"",,,,,,,,{"Q0":"4"},
survey-text,646,1815256,1151.985000120476,"",,,,,,,,{"Q0":"5"},
survey-text,647,1816396,1134.885000064969,"",,,,,,,,{"Q0":"6"},
survey-text,648,1817818,1417.4049999564886,"",,,,,,,,{"Q0":"4"},
survey-text,649,1819653,1831.1499999836087,"",,,,,,,,{"Q0":"3"},
survey-text,650,1820825,1167.0699999667704,"",,,,,,,,{"Q0":"3"},
survey-text,651,1822165,1335.674999980256,"",,,,,,,,{"Q0":"5"},
survey-text,652,1823232,1062.1350000146776,"",,,,,,,,{"Q0":"3"},
survey-text,653,1826585,3347.980000078678,"",,,,,,,,{"Q0":"bridge"},
survey-text,654,1827703,1113.6300000362098,"",,,,,,,,{"Q0":"water"},
survey-text,655,1829985,2275.9450001176447,"",,,,,,,,{"Q0":"pavement"},
survey-text,656,1831347,1357.0999999064952,"",,,,,,,,{"Q0":"brook"},
survey-text,657,1832565,1213.2600001059473,"",,,,,,,,{"Q0":"meat"},
survey-text,658,1833925,1354.9150000326335,"",,,,,,,,{"Q0":"beef"},
survey-text,659,1836333,2403.124999953434,"",,,,,,,,{"Q0":"palace"},
survey-text,660,1847666,11328.615000005811,"",,,,,,,,{"Q0":"pumpkin"},
survey-text,661,1878293,30623.275000136346,"",,,,,,,,{"Q0":"elk"},
survey-text,662,1933807,55511.17999991402,"",,,,,,,,{"Q0":" "},
html-keyboard-response,663,1934815,1005.6599997915328,"<p> Uh oh. You responded correctly on 56% of the GREEN squares.</p>
                  <p>We need you keep your accuracy above 80%</p>
                  <p>Press any key to continue the experiment. Thank you!</p>",32,,,,,,,,
html-keyboard-response,664,1936772,1954.8750000540167,"<div style=""font-size:48px;"">Press any key to begin list 10 of 24 </div>",32,,,,,,,,
html-keyboard-response,665,1939277,null,"<div style=""font-size:60px;"">+</div>",null,,,,,,,,
html-keyboard-response,666,1939780,null,"NIGHTGOWN<img id = ""stim"" ><div class = red_square id = ""topsquare"" ></div><img id = ""stim"" ><div class = red_square  id = ""bottomsquare"" ></div>",null,word_square,,0,,,,,SPACEBAR
html-keyboard-response,667,1941284,null,"NIGHTGOWN",null,word,,,,, 'NIGHTGOWN',,
html-keyboard-response,668,1941792,null,"DUSTPAN<img id = ""stim"" ><div class = red_square id = ""topsquare"" ></div><img id = ""stim"" ><div class = red_square  id = ""bottomsquare"" ></div>",null,word_square,,0,,,,,SPACEBAR
html-keyboard-response,669,1943294,null,"DUSTPAN",null,word,,,,, 'DUSTPAN',,
html-keyboard-response,670,1943801,null,"ROACH<img id = ""stim"" ><div class = green_square id = ""topsquare"" ></div><img id = ""stim"" ><div class = green_square  id = ""bottomsquare"" ></div>",null,word_square,,1,,,,,SPACEBAR
html-keyboard-response,671,1945304,null,"ROACH",null,word,,,,, 'ROACH',,
html-keyboard-response,672,1945811,null,"CROOK<img id = ""stim"" ><div class = green_square id = ""topsquare"" ></div><img id = ""stim"" ><div class = green_square  id = ""bottomsquare"" ></div>",null,word_square,,1,,,,,SPACEBAR
html-keyboard-response,673,1947314,null,"CROOK",null,word,,,,, 'CROOK',,
html-keyboard-response,674,1947821,null,"DRAGON<img id = ""stim"" ><div class = green_square id = ""topsquare"" ></div><img id = ""stim"" ><div class = green_square  id = ""bottomsquare"" ></div>",null,word_square,,1,,,,,SPACEBAR
html-keyboard-response,675,1949324,null,"DRAGON",null,word,,,,, 'DRAGON',,
html-keyboard-response,676,1949831,null,"BLANKET<img id = ""stim"" ><div class = red_square id = ""topsquare"" ></div><img id = ""stim"" ><div class = red_square  id = ""bottomsquare"" ></div>",null,word_square,,0,,,,,SPACEBAR
html-keyboard-response,677,1951335,null,"BLANKET",null,word,,,,, 'BLANKET',,
html-keyboard-response,678,1951844,null,"GRAVE<img id = ""stim"" ><div class = green_square id = ""topsquare"" ></div><img id = ""stim"" ><div class = green_square  id = ""bottomsquare"" ></div>",null,word_square,,1,,,,,SPACEBAR
html-keyboard-response,679,1953347,null,"GRAVE",null,word,,,,, 'GRAVE',,
html-keyboard-response,680,1953850,null,"GUARD<img id = ""stim"" ><div class = green_square id = ""topsquare"" ></div><img id = ""stim"" ><div class = green_square  id = ""bottomsquare"" ></div>",null,word_square,,1,,,,,SPACEBAR
html-keyboard-response,681,1955357,null,"GUARD",null,word,,,,, 'GUARD',,
html-keyboard-response,682,1955865,null,"JACKET<img id = ""stim"" ><div class = red_square id = ""topsquare"" ></div><img id = ""stim"" ><div class = red_square  id = ""bottomsquare"" ></div>",null,word_square,,0,,,,,SPACEBAR
html-keyboard-response,683,1957370,null,"JACKET",null,word,,,,, 'JACKET',,
html-keyboard-response,684,1957877,null,"SILK<img id = ""stim"" ><div class = green_square id = ""topsquare"" ></div><img id = ""stim"" ><div class = green_square  id = ""bottomsquare"" ></div>",null,word_square,,1,,,,,SPACEBAR
html-keyboard-response,685,1959380,null,"SILK",null,word,,,,, 'SILK',,
html-keyboard-response,686,1959888,null,"VELVET<img id = ""stim"" ><div class = red_square id = ""topsquare"" ></div><img id = ""stim"" ><div class = red_square  id = ""bottomsquare"" ></div>",null,word_square,,0,,,,,SPACEBAR
html-keyboard-response,687,1961390,null,"VELVET",null,word,,,,, 'VELVET',,
html-keyboard-response,688,1961897,null,"MAGNET<img id = ""stim"" ><div class = green_square id = ""topsquare"" ></div><img id = ""stim"" ><div class = green_square  id = ""bottomsquare"" ></div>",null,word_square,,1,,,,,SPACEBAR
html-keyboard-response,689,1963399,null,"MAGNET",null,word,,,,, 'MAGNET',,
html-keyboard-response,690,1963905,null,"SCRIBBLE<img id = ""stim"" ><div class = red_square id = ""topsquare"" ></div><img id = ""stim"" ><div class = red_square  id = ""bottomsquare"" ></div>",null,word_square,,0,,,,,SPACEBAR
html-keyboard-response,691,1965410,null,"SCRIBBLE",null,word,,,,, 'SCRIBBLE',,
html-keyboard-response,692,1965627,214.17499985545874,"FRAME<img id = ""stim"" ><div class = red_square id = ""topsquare"" ></div><img id = ""stim"" ><div class = red_square  id = ""bottomsquare"" ></div>",32,word_square,,0,,,,,SPACEBAR
html-keyboard-response,693,1967134,null,"FRAME",null,word,,,,, 'FRAME',,
html-keyboard-response,694,1967642,null,"TURKEY<img id = ""stim"" ><div class = green_square id = ""topsquare"" ></div><img id = ""stim"" ><div class = green_square  id = ""bottomsquare"" ></div>",null,word_square,,1,,,,,SPACEBAR
html-keyboard-response,695,1969149,null,"TURKEY",null,word,,,,, 'TURKEY',,
html-keyboard-response,696,1969652,null,"FACE<img id = ""stim"" ><div class = red_square id = ""topsquare"" ></div><img id = ""stim"" ><div class = red_square  id = ""bottomsquare"" ></div>",null,word_square,,0,,,,,SPACEBAR
html-keyboard-response,697,1971159,null,"FACE",null,word,,,,, 'FACE',,
html-keyboard-response,698,1971667,null,"MATCH<img id = ""stim"" ><div class = red_square id = ""topsquare"" ></div><img id = ""stim"" ><div class = red_square  id = ""bottomsquare"" ></div>",null,word_square,,0,,,,,SPACEBAR
html-keyboard-response,699,1973169,null,"MATCH",null,word,,,,, 'MATCH',,
html-keyboard-response,700,1973677,null,"OMELET<img id = ""stim"" ><div class = green_square id = ""topsquare"" ></div><img id = ""stim"" ><div class = green_square  id = ""bottomsquare"" ></div>",null,word_square,,1,,,,,SPACEBAR
html-keyboard-response,701,1975182,null,"OMELET",null,word,,,,, 'OMELET',,
survey-text,702,1978672,3485.300000058487,"",,,,,,,,{"Q0":"2"},
survey-text,703,1981083,2406.874999869615,"",,,,,,,,{"Q0":"2"},
survey-text,704,1982592,1504.3849998619407,"",,,,,,,,{"Q0":"3"},
survey-text,705,1983813,1214.7600001189858,"",,,,,,,,{"Q0":"3"},
survey-text,706,1985650,1833.2249999511987,"",,,,,,,,{"Q0":"1"},
survey-text,707,1987959,2304.1349998675287,"",,,,,,,,{"Q0":"5"},
survey-text,708,1990144,2180.1950000226498,"",,,,,,,,{"Q0":"4"},
survey-text,709,1991480,1329.8250001389533,"",,,,,,,,{"Q0":"4"},
survey-text,710,1992534,1050.2450000494719,"",,,,,,,,{"Q0":"2"},
survey-text,711,1994702,2164.46499992162,"",,,,,,,,{"Q0":"1"},
survey-text,712,1995814,1107.8949999064207,"",,,,,,,,{"Q0":"1"},
survey-text,713,1997028,1209.2999999877065,"",,,,,,,,{"Q0":"2"},
survey-text,714,1998290,1256.664999993518,"",,,,,,,,{"Q0":"6"},
survey-text,715,1999580,1285.9449998941272,"",,,,,,,,{"Q0":"4"},
survey-text,716,2003599,4015.374999959022,"",,,,,,,,{"Q0":"nightgown"},
survey-text,717,2005056,1453.0100000556558,"",,,,,,,,{"Q0":"silk"},
survey-text,718,2006663,1602.4400000460446,"",,,,,,,,{"Q0":"velvet"},
survey-text,719,2017238,10570.760000031441,"",,,,,,,,{"Q0":"dragon"},
survey-text,720,2020184,2940.8449998591095,"",,,,,,,,{"Q0":"roach"},
survey-text,721,2023631,3442.9550000932068,"",,,,,,,,{"Q0":"dustpan"},
survey-text,722,2106462,82748.6950000748,"",,,,,,,,{"Q0":" "},
html-keyboard-response,723,2109259,2793.769999872893,"<p> Uh oh. You responded correctly on 56% of the GREEN squares.</p>
                  <p>We need you keep your accuracy above 80%</p>
                  <p>Press any key to continue the experiment. Thank you!</p>",32,,,,,,,,
html-keyboard-response,724,2111109,1847.5999999791384,"<div style=""font-size:48px;"">Press any key to begin list 11 of 24 </div>",32,,,,,,,,
html-keyboard-response,725,2113619,null,"<div style=""font-size:60px;"">+</div>",null,,,,,,,,
html-keyboard-response,726,2114123,null,"SNACK<img id = ""stim"" ><div class = green_square id = ""topsquare"" ></div><img id = ""stim"" ><div class = green_square  id = ""bottomsquare"" ></div>",null,word_square,,1,,,,,SPACEBAR
html-keyboard-response,727,2115629,null,"SNACK",null,word,,,,, 'SNACK',,
html-keyboard-response,728,2116134,null,"LETTUCE<img id = ""stim"" ><div class = green_square id = ""topsquare"" ></div><img id = ""stim"" ><div class = green_square  id = ""bottomsquare"" ></div>",null,word_square,,1,,,,,SPACEBAR
html-keyboard-response,729,2117639,null,"LETTUCE",null,word,,,,, 'LETTUCE',,
html-keyboard-response,730,2118145,null,"AIRPLANE<img id = ""stim"" ><div class = red_square id = ""topsquare"" ></div><img id = ""stim"" ><div class = red_square  id = ""bottomsquare"" ></div>",null,word_square,,0,,,,,SPACEBAR
html-keyboard-response,731,2119647,null,"AIRPLANE",null,word,,,,, 'AIRPLANE',,
html-keyboard-response,732,2120155,null,"MARSH<img id = ""stim"" ><div class = red_square id = ""topsquare"" ></div><img id = ""stim"" ><div class = red_square  id = ""bottomsquare"" ></div>",null,word_square,,0,,,,,SPACEBAR
html-keyboard-response,733,2121658,null,"MARSH",null,word,,,,, 'MARSH',,
html-keyboard-response,734,2122165,null,"BACKBONE<img id = ""stim"" ><div class = red_square id = ""topsquare"" ></div><img id = ""stim"" ><div class = red_square  id = ""bottomsquare"" ></div>",null,word_square,,0,,,,,SPACEBAR
html-keyboard-response,735,2123668,null,"BACKBONE",null,word,,,,, 'BACKBONE',,
html-keyboard-response,736,2124171,null,"CLAM<img id = ""stim"" ><div class = green_square id = ""topsquare"" ></div><img id = ""stim"" ><div class = green_square  id = ""bottomsquare"" ></div>",null,word_square,,1,,,,,SPACEBAR
html-keyboard-response,737,2125676,null,"CLAM",null,word,,,,, 'CLAM',,
html-keyboard-response,738,2126184,null,"OYSTER<img id = ""stim"" ><div class = red_square id = ""topsquare"" ></div><img id = ""stim"" ><div class = red_square  id = ""bottomsquare"" ></div>",null,word_square,,0,,,,,SPACEBAR
html-keyboard-response,739,2127687,null,"OYSTER",null,word,,,,, 'OYSTER',,
html-keyboard-response,740,2128194,null,"SEAL<img id = ""stim"" ><div class = red_square id = ""topsquare"" ></div><img id = ""stim"" ><div class = red_square  id = ""bottomsquare"" ></div>",null,word_square,,0,,,,,SPACEBAR
html-keyboard-response,741,2129697,null,"SEAL",null,word,,,,, 'SEAL',,
html-keyboard-response,742,2130205,null,"FIREMAN<img id = ""stim"" ><div class = green_square id = ""topsquare"" ></div><img id = ""stim"" ><div class = green_square  id = ""bottomsquare"" ></div>",null,word_square,,1,,,,,SPACEBAR
html-keyboard-response,743,2131708,null,"FIREMAN",null,word,,,,, 'FIREMAN',,
html-keyboard-response,744,2132216,null,"LAVA<img id = ""stim"" ><div class = red_square id = ""topsquare"" ></div><img id = ""stim"" ><div class = red_square  id = ""bottomsquare"" ></div>",null,word_square,,0,,,,,SPACEBAR
html-keyboard-response,745,2133718,null,"LAVA",null,word,,,,, 'LAVA',,
html-keyboard-response,746,2134226,null,"MONKEY<img id = ""stim"" ><div class = green_square id = ""topsquare"" ></div><img id = ""stim"" ><div class = green_square  id = ""bottomsquare"" ></div>",null,word_square,,1,,,,,SPACEBAR
html-keyboard-response,747,2135728,null,"MONKEY",null,word,,,,, 'MONKEY',,
html-keyboard-response,748,2136236,null,"PUDDLE<img id = ""stim"" ><div class = red_square id = ""topsquare"" ></div><img id = ""stim"" ><div class = red_square  id = ""bottomsquare"" ></div>",null,word_square,,0,,,,,SPACEBAR
html-keyboard-response,749,2137739,null,"PUDDLE",null,word,,,,, 'PUDDLE',,
html-keyboard-response,750,2138245,null,"XEROX<img id = ""stim"" ><div class = green_square id = ""topsquare"" ></div><img id = ""stim"" ><div class = green_square  id = ""bottomsquare"" ></div>",null,word_square,,1,,,,,SPACEBAR
html-keyboard-response,751,2139748,null,"XEROX",null,word,,,,, 'XEROX',,
html-keyboard-response,752,2140256,null,"MACHINE<img id = ""stim"" ><div class = green_square id = ""topsquare"" ></div><img id = ""stim"" ><div class = green_square  id = ""bottomsquare"" ></div>",null,word_square,,1,,,,,SPACEBAR
html-keyboard-response,753,2141758,null,"MACHINE",null,word,,,,, 'MACHINE',,
html-keyboard-response,754,2142264,null,"WAIST<img id = ""stim"" ><div class = red_square id = ""topsquare"" ></div><img id = ""stim"" ><div class = red_square  id = ""bottomsquare"" ></div>",null,word_square,,0,,,,,SPACEBAR
html-keyboard-response,755,2143767,null,"WAIST",null,word,,,,, 'WAIST',,
html-keyboard-response,756,2144272,null,"MARROW<img id = ""stim"" ><div class = green_square id = ""topsquare"" ></div><img id = ""stim"" ><div class = green_square  id = ""bottomsquare"" ></div>",null,word_square,,1,,,,,SPACEBAR
html-keyboard-response,757,2145776,null,"MARROW",null,word,,,,, 'MARROW',,
html-keyboard-response,758,2146284,null,"INMATE<img id = ""stim"" ><div class = green_square id = ""topsquare"" ></div><img id = ""stim"" ><div class = green_square  id = ""bottomsquare"" ></div>",null,word_square,,1,,,,,SPACEBAR
html-keyboard-response,759,2147787,null,"INMATE",null,word,,,,, 'INMATE',,
html-keyboard-response,760,2148294,null,"BLOSSOM<img id = ""stim"" ><div class = red_square id = ""topsquare"" ></div><img id = ""stim"" ><div class = red_square  id = ""bottomsquare"" ></div>",null,word_square,,0,,,,,SPACEBAR
html-keyboard-response,761,2149799,null,"BLOSSOM",null,word,,,,, 'BLOSSOM',,
survey-text,762,2151495,1691.724999807775,"",,,,,,,,{"Q0":"1"},
survey-text,763,2152816,1315.9149999264628,"",,,,,,,,{"Q0":"5"},
survey-text,764,2155163,2341.6999999899417,"",,,,,,,,{"Q0":"2"},
survey-text,765,2156722,1554.5650001149625,"",,,,,,,,{"Q0":"4"},
survey-text,766,2157958,1231.7050001583993,"",,,,,,,,{"Q0":"4"},
survey-text,767,2159663,1700.514999916777,"",,,,,,,,{"Q0":"2"},
survey-text,768,2162980,3312.919999938458,"",,,,,,,,{"Q0":"1"},
survey-text,769,2164805,1820.1350001618266,"",,,,,,,,{"Q0":"5"},
survey-text,770,2166553,1743.0950000416487,"",,,,,,,,{"Q0":"3"},
survey-text,771,2168016,1458.4299998823553,"",,,,,,,,{"Q0":"5"},
survey-text,772,2169650,1628.2850001007318,"",,,,,,,,{"Q0":"2"},
survey-text,773,2171575,1920.15999997966,"",,,,,,,,{"Q0":"1"},
survey-text,774,2172730,1150.9249999653548,"",,,,,,,,{"Q0":"3"},
survey-text,775,2174341,1606.8200001027435,"",,,,,,,,{"Q0":"5"},
survey-text,776,2177784,3438.330000033602,"",,,,,,,,{"Q0":"marrow"},
survey-text,777,2179747,1957.4499998707324,"",,,,,,,,{"Q0":"xonox"},
survey-text,778,2185252,5501.155000180006,"",,,,,,,,{"Q0":"monkey"},
survey-text,779,2187359,2101.560000097379,"",,,,,,,,{"Q0":"puddle"},
survey-text,780,2189052,1687.015000032261,"",,,,,,,,{"Q0":"cleam"},
survey-text,781,2191696,2640.015000011772,"",,,,,,,,{"Q0":"clam"},
survey-text,782,2193382,1681.7250000312924,"",,,,,,,,{"Q0":"seal"},
survey-text,783,2195561,2174.7149999719113,"",,,,,,,,{"Q0":"oyster"},
survey-text,784,2197406,1839.2099998891354,"",,,,,,,,{"Q0":"fireman"},
survey-text,785,2200017,2606.364999897778,"",,,,,,,,{"Q0":"airplace"},
survey-text,786,2202645,2623.725000070408,"",,,,,,,,{"Q0":"airplane"},
survey-text,787,2205136,2486.284999875352,"",,,,,,,,{"Q0":"snack"},
survey-text,788,2206726,1584.8199999891222,"",,,,,,,,{"Q0":"lettuce"},
survey-text,789,2223096,16366.514999885112,"",,,,,,,,{"Q0":"inmate"},
survey-text,790,2225022,1920.7300001289696,"",,,,,,,,{"Q0":"blossom"},
survey-text,791,2266684,41658.33000000566,"",,,,,,,,{"Q0":" "},
html-keyboard-response,792,2275254,8566.510000033304,"<p> Uh oh. You responded correctly on 56% of the GREEN squares.</p>
                  <p>We need you keep your accuracy above 80%</p>
                  <p>Press any key to continue the experiment. Thank you!</p>",32,,,,,,,,
html-keyboard-response,793,2279507,4250.985000049695,"<div style=""font-size:48px;"">Press any key to begin list 12 of 24 </div>",32,,,,,,,,
html-keyboard-response,794,2282017,null,"<div style=""font-size:60px;"">+</div>",null,,,,,,,,
html-keyboard-response,795,2282525,null,"ARMY<img id = ""stim"" ><div class = green_square id = ""topsquare"" ></div><img id = ""stim"" ><div class = green_square  id = ""bottomsquare"" ></div>",null,word_square,,1,,,,,SPACEBAR
html-keyboard-response,796,2284028,null,"ARMY",null,word,,,,, 'ARMY',,
html-keyboard-response,797,2284534,null,"NOMAD<img id = ""stim"" ><div class = green_square id = ""topsquare"" ></div><img id = ""stim"" ><div class = green_square  id = ""bottomsquare"" ></div>",null,word_square,,1,,,,,SPACEBAR
html-keyboard-response,798,2286036,null,"NOMAD",null,word,,,,, 'NOMAD',,
html-keyboard-response,799,2286543,null,"TOOTHBRUSH<img id = ""stim"" ><div class = red_square id = ""topsquare"" ></div><img id = ""stim"" ><div class = red_square  id = ""bottomsquare"" ></div>",null,word_square,,0,,,,,SPACEBAR
html-keyboard-response,800,2288045,null,"TOOTHBRUSH",null,word,,,,, 'TOOTHBRUSH',,
html-keyboard-response,801,2288552,null,"CROSS<img id = ""stim"" ><div class = red_square id = ""topsquare"" ></div><img id = ""stim"" ><div class = red_square  id = ""bottomsquare"" ></div>",null,word_square,,0,,,,,SPACEBAR
html-keyboard-response,802,2290056,null,"CROSS",null,word,,,,, 'CROSS',,
html-keyboard-response,803,2290560,null,"FLEET<img id = ""stim"" ><div class = red_square id = ""topsquare"" ></div><img id = ""stim"" ><div class = red_square  id = ""bottomsquare"" ></div>",null,word_square,,0,,,,,SPACEBAR
html-keyboard-response,804,2292064,null,"FLEET",null,word,,,,, 'FLEET',,
html-keyboard-response,805,2292571,null,"BATHROOM<img id = ""stim"" ><div class = green_square id = ""topsquare"" ></div><img id = ""stim"" ><div class = green_square  id = ""bottomsquare"" ></div>",null,word_square,,1,,,,,SPACEBAR
html-keyboard-response,806,2294077,null,"BATHROOM",null,word,,,,, 'BATHROOM',,
html-keyboard-response,807,2294584,null,"COD<img id = ""stim"" ><div class = red_square id = ""topsquare"" ></div><img id = ""stim"" ><div class = red_square  id = ""bottomsquare"" ></div>",null,word_square,,0,,,,,SPACEBAR
html-keyboard-response,808,2296088,null,"COD",null,word,,,,, 'COD',,
html-keyboard-response,809,2296595,null,"SIDEWALK<img id = ""stim"" ><div class = red_square id = ""topsquare"" ></div><img id = ""stim"" ><div class = red_square  id = ""bottomsquare"" ></div>",null,word_square,,0,,,,,SPACEBAR
html-keyboard-response,810,2298098,null,"SIDEWALK",null,word,,,,, 'SIDEWALK',,
html-keyboard-response,811,2298605,null,"TRIBE<img id = ""stim"" ><div class = green_square id = ""topsquare"" ></div><img id = ""stim"" ><div class = green_square  id = ""bottomsquare"" ></div>",null,word_square,,1,,,,,SPACEBAR
html-keyboard-response,812,2300108,null,"TRIBE",null,word,,,,, 'TRIBE',,
html-keyboard-response,813,2300612,null,"SIRLOIN<img id = ""stim"" ><div class = red_square id = ""topsquare"" ></div><img id = ""stim"" ><div class = red_square  id = ""bottomsquare"" ></div>",null,word_square,,0,,,,,SPACEBAR
html-keyboard-response,814,2302116,null,"SIRLOIN",null,word,,,,, 'SIRLOIN',,
html-keyboard-response,815,2302621,null,"PONY<img id = ""stim"" ><div class = green_square id = ""topsquare"" ></div><img id = ""stim"" ><div class = green_square  id = ""bottomsquare"" ></div>",null,word_square,,1,,,,,SPACEBAR
html-keyboard-response,816,2304126,null,"PONY",null,word,,,,, 'PONY',,
html-keyboard-response,817,2304634,null,"BASEBALL<img id = ""stim"" ><div class = red_square id = ""topsquare"" ></div><img id = ""stim"" ><div class = red_square  id = ""bottomsquare"" ></div>",null,word_square,,0,,,,,SPACEBAR
html-keyboard-response,818,2306137,null,"BASEBALL",null,word,,,,, 'BASEBALL',,
html-keyboard-response,819,2306643,null,"CANYON<img id = ""stim"" ><div class = green_square id = ""topsquare"" ></div><img id = ""stim"" ><div class = green_square  id = ""bottomsquare"" ></div>",null,word_square,,1,,,,,SPACEBAR
html-keyboard-response,820,2308145,null,"CANYON",null,word,,,,, 'CANYON',,
html-keyboard-response,821,2308653,null,"MAILBOX<img id = ""stim"" ><div class = green_square id = ""topsquare"" ></div><img id = ""stim"" ><div class = green_square  id = ""bottomsquare"" ></div>",null,word_square,,1,,,,,SPACEBAR
html-keyboard-response,822,2310156,null,"MAILBOX",null,word,,,,, 'MAILBOX',,
html-keyboard-response,823,2310663,null,"MESSAGE<img id = ""stim"" ><div class = red_square id = ""topsquare"" ></div><img id = ""stim"" ><div class = red_square  id = ""bottomsquare"" ></div>",null,word_square,,0,,,,,SPACEBAR
html-keyboard-response,824,2312168,null,"MESSAGE",null,word,,,,, 'MESSAGE',,
html-keyboard-response,825,2312672,null,"HATCHET<img id = ""stim"" ><div class = green_square id = ""topsquare"" ></div><img id = ""stim"" ><div class = green_square  id = ""bottomsquare"" ></div>",null,word_square,,1,,,,,SPACEBAR
html-keyboard-response,826,2314176,null,"HATCHET",null,word,,,,, 'HATCHET',,
html-keyboard-response,827,2314683,null,"SALAD<img id = ""stim"" ><div class = green_square id = ""topsquare"" ></div><img id = ""stim"" ><div class = green_square  id = ""bottomsquare"" ></div>",null,word_square,,1,,,,,SPACEBAR
html-keyboard-response,828,2316186,null,"SALAD",null,word,,,,, 'SALAD',,
html-keyboard-response,829,2316692,null,"LEMON<img id = ""stim"" ><div class = red_square id = ""topsquare"" ></div><img id = ""stim"" ><div class = red_square  id = ""bottomsquare"" ></div>",null,word_square,,0,,,,,SPACEBAR
html-keyboard-response,830,2318194,null,"LEMON",null,word,,,,, 'LEMON',,
survey-text,831,2320699,2500.5449999589473,"",,,,,,,,{"Q0":"4"},
survey-text,832,2322364,1659.1699998825788,"",,,,,,,,{"Q0":"3"},
survey-text,833,2324083,1714.284999994561,"",,,,,,,,{"Q0":"1"},
