trial_type,trial_index,time_elapsed,rt,stimulus,key_press,test_part,task,targ_cond,correctKeyCode,correct,word,value,response
pavlovia,0,966,,"",,,,,,,,,
external-html,1,7480,6354.684999911115,"",,,,,,,,,
html-keyboard-response,2,9007,1524.890000000596,"Welcome to the experiment. Press any key to begin.",38,,,,,,,,
html-keyboard-response,3,15177,6167.875000042841,"<p>You will see a list of words and colored squares in the following task.<p><p>Press the spacebar whenever you see a red square.<p><p>Do not press a key if the square is green<p><p>Press the spacebar to continue.</p>",32,,,,,,,,
html-keyboard-response,4,30458,14776.130000012927,"<p>Please try to remember as many of the words as you can, and try to think about the meaning of each word as it appears.<p><p>After the detection and encoding task you will be asked to solve some math problems for 24 seconds.<p> Please solve as many problems as you can in the time given. <p>",38,,,,,,,,
html-keyboard-response,5,43252,12291.71999997925,"After solving the math problems, you will be asked to type in as many words <p>from the previous list as you can remember for 75 seconds.<p> If you finish recalling before the 75 seconds are up,<p> just sit tight and try to think of any more words you could have missed. <p><p>We will begin with a brief practice session<p>Press the spacebar to begin the practice.</p>",32,,,,,,,,
html-keyboard-response,6,45759,null,"<div style=""font-size:60px;"">+</div>",null,,,,,,,,
html-keyboard-response,7,46262,null,"HAPPY<img id = ""stim"" ><div class = green_square id = ""topsquare"" ></div><img id = ""stim"" ><div class = green_square  id = ""bottomsquare"" ></div>",null,word_square,prac_response,0,none,true,,,
html-keyboard-response,8,47765,null,"HAPPY",null,word,,,,,HAPPY,,
html-keyboard-response,9,48276,null,"COLD<img id = ""stim"" ><div class = red_square id = ""topsquare"" ></div><img id = ""stim"" ><div class = red_square  id = ""bottomsquare"" ></div>",null,word_square,prac_response,1,Space,false,,,
html-keyboard-response,10,49779,null,"COLD",null,word,,,,,COLD,,
html-keyboard-response,11,50282,null,"HEAVY<img id = ""stim"" ><div class = red_square id = ""topsquare"" ></div><img id = ""stim"" ><div class = red_square  id = ""bottomsquare"" ></div>",null,word_square,prac_response,1,Space,false,,,
html-keyboard-response,12,51785,null,"HEAVY",null,word,,,,,HEAVY,,
html-keyboard-response,13,52292,null,"FUNNY<img id = ""stim"" ><div class = green_square id = ""topsquare"" ></div><img id = ""stim"" ><div class = green_square  id = ""bottomsquare"" ></div>",null,word_square,prac_response,0,none,true,,,
html-keyboard-response,14,53795,null,"FUNNY",null,word,,,,,FUNNY,,
html-keyboard-response,15,54297,null,"SCARY<img id = ""stim"" ><div class = red_square id = ""topsquare"" ></div><img id = ""stim"" ><div class = red_square  id = ""bottomsquare"" ></div>",null,word_square,prac_response,1,Space,false,,,
html-keyboard-response,16,55799,null,"SCARY",null,word,,,,,SCARY,,
html-keyboard-response,17,56307,429.1150000644848,"PEACEFUL<img id = ""stim"" ><div class = red_square id = ""topsquare"" ></div><img id = ""stim"" ><div class = red_square  id = ""bottomsquare"" ></div>",32,word_square,prac_response,1,Space,true,,,
html-keyboard-response,18,57811,null,"PEACEFUL",null,word,,,,,PEACEFUL,,
html-keyboard-response,19,58314,null,"LITTLE<img id = ""stim"" ><div class = green_square id = ""topsquare"" ></div><img id = ""stim"" ><div class = green_square  id = ""bottomsquare"" ></div>",null,word_square,prac_response,0,none,true,,,
html-keyboard-response,20,59825,null,"LITTLE",null,word,,,,,LITTLE,,
html-keyboard-response,21,60329,null,"TIRED<img id = ""stim"" ><div class = green_square id = ""topsquare"" ></div><img id = ""stim"" ><div class = green_square  id = ""bottomsquare"" ></div>",null,word_square,prac_response,0,none,true,,,
html-keyboard-response,22,61831,null,"TIRED",null,word,,,,,TIRED,,
html-keyboard-response,23,62335,null,"ENTERTAINING<img id = ""stim"" ><div class = green_square id = ""topsquare"" ></div><img id = ""stim"" ><div class = green_square  id = ""bottomsquare"" ></div>",null,word_square,prac_response,0,none,true,,,
html-keyboard-response,24,63842,null,"ENTERTAINING",null,word,,,,,ENTERTAINING,,
html-keyboard-response,25,64345,355.4149999981746,"GRATEFUL<img id = ""stim"" ><div class = red_square id = ""topsquare"" ></div><img id = ""stim"" ><div class = red_square  id = ""bottomsquare"" ></div>",32,word_square,prac_response,1,Space,true,,,
html-keyboard-response,26,65847,null,"GRATEFUL",null,word,,,,,GRATEFUL,,
html-keyboard-response,27,66350,null,"LOUD<img id = ""stim"" ><div class = green_square id = ""topsquare"" ></div><img id = ""stim"" ><div class = green_square  id = ""bottomsquare"" ></div>",null,word_square,prac_response,0,none,true,,,
html-keyboard-response,28,67855,null,"LOUD",null,word,,,,,LOUD,,
html-keyboard-response,29,68358,null,"SMART<img id = ""stim"" ><div class = red_square id = ""topsquare"" ></div><img id = ""stim"" ><div class = red_square  id = ""bottomsquare"" ></div>",null,word_square,prac_response,1,Space,false,,,
html-keyboard-response,30,69861,null,"SMART",null,word,,,,,SMART,,
html-keyboard-response,31,70374,378.2399999909103,"SMOOTH<img id = ""stim"" ><div class = red_square id = ""topsquare"" ></div><img id = ""stim"" ><div class = red_square  id = ""bottomsquare"" ></div>",32,word_square,prac_response,1,Space,true,,,
html-keyboard-response,32,71878,null,"SMOOTH",null,word,,,,,SMOOTH,,
html-keyboard-response,33,72381,null,"DISHONEST<img id = ""stim"" ><div class = green_square id = ""topsquare"" ></div><img id = ""stim"" ><div class = green_square  id = ""bottomsquare"" ></div>",null,word_square,prac_response,0,none,true,,,
html-keyboard-response,34,73883,null,"DISHONEST",null,word,,,,,DISHONEST,,
html-keyboard-response,35,74385,340.34500003326684,"WEALTHY<img id = ""stim"" ><div class = red_square id = ""topsquare"" ></div><img id = ""stim"" ><div class = red_square  id = ""bottomsquare"" ></div>",32,word_square,prac_response,1,Space,true,,,
html-keyboard-response,36,75889,null,"WEALTHY",null,word,,,,,WEALTHY,,
html-keyboard-response,37,76394,null,"BEAUTIFUL<img id = ""stim"" ><div class = green_square id = ""topsquare"" ></div><img id = ""stim"" ><div class = green_square  id = ""bottomsquare"" ></div>",null,word_square,prac_response,0,none,true,,,
html-keyboard-response,38,77918,null,"BEAUTIFUL",null,word,,,,,BEAUTIFUL,,
html-keyboard-response,39,78422,null,"DREARY<img id = ""stim"" ><div class = green_square id = ""topsquare"" ></div><img id = ""stim"" ><div class = green_square  id = ""bottomsquare"" ></div>",null,word_square,prac_response,0,none,true,,,
html-keyboard-response,40,79926,null,"DREARY",null,word,,,,,DREARY,,
html-keyboard-response,41,80429,null,"PLAYFUL<img id = ""stim"" ><div class = red_square id = ""topsquare"" ></div><img id = ""stim"" ><div class = red_square  id = ""bottomsquare"" ></div>",null,word_square,prac_response,1,Space,false,,,
html-keyboard-response,42,81931,null,"PLAYFUL",null,word,,,,,PLAYFUL,,
html-keyboard-response,43,85237,3302.405000082217,"<p> Uh oh. You responded correctly on 72% of the red squares.</p>
                  <p>We need you keep your accuracy above 80%</p>
                  <p>We're going to try once more to make sure you understand the task. press any key to continue.</p>",32,,,,,,,,
html-keyboard-response,44,85962,723.8350000698119,"<p>You will see a list of words and colored squares in the following task.<p><p>Press the spacebar whenever you see a red square.<p><p>Do not press a key if the square is green<p><p>Press the spacebar to continue.</p>",32,,,,,,,,
html-keyboard-response,45,88466,null,"<div style=""font-size:60px;"">+</div>",null,,,,,,,,
html-keyboard-response,46,88975,null,"HAPPY<img id = ""stim"" ><div class = green_square id = ""topsquare"" ></div><img id = ""stim"" ><div class = green_square  id = ""bottomsquare"" ></div>",null,word_square,response,0,none,true,,,
html-keyboard-response,47,90479,null,"HAPPY",null,word,,,,,HAPPY,,
html-keyboard-response,48,90878,397.8699999861419,"COLD<img id = ""stim"" ><div class = red_square id = ""topsquare"" ></div><img id = ""stim"" ><div class = red_square  id = ""bottomsquare"" ></div>",32,word_square,response,1,Space,true,,,
html-keyboard-response,49,92381,null,"COLD",null,word,,,,,COLD,,
html-keyboard-response,50,92756,374.1800000425428,"HEAVY<img id = ""stim"" ><div class = red_square id = ""topsquare"" ></div><img id = ""stim"" ><div class = red_square  id = ""bottomsquare"" ></div>",32,word_square,response,1,Space,true,,,
html-keyboard-response,51,94261,null,"HEAVY",null,word,,,,,HEAVY,,
html-keyboard-response,52,94764,null,"FUNNY<img id = ""stim"" ><div class = green_square id = ""topsquare"" ></div><img id = ""stim"" ><div class = green_square  id = ""bottomsquare"" ></div>",null,word_square,response,0,none,true,,,
html-keyboard-response,53,96268,null,"FUNNY",null,word,,,,,FUNNY,,
html-keyboard-response,54,96580,310.4399999137968,"SCARY<img id = ""stim"" ><div class = red_square id = ""topsquare"" ></div><img id = ""stim"" ><div class = red_square  id = ""bottomsquare"" ></div>",32,word_square,response,1,Space,true,,,
html-keyboard-response,55,98084,null,"SCARY",null,word,,,,,SCARY,,
html-keyboard-response,56,98461,375.09500002488494,"PEACEFUL<img id = ""stim"" ><div class = red_square id = ""topsquare"" ></div><img id = ""stim"" ><div class = red_square  id = ""bottomsquare"" ></div>",32,word_square,response,1,Space,true,,,
html-keyboard-response,57,99965,null,"PEACEFUL",null,word,,,,,PEACEFUL,,
html-keyboard-response,58,100468,null,"LITTLE<img id = ""stim"" ><div class = green_square id = ""topsquare"" ></div><img id = ""stim"" ><div class = green_square  id = ""bottomsquare"" ></div>",null,word_square,response,0,none,true,,,
html-keyboard-response,59,101973,null,"LITTLE",null,word,,,,,LITTLE,,
html-keyboard-response,60,102493,null,"TIRED<img id = ""stim"" ><div class = green_square id = ""topsquare"" ></div><img id = ""stim"" ><div class = green_square  id = ""bottomsquare"" ></div>",null,word_square,response,0,none,true,,,
html-keyboard-response,61,103996,null,"TIRED",null,word,,,,,TIRED,,
html-keyboard-response,62,104498,null,"ENTERTAINING<img id = ""stim"" ><div class = green_square id = ""topsquare"" ></div><img id = ""stim"" ><div class = green_square  id = ""bottomsquare"" ></div>",null,word_square,response,0,none,true,,,
html-keyboard-response,63,106000,null,"ENTERTAINING",null,word,,,,,ENTERTAINING,,
html-keyboard-response,64,106327,326.05000003241,"GRATEFUL<img id = ""stim"" ><div class = red_square id = ""topsquare"" ></div><img id = ""stim"" ><div class = red_square  id = ""bottomsquare"" ></div>",32,word_square,response,1,Space,true,,,
html-keyboard-response,65,107829,null,"GRATEFUL",null,word,,,,,GRATEFUL,,
html-keyboard-response,66,108332,null,"LOUD<img id = ""stim"" ><div class = green_square id = ""topsquare"" ></div><img id = ""stim"" ><div class = green_square  id = ""bottomsquare"" ></div>",null,word_square,response,0,none,true,,,
html-keyboard-response,67,109835,null,"LOUD",null,word,,,,,LOUD,,
html-keyboard-response,68,110166,325.4699999233708,"SMART<img id = ""stim"" ><div class = red_square id = ""topsquare"" ></div><img id = ""stim"" ><div class = red_square  id = ""bottomsquare"" ></div>",32,word_square,response,1,Space,true,,,
html-keyboard-response,69,111698,null,"SMART",null,word,,,,,SMART,,
html-keyboard-response,70,112040,340.1650000596419,"SMOOTH<img id = ""stim"" ><div class = red_square id = ""topsquare"" ></div><img id = ""stim"" ><div class = red_square  id = ""bottomsquare"" ></div>",32,word_square,response,1,Space,true,,,
html-keyboard-response,71,113543,null,"SMOOTH",null,word,,,,,SMOOTH,,
html-keyboard-response,72,114045,null,"DISHONEST<img id = ""stim"" ><div class = green_square id = ""topsquare"" ></div><img id = ""stim"" ><div class = green_square  id = ""bottomsquare"" ></div>",null,word_square,response,0,none,true,,,
html-keyboard-response,73,115547,null,"DISHONEST",null,word,,,,,DISHONEST,,
html-keyboard-response,74,115880,331.49500004947186,"WEALTHY<img id = ""stim"" ><div class = red_square id = ""topsquare"" ></div><img id = ""stim"" ><div class = red_square  id = ""bottomsquare"" ></div>",32,word_square,response,1,Space,true,,,
html-keyboard-response,75,117382,null,"WEALTHY",null,word,,,,,WEALTHY,,
html-keyboard-response,76,117888,null,"BEAUTIFUL<img id = ""stim"" ><div class = green_square id = ""topsquare"" ></div><img id = ""stim"" ><div class = green_square  id = ""bottomsquare"" ></div>",null,word_square,response,0,none,true,,,
html-keyboard-response,77,119391,null,"BEAUTIFUL",null,word,,,,,BEAUTIFUL,,
html-keyboard-response,78,119895,null,"DREARY<img id = ""stim"" ><div class = green_square id = ""topsquare"" ></div><img id = ""stim"" ><div class = green_square  id = ""bottomsquare"" ></div>",null,word_square,response,0,none,true,,,
html-keyboard-response,79,121397,null,"DREARY",null,word,,,,,DREARY,,
html-keyboard-response,80,121769,369.3200000561774,"PLAYFUL<img id = ""stim"" ><div class = red_square id = ""topsquare"" ></div><img id = ""stim"" ><div class = red_square  id = ""bottomsquare"" ></div>",32,word_square,response,1,Space,true,,,
html-keyboard-response,81,123273,null,"PLAYFUL",null,word,,,,,PLAYFUL,,
html-keyboard-response,82,134298,11023.960000020452,"<p> Good job! You responded correctly to 100% of the red squares.</p>
                  <p>Be sure to keep your accuracy above 80%</p>
                  <p>Press any key to begin the math and recall sections. Thank you!</p>",38,,,,,,,,
call-function,83,134299,,"",,,,,,,,,
html-keyboard-response,84,134401,null,"",null,,,,,,,,
math-period,85,140157,16324.410000117496,"",,,,,,,,,undefined2
html-keyboard-response,86,140265,null,"",null,,,,,,,,
math-period,87,144070,7189.150000107475,"",,,,,,,,,4
html-keyboard-response,88,144188,null,"",null,,,,,,,,
math-period,89,147917,7183.110000099987,"",,,,,,,,,5
html-keyboard-response,90,148022,null,"",null,,,,,,,,
math-period,91,149445,2726.729999878444,"",,,,,,,,,3
html-keyboard-response,92,149546,null,"",null,,,,,,,,
math-period,93,150526,1843.9400000497699,"",,,,,,,,,3
html-keyboard-response,94,150629,null,"",null,,,,,,,,
math-period,95,151565,1743.9750001067296,"",,,,,,,,,3
html-keyboard-response,96,151667,null,"",null,,,,,,,,
math-period,97,152526,1554.6900000190362,"",,,,,,,,,3
html-keyboard-response,98,152630,null,"",null,,,,,,,,
math-period,99,155414,5374.19499992393,"",,,,,,,,,2
html-keyboard-response,100,155516,null,"",null,,,,,,,,
math-period,101,158310,null,"",,,,,,,,,
html-keyboard-response,102,159312,null,"Recall Period!",null,,,,,,,,
call-function,103,159312,,"",,,,,,,,,
html-keyboard-response,104,159415,null,"",null,,,,,,,,
recall-period,105,162086,13755.339999683201,"",,,,,,,,,happy
html-keyboard-response,106,162192,null,"",null,,,,,,,,
recall-period,107,164215,9093.514999723993,"",,,,,,,,,dreary
html-keyboard-response,108,164318,null,"",null,,,,,,,,
recall-period,109,165960,12950.155000318773,"",,,,,,,,,entertaining
html-keyboard-response,110,166063,null,"",null,,,,,,,,
recall-period,111,168154,10857.959999819286,"",,,,,,,,,happy
html-keyboard-response,112,168258,null,"",null,,,,,,,,
recall-period,113,171976,27966.450000414625,"",,,,,,,,,grateful
html-keyboard-response,114,172079,null,"",null,,,,,,,,
recall-period,115,180707,40809.335000114515,"",,,,,,,,,life
html-keyboard-response,116,180810,null,"",null,,,,,,,,
recall-period,117,183259,11441.254999721423,"",,,,,,,,,enjoy
html-keyboard-response,118,183361,null,"",null,,,,,,,,
recall-period,119,184091,1852.2700000321493,"",,,,,,,,,sad
html-keyboard-response,120,184194,null,"",null,,,,,,,,
recall-period,121,189730,52130.33999979962,"",,,,,,,,,meaningful
html-keyboard-response,122,189842,null,"",null,,,,,,,,
recall-period,123,193820,27945.359999663197,"",,,,,,,,,wealthy
html-keyboard-response,124,193928,null,"",null,,,,,,,,
recall-period,125,195692,8909.17000034824,"",,,,,,,,,happy
html-keyboard-response,126,195794,null,"",null,,,,,,,,
recall-period,127,206261,70338.54499994777,"",,,,,,,,,boring
html-keyboard-response,128,206375,null,"",null,,,,,,,,
recall-period,129,210246,29979.330000584014,"",,,,,,,,,grateful
html-keyboard-response,130,210348,null,"",null,,,,,,,,
recall-period,131,222960,74523.52000004612,"",,,,,,,,,dreary
html-keyboard-response,132,223063,null,"",null,,,,,,,,
recall-period,133,234315,62491.71999969985,"",,,,,,,,,health
html-keyboard-response,134,234820,null,"Time's Up!",null,,,,,,,,
html-keyboard-response,135,239869,5045.299999997951,"<p>We will now begin the experiment!<p><p>Please try to remember all words from each list.<p><p>Press the spacebar whenever you see a red square.<p><p><p><p>Press the spacebar to begin.</p>",32,,,,,,,,
html-keyboard-response,136,241884,1512.1450000442564,"<div style=""font-size:48px;"">Press any key to begin list 1 of 24 </div>",32,,,,,,,,
html-keyboard-response,137,244388,null,"<div style=""font-size:60px;"">+</div>",null,,,,,,,,
html-keyboard-response,138,244890,null,"ATLAS<img id = ""stim"" ><div class = green_square id = ""topsquare"" ></div><img id = ""stim"" ><div class = green_square  id = ""bottomsquare"" ></div>",null,word_square,response,0,none,true,,,
html-keyboard-response,139,246393,null,"ATLAS",null,word,,,,, 'ATLAS',,
html-keyboard-response,140,246895,null,"ATHLETE<img id = ""stim"" ><div class = green_square id = ""topsquare"" ></div><img id = ""stim"" ><div class = green_square  id = ""bottomsquare"" ></div>",null,word_square,response,0,none,true,,,
html-keyboard-response,141,248397,null,"ATHLETE",null,word,,,,, 'ATHLETE',,
html-keyboard-response,142,248781,383.32500006072223,"SWITCH<img id = ""stim"" ><div class = red_square id = ""topsquare"" ></div><img id = ""stim"" ><div class = red_square  id = ""bottomsquare"" ></div>",32,word_square,response,1,Space,true,,,
html-keyboard-response,143,250298,null,"SWITCH",null,word,,,,, 'SWITCH',,
html-keyboard-response,144,250743,442.4749999307096,"PORPOISE<img id = ""stim"" ><div class = red_square id = ""topsquare"" ></div><img id = ""stim"" ><div class = red_square  id = ""bottomsquare"" ></div>",32,word_square,response,1,Space,true,,,
html-keyboard-response,145,252246,null,"PORPOISE",null,word,,,,, 'PORPOISE',,
html-keyboard-response,146,252747,null,"TULIP<img id = ""stim"" ><div class = green_square id = ""topsquare"" ></div><img id = ""stim"" ><div class = green_square  id = ""bottomsquare"" ></div>",null,word_square,response,0,none,true,,,
html-keyboard-response,147,254249,null,"TULIP",null,word,,,,, 'TULIP',,
html-keyboard-response,148,254761,null,"LUNCH<img id = ""stim"" ><div class = green_square id = ""topsquare"" ></div><img id = ""stim"" ><div class = green_square  id = ""bottomsquare"" ></div>",null,word_square,response,0,none,true,,,
html-keyboard-response,149,256263,null,"LUNCH",null,word,,,,, 'LUNCH',,
html-keyboard-response,150,256688,423.7399999983609,"WORLD<img id = ""stim"" ><div class = red_square id = ""topsquare"" ></div><img id = ""stim"" ><div class = red_square  id = ""bottomsquare"" ></div>",32,word_square,response,1,Space,true,,,
html-keyboard-response,151,258210,null,"WORLD",null,word,,,,, 'WORLD',,
html-keyboard-response,152,258713,null,"STREAM<img id = ""stim"" ><div class = green_square id = ""topsquare"" ></div><img id = ""stim"" ><div class = green_square  id = ""bottomsquare"" ></div>",null,word_square,response,0,none,true,,,
html-keyboard-response,153,260215,null,"STREAM",null,word,,,,, 'STREAM',,
html-keyboard-response,154,260560,343.239999958314,"SWAMP<img id = ""stim"" ><div class = red_square id = ""topsquare"" ></div><img id = ""stim"" ><div class = red_square  id = ""bottomsquare"" ></div>",32,word_square,response,1,Space,true,,,
html-keyboard-response,155,262063,null,"SWAMP",null,word,,,,, 'SWAMP',,
html-keyboard-response,156,262393,327.81000004615635,"SUITCASE<img id = ""stim"" ><div class = red_square id = ""topsquare"" ></div><img id = ""stim"" ><div class = red_square  id = ""bottomsquare"" ></div>",32,word_square,response,1,Space,true,,,
html-keyboard-response,157,263895,null,"SUITCASE",null,word,,,,, 'SUITCASE',,
html-keyboard-response,158,264396,null,"MATCH<img id = ""stim"" ><div class = green_square id = ""topsquare"" ></div><img id = ""stim"" ><div class = green_square  id = ""bottomsquare"" ></div>",null,word_square,response,0,none,true,,,
html-keyboard-response,159,265915,null,"MATCH",null,word,,,,, 'MATCH',,
html-keyboard-response,160,266421,null,"SKETCH<img id = ""stim"" ><div class = green_square id = ""topsquare"" ></div><img id = ""stim"" ><div class = green_square  id = ""bottomsquare"" ></div>",null,word_square,response,0,none,true,,,
html-keyboard-response,161,267923,null,"SKETCH",null,word,,,,, 'SKETCH',,
html-keyboard-response,162,268345,421.02500004693866,"PICTURE<img id = ""stim"" ><div class = red_square id = ""topsquare"" ></div><img id = ""stim"" ><div class = red_square  id = ""bottomsquare"" ></div>",32,word_square,response,1,Space,true,,,
html-keyboard-response,163,269859,null,"PICTURE",null,word,,,,, 'PICTURE',,
html-keyboard-response,164,270242,380.0999999511987,"INSECT<img id = ""stim"" ><div class = red_square id = ""topsquare"" ></div><img id = ""stim"" ><div class = red_square  id = ""bottomsquare"" ></div>",32,word_square,response,1,Space,true,,,
html-keyboard-response,165,271759,null,"INSECT",null,word,,,,, 'INSECT',,
html-keyboard-response,166,272260,null,"MISSILE<img id = ""stim"" ><div class = green_square id = ""topsquare"" ></div><img id = ""stim"" ><div class = green_square  id = ""bottomsquare"" ></div>",null,word_square,response,0,none,true,,,
html-keyboard-response,167,273762,null,"MISSILE",null,word,,,,, 'MISSILE',,
html-keyboard-response,168,274130,366.25500000081956,"DOCK<img id = ""stim"" ><div class = red_square id = ""topsquare"" ></div><img id = ""stim"" ><div class = red_square  id = ""bottomsquare"" ></div>",32,word_square,response,1,Space,true,,,
html-keyboard-response,169,275631,null,"DOCK",null,word,,,,, 'DOCK',,
html-keyboard-response,170,276141,null,"KNAPSACK<img id = ""stim"" ><div class = green_square id = ""topsquare"" ></div><img id = ""stim"" ><div class = green_square  id = ""bottomsquare"" ></div>",null,word_square,response,0,none,true,,,
html-keyboard-response,171,277643,null,"KNAPSACK",null,word,,,,, 'KNAPSACK',,
html-keyboard-response,172,277962,317.8349999943748,"VICTOR<img id = ""stim"" ><div class = red_square id = ""topsquare"" ></div><img id = ""stim"" ><div class = red_square  id = ""bottomsquare"" ></div>",32,word_square,response,1,Space,true,,,
html-keyboard-response,173,279464,null,"VICTOR",null,word,,,,, 'VICTOR',,
call-function,174,279464,,"",,,,,,,,,
html-keyboard-response,175,279566,null,"",null,,,,,,,,
math-period,176,281836,3566.439999965951,"",,,,,,,,,3
html-keyboard-response,177,281946,null,"",null,,,,,,,,
math-period,178,285427,6800.564999924973,"",,,,,,,,,1
html-keyboard-response,179,285530,null,"",null,,,,,,,,
math-period,180,287254,3257.740000030026,"",,,,,,,,,5
html-keyboard-response,181,287358,null,"",null,,,,,,,,
math-period,182,289253,3601.3150000944734,"",,,,,,,,,2
html-keyboard-response,183,289371,null,"",null,,,,,,,,
math-period,184,290605,2336.6499999538064,"",,,,,,,,,3
html-keyboard-response,185,290708,null,"",null,,,,,,,,
math-period,186,291828,2093.5750000644475,"",,,,,,,,,5
html-keyboard-response,187,291930,null,"",null,,,,,,,,
math-period,188,293509,3052.76000010781,"",,,,,,,,,5
html-keyboard-response,189,293611,null,"",null,,,,,,,,
math-period,190,294492,1616.560000111349,"",,,,,,,,,3
html-keyboard-response,191,294595,null,"",null,,,,,,,,
math-period,192,296749,7133.295000181533,"",,,,,,,,,4
html-keyboard-response,193,296860,null,"",null,,,,,,,,
math-period,194,297838,1807.1800001198426,"",,,,,,,,,3
html-keyboard-response,195,297941,null,"",null,,,,,,,,
math-period,196,298933,1846.1949999909848,"",,,,,,,,,4
html-keyboard-response,197,299039,null,"",null,,,,,,,,
math-period,198,301991,5722.36000013072,"",,,,,,,,,1
html-keyboard-response,199,302098,null,"",null,,,,,,,,
math-period,200,303466,1274.9550000298768,"",,,,,,,,,5
html-keyboard-response,201,304471,null,"Recall Period!",null,,,,,,,,
call-function,202,304474,,"",,,,,,,,,
html-keyboard-response,203,304576,null,"",null,,,,,,,,
recall-period,204,310310,42798.13000012655,"",,,,,,,,,picture
html-keyboard-response,205,310413,null,"",null,,,,,,,,
recall-period,206,310846,936.8399997474626,"",,,,,,,,,art
html-keyboard-response,207,310948,null,"",null,,,,,,,,
recall-period,208,327322,110866.91000021528,"",,,,,,,,,figure
html-keyboard-response,209,327425,null,"",null,,,,,,,,
recall-period,210,328426,3300.2849998883903,"",,,,,,,,,art
html-keyboard-response,211,328541,null,"",null,,,,,,,,
recall-period,212,336563,46394.20500025153,"",,,,,,,,,sport
html-keyboard-response,213,336665,null,"",null,,,,,,,,
recall-period,214,341107,24976.895000087097,"",,,,,,,,,fight
html-keyboard-response,215,341210,null,"",null,,,,,,,,
recall-period,216,342520,6822.604999993928,"",,,,,,,,,flight
html-keyboard-response,217,342625,null,"",null,,,,,,,,
recall-period,218,349413,33161.89000022132,"",,,,,,,,,dare
html-keyboard-response,219,349520,null,"",null,,,,,,,,
recall-period,220,354153,22101.615000283346,"",,,,,,,,,move
html-keyboard-response,221,354257,null,"",null,,,,,,,,
recall-period,222,355120,2475.0949998851866,"",,,,,,,,,film
html-keyboard-response,223,355223,null,"",null,,,,,,,,
recall-period,224,379475,null,"",,,,,,,,,
html-keyboard-response,225,379978,null,"Time's Up!",null,,,,,,,,
html-keyboard-response,226,382892,2912.8700000001118,"<p> Good job! You responded correctly to 100% of the red squares.</p>
                  <p>Be sure to keep your accuracy above 80%</p>
                  <p>Press any key to continue the experiment. Thank you!</p>",32,,,,,,,,
html-keyboard-response,227,384130,1237.2550000436604,"<div style=""font-size:48px;"">Press any key to begin list 2 of 24 </div>",32,,,,,,,,
html-keyboard-response,228,386660,null,"<div style=""font-size:60px;"">+</div>",null,,,,,,,,
html-keyboard-response,229,387163,null,"JOKER<img id = ""stim"" ><div class = green_square id = ""topsquare"" ></div><img id = ""stim"" ><div class = green_square  id = ""bottomsquare"" ></div>",null,word_square,response,0,none,true,,,
html-keyboard-response,230,388665,null,"JOKER",null,word,,,,, 'JOKER',,
html-keyboard-response,231,389170,null,"CRYSTAL<img id = ""stim"" ><div class = green_square id = ""topsquare"" ></div><img id = ""stim"" ><div class = green_square  id = ""bottomsquare"" ></div>",null,word_square,response,0,none,true,,,
html-keyboard-response,232,390673,null,"CRYSTAL",null,word,,,,, 'CRYSTAL',,
html-keyboard-response,233,391102,424.9299999792129,"FOLDER<img id = ""stim"" ><div class = red_square id = ""topsquare"" ></div><img id = ""stim"" ><div class = red_square  id = ""bottomsquare"" ></div>",32,word_square,response,1,Space,true,,,
html-keyboard-response,234,392606,null,"FOLDER",null,word,,,,, 'FOLDER',,
html-keyboard-response,235,393108,null,"CLIMBER<img id = ""stim"" ><div class = red_square id = ""topsquare"" ></div><img id = ""stim"" ><div class = red_square  id = ""bottomsquare"" ></div>",null,word_square,response,1,Space,false,,,
html-keyboard-response,236,394610,null,"CLIMBER",null,word,,,,, 'CLIMBER',,
html-keyboard-response,237,395113,null,"THRONE<img id = ""stim"" ><div class = green_square id = ""topsquare"" ></div><img id = ""stim"" ><div class = green_square  id = ""bottomsquare"" ></div>",null,word_square,response,0,none,true,,,
html-keyboard-response,238,396621,null,"THRONE",null,word,,,,, 'THRONE',,
html-keyboard-response,239,397124,null,"PEACH<img id = ""stim"" ><div class = green_square id = ""topsquare"" ></div><img id = ""stim"" ><div class = green_square  id = ""bottomsquare"" ></div>",null,word_square,response,0,none,true,,,
html-keyboard-response,240,398626,null,"PEACH",null,word,,,,, 'PEACH',,
html-keyboard-response,241,398957,329.7000000020489,"RESORT<img id = ""stim"" ><div class = red_square id = ""topsquare"" ></div><img id = ""stim"" ><div class = red_square  id = ""bottomsquare"" ></div>",32,word_square,response,1,Space,true,,,
html-keyboard-response,242,400462,null,"RESORT",null,word,,,,, 'RESORT',,
html-keyboard-response,243,400965,null,"CHEMIST<img id = ""stim"" ><div class = green_square id = ""topsquare"" ></div><img id = ""stim"" ><div class = green_square  id = ""bottomsquare"" ></div>",null,word_square,response,0,none,true,,,
html-keyboard-response,244,402474,null,"CHEMIST",null,word,,,,, 'CHEMIST',,
html-keyboard-response,245,402974,498.46499995328486,"BEAKER<img id = ""stim"" ><div class = red_square id = ""topsquare"" ></div><img id = ""stim"" ><div class = red_square  id = ""bottomsquare"" ></div>",32,word_square,response,1,Space,true,,,
html-keyboard-response,246,404476,null,"BEAKER",null,word,,,,, 'BEAKER',,
html-keyboard-response,247,404920,442.45000008959323,"POLICE<img id = ""stim"" ><div class = red_square id = ""topsquare"" ></div><img id = ""stim"" ><div class = red_square  id = ""bottomsquare"" ></div>",32,word_square,response,1,Space,true,,,
html-keyboard-response,248,406423,null,"POLICE",null,word,,,,, 'POLICE',,
html-keyboard-response,249,406926,null,"HORSE<img id = ""stim"" ><div class = green_square id = ""topsquare"" ></div><img id = ""stim"" ><div class = green_square  id = ""bottomsquare"" ></div>",null,word_square,response,0,none,true,,,
html-keyboard-response,250,408428,null,"HORSE",null,word,,,,, 'HORSE',,
html-keyboard-response,251,408938,null,"DWARF<img id = ""stim"" ><div class = green_square id = ""topsquare"" ></div><img id = ""stim"" ><div class = green_square  id = ""bottomsquare"" ></div>",null,word_square,response,0,none,true,,,
html-keyboard-response,252,410442,null,"DWARF",null,word,,,,, 'DWARF',,
html-keyboard-response,253,410896,452.24999997299165,"CHECKERS<img id = ""stim"" ><div class = red_square id = ""topsquare"" ></div><img id = ""stim"" ><div class = red_square  id = ""bottomsquare"" ></div>",32,word_square,response,1,Space,true,,,
html-keyboard-response,254,412399,null,"CHECKERS",null,word,,,,, 'CHECKERS',,
html-keyboard-response,255,412858,454.56000010017306,"GHETTO<img id = ""stim"" ><div class = red_square id = ""topsquare"" ></div><img id = ""stim"" ><div class = red_square  id = ""bottomsquare"" ></div>",32,word_square,response,1,Space,true,,,
html-keyboard-response,256,414359,null,"GHETTO",null,word,,,,, 'GHETTO',,
html-keyboard-response,257,414861,null,"BLUEJAY<img id = ""stim"" ><div class = green_square id = ""topsquare"" ></div><img id = ""stim"" ><div class = green_square  id = ""bottomsquare"" ></div>",null,word_square,response,0,none,true,,,
html-keyboard-response,258,416363,null,"BLUEJAY",null,word,,,,, 'BLUEJAY',,
html-keyboard-response,259,416793,428.1699999701232,"FLASK<img id = ""stim"" ><div class = red_square id = ""topsquare"" ></div><img id = ""stim"" ><div class = red_square  id = ""bottomsquare"" ></div>",32,word_square,response,1,Space,true,,,
html-keyboard-response,260,418294,null,"FLASK",null,word,,,,, 'FLASK',,
html-keyboard-response,261,418807,null,"SUMMIT<img id = ""stim"" ><div class = green_square id = ""topsquare"" ></div><img id = ""stim"" ><div class = green_square  id = ""bottomsquare"" ></div>",null,word_square,response,0,none,true,,,
html-keyboard-response,262,420310,null,"SUMMIT",null,word,,,,, 'SUMMIT',,
html-keyboard-response,263,420785,474.0750000346452,"BADGE<img id = ""stim"" ><div class = red_square id = ""topsquare"" ></div><img id = ""stim"" ><div class = red_square  id = ""bottomsquare"" ></div>",32,word_square,response,1,Space,true,,,
html-keyboard-response,264,422290,null,"BADGE",null,word,,,,, 'BADGE',,
call-function,265,422290,,"",,,,,,,,,
html-keyboard-response,266,422398,null,"",null,,,,,,,,
math-period,267,427162,16484.000000054948,"",,,,,,,,,1
html-keyboard-response,268,427264,null,"",null,,,,,,,,
math-period,269,428452,2098.0700000654906,"",,,,,,,,,5
html-keyboard-response,270,428555,null,"",null,,,,,,,,
math-period,271,429443,1709.320000023581,"",,,,,,,,,5
html-keyboard-response,272,429547,null,"",null,,,,,,,,
math-period,273,430362,1549.6099999872968,"",,,,,,,,,5
html-keyboard-response,274,430468,null,"",null,,,,,,,,
math-period,275,431236,1467.1500000404194,"",,,,,,,,,3
html-keyboard-response,276,431341,null,"",null,,,,,,,,
math-period,277,432685,2592.1149998903275,"",,,,,,,,,4
html-keyboard-response,278,432787,null,"",null,,,,,,,,
math-period,279,434325,2935.569999855943,"",,,,,,,,,1
html-keyboard-response,280,434427,null,"",null,,,,,,,,
math-period,281,436070,3167.9000000003725,"",,,,,,,,,3
html-keyboard-response,282,436176,null,"",null,,,,,,,,
math-period,283,437557,2598.6050000647083,"",,,,,,,,,6
html-keyboard-response,284,437662,null,"",null,,,,,,,,
math-period,285,438596,1737.6149999909103,"",,,,,,,,,4
html-keyboard-response,286,438699,null,"",null,,,,,,,,
math-period,287,440228,2895.2200000640005,"",,,,,,,,,2
html-keyboard-response,288,440331,null,"",null,,,,,,,,
math-period,289,441589,2353.6000000312924,"",,,,,,,,,5
html-keyboard-response,290,441691,null,"",null,,,,,,,,
math-period,291,443270,3044.569999910891,"",,,,,,,,,4
html-keyboard-response,292,443376,null,"",null,,,,,,,,
math-period,293,445823,4736.889999941923,"",,,,,,,,,1
html-keyboard-response,294,445926,null,"",null,,,,,,,,
math-period,295,446294,null,"",,,,,,,,,
html-keyboard-response,296,447296,null,"Recall Period!",null,,,,,,,,
call-function,297,447297,,"",,,,,,,,,
html-keyboard-response,298,447414,null,"",null,,,,,,,,
recall-period,299,453743,6327.980000060052,"",,,,,,,,,
html-keyboard-response,300,453846,null,"",null,,,,,,,,
recall-period,301,455287,7907.030000234954,"",,,,,,,,,police
html-keyboard-response,302,455402,null,"",null,,,,,,,,
recall-period,303,460391,47426.12499999814,"",,,,,,,,,summit
html-keyboard-response,304,460507,null,"",null,,,,,,,,
recall-period,305,463480,18744.664999772795,"",,,,,,,,,beaker
html-keyboard-response,306,463584,null,"",null,,,,,,,,
recall-period,307,464243,2226.2200004188344,"",,,,,,,,,bleak
html-keyboard-response,308,464345,null,"",null,,,,,,,,
recall-period,309,467345,20422.769999830052,"",,,,,,,,,picture
html-keyboard-response,310,467447,null,"",null,,,,,,,,
recall-period,311,474123,55738.854999886826,"",,,,,,,,,fracture
html-keyboard-response,312,474229,null,"",null,,,,,,,,
recall-period,313,478171,24870.40499970317,"",,,,,,,,,broken
html-keyboard-response,314,478274,null,"",null,,,,,,,,
recall-period,315,484580,51600.71500041522,"",,,,,,,,,friction
html-keyboard-response,316,484684,null,"",null,,,,,,,,
recall-period,317,487870,22607.830000459217,"",,,,,,,,,science
html-keyboard-response,318,487974,null,"",null,,,,,,,,
recall-period,319,511274,160002.81500036363,"",,,,,,,,,camera
html-keyboard-response,320,511376,null,"",null,,,,,,,,
recall-period,321,522326,10782.079999917187,"",,,,,,,,,f
html-keyboard-response,322,522831,null,"Time's Up!",null,,,,,,,,
html-keyboard-response,323,522927,92.03500009607524,"<p> Good job! You responded correctly to 98% of the red squares.</p>
                  <p>Be sure to keep your accuracy above 80%</p>
                  <p>Press any key to continue the experiment. Thank you!</p>",13,,,,,,,,
html-keyboard-response,324,526453,3523.215000052005,"<div style=""font-size:48px;"">Press any key to begin list 3 of 24 </div>",13,,,,,,,,
html-keyboard-response,325,528956,null,"<div style=""font-size:60px;"">+</div>",null,,,,,,,,
html-keyboard-response,326,529443,486.2100000027567,"PUMPKIN<img id = ""stim"" ><div class = red_square id = ""topsquare"" ></div><img id = ""stim"" ><div class = red_square  id = ""bottomsquare"" ></div>",32,word_square,response,1,Space,true,,,
html-keyboard-response,327,530946,null,"PUMPKIN",null,word,,,,, 'PUMPKIN',,
html-keyboard-response,328,531404,456.05999999679625,"MAILBOX<img id = ""stim"" ><div class = red_square id = ""topsquare"" ></div><img id = ""stim"" ><div class = red_square  id = ""bottomsquare"" ></div>",32,word_square,response,1,Space,true,,,
html-keyboard-response,329,532906,null,"MAILBOX",null,word,,,,, 'MAILBOX',,
html-keyboard-response,330,533408,null,"TRANSPLANT<img id = ""stim"" ><div class = green_square id = ""topsquare"" ></div><img id = ""stim"" ><div class = green_square  id = ""bottomsquare"" ></div>",null,word_square,response,0,none,true,,,
html-keyboard-response,331,534910,null,"TRANSPLANT",null,word,,,,, 'TRANSPLANT',,
html-keyboard-response,332,535418,null,"DRAWING<img id = ""stim"" ><div class = green_square id = ""topsquare"" ></div><img id = ""stim"" ><div class = green_square  id = ""bottomsquare"" ></div>",null,word_square,response,0,none,true,,,
html-keyboard-response,333,536921,null,"DRAWING",null,word,,,,, 'DRAWING',,
html-keyboard-response,334,537319,395.7149999914691,"FLOWER<img id = ""stim"" ><div class = red_square id = ""topsquare"" ></div><img id = ""stim"" ><div class = red_square  id = ""bottomsquare"" ></div>",32,word_square,response,1,Space,true,,,
html-keyboard-response,335,538823,null,"FLOWER",null,word,,,,, 'FLOWER',,
html-keyboard-response,336,539319,493.92499995883554,"LAVA<img id = ""stim"" ><div class = red_square id = ""topsquare"" ></div><img id = ""stim"" ><div class = red_square  id = ""bottomsquare"" ></div>",32,word_square,response,1,Space,true,,,
html-keyboard-response,337,540839,null,"LAVA",null,word,,,,, 'LAVA',,
html-keyboard-response,338,541342,null,"ISLAND<img id = ""stim"" ><div class = green_square id = ""topsquare"" ></div><img id = ""stim"" ><div class = green_square  id = ""bottomsquare"" ></div>",null,word_square,response,0,none,true,,,
html-keyboard-response,339,542858,null,"ISLAND",null,word,,,,, 'ISLAND',,
html-keyboard-response,340,543222,362.6500000245869,"FIGHTER<img id = ""stim"" ><div class = red_square id = ""topsquare"" ></div><img id = ""stim"" ><div class = red_square  id = ""bottomsquare"" ></div>",32,word_square,response,1,Space,true,,,
html-keyboard-response,341,544724,null,"FIGHTER",null,word,,,,, 'FIGHTER',,
html-keyboard-response,342,545237,null,"VICTIM<img id = ""stim"" ><div class = green_square id = ""topsquare"" ></div><img id = ""stim"" ><div class = green_square  id = ""bottomsquare"" ></div>",null,word_square,response,0,none,true,,,
html-keyboard-response,343,546752,null,"VICTIM",null,word,,,,, 'VICTIM',,
html-keyboard-response,344,547255,null,"FREEZER<img id = ""stim"" ><div class = green_square id = ""topsquare"" ></div><img id = ""stim"" ><div class = green_square  id = ""bottomsquare"" ></div>",null,word_square,response,0,none,true,,,
html-keyboard-response,345,548761,null,"FREEZER",null,word,,,,, 'FREEZER',,
html-keyboard-response,346,549191,428.650000016205,"CABLE<img id = ""stim"" ><div class = red_square id = ""topsquare"" ></div><img id = ""stim"" ><div class = red_square  id = ""bottomsquare"" ></div>",32,word_square,response,1,Space,true,,,
html-keyboard-response,347,550707,null,"CABLE",null,word,,,,, 'CABLE',,
html-keyboard-response,348,551106,395.0199999380857,"SENATE<img id = ""stim"" ><div class = red_square id = ""topsquare"" ></div><img id = ""stim"" ><div class = red_square  id = ""bottomsquare"" ></div>",32,word_square,response,1,Space,true,,,
html-keyboard-response,349,552608,null,"SENATE",null,word,,,,, 'SENATE',,
html-keyboard-response,350,553111,null,"LIVER<img id = ""stim"" ><div class = green_square id = ""topsquare"" ></div><img id = ""stim"" ><div class = green_square  id = ""bottomsquare"" ></div>",null,word_square,response,0,none,true,,,
html-keyboard-response,351,554613,null,"LIVER",null,word,,,,, 'LIVER',,
html-keyboard-response,352,555115,null,"CABBAGE<img id = ""stim"" ><div class = green_square id = ""topsquare"" ></div><img id = ""stim"" ><div class = green_square  id = ""bottomsquare"" ></div>",null,word_square,response,0,none,true,,,
html-keyboard-response,353,556621,null,"CABBAGE",null,word,,,,, 'CABBAGE',,
html-keyboard-response,354,557017,391.304999939166,"LETTUCE<img id = ""stim"" ><div class = red_square id = ""topsquare"" ></div><img id = ""stim"" ><div class = red_square  id = ""bottomsquare"" ></div>",32,word_square,response,1,Space,true,,,
html-keyboard-response,355,558523,null,"LETTUCE",null,word,,,,, 'LETTUCE',,
html-keyboard-response,356,559025,null,"CONVICT<img id = ""stim"" ><div class = green_square id = ""topsquare"" ></div><img id = ""stim"" ><div class = green_square  id = ""bottomsquare"" ></div>",null,word_square,response,0,none,true,,,
html-keyboard-response,357,560527,null,"CONVICT",null,word,,,,, 'CONVICT',,
html-keyboard-response,358,560907,377.3550000041723,"TRUMPET<img id = ""stim"" ><div class = red_square id = ""topsquare"" ></div><img id = ""stim"" ><div class = red_square  id = ""bottomsquare"" ></div>",32,word_square,response,1,Space,true,,,
html-keyboard-response,359,562410,null,"TRUMPET",null,word,,,,, 'TRUMPET',,
html-keyboard-response,360,562912,null,"BOTTLE<img id = ""stim"" ><div class = green_square id = ""topsquare"" ></div><img id = ""stim"" ><div class = green_square  id = ""bottomsquare"" ></div>",null,word_square,response,0,none,true,,,
html-keyboard-response,361,564414,null,"BOTTLE",null,word,,,,, 'BOTTLE',,
call-function,362,564419,,"",,,,,,,,,
html-keyboard-response,363,564522,null,"",null,,,,,,,,
math-period,364,567657,5187.954999972135,"",,,,,,,,,2
html-keyboard-response,365,567774,null,"",null,,,,,,,,
math-period,366,568555,1437.9249999765307,"",,,,,,,,,2
html-keyboard-response,367,568658,null,"",null,,,,,,,,
math-period,368,571146,4814.890000037849,"",,,,,,,,,1
html-keyboard-response,369,571249,null,"",null,,,,,,,,
math-period,370,572107,1574.7400000691414,"",,,,,,,,,4
html-keyboard-response,371,572209,null,"",null,,,,,,,,
math-period,372,574540,4426.250000018626,"",,,,,,,,,1
html-keyboard-response,373,574656,null,"",null,,,,,,,,
math-period,374,576540,3660.299999988638,"",,,,,,,,,2
html-keyboard-response,375,576641,null,"",null,,,,,,,,
math-period,376,578109,2817.6050001056865,"",,,,,,,,,2
html-keyboard-response,377,578211,null,"",null,,,,,,,,
math-period,378,579940,3288.1250000791624,"",,,,,,,,,4
html-keyboard-response,379,580042,null,"",null,,,,,,,,
math-period,380,580924,1656.1049999436364,"",,,,,,,,,3
html-keyboard-response,381,581040,null,"",null,,,,,,,,
math-period,382,583669,5118.230000021867,"",,,,,,,,,3
html-keyboard-response,383,583771,null,"",null,,,,,,,,
math-period,384,584701,1791.484999936074,"",,,,,,,,,3
html-keyboard-response,385,584806,null,"",null,,,,,,,,
math-period,386,585917,2123.9999999525025,"",,,,,,,,,5
html-keyboard-response,387,586030,null,"",null,,,,,,,,
math-period,388,586789,757.8999999677762,"",,,,,,,,,
html-keyboard-response,389,586894,null,"",null,,,,,,,,
math-period,390,588423,null,"",,,,,,,,,
html-keyboard-response,391,589439,null,"Recall Period!",null,,,,,,,,
call-function,392,589440,,"",,,,,,,,,
html-keyboard-response,393,589547,null,"",null,,,,,,,,
recall-period,394,606353,114301.17000022437,"",,,,,,,,,garden
html-keyboard-response,395,606458,null,"",null,,,,,,,,
recall-period,396,609625,22600.110000232235,"",,,,,,,,,picture
html-keyboard-response,397,609729,null,"",null,,,,,,,,
recall-period,398,610635,4133.2349996082485,"",,,,,,,,,police
html-keyboard-response,399,610739,null,"",null,,,,,,,,
recall-period,400,611593,3540.119999786839,"",,,,,,,,,frame
html-keyboard-response,401,611698,null,"",null,,,,,,,,
recall-period,402,616453,30800.21000036504,"",,,,,,,,,lawyer
html-keyboard-response,403,616557,null,"",null,,,,,,,,
recall-period,404,621435,27890.37999988068,"",,,,,,,,,river
html-keyboard-response,405,621552,null,"",null,,,,,,,,
recall-period,406,622356,1720.070000155829,"",,,,,,,,,lake
html-keyboard-response,407,622458,null,"",null,,,,,,,,
recall-period,408,623931,7278.430000296794,"",,,,,,,,,water
html-keyboard-response,409,624035,null,"",null,,,,,,,,
recall-period,410,646436,110052.60000005364,"",,,,,,,,,tree
html-keyboard-response,411,646543,null,"",null,,,,,,,,
recall-period,412,663090,97034.1799997259,"",,,,,,,,,river
html-keyboard-response,413,663192,null,"",null,,,,,,,,
recall-period,414,664443,null,"",,,,,,,,,
html-keyboard-response,415,664945,null,"Time's Up!",null,,,,,,,,
html-keyboard-response,416,673236,8290.005000075325,"<p> Good job! You responded correctly to 99% of the red squares.</p>
                  <p>Be sure to keep your accuracy above 80%</p>
                  <p>Press any key to continue the experiment. Thank you!</p>",32,,,,,,,,
html-keyboard-response,417,674821,1580.7150000473484,"<div style=""font-size:48px;"">Press any key to begin list 4 of 24 </div>",32,,,,,,,,
html-keyboard-response,418,677325,null,"<div style=""font-size:60px;"">+</div>",null,,,,,,,,
html-keyboard-response,419,677828,null,"CHEST<img id = ""stim"" ><div class = red_square id = ""topsquare"" ></div><img id = ""stim"" ><div class = red_square  id = ""bottomsquare"" ></div>",null,word_square,response,1,Space,false,,,
html-keyboard-response,420,679331,null,"CHEST",null,word,,,,, 'CHEST',,
html-keyboard-response,421,679718,385.4749999009073,"TROPHY<img id = ""stim"" ><div class = red_square id = ""topsquare"" ></div><img id = ""stim"" ><div class = red_square  id = ""bottomsquare"" ></div>",32,word_square,response,1,Space,true,,,
html-keyboard-response,422,681222,null,"TROPHY",null,word,,,,, 'TROPHY',,
html-keyboard-response,423,681742,null,"MASK<img id = ""stim"" ><div class = green_square id = ""topsquare"" ></div><img id = ""stim"" ><div class = green_square  id = ""bottomsquare"" ></div>",null,word_square,response,0,none,true,,,
html-keyboard-response,424,683251,null,"MASK",null,word,,,,, 'MASK',,
html-keyboard-response,425,683754,null,"FOREHEAD<img id = ""stim"" ><div class = green_square id = ""topsquare"" ></div><img id = ""stim"" ><div class = green_square  id = ""bottomsquare"" ></div>",null,word_square,response,0,none,true,,,
html-keyboard-response,426,685257,null,"FOREHEAD",null,word,,,,, 'FOREHEAD',,
html-keyboard-response,427,685703,444.4600000279024,"MUSHROOM<img id = ""stim"" ><div class = red_square id = ""topsquare"" ></div><img id = ""stim"" ><div class = red_square  id = ""bottomsquare"" ></div>",32,word_square,response,1,Space,true,,,
html-keyboard-response,428,687204,null,"MUSHROOM",null,word,,,,, 'MUSHROOM',,
html-keyboard-response,429,687707,null,"CRITIC<img id = ""stim"" ><div class = red_square id = ""topsquare"" ></div><img id = ""stim"" ><div class = red_square  id = ""bottomsquare"" ></div>",null,word_square,response,1,Space,false,,,
html-keyboard-response,430,689209,null,"CRITIC",null,word,,,,, 'CRITIC',,
html-keyboard-response,431,689712,null,"BACKBONE<img id = ""stim"" ><div class = green_square id = ""topsquare"" ></div><img id = ""stim"" ><div class = green_square  id = ""bottomsquare"" ></div>",null,word_square,response,0,none,true,,,
html-keyboard-response,432,691227,null,"BACKBONE",null,word,,,,, 'BACKBONE',,
html-keyboard-response,433,691631,402.2499999264255,"MISTER<img id = ""stim"" ><div class = red_square id = ""topsquare"" ></div><img id = ""stim"" ><div class = red_square  id = ""bottomsquare"" ></div>",32,word_square,response,1,Space,true,,,
html-keyboard-response,434,693139,null,"MISTER",null,word,,,,, 'MISTER',,
html-keyboard-response,435,693641,null,"BUGLE<img id = ""stim"" ><div class = green_square id = ""topsquare"" ></div><img id = ""stim"" ><div class = green_square  id = ""bottomsquare"" ></div>",null,word_square,response,0,none,true,,,
html-keyboard-response,436,695144,null,"BUGLE",null,word,,,,, 'BUGLE',,
html-keyboard-response,437,695646,null,"SNORKEL<img id = ""stim"" ><div class = green_square id = ""topsquare"" ></div><img id = ""stim"" ><div class = green_square  id = ""bottomsquare"" ></div>",null,word_square,response,0,none,true,,,
html-keyboard-response,438,697151,null,"SNORKEL",null,word,,,,, 'SNORKEL',,
html-keyboard-response,439,697489,336.18500002194196,"FILM<img id = ""stim"" ><div class = red_square id = ""topsquare"" ></div><img id = ""stim"" ><div class = red_square  id = ""bottomsquare"" ></div>",32,word_square,response,1,Space,true,,,
html-keyboard-response,440,698991,null,"FILM",null,word,,,,, 'FILM',,
html-keyboard-response,441,699495,null,"COD<img id = ""stim"" ><div class = red_square id = ""topsquare"" ></div><img id = ""stim"" ><div class = red_square  id = ""bottomsquare"" ></div>",null,word_square,response,1,Space,false,,,
html-keyboard-response,442,700997,null,"COD",null,word,,,,, 'COD',,
html-keyboard-response,443,701507,null,"COFFIN<img id = ""stim"" ><div class = green_square id = ""topsquare"" ></div><img id = ""stim"" ><div class = green_square  id = ""bottomsquare"" ></div>",null,word_square,response,0,none,true,,,
html-keyboard-response,444,703010,null,"COFFIN",null,word,,,,, 'COFFIN',,
html-keyboard-response,445,703512,null,"MOTHER<img id = ""stim"" ><div class = green_square id = ""topsquare"" ></div><img id = ""stim"" ><div class = green_square  id = ""bottomsquare"" ></div>",null,word_square,response,0,none,true,,,
html-keyboard-response,446,705052,null,"MOTHER",null,word,,,,, 'MOTHER',,
html-keyboard-response,447,705555,null,"JUGGLER<img id = ""stim"" ><div class = red_square id = ""topsquare"" ></div><img id = ""stim"" ><div class = red_square  id = ""bottomsquare"" ></div>",null,word_square,response,1,Space,false,,,
html-keyboard-response,448,707058,null,"JUGGLER",null,word,,,,, 'JUGGLER',,
html-keyboard-response,449,707560,null,"GYMNAST<img id = ""stim"" ><div class = green_square id = ""topsquare"" ></div><img id = ""stim"" ><div class = green_square  id = ""bottomsquare"" ></div>",null,word_square,response,0,none,true,,,
html-keyboard-response,450,709069,null,"GYMNAST",null,word,,,,, 'GYMNAST',,
html-keyboard-response,451,709499,425.1749999821186,"FLAG<img id = ""stim"" ><div class = red_square id = ""topsquare"" ></div><img id = ""stim"" ><div class = red_square  id = ""bottomsquare"" ></div>",32,word_square,response,1,Space,true,,,
html-keyboard-response,452,711003,null,"FLAG",null,word,,,,, 'FLAG',,
html-keyboard-response,453,711506,null,"COUNTRY<img id = ""stim"" ><div class = green_square id = ""topsquare"" ></div><img id = ""stim"" ><div class = green_square  id = ""bottomsquare"" ></div>",null,word_square,response,0,none,true,,,
html-keyboard-response,454,713008,null,"COUNTRY",null,word,,,,, 'COUNTRY',,
call-function,455,713008,,"",,,,,,,,,
html-keyboard-response,456,713110,null,"",null,,,,,,,,
math-period,457,715490,4406.25,"",,,,,,,,,5
html-keyboard-response,458,715592,null,"",null,,,,,,,,
math-period,459,716884,2440.5799999367446,"",,,,,,,,,2
html-keyboard-response,460,716987,null,"",null,,,,,,,,
math-period,461,719884,5635.56499988772,"",,,,,,,,,1
html-keyboard-response,462,719988,null,"",null,,,,,,,,
math-period,463,722333,4140.664999955334,"",,,,,,,,,3
html-keyboard-response,464,722440,null,"",null,,,,,,,,
math-period,465,725963,6772.96000008937,"",,,,,,,,,0
html-keyboard-response,466,726068,null,"",null,,,,,,,,
math-period,467,726885,1540.4900000430644,"",,,,,,,,,2
html-keyboard-response,468,727030,null,"",null,,,,,,,,
math-period,469,728452,2711.0550000797957,"",,,,,,,,,5
html-keyboard-response,470,728555,null,"",null,,,,,,,,
math-period,471,730428,3543.584999977611,"",,,,,,,,,1
html-keyboard-response,472,730534,null,"",null,,,,,,,,
math-period,473,732941,4490.694999927655,"",,,,,,,,,4
html-keyboard-response,474,733043,null,"",null,,,,,,,,
math-period,475,734997,3721.0249999770895,"",,,,,,,,,1
html-keyboard-response,476,735112,null,"",null,,,,,,,,
math-period,477,737026,1789.310000021942,"",,,,,,,,,1
html-keyboard-response,478,738029,null,"Recall Period!",null,,,,,,,,
call-function,479,738030,,"",,,,,,,,,
html-keyboard-response,480,738146,null,"",null,,,,,,,,
recall-period,481,740655,15910.055000334978,"",,,,,,,,,country
html-keyboard-response,482,740756,null,"",null,,,,,,,,
recall-period,483,741240,1346.710000303574,"",,,,,,,,,flag
html-keyboard-response,484,741344,null,"",null,,,,,,,,
recall-period,485,742016,2404.3899999232963,"",,,,,,,,,period
html-keyboard-response,486,742121,null,"",null,,,,,,,,
recall-period,487,744095,10583.114999928512,"",,,,,,,,,water
html-keyboard-response,488,744211,null,"",null,,,,,,,,
recall-period,489,746279,13927.360000088811,"",,,,,,,,,picture
html-keyboard-response,490,746383,null,"",null,,,,,,,,
recall-period,491,746892,1757.640000199899,"",,,,,,,,,frame
html-keyboard-response,492,747007,null,"",null,,,,,,,,
recall-period,493,748023,4987.680000253022,"",,,,,,,,,police
html-keyboard-response,494,748126,null,"",null,,,,,,,,
recall-period,495,768027,98165.17999977805,"",,,,,,,,,hold
html-keyboard-response,496,768128,null,"",null,,,,,,,,
recall-period,497,769188,5420.28500023298,"",,,,,,,,,holding
html-keyboard-response,498,769290,null,"",null,,,,,,,,
recall-period,499,776173,44746.06999987736,"",,,,,,,,,father
html-keyboard-response,500,776276,null,"",null,,,,,,,,
recall-period,501,777397,3390.789999975823,"",,,,,,,,,mother
html-keyboard-response,502,777501,null,"",null,,,,,,,,
recall-period,503,779302,10307.024999870919,"",,,,,,,,,family
html-keyboard-response,504,779405,null,"",null,,,,,,,,
recall-period,505,803190,140546.8650002731,"",,,,,,,,,flask
html-keyboard-response,506,803295,null,"",null,,,,,,,,
recall-period,507,803881,1547.119999770075,"",,,,,,,,,drink
html-keyboard-response,508,803985,null,"",null,,,,,,,,
recall-period,509,804728,2744.4000000832602,"",,,,,,,,,water
html-keyboard-response,510,804833,null,"",null,,,,,,,,
recall-period,511,810057,37804.064999567345,"",,,,,,,,,wine
html-keyboard-response,512,810172,null,"",null,,,,,,,,
recall-period,513,813037,null,"",,,,,,,,,
html-keyboard-response,514,813540,null,"Time's Up!",null,,,,,,,,
html-keyboard-response,515,815771,2229.5699999667704,"<p> Good job! You responded correctly to 94% of the red squares.</p>
                  <p>Be sure to keep your accuracy above 80%</p>
                  <p>Press any key to continue the experiment. Thank you!</p>",32,,,,,,,,
html-keyboard-response,516,816933,1157.8699999954551,"<div style=""font-size:48px;"">Press any key to begin list 5 of 24 </div>",32,,,,,,,,
html-keyboard-response,517,819436,null,"<div style=""font-size:60px;"">+</div>",null,,,,,,,,
html-keyboard-response,518,819939,null,"PITCHFORK<img id = ""stim"" ><div class = red_square id = ""topsquare"" ></div><img id = ""stim"" ><div class = red_square  id = ""bottomsquare"" ></div>",null,word_square,response,1,Space,false,,,
html-keyboard-response,519,821442,null,"PITCHFORK",null,word,,,,, 'PITCHFORK',,
html-keyboard-response,520,821974,null,"STOVE<img id = ""stim"" ><div class = green_square id = ""topsquare"" ></div><img id = ""stim"" ><div class = green_square  id = ""bottomsquare"" ></div>",null,word_square,response,0,none,true,,,
html-keyboard-response,521,823477,null,"STOVE",null,word,,,,, 'STOVE',,
html-keyboard-response,522,823940,461.174999945797,"BANQUET<img id = ""stim"" ><div class = red_square id = ""topsquare"" ></div><img id = ""stim"" ><div class = red_square  id = ""bottomsquare"" ></div>",32,word_square,response,1,Space,true,,,
html-keyboard-response,523,825442,null,"BANQUET",null,word,,,,, 'BANQUET',,
html-keyboard-response,524,825949,null,"TOOTHPASTE<img id = ""stim"" ><div class = green_square id = ""topsquare"" ></div><img id = ""stim"" ><div class = green_square  id = ""bottomsquare"" ></div>",null,word_square,response,0,none,true,,,
html-keyboard-response,525,827453,null,"TOOTHPASTE",null,word,,,,, 'TOOTHPASTE',,
html-keyboard-response,526,827886,430.4699999047443,"PILOT<img id = ""stim"" ><div class = red_square id = ""topsquare"" ></div><img id = ""stim"" ><div class = red_square  id = ""bottomsquare"" ></div>",32,word_square,response,1,Space,true,,,
html-keyboard-response,527,829389,null,"PILOT",null,word,,,,, 'PILOT',,
html-keyboard-response,528,829892,502.0250000525266,"STRANGER<img id = ""stim"" ><div class = red_square id = ""topsquare"" ></div><img id = ""stim"" ><div class = red_square  id = ""bottomsquare"" ></div>",32,word_square,response,1,Space,true,,,
html-keyboard-response,529,831394,null,"STRANGER",null,word,,,,, 'STRANGER',,
html-keyboard-response,530,831821,425.4100000252947,"BUREAU<img id = ""stim"" ><div class = red_square id = ""topsquare"" ></div><img id = ""stim"" ><div class = red_square  id = ""bottomsquare"" ></div>",32,word_square,response,1,Space,true,,,
html-keyboard-response,531,833324,null,"BUREAU",null,word,,,,, 'BUREAU',,
html-keyboard-response,532,833826,null,"JOINT<img id = ""stim"" ><div class = green_square id = ""topsquare"" ></div><img id = ""stim"" ><div class = green_square  id = ""bottomsquare"" ></div>",null,word_square,response,0,none,true,,,
html-keyboard-response,533,835329,null,"JOINT",null,word,,,,, 'JOINT',,
html-keyboard-response,534,835693,359.45500002708286,"LOBSTER<img id = ""stim"" ><div class = red_square id = ""topsquare"" ></div><img id = ""stim"" ><div class = red_square  id = ""bottomsquare"" ></div>",32,word_square,response,1,Space,true,,,
html-keyboard-response,535,837208,null,"LOBSTER",null,word,,,,, 'LOBSTER',,
html-keyboard-response,536,837710,null,"TREASURE<img id = ""stim"" ><div class = green_square id = ""topsquare"" ></div><img id = ""stim"" ><div class = green_square  id = ""bottomsquare"" ></div>",null,word_square,response,0,none,true,,,
html-keyboard-response,537,839220,null,"TREASURE",null,word,,,,, 'TREASURE',,
html-keyboard-response,538,839754,null,"AIRPORT<img id = ""stim"" ><div class = green_square id = ""topsquare"" ></div><img id = ""stim"" ><div class = green_square  id = ""bottomsquare"" ></div>",null,word_square,response,0,none,true,,,
html-keyboard-response,539,841257,null,"AIRPORT",null,word,,,,, 'AIRPORT',,
html-keyboard-response,540,841623,364.31000009179115,"PLAYGROUND<img id = ""stim"" ><div class = red_square id = ""topsquare"" ></div><img id = ""stim"" ><div class = red_square  id = ""bottomsquare"" ></div>",32,word_square,response,1,Space,true,,,
html-keyboard-response,541,843125,null,"PLAYGROUND",null,word,,,,, 'PLAYGROUND',,
html-keyboard-response,542,843627,null,"SLIDE<img id = ""stim"" ><div class = green_square id = ""topsquare"" ></div><img id = ""stim"" ><div class = green_square  id = ""bottomsquare"" ></div>",null,word_square,response,0,none,true,,,
html-keyboard-response,543,845133,null,"SLIDE",null,word,,,,, 'SLIDE',,
html-keyboard-response,544,845637,null,"HAWK<img id = ""stim"" ><div class = green_square id = ""topsquare"" ></div><img id = ""stim"" ><div class = green_square  id = ""bottomsquare"" ></div>",null,word_square,response,0,none,true,,,
html-keyboard-response,545,847142,null,"HAWK",null,word,,,,, 'HAWK',,
html-keyboard-response,546,847553,408.66499999538064,"OFFICE<img id = ""stim"" ><div class = red_square id = ""topsquare"" ></div><img id = ""stim"" ><div class = red_square  id = ""bottomsquare"" ></div>",32,word_square,response,1,Space,true,,,
html-keyboard-response,547,849055,null,"OFFICE",null,word,,,,, 'OFFICE',,
html-keyboard-response,548,849559,null,"STONE<img id = ""stim"" ><div class = green_square id = ""topsquare"" ></div><img id = ""stim"" ><div class = green_square  id = ""bottomsquare"" ></div>",null,word_square,response,0,none,true,,,
html-keyboard-response,549,851062,null,"STONE",null,word,,,,, 'STONE',,
html-keyboard-response,550,851577,null,"SHRIMP<img id = ""stim"" ><div class = green_square id = ""topsquare"" ></div><img id = ""stim"" ><div class = green_square  id = ""bottomsquare"" ></div>",null,word_square,response,0,none,true,,,
html-keyboard-response,551,853079,null,"SHRIMP",null,word,,,,, 'SHRIMP',,
html-keyboard-response,552,853489,406.79000003729016,"TURTLE<img id = ""stim"" ><div class = red_square id = ""topsquare"" ></div><img id = ""stim"" ><div class = red_square  id = ""bottomsquare"" ></div>",32,word_square,response,1,Space,true,,,
html-keyboard-response,553,855004,null,"TURTLE",null,word,,,,, 'TURTLE',,
call-function,554,855005,,"",,,,,,,,,
html-keyboard-response,555,855108,null,"",null,,,,,,,,
math-period,556,857857,5209.524999954738,"",,,,,,,,,1
html-keyboard-response,557,857961,null,"",null,,,,,,,,
math-period,558,858836,1624.3199998280033,"",,,,,,,,,5
html-keyboard-response,559,858939,null,"",null,,,,,,,,
math-period,560,859930,1907.8949999529868,"",,,,,,,,,5
html-keyboard-response,561,860035,null,"",null,,,,,,,,
math-period,562,861388,2586.5250000497326,"",,,,,,,,,4
html-keyboard-response,563,861505,null,"",null,,,,,,,,
math-period,564,862602,2070.6100000534207,"",,,,,,,,,6
html-keyboard-response,565,862716,null,"",null,,,,,,,,
math-period,566,863890,2162.9749999847263,"",,,,,,,,,5
html-keyboard-response,567,863992,null,"",null,,,,,,,,
math-period,568,866348,4595.579999964684,"",,,,,,,,,4
html-keyboard-response,569,866453,null,"",null,,,,,,,,
math-period,570,868204,3369.0099999075755,"",,,,,,,,,1
html-keyboard-response,571,868321,null,"",null,,,,,,,,
math-period,572,869059,1402.0249999593943,"",,,,,,,,,3
html-keyboard-response,573,869162,null,"",null,,,,,,,,
math-period,574,870365,2128.2399999909103,"",,,,,,,,,6
html-keyboard-response,575,870471,null,"",null,,,,,,,,
math-period,576,871221,1285.5100000742823,"",,,,,,,,,6
html-keyboard-response,577,871325,null,"",null,,,,,,,,
math-period,578,872339,1914.3349999794737,"",,,,,,,,,3
html-keyboard-response,579,872442,null,"",null,,,,,,,,
math-period,580,873382,1746.4200000977144,"",,,,,,,,,3
html-keyboard-response,581,873485,null,"",null,,,,,,,,
math-period,582,874257,1415.6799998600036,"",,,,,,,,,4
html-keyboard-response,583,874359,null,"",null,,,,,,,,
math-period,584,875701,2551.919999998063,"",,,,,,,,,4
html-keyboard-response,585,875816,null,"",null,,,,,,,,
math-period,586,877028,2069.5149999810383,"",,,,,,,,,4
html-keyboard-response,587,877145,null,"",null,,,,,,,,
math-period,588,878759,3067.674999940209,"",,,,,,,,,4
html-keyboard-response,589,878862,null,"",null,,,,,,,,
math-period,590,879007,null,"",,,,,,,,,
html-keyboard-response,591,880009,null,"Recall Period!",null,,,,,,,,
call-function,592,880010,,"",,,,,,,,,
html-keyboard-response,593,880112,null,"",null,,,,,,,,
recall-period,594,881589,6243.940000422299,"",,,,,,,,,fram
html-keyboard-response,595,881691,null,"",null,,,,,,,,
recall-period,596,883125,7063.275000196882,"",,,,,,,,,frame
html-keyboard-response,597,883227,null,"",null,,,,,,,,
recall-period,598,884142,4634.05000034254,"",,,,,,,,,picture
html-keyboard-response,599,884258,null,"",null,,,,,,,,
recall-period,600,885110,3259.0949998702854,"",,,,,,,,,bleak
html-keyboard-response,601,885226,null,"",null,,,,,,,,
recall-period,602,885950,1978.175000171177,"",,,,,,,,,oil
html-keyboard-response,603,886053,null,"",null,,,,,,,,
recall-period,604,886737,2889.805000158958,"",,,,,,,,,water
html-keyboard-response,605,886868,null,"",null,,,,,,,,
recall-period,606,887568,3001.7450001323596,"",,,,,,,,,father
html-keyboard-response,607,887671,null,"",null,,,,,,,,
recall-period,608,888320,2638.0000000353903,"",,,,,,,,,mother
html-keyboard-response,609,888422,null,"",null,,,,,,,,
recall-period,610,890494,13435.984999872744,"",,,,,,,,,police
html-keyboard-response,611,890599,null,"",null,,,,,,,,
recall-period,612,893120,13473.120000446215,"",,,,,,,,,drain
html-keyboard-response,613,893235,null,"",null,,,,,,,,
recall-period,614,900241,40293.879999779165,"",,,,,,,,,drink
html-keyboard-response,615,900343,null,"",null,,,,,,,,
recall-period,616,902761,12504.194999695756,"",,,,,,,,,bleak
html-keyboard-response,617,902862,null,"",null,,,,,,,,
recall-period,618,911226,32530.704999924637,"",,,,,,,,,oil
html-keyboard-response,619,911333,null,"",null,,,,,,,,
recall-period,620,935406,164986.35999998078,"",,,,,,,,,pencil
html-keyboard-response,621,935509,null,"",null,,,,,,,,
recall-period,622,940983,44904.57000001334,"",,,,,,,,,medicine
html-keyboard-response,623,941087,null,"",null,,,,,,,,
recall-period,624,955015,null,"",,,,,,,,,
html-keyboard-response,625,955519,null,"Time's Up!",null,,,,,,,,
html-keyboard-response,626,957626,2105.199999990873,"<p> Good job! You responded correctly to 94% of the red squares.</p>
                  <p>Be sure to keep your accuracy above 80%</p>
                  <p>Press any key to continue the experiment. Thank you!</p>",32,,,,,,,,
html-keyboard-response,627,958450,822.5400000810623,"<div style=""font-size:48px;"">Press any key to begin list 6 of 24 </div>",32,,,,,,,,
html-keyboard-response,628,960953,null,"<div style=""font-size:60px;"">+</div>",null,,,,,,,,
html-keyboard-response,629,961411,456.415000022389,"FEAST<img id = ""stim"" ><div class = red_square id = ""topsquare"" ></div><img id = ""stim"" ><div class = red_square  id = ""bottomsquare"" ></div>",32,word_square,response,1,Space,true,,,
html-keyboard-response,630,962915,null,"FEAST",null,word,,,,, 'FEAST',,
html-keyboard-response,631,963417,null,"MOTOR<img id = ""stim"" ><div class = green_square id = ""topsquare"" ></div><img id = ""stim"" ><div class = green_square  id = ""bottomsquare"" ></div>",null,word_square,response,0,none,true,,,
html-keyboard-response,632,964939,null,"MOTOR",null,word,,,,, 'MOTOR',,
html-keyboard-response,633,965442,null,"PISTON<img id = ""stim"" ><div class = red_square id = ""topsquare"" ></div><img id = ""stim"" ><div class = red_square  id = ""bottomsquare"" ></div>",null,word_square,response,1,Space,false,,,
html-keyboard-response,634,966943,null,"PISTON",null,word,,,,, 'PISTON',,
html-keyboard-response,635,967448,null,"DAD<img id = ""stim"" ><div class = green_square id = ""topsquare"" ></div><img id = ""stim"" ><div class = green_square  id = ""bottomsquare"" ></div>",null,word_square,response,0,none,true,,,
html-keyboard-response,636,968950,null,"DAD",null,word,,,,, 'DAD',,
html-keyboard-response,637,969443,491.7850000783801,"GROUND<img id = ""stim"" ><div class = red_square id = ""topsquare"" ></div><img id = ""stim"" ><div class = red_square  id = ""bottomsquare"" ></div>",32,word_square,response,1,Space,true,,,
html-keyboard-response,638,970949,null,"GROUND",null,word,,,,, 'GROUND',,
html-keyboard-response,639,971323,369.7849999880418,"BOYFRIEND<img id = ""stim"" ><div class = red_square id = ""topsquare"" ></div><img id = ""stim"" ><div class = red_square  id = ""bottomsquare"" ></div>",32,word_square,response,1,Space,true,,,
html-keyboard-response,640,972826,null,"BOYFRIEND",null,word,,,,, 'BOYFRIEND',,
html-keyboard-response,641,973285,456.8199999630451,"DESSERT<img id = ""stim"" ><div class = red_square id = ""topsquare"" ></div><img id = ""stim"" ><div class = red_square  id = ""bottomsquare"" ></div>",32,word_square,response,1,Space,true,,,
html-keyboard-response,642,974787,null,"DESSERT",null,word,,,,, 'DESSERT',,
html-keyboard-response,643,975303,null,"STAKE<img id = ""stim"" ><div class = green_square id = ""topsquare"" ></div><img id = ""stim"" ><div class = green_square  id = ""bottomsquare"" ></div>",null,word_square,response,0,none,true,,,
html-keyboard-response,644,976806,null,"STAKE",null,word,,,,, 'STAKE',,
html-keyboard-response,645,977197,388.9849999686703,"LUMBER<img id = ""stim"" ><div class = red_square id = ""topsquare"" ></div><img id = ""stim"" ><div class = red_square  id = ""bottomsquare"" ></div>",32,word_square,response,1,Space,true,,,
html-keyboard-response,646,978701,null,"LUMBER",null,word,,,,, 'LUMBER',,
html-keyboard-response,647,979205,null,"SEAFOOD<img id = ""stim"" ><div class = green_square id = ""topsquare"" ></div><img id = ""stim"" ><div class = green_square  id = ""bottomsquare"" ></div>",null,word_square,response,0,none,true,,,
html-keyboard-response,648,980709,null,"SEAFOOD",null,word,,,,, 'SEAFOOD',,
html-keyboard-response,649,981216,null,"SCHOOL<img id = ""stim"" ><div class = green_square id = ""topsquare"" ></div><img id = ""stim"" ><div class = green_square  id = ""bottomsquare"" ></div>",null,word_square,response,0,none,true,,,
html-keyboard-response,650,982718,null,"SCHOOL",null,word,,,,, 'SCHOOL',,
html-keyboard-response,651,983220,null,"BANJO<img id = ""stim"" ><div class = red_square id = ""topsquare"" ></div><img id = ""stim"" ><div class = red_square  id = ""bottomsquare"" ></div>",null,word_square,response,1,Space,false,,,
html-keyboard-response,652,984721,null,"BANJO",null,word,,,,, 'BANJO',,
html-keyboard-response,653,985236,null,"COLONEL<img id = ""stim"" ><div class = green_square id = ""topsquare"" ></div><img id = ""stim"" ><div class = green_square  id = ""bottomsquare"" ></div>",null,word_square,response,0,none,true,,,
html-keyboard-response,654,986741,null,"COLONEL",null,word,,,,, 'COLONEL',,
html-keyboard-response,655,987242,null,"GUARD<img id = ""stim"" ><div class = green_square id = ""topsquare"" ></div><img id = ""stim"" ><div class = green_square  id = ""bottomsquare"" ></div>",null,word_square,response,0,none,true,,,
html-keyboard-response,656,988750,null,"GUARD",null,word,,,,, 'GUARD',,
html-keyboard-response,657,989253,null,"COLLEGE<img id = ""stim"" ><div class = red_square id = ""topsquare"" ></div><img id = ""stim"" ><div class = red_square  id = ""bottomsquare"" ></div>",null,word_square,response,1,Space,false,,,
html-keyboard-response,658,990765,null,"COLLEGE",null,word,,,,, 'COLLEGE',,
html-keyboard-response,659,991273,null,"PARTNER<img id = ""stim"" ><div class = green_square id = ""topsquare"" ></div><img id = ""stim"" ><div class = green_square  id = ""bottomsquare"" ></div>",null,word_square,response,0,none,true,,,
html-keyboard-response,660,992788,null,"PARTNER",null,word,,,,, 'PARTNER',,
html-keyboard-response,661,993291,null,"GLOBE<img id = ""stim"" ><div class = green_square id = ""topsquare"" ></div><img id = ""stim"" ><div class = green_square  id = ""bottomsquare"" ></div>",null,word_square,response,0,none,true,,,
html-keyboard-response,662,994793,null,"GLOBE",null,word,,,,, 'GLOBE',,
html-keyboard-response,663,995300,null,"FATHER<img id = ""stim"" ><div class = red_square id = ""topsquare"" ></div><img id = ""stim"" ><div class = red_square  id = ""bottomsquare"" ></div>",null,word_square,response,1,Space,false,,,
html-keyboard-response,664,996803,null,"FATHER",null,word,,,,, 'FATHER',,
call-function,665,996804,,"",,,,,,,,,
html-keyboard-response,666,996906,null,"",null,,,,,,,,
math-period,667,999256,4345.39000003133,"",,,,,,,,,5
html-keyboard-response,668,999358,null,"",null,,,,,,,,
math-period,669,1000336,1817.3000001115724,"",,,,,,,,,6
html-keyboard-response,670,1000439,null,"",null,,,,,,,,
math-period,671,1002458,3947.190000093542,"",,,,,,,,,2
html-keyboard-response,672,1002584,null,"",null,,,,,,,,
math-period,673,1003960,2597.8200000245124,"",,,,,,,,,4
html-keyboard-response,674,1004064,null,"",null,,,,,,,,
math-period,675,1005249,2221.8550000106916,"",,,,,,,,,5
html-keyboard-response,676,1005352,null,"",null,,,,,,,,
math-period,677,1006265,1688.8049999251962,"",,,,,,,,,6
html-keyboard-response,678,1006369,null,"",null,,,,,,,,
math-period,679,1007561,2268.8449998386204,"",,,,,,,,,4
html-keyboard-response,680,1007677,null,"",null,,,,,,,,
math-period,681,1010386,5248.1500001158565,"",,,,,,,,,4
html-keyboard-response,682,1010489,null,"",null,,,,,,,,
math-period,683,1012019,2575.980000081472,"",,,,,,,,,5
html-keyboard-response,684,1012122,null,"",null,,,,,,,,
math-period,685,1013826,3174.709999933839,"",,,,,,,,,4
html-keyboard-response,686,1013932,null,"",null,,,,,,,,
math-period,687,1015419,2771.7999999877065,"",,,,,,,,,1
html-keyboard-response,688,1015520,null,"",null,,,,,,,,
math-period,689,1016469,1738.3350000018254,"",,,,,,,,,2
html-keyboard-response,690,1016571,null,"",null,,,,,,,,
math-period,691,1017732,2118.2400000980124,"",,,,,,,,,6
html-keyboard-response,692,1017842,null,"",null,,,,,,,,
math-period,693,1019675,3496.5799999190494,"",,,,,,,,,5
html-keyboard-response,694,1019777,null,"",null,,,,,,,,
math-period,695,1020782,1835.1399999810383,"",,,,,,,,,4
html-keyboard-response,696,1020900,null,"",null,,,,,,,,
math-period,697,1020905,null,"",,,,,,,,,
html-keyboard-response,698,1021907,null,"Recall Period!",null,,,,,,,,
call-function,699,1021907,,"",,,,,,,,,
html-keyboard-response,700,1022009,null,"",null,,,,,,,,
recall-period,701,1024669,16485.64999969676,"",,,,,,,,,father
html-keyboard-response,702,1024771,null,"",null,,,,,,,,
recall-period,703,1025133,722.6600002031773,"",,,,,,,,,dad
html-keyboard-response,704,1025243,null,"",null,,,,,,,,
recall-period,705,1026524,6139.644999755546,"",,,,,,,,,mother
html-keyboard-response,706,1026631,null,"",null,,,,,,,,
recall-period,707,1038048,76211.52000024449,"",,,,,,,,,school
html-keyboard-response,708,1038153,null,"",null,,,,,,,,
recall-period,709,1038935,3629.3850002111867,"",,,,,,,,,college
html-keyboard-response,710,1039038,null,"",null,,,,,,,,
recall-period,711,1040568,7783.714999561198,"",,,,,,,,,globe
html-keyboard-response,712,1040672,null,"",null,,,,,,,,
recall-period,713,1041591,3981.2800001818687,"",,,,,,,,,country
html-keyboard-response,714,1041695,null,"",null,,,,,,,,
recall-period,715,1042126,1304.0199998067692,"",,,,,,,,,flag
html-keyboard-response,716,1042230,null,"",null,,,,,,,,
recall-period,717,1042903,2241.069999639876,"",,,,,,,,,proud
html-keyboard-response,718,1043015,null,"",null,,,,,,,,
recall-period,719,1050808,62717.89000008721,"",,,,,,,,,drink
html-keyboard-response,720,1050912,null,"",null,,,,,,,,
recall-period,721,1052146,5740.700000198558,"",,,,,,,,,dreary
html-keyboard-response,722,1052250,null,"",null,,,,,,,,
recall-period,723,1055001,13602.170000085607,"",,,,,,,,,happy
html-keyboard-response,724,1055103,null,"",null,,,,,,,,
recall-period,725,1055498,1043.525000102818,"",,,,,,,,,sad
html-keyboard-response,726,1055603,null,"",null,,,,,,,,
recall-period,727,1060603,22450.04500017967,"",,,,,,,,,film
html-keyboard-response,728,1060707,null,"",null,,,,,,,,
recall-period,729,1071884,142973.3600000618,"",,,,,,,,,picture
html-keyboard-response,730,1071987,null,"",null,,,,,,,,
recall-period,731,1076842,30370.379999978468,"",,,,,,,,,friend
html-keyboard-response,732,1076946,null,"",null,,,,,,,,
recall-period,733,1096919,null,"",,,,,,,,,
html-keyboard-response,734,1097422,null,"Time's Up!",null,,,,,,,,
html-keyboard-response,735,1099963,2538.5000000242144,"<p> Good job! You responded correctly to 92% of the red squares.</p>
                  <p>Be sure to keep your accuracy above 80%</p>
                  <p>Press any key to continue the experiment. Thank you!</p>",32,,,,,,,,
html-keyboard-response,736,1100930,965.2449999703094,"<div style=""font-size:48px;"">Press any key to begin list 7 of 24 </div>",32,,,,,,,,
html-keyboard-response,737,1103450,null,"<div style=""font-size:60px;"">+</div>",null,,,,,,,,
html-keyboard-response,738,1103953,null,"HATCHET<img id = ""stim"" ><div class = green_square id = ""topsquare"" ></div><img id = ""stim"" ><div class = green_square  id = ""bottomsquare"" ></div>",null,word_square,response,0,none,true,,,
html-keyboard-response,739,1105455,null,"HATCHET",null,word,,,,, 'HATCHET',,
html-keyboard-response,740,1105958,null,"SCALPEL<img id = ""stim"" ><div class = red_square id = ""topsquare"" ></div><img id = ""stim"" ><div class = red_square  id = ""bottomsquare"" ></div>",null,word_square,response,1,Space,false,,,
html-keyboard-response,741,1107463,null,"SCALPEL",null,word,,,,, 'SCALPEL',,
html-keyboard-response,742,1107968,null,"HEADBAND<img id = ""stim"" ><div class = green_square id = ""topsquare"" ></div><img id = ""stim"" ><div class = green_square  id = ""bottomsquare"" ></div>",null,word_square,response,0,none,true,,,
html-keyboard-response,743,1109469,null,"HEADBAND",null,word,,,,, 'HEADBAND',,
html-keyboard-response,744,1109898,427.10500000976026,"CHILD<img id = ""stim"" ><div class = red_square id = ""topsquare"" ></div><img id = ""stim"" ><div class = red_square  id = ""bottomsquare"" ></div>",32,word_square,response,1,Space,true,,,
html-keyboard-response,745,1111402,null,"CHILD",null,word,,,,, 'CHILD',,
html-keyboard-response,746,1111905,null,"OZONE<img id = ""stim"" ><div class = green_square id = ""topsquare"" ></div><img id = ""stim"" ><div class = green_square  id = ""bottomsquare"" ></div>",null,word_square,response,0,none,true,,,
html-keyboard-response,747,1113407,null,"OZONE",null,word,,,,, 'OZONE',,
html-keyboard-response,748,1113910,null,"NIGHTGOWN<img id = ""stim"" ><div class = green_square id = ""topsquare"" ></div><img id = ""stim"" ><div class = green_square  id = ""bottomsquare"" ></div>",null,word_square,response,0,none,true,,,
html-keyboard-response,749,1115415,null,"NIGHTGOWN",null,word,,,,, 'NIGHTGOWN',,
html-keyboard-response,750,1115919,null,"PLAID<img id = ""stim"" ><div class = green_square id = ""topsquare"" ></div><img id = ""stim"" ><div class = green_square  id = ""bottomsquare"" ></div>",null,word_square,response,0,none,true,,,
html-keyboard-response,751,1117423,null,"PLAID",null,word,,,,, 'PLAID',,
html-keyboard-response,752,1117901,477.1300000138581,"SKUNK<img id = ""stim"" ><div class = red_square id = ""topsquare"" ></div><img id = ""stim"" ><div class = red_square  id = ""bottomsquare"" ></div>",32,word_square,response,1,Space,true,,,
html-keyboard-response,753,1119407,null,"SKUNK",null,word,,,,, 'SKUNK',,
html-keyboard-response,754,1119915,null,"RAZOR<img id = ""stim"" ><div class = green_square id = ""topsquare"" ></div><img id = ""stim"" ><div class = green_square  id = ""bottomsquare"" ></div>",null,word_square,response,0,none,true,,,
html-keyboard-response,755,1121418,null,"RAZOR",null,word,,,,, 'RAZOR',,
html-keyboard-response,756,1121772,352.33000002335757,"SQUIRREL<img id = ""stim"" ><div class = red_square id = ""topsquare"" ></div><img id = ""stim"" ><div class = red_square  id = ""bottomsquare"" ></div>",32,word_square,response,1,Space,true,,,
html-keyboard-response,757,1123275,null,"SQUIRREL",null,word,,,,, 'SQUIRREL',,
html-keyboard-response,758,1123777,null,"FRIES<img id = ""stim"" ><div class = red_square id = ""topsquare"" ></div><img id = ""stim"" ><div class = red_square  id = ""bottomsquare"" ></div>",null,word_square,response,1,Space,false,,,
html-keyboard-response,759,1125280,null,"FRIES",null,word,,,,, 'FRIES',,
html-keyboard-response,760,1125785,null,"SERPENT<img id = ""stim"" ><div class = green_square id = ""topsquare"" ></div><img id = ""stim"" ><div class = green_square  id = ""bottomsquare"" ></div>",null,word_square,response,0,none,true,,,
html-keyboard-response,761,1127287,null,"SERPENT",null,word,,,,, 'SERPENT',,
html-keyboard-response,762,1127703,414.3049999838695,"PARCEL<img id = ""stim"" ><div class = red_square id = ""topsquare"" ></div><img id = ""stim"" ><div class = red_square  id = ""bottomsquare"" ></div>",32,word_square,response,1,Space,true,,,
html-keyboard-response,763,1129204,null,"PARCEL",null,word,,,,, 'PARCEL',,
html-keyboard-response,764,1129679,471.5149999829009,"WASP<img id = ""stim"" ><div class = red_square id = ""topsquare"" ></div><img id = ""stim"" ><div class = red_square  id = ""bottomsquare"" ></div>",32,word_square,response,1,Space,true,,,
html-keyboard-response,765,1131182,null,"WASP",null,word,,,,, 'WASP',,
html-keyboard-response,766,1131686,null,"HORNET<img id = ""stim"" ><div class = green_square id = ""topsquare"" ></div><img id = ""stim"" ><div class = green_square  id = ""bottomsquare"" ></div>",null,word_square,response,0,none,true,,,
html-keyboard-response,767,1133188,null,"HORNET",null,word,,,,, 'HORNET',,
html-keyboard-response,768,1133615,425.3400000743568,"MILK<img id = ""stim"" ><div class = red_square id = ""topsquare"" ></div><img id = ""stim"" ><div class = red_square  id = ""bottomsquare"" ></div>",32,word_square,response,1,Space,true,,,
html-keyboard-response,769,1135118,null,"MILK",null,word,,,,, 'MILK',,
html-keyboard-response,770,1135512,390.8750000409782,"PARROT<img id = ""stim"" ><div class = red_square id = ""topsquare"" ></div><img id = ""stim"" ><div class = red_square  id = ""bottomsquare"" ></div>",32,word_square,response,1,Space,true,,,
html-keyboard-response,771,1137014,null,"PARROT",null,word,,,,, 'PARROT',,
html-keyboard-response,772,1137517,null,"HEEL<img id = ""stim"" ><div class = green_square id = ""topsquare"" ></div><img id = ""stim"" ><div class = green_square  id = ""bottomsquare"" ></div>",null,word_square,response,0,none,true,,,
html-keyboard-response,773,1139020,null,"HEEL",null,word,,,,, 'HEEL',,
call-function,774,1139021,,"",,,,,,,,,
html-keyboard-response,775,1139124,null,"",null,,,,,,,,
math-period,776,1141401,3647.2150000045076,"",,,,,,,,,4
html-keyboard-response,777,1141504,null,"",null,,,,,,,,
math-period,778,1142617,2069.6049999678507,"",,,,,,,,,3
html-keyboard-response,779,1142733,null,"",null,,,,,,,,
math-period,780,1144170,2696.944999974221,"",,,,,,,,,5
html-keyboard-response,781,1144272,null,"",null,,,,,,,,
math-period,782,1145147,1567.1449999790639,"",,,,,,,,,3
html-keyboard-response,783,1145252,null,"",null,,,,,,,,
math-period,784,1146554,2424.65999990236,"",,,,,,,,,5
html-keyboard-response,785,1146656,null,"",null,,,,,,,,
math-period,786,1147752,1942.3749999841675,"",,,,,,,,,6
html-keyboard-response,787,1147856,null,"",null,,,,,,,,
math-period,788,1149073,2272.884999983944,"",,,,,,,,,5
html-keyboard-response,789,1149174,null,"",null,,,,,,,,
math-period,790,1150385,2283.6649999953806,"",,,,,,,,,5
html-keyboard-response,791,1150488,null,"",null,,,,,,,,
math-period,792,1152314,3471.9099999638274,"",,,,,,,,,4
html-keyboard-response,793,1152418,null,"",null,,,,,,,,
math-period,794,1153402,1779.975000070408,"",,,,,,,,,5
html-keyboard-response,795,1153503,null,"",null,,,,,,,,
math-period,796,1154618,2082.160000107251,"",,,,,,,,,4
html-keyboard-response,797,1154721,null,"",null,,,,,,,,
math-period,798,1155602,1615.1399998925626,"",,,,,,,,,3
html-keyboard-response,799,1155705,null,"",null,,,,,,,,
math-period,800,1158011,7687.165000243112,"",,,,,,,,,1
html-keyboard-response,801,1158114,null,"",null,,,,,,,,
math-period,802,1159580,2769.230000092648,"",,,,,,,,,4
html-keyboard-response,803,1159683,null,"",null,,,,,,,,
math-period,804,1160884,2132.935000117868,"",,,,,,,,,6
html-keyboard-response,805,1160986,null,"",null,,,,,,,,
math-period,806,1162675,3216.4099998772144,"",,,,,,,,,2
html-keyboard-response,807,1162779,null,"",null,,,,,,,,
math-period,808,1163024,null,"",,,,,,,,,
html-keyboard-response,809,1164030,null,"Recall Period!",null,,,,,,,,
call-function,810,1164032,,"",,,,,,,,,
html-keyboard-response,811,1164134,null,"",null,,,,,,,,
recall-period,812,1170940,45425.804999889806,"",,,,,,,,,piston
html-keyboard-response,813,1171042,null,"",null,,,,,,,,
recall-period,814,1172734,9814.939999836497,"",,,,,,,,,motor
html-keyboard-response,815,1172838,null,"",null,,,,,,,,
recall-period,816,1173381,1236.1350001301616,"",,,,,,,,,oil
html-keyboard-response,817,1173484,null,"",null,,,,,,,,
recall-period,818,1175895,9043.250000337139,"",,,,,,,,,car
html-keyboard-response,819,1176008,null,"",null,,,,,,,,
recall-period,820,1176599,1742.3249998828396,"",,,,,,,,,drink
html-keyboard-response,821,1176704,null,"",null,,,,,,,,
recall-period,822,1177134,1439.419999718666,"",,,,,,,,,water
html-keyboard-response,823,1177251,null,"",null,,,,,,,,
recall-period,824,1177837,1749.8750000959262,"",,,,,,,,,dad
html-keyboard-response,825,1177950,null,"",null,,,,,,,,
recall-period,826,1178637,2643.3549999492243,"",,,,,,,,,father
html-keyboard-response,827,1178741,null,"",null,,,,,,,,
recall-period,828,1179432,1604.920000070706,"",,,,,,,,,mom
html-keyboard-response,829,1179540,null,"",null,,,,,,,,
recall-period,830,1181118,7656.315000029281,"",,,,,,,,,mother
html-keyboard-response,831,1181232,null,"",null,,,,,,,,
recall-period,832,1182422,4181.4350000349805,"",,,,,,,,,car
html-keyboard-response,833,1182526,null,"",null,,,,,,,,
recall-period,834,1185297,10357.969999895431,"",,,,,,,,,bat
html-keyboard-response,835,1185401,null,"",null,,,,,,,,
recall-period,836,1186487,4438.63000033889,"",,,,,,,,,smash
html-keyboard-response,837,1186589,null,"",null,,,,,,,,
recall-period,838,1197024,68614.66499965172,"",,,,,,,,,wrench
html-keyboard-response,839,1197129,null,"",null,,,,,,,,
recall-period,840,1200585,15253.769999719225,"",,,,,,,,,pipe
html-keyboard-response,841,1200689,null,"",null,,,,,,,,
recall-period,842,1204970,22347.119999933057,"",,,,,,,,,globe
html-keyboard-response,843,1205072,null,"",null,,,,,,,,
recall-period,844,1215036,38031.025000149384,"",,,,,,,,,cup
html-keyboard-response,845,1215140,null,"",null,,,,,,,,
recall-period,846,1228031,133428.0550001422,"",,,,,,,,,camera
html-keyboard-response,847,1228138,null,"",null,,,,,,,,
recall-period,848,1235904,37332.04999973532,"",,,,,,,,,bank
html-keyboard-response,849,1236008,null,"",null,,,,,,,,
recall-period,850,1236545,1485.8449997846037,"",,,,,,,,,city
html-keyboard-response,851,1236652,null,"",null,,,,,,,,
recall-period,852,1239034,null,"",,,,,,,,,
html-keyboard-response,853,1239537,null,"Time's Up!",null,,,,,,,,
html-keyboard-response,854,1239665,125.50999992527068,"<p> Good job! You responded correctly to 92% of the red squares.</p>
                  <p>Be sure to keep your accuracy above 80%</p>
                  <p>Press any key to continue the experiment. Thank you!</p>",76,,,,,,,,
html-keyboard-response,855,1239823,155.97500000149012,"<div style=""font-size:48px;"">Press any key to begin list 8 of 24 </div>",13,,,,,,,,
html-keyboard-response,856,1242337,null,"<div style=""font-size:60px;"">+</div>",null,,,,,,,,
html-keyboard-response,857,1242811,470.8349999273196,"RUBY<img id = ""stim"" ><div class = green_square id = ""topsquare"" ></div><img id = ""stim"" ><div class = green_square  id = ""bottomsquare"" ></div>",32,word_square,response,0,none,false,,,
html-keyboard-response,858,1244315,null,"RUBY",null,word,,,,, 'RUBY',,
html-keyboard-response,859,1244818,null,"SHAMPOO<img id = ""stim"" ><div class = red_square id = ""topsquare"" ></div><img id = ""stim"" ><div class = red_square  id = ""bottomsquare"" ></div>",null,word_square,response,1,Space,false,,,
html-keyboard-response,860,1246320,null,"SHAMPOO",null,word,,,,, 'SHAMPOO',,
html-keyboard-response,861,1246823,null,"AGENT<img id = ""stim"" ><div class = green_square id = ""topsquare"" ></div><img id = ""stim"" ><div class = green_square  id = ""bottomsquare"" ></div>",null,word_square,response,0,none,true,,,
html-keyboard-response,862,1248325,null,"AGENT",null,word,,,,, 'AGENT',,
html-keyboard-response,863,1248772,445.50000003073364,"WAX<img id = ""stim"" ><div class = red_square id = ""topsquare"" ></div><img id = ""stim"" ><div class = red_square  id = ""bottomsquare"" ></div>",32,word_square,response,1,Space,true,,,
html-keyboard-response,864,1250275,null,"WAX",null,word,,,,, 'WAX',,
html-keyboard-response,865,1250776,null,"PORK<img id = ""stim"" ><div class = green_square id = ""topsquare"" ></div><img id = ""stim"" ><div class = green_square  id = ""bottomsquare"" ></div>",null,word_square,response,0,none,true,,,
html-keyboard-response,866,1252281,null,"PORK",null,word,,,,, 'PORK',,
html-keyboard-response,867,1252784,null,"BUCKET<img id = ""stim"" ><div class = green_square id = ""topsquare"" ></div><img id = ""stim"" ><div class = green_square  id = ""bottomsquare"" ></div>",null,word_square,response,0,none,true,,,
html-keyboard-response,868,1254286,null,"BUCKET",null,word,,,,, 'BUCKET',,
html-keyboard-response,869,1254789,null,"SHERIFF<img id = ""stim"" ><div class = green_square id = ""topsquare"" ></div><img id = ""stim"" ><div class = green_square  id = ""bottomsquare"" ></div>",null,word_square,response,0,none,true,,,
html-keyboard-response,870,1256291,null,"SHERIFF",null,word,,,,, 'SHERIFF',,
html-keyboard-response,871,1256797,null,"PAPER<img id = ""stim"" ><div class = red_square id = ""topsquare"" ></div><img id = ""stim"" ><div class = red_square  id = ""bottomsquare"" ></div>",null,word_square,response,1,Space,false,,,
html-keyboard-response,872,1258299,null,"PAPER",null,word,,,,, 'PAPER',,
html-keyboard-response,873,1258813,null,"CONTRACT<img id = ""stim"" ><div class = green_square id = ""topsquare"" ></div><img id = ""stim"" ><div class = green_square  id = ""bottomsquare"" ></div>",null,word_square,response,0,none,true,,,
html-keyboard-response,874,1260317,null,"CONTRACT",null,word,,,,, 'CONTRACT',,
html-keyboard-response,875,1260717,398.31499999854714,"LAGOON<img id = ""stim"" ><div class = red_square id = ""topsquare"" ></div><img id = ""stim"" ><div class = red_square  id = ""bottomsquare"" ></div>",32,word_square,response,1,Space,true,,,
html-keyboard-response,876,1262219,null,"LAGOON",null,word,,,,, 'LAGOON',,
html-keyboard-response,877,1262646,424.3949999799952,"NOVEL<img id = ""stim"" ><div class = red_square id = ""topsquare"" ></div><img id = ""stim"" ><div class = red_square  id = ""bottomsquare"" ></div>",32,word_square,response,1,Space,true,,,
html-keyboard-response,878,1264150,null,"NOVEL",null,word,,,,, 'NOVEL',,
html-keyboard-response,879,1264652,null,"POET<img id = ""stim"" ><div class = green_square id = ""topsquare"" ></div><img id = ""stim"" ><div class = green_square  id = ""bottomsquare"" ></div>",null,word_square,response,0,none,true,,,
html-keyboard-response,880,1266154,null,"POET",null,word,,,,, 'POET',,
html-keyboard-response,881,1266572,416.83999996166676,"CASTLE<img id = ""stim"" ><div class = red_square id = ""topsquare"" ></div><img id = ""stim"" ><div class = red_square  id = ""bottomsquare"" ></div>",32,word_square,response,1,Space,true,,,
html-keyboard-response,882,1268079,null,"CASTLE",null,word,,,,, 'CASTLE',,
html-keyboard-response,883,1268518,437.0599999092519,"HAMPER<img id = ""stim"" ><div class = red_square id = ""topsquare"" ></div><img id = ""stim"" ><div class = red_square  id = ""bottomsquare"" ></div>",32,word_square,response,1,Space,true,,,
html-keyboard-response,884,1270019,null,"HAMPER",null,word,,,,, 'HAMPER',,
html-keyboard-response,885,1270536,null,"BELLY<img id = ""stim"" ><div class = green_square id = ""topsquare"" ></div><img id = ""stim"" ><div class = green_square  id = ""bottomsquare"" ></div>",null,word_square,response,0,none,true,,,
html-keyboard-response,886,1272051,null,"BELLY",null,word,,,,, 'BELLY',,
html-keyboard-response,887,1272453,400.4300000378862,"STOMACH<img id = ""stim"" ><div class = red_square id = ""topsquare"" ></div><img id = ""stim"" ><div class = red_square  id = ""bottomsquare"" ></div>",32,word_square,response,1,Space,true,,,
html-keyboard-response,888,1273955,null,"STOMACH",null,word,,,,, 'STOMACH',,
html-keyboard-response,889,1274446,488.770000054501,"BATHROOM<img id = ""stim"" ><div class = red_square id = ""topsquare"" ></div><img id = ""stim"" ><div class = red_square  id = ""bottomsquare"" ></div>",32,word_square,response,1,Space,true,,,
html-keyboard-response,890,1275950,null,"BATHROOM",null,word,,,,, 'BATHROOM',,
html-keyboard-response,891,1276453,null,"BOULDER<img id = ""stim"" ><div class = green_square id = ""topsquare"" ></div><img id = ""stim"" ><div class = green_square  id = ""bottomsquare"" ></div>",null,word_square,response,0,none,true,,,
html-keyboard-response,892,1277956,null,"BOULDER",null,word,,,,, 'BOULDER',,
call-function,893,1277957,,"",,,,,,,,,
html-keyboard-response,894,1278066,null,"",null,,,,,,,,
math-period,895,1282016,7867.259999969974,"",,,,,,,,,6 
html-keyboard-response,896,1282118,null,"",null,,,,,,,,
math-period,897,1283703,2990.845000022091,"",,,,,,,,,5
html-keyboard-response,898,1283804,null,"",null,,,,,,,,
math-period,899,1285639,3490.9799998858944,"",,,,,,,,,4
html-keyboard-response,900,1285741,null,"",null,,,,,,,,
math-period,901,1287616,3587.0349999750033,"",,,,,,,,,2
html-keyboard-response,902,1287719,null,"",null,,,,,,,,
math-period,903,1288840,2000.474999891594,"",,,,,,,,,6
html-keyboard-response,904,1288945,null,"",null,,,,,,,,
math-period,905,1292320,6539.514999953099,"",,,,,,,,,1
html-keyboard-response,906,1292435,null,"",null,,,,,,,,
math-period,907,1293272,1503.3550000516698,"",,,,,,,,,3
html-keyboard-response,908,1293374,null,"",null,,,,,,,,
math-period,909,1294466,2033.9499998372048,"",,,,,,,,,4
html-keyboard-response,910,1294569,null,"",null,,,,,,,,
math-period,911,1296825,3837.709999992512,"",,,,,,,,,1
html-keyboard-response,912,1296935,null,"",null,,,,,,,,
math-period,913,1298074,1937.7300000051036,"",,,,,,,,,3
html-keyboard-response,914,1298184,null,"",null,,,,,,,,
math-period,915,1299538,2416.1199999507517,"",,,,,,,,,5
html-keyboard-response,916,1299640,null,"",null,,,,,,,,
math-period,917,1301442,3432.624999899417,"",,,,,,,,,2
html-keyboard-response,918,1301550,null,"",null,,,,,,,,
math-period,919,1301967,null,"",,,,,,,,,
html-keyboard-response,920,1303003,null,"Recall Period!",null,,,,,,,,
call-function,921,1303023,,"",,,,,,,,,
html-keyboard-response,922,1303126,null,"",null,,,,,,,,
recall-period,923,1305820,16509.754999773577,"",,,,,,,,,boulder
html-keyboard-response,924,1305923,null,"",null,,,,,,,,
recall-period,925,1306490,1935.6799999950454,"",,,,,,,,,paper
html-keyboard-response,926,1306600,null,"",null,,,,,,,,
recall-period,927,1307154,2158.965000184253,"",,,,,,,,,water
html-keyboard-response,928,1307257,null,"",null,,,,,,,,
recall-period,929,1308283,4456.320000113919,"",,,,,,,,,drink
html-keyboard-response,930,1308385,null,"",null,,,,,,,,
recall-period,931,1312244,28977.850000723265,"",,,,,,,,,sheriff
html-keyboard-response,932,1312353,null,"",null,,,,,,,,
recall-period,933,1317108,43266.61500055343,"",,,,,,,,,police
html-keyboard-response,934,1317213,null,"",null,,,,,,,,
recall-period,935,1318772,12108.23499946855,"",,,,,,,,,helipcopter
html-keyboard-response,936,1318879,null,"",null,,,,,,,,
recall-period,937,1319366,1539.8750002495944,"",,,,,,,,,bear
html-keyboard-response,938,1319483,null,"",null,,,,,,,,
recall-period,939,1323237,20899.35500000138,"",,,,,,,,,frame
html-keyboard-response,940,1323353,null,"",null,,,,,,,,
recall-period,941,1324037,2126.3249998446554,"",,,,,,,,,tool
html-keyboard-response,942,1324140,null,"",null,,,,,,,,
recall-period,943,1337225,75506.64999964647,"",,,,,,,,,bleak
html-keyboard-response,944,1337340,null,"",null,,,,,,,,
recall-period,945,1338688,4088.619999936782,"",,,,,,,,,dreary
html-keyboard-response,946,1338791,null,"",null,,,,,,,,
recall-period,947,1343626,26900.50499991048,"",,,,,,,,,paint
html-keyboard-response,948,1343729,null,"",null,,,,,,,,
recall-period,949,1354556,42471.5249997098,"",,,,,,,,,summit
html-keyboard-response,950,1354673,null,"",null,,,,,,,,
recall-period,951,1363941,39684.30000008084,"",,,,,,,,,rail
html-keyboard-response,952,1364045,null,"",null,,,,,,,,
recall-period,953,1365517,8676.750000100583,"",,,,,,,,,railroad
html-keyboard-response,954,1365621,null,"",null,,,,,,,,
recall-period,955,1370679,40745.80499972217,"",,,,,,,,,fountain
html-keyboard-response,956,1370783,null,"",null,,,,,,,,
recall-period,957,1372343,7747.020000242628,"",,,,,,,,,water
html-keyboard-response,958,1372449,null,"",null,,,,,,,,
recall-period,959,1378020,null,"",,,,,,,,,
html-keyboard-response,960,1378523,null,"Time's Up!",null,,,,,,,,
html-keyboard-response,961,1413077,34552.50500002876,"<p> Good job! You responded correctly to 91% of the red squares.</p>
                  <p>Be sure to keep your accuracy above 80%</p>
                  <p>Press any key to continue the experiment. Thank you!</p>",32,,,,,,,,
html-keyboard-response,962,1415598,2519.4650000194088,"<div style=""font-size:48px;"">Press any key to begin list 9 of 24 </div>",32,,,,,,,,
html-keyboard-response,963,1418101,null,"<div style=""font-size:60px;"">+</div>",null,,,,,,,,
html-keyboard-response,964,1418604,null,"SKATE<img id = ""stim"" ><div class = green_square id = ""topsquare"" ></div><img id = ""stim"" ><div class = green_square  id = ""bottomsquare"" ></div>",null,word_square,response,0,none,true,,,
html-keyboard-response,965,1420105,null,"SKATE",null,word,,,,, 'SKATE',,
html-keyboard-response,966,1420607,null,"BUTLER<img id = ""stim"" ><div class = green_square id = ""topsquare"" ></div><img id = ""stim"" ><div class = green_square  id = ""bottomsquare"" ></div>",null,word_square,response,0,none,true,,,
html-keyboard-response,967,1422115,null,"BUTLER",null,word,,,,, 'BUTLER',,
html-keyboard-response,968,1422609,489.24499994609505,"LEG<img id = ""stim"" ><div class = red_square id = ""topsquare"" ></div><img id = ""stim"" ><div class = red_square  id = ""bottomsquare"" ></div>",32,word_square,response,1,Space,true,,,
html-keyboard-response,969,1424113,null,"LEG",null,word,,,,, 'LEG',,
html-keyboard-response,970,1424615,null,"DAUGHTER<img id = ""stim"" ><div class = green_square id = ""topsquare"" ></div><img id = ""stim"" ><div class = green_square  id = ""bottomsquare"" ></div>",null,word_square,response,0,none,true,,,
html-keyboard-response,971,1426133,null,"DAUGHTER",null,word,,,,, 'DAUGHTER',,
html-keyboard-response,972,1426616,481.5599999856204,"BRANCH<img id = ""stim"" ><div class = red_square id = ""topsquare"" ></div><img id = ""stim"" ><div class = red_square  id = ""bottomsquare"" ></div>",32,word_square,response,1,Space,true,,,
html-keyboard-response,973,1428118,null,"BRANCH",null,word,,,,, 'BRANCH',,
html-keyboard-response,974,1428520,399.16000002995133,"BOX<img id = ""stim"" ><div class = red_square id = ""topsquare"" ></div><img id = ""stim"" ><div class = red_square  id = ""bottomsquare"" ></div>",32,word_square,response,1,Space,true,,,
html-keyboard-response,975,1430023,null,"BOX",null,word,,,,, 'BOX',,
html-keyboard-response,976,1430527,null,"PREACHER<img id = ""stim"" ><div class = green_square id = ""topsquare"" ></div><img id = ""stim"" ><div class = green_square  id = ""bottomsquare"" ></div>",null,word_square,response,0,none,true,,,
html-keyboard-response,977,1432031,null,"PREACHER",null,word,,,,, 'PREACHER',,
html-keyboard-response,978,1432546,null,"WRIST<img id = ""stim"" ><div class = green_square id = ""topsquare"" ></div><img id = ""stim"" ><div class = green_square  id = ""bottomsquare"" ></div>",null,word_square,response,0,none,true,,,
html-keyboard-response,979,1434049,null,"WRIST",null,word,,,,, 'WRIST',,
html-keyboard-response,980,1434464,413.5600000154227,"WHISTLE<img id = ""stim"" ><div class = red_square id = ""topsquare"" ></div><img id = ""stim"" ><div class = red_square  id = ""bottomsquare"" ></div>",32,word_square,response,1,Space,true,,,
html-keyboard-response,981,1435967,null,"WHISTLE",null,word,,,,, 'WHISTLE',,
html-keyboard-response,982,1436483,null,"MOTEL<img id = ""stim"" ><div class = green_square id = ""topsquare"" ></div><img id = ""stim"" ><div class = green_square  id = ""bottomsquare"" ></div>",null,word_square,response,0,none,true,,,
html-keyboard-response,983,1437985,null,"MOTEL",null,word,,,,, 'MOTEL',,
html-keyboard-response,984,1438456,469.880000106059,"TOURIST<img id = ""stim"" ><div class = red_square id = ""topsquare"" ></div><img id = ""stim"" ><div class = red_square  id = ""bottomsquare"" ></div>",32,word_square,response,1,Space,true,,,
html-keyboard-response,985,1439960,null,"TOURIST",null,word,,,,, 'TOURIST',,
html-keyboard-response,986,1440479,null,"CABOOSE<img id = ""stim"" ><div class = green_square id = ""topsquare"" ></div><img id = ""stim"" ><div class = green_square  id = ""bottomsquare"" ></div>",null,word_square,response,0,none,true,,,
html-keyboard-response,987,1441988,null,"CABOOSE",null,word,,,,, 'CABOOSE',,
html-keyboard-response,988,1442495,null,"CROOK<img id = ""stim"" ><div class = green_square id = ""topsquare"" ></div><img id = ""stim"" ><div class = green_square  id = ""bottomsquare"" ></div>",null,word_square,response,0,none,true,,,
html-keyboard-response,989,1443998,null,"CROOK",null,word,,,,, 'CROOK',,
html-keyboard-response,990,1444379,378.66499996744096,"SAPPHIRE<img id = ""stim"" ><div class = red_square id = ""topsquare"" ></div><img id = ""stim"" ><div class = red_square  id = ""bottomsquare"" ></div>",32,word_square,response,1,Space,true,,,
html-keyboard-response,991,1445895,null,"SAPPHIRE",null,word,,,,, 'SAPPHIRE',,
