trial_type,trial_index,time_elapsed,rt,stimulus,key_press,test_part,task,targ_cond,correctKeyCode,correct,word,value,response
pavlovia,0,722,,"",,,,,,,,,
external-html,1,5105,4256.160000004456,"",,,,,,,,,
html-keyboard-response,2,221547,216439.96499999776,"Welcome to the experiment. Press any key to begin.",39,,,,,,,,
html-keyboard-response,3,248965,27414.715000006254,"<p>You will see a list of words and colored squares in the following task.<p><p>Press the spacebar whenever you see a GREEN square.<p><p>Do not press a key if the square is RED<p><p>Press the spacebar to continue.</p>",32,,,,,,,,
html-keyboard-response,4,265853,16369.65500000224,"<p>Please try to remember as many of the words as you can, and try to think about the meaning of each word as it appears.<p><p>After the detection and encoding task you will be asked to solve some math problems for 24 seconds.<p> Please solve as many problems as you can in the time given. <p>",32,,,,,,,,
html-keyboard-response,5,283307,16937.59499999578,"After solving the math problems, you will be asked to type in as many words <p>from the previous list as you can remember for 75 seconds.<p> If you finish recalling before the 75 seconds are up,<p> just sit tight and try to think of any more words you could have missed. <p><p>We will begin with a brief practice session<p>Press the spacebar to begin the practice.</p>",32,,,,,,,,
html-keyboard-response,6,285822,null,"<div style=""font-size:60px;"">+</div>",null,,,,,,,,
html-keyboard-response,7,286326,null,"HAPPY<img id = ""stim"" ><div class = red_square id = ""topsquare"" ></div><img id = ""stim"" ><div class = red_square  id = ""bottomsquare"" ></div>",null,word_square,prac_response,0,none,true,,,
html-keyboard-response,8,287836,null,"HAPPY",null,word,,,,,HAPPY,,
html-keyboard-response,9,288339,null,"COLD<img id = ""stim"" ><div class = green_square id = ""topsquare"" ></div><img id = ""stim"" ><div class = green_square  id = ""bottomsquare"" ></div>",null,word_square,prac_response,1,Space,false,,,
html-keyboard-response,10,289852,null,"COLD",null,word,,,,,COLD,,
html-keyboard-response,11,290358,null,"HEAVY<img id = ""stim"" ><div class = green_square id = ""topsquare"" ></div><img id = ""stim"" ><div class = green_square  id = ""bottomsquare"" ></div>",null,word_square,prac_response,1,Space,false,,,
html-keyboard-response,12,291870,null,"HEAVY",null,word,,,,,HEAVY,,
html-keyboard-response,13,292372,null,"FUNNY<img id = ""stim"" ><div class = red_square id = ""topsquare"" ></div><img id = ""stim"" ><div class = red_square  id = ""bottomsquare"" ></div>",null,word_square,prac_response,0,none,true,,,
html-keyboard-response,14,293875,null,"FUNNY",null,word,,,,,FUNNY,,
html-keyboard-response,15,294387,493.0649999878369,"SCARY<img id = ""stim"" ><div class = green_square id = ""topsquare"" ></div><img id = ""stim"" ><div class = green_square  id = ""bottomsquare"" ></div>",32,word_square,prac_response,1,Space,true,,,
html-keyboard-response,16,295895,null,"SCARY",null,word,,,,,SCARY,,
html-keyboard-response,17,296409,null,"PEACEFUL<img id = ""stim"" ><div class = green_square id = ""topsquare"" ></div><img id = ""stim"" ><div class = green_square  id = ""bottomsquare"" ></div>",null,word_square,prac_response,1,Space,false,,,
html-keyboard-response,18,297916,null,"PEACEFUL",null,word,,,,,PEACEFUL,,
html-keyboard-response,19,298419,null,"LITTLE<img id = ""stim"" ><div class = red_square id = ""topsquare"" ></div><img id = ""stim"" ><div class = red_square  id = ""bottomsquare"" ></div>",null,word_square,prac_response,0,none,true,,,
html-keyboard-response,20,299933,null,"LITTLE",null,word,,,,,LITTLE,,
html-keyboard-response,21,300444,null,"TIRED<img id = ""stim"" ><div class = red_square id = ""topsquare"" ></div><img id = ""stim"" ><div class = red_square  id = ""bottomsquare"" ></div>",null,word_square,prac_response,0,none,true,,,
html-keyboard-response,22,301950,null,"TIRED",null,word,,,,,TIRED,,
html-keyboard-response,23,302463,null,"ENTERTAINING<img id = ""stim"" ><div class = red_square id = ""topsquare"" ></div><img id = ""stim"" ><div class = red_square  id = ""bottomsquare"" ></div>",null,word_square,prac_response,0,none,true,,,
html-keyboard-response,24,303966,null,"ENTERTAINING",null,word,,,,,ENTERTAINING,,
html-keyboard-response,25,304487,466.5450000029523,"GRATEFUL<img id = ""stim"" ><div class = green_square id = ""topsquare"" ></div><img id = ""stim"" ><div class = green_square  id = ""bottomsquare"" ></div>",32,word_square,prac_response,1,Space,true,,,
html-keyboard-response,26,306006,null,"GRATEFUL",null,word,,,,,GRATEFUL,,
html-keyboard-response,27,306522,null,"LOUD<img id = ""stim"" ><div class = red_square id = ""topsquare"" ></div><img id = ""stim"" ><div class = red_square  id = ""bottomsquare"" ></div>",null,word_square,prac_response,0,none,true,,,
html-keyboard-response,28,308038,null,"LOUD",null,word,,,,,LOUD,,
html-keyboard-response,29,308556,489.4999999960419,"SMART<img id = ""stim"" ><div class = green_square id = ""topsquare"" ></div><img id = ""stim"" ><div class = green_square  id = ""bottomsquare"" ></div>",32,word_square,prac_response,1,Space,true,,,
html-keyboard-response,30,310064,null,"SMART",null,word,,,,,SMART,,
html-keyboard-response,31,310579,null,"SMOOTH<img id = ""stim"" ><div class = green_square id = ""topsquare"" ></div><img id = ""stim"" ><div class = green_square  id = ""bottomsquare"" ></div>",null,word_square,prac_response,1,Space,false,,,
html-keyboard-response,32,312092,null,"SMOOTH",null,word,,,,,SMOOTH,,
html-keyboard-response,33,312602,null,"DISHONEST<img id = ""stim"" ><div class = red_square id = ""topsquare"" ></div><img id = ""stim"" ><div class = red_square  id = ""bottomsquare"" ></div>",null,word_square,prac_response,0,none,true,,,
html-keyboard-response,34,314112,null,"DISHONEST",null,word,,,,,DISHONEST,,
html-keyboard-response,35,314620,416.97500000009313,"WEALTHY<img id = ""stim"" ><div class = green_square id = ""topsquare"" ></div><img id = ""stim"" ><div class = green_square  id = ""bottomsquare"" ></div>",32,word_square,prac_response,1,Space,true,,,
html-keyboard-response,36,316137,null,"WEALTHY",null,word,,,,,WEALTHY,,
html-keyboard-response,37,316654,null,"BEAUTIFUL<img id = ""stim"" ><div class = red_square id = ""topsquare"" ></div><img id = ""stim"" ><div class = red_square  id = ""bottomsquare"" ></div>",null,word_square,prac_response,0,none,true,,,
html-keyboard-response,38,318157,null,"BEAUTIFUL",null,word,,,,,BEAUTIFUL,,
html-keyboard-response,39,318675,null,"DREARY<img id = ""stim"" ><div class = red_square id = ""topsquare"" ></div><img id = ""stim"" ><div class = red_square  id = ""bottomsquare"" ></div>",null,word_square,prac_response,0,none,true,,,
html-keyboard-response,40,320183,null,"DREARY",null,word,,,,,DREARY,,
html-keyboard-response,41,320693,null,"PLAYFUL<img id = ""stim"" ><div class = green_square id = ""topsquare"" ></div><img id = ""stim"" ><div class = green_square  id = ""bottomsquare"" ></div>",null,word_square,prac_response,1,Space,false,,,
html-keyboard-response,42,322200,null,"PLAYFUL",null,word,,,,,PLAYFUL,,
html-keyboard-response,43,330860,8654.339999993681,"<p> Uh oh. You responded correctly on 72% of the GREEN squares.</p>
                  <p>We need you keep your accuracy above 80%</p>
                  <p>We're going to try once more to make sure you understand the task. press any key to continue.</p>",32,,,,,,,,
html-keyboard-response,44,332730,1867.4400000018068,"<p>You will see a list of words and colored squares in the following task.<p><p>Press the spacebar whenever you see a GREEN square.<p><p>Do not press a key if the square is RED<p><p>Press the spacebar to continue.</p>",32,,,,,,,,
html-keyboard-response,45,335244,null,"<div style=""font-size:60px;"">+</div>",null,,,,,,,,
html-keyboard-response,46,335763,null,"HAPPY<img id = ""stim"" ><div class = red_square id = ""topsquare"" ></div><img id = ""stim"" ><div class = red_square  id = ""bottomsquare"" ></div>",null,word_square,response,0,none,true,,,
html-keyboard-response,47,337266,null,"HAPPY",null,word,,,,,HAPPY,,
html-keyboard-response,48,337626,357.29499999433756,"COLD<img id = ""stim"" ><div class = green_square id = ""topsquare"" ></div><img id = ""stim"" ><div class = green_square  id = ""bottomsquare"" ></div>",32,word_square,response,1,Space,true,,,
html-keyboard-response,49,339138,null,"COLD",null,word,,,,,COLD,,
html-keyboard-response,50,339514,373.9050000003772,"HEAVY<img id = ""stim"" ><div class = green_square id = ""topsquare"" ></div><img id = ""stim"" ><div class = green_square  id = ""bottomsquare"" ></div>",32,word_square,response,1,Space,true,,,
html-keyboard-response,51,341022,null,"HEAVY",null,word,,,,,HEAVY,,
html-keyboard-response,52,341536,null,"FUNNY<img id = ""stim"" ><div class = red_square id = ""topsquare"" ></div><img id = ""stim"" ><div class = red_square  id = ""bottomsquare"" ></div>",null,word_square,response,0,none,true,,,
html-keyboard-response,53,343040,null,"FUNNY",null,word,,,,,FUNNY,,
html-keyboard-response,54,343459,417.0650000014575,"SCARY<img id = ""stim"" ><div class = green_square id = ""topsquare"" ></div><img id = ""stim"" ><div class = green_square  id = ""bottomsquare"" ></div>",32,word_square,response,1,Space,true,,,
html-keyboard-response,55,344968,null,"SCARY",null,word,,,,,SCARY,,
html-keyboard-response,56,345394,422.3150000034366,"PEACEFUL<img id = ""stim"" ><div class = green_square id = ""topsquare"" ></div><img id = ""stim"" ><div class = green_square  id = ""bottomsquare"" ></div>",32,word_square,response,1,Space,true,,,
html-keyboard-response,57,346898,null,"PEACEFUL",null,word,,,,,PEACEFUL,,
html-keyboard-response,58,347411,null,"LITTLE<img id = ""stim"" ><div class = red_square id = ""topsquare"" ></div><img id = ""stim"" ><div class = red_square  id = ""bottomsquare"" ></div>",null,word_square,response,0,none,true,,,
html-keyboard-response,59,348922,null,"LITTLE",null,word,,,,,LITTLE,,
html-keyboard-response,60,349440,null,"TIRED<img id = ""stim"" ><div class = red_square id = ""topsquare"" ></div><img id = ""stim"" ><div class = red_square  id = ""bottomsquare"" ></div>",null,word_square,response,0,none,true,,,
html-keyboard-response,61,350955,null,"TIRED",null,word,,,,,TIRED,,
html-keyboard-response,62,351466,null,"ENTERTAINING<img id = ""stim"" ><div class = red_square id = ""topsquare"" ></div><img id = ""stim"" ><div class = red_square  id = ""bottomsquare"" ></div>",null,word_square,response,0,none,true,,,
html-keyboard-response,63,352983,null,"ENTERTAINING",null,word,,,,,ENTERTAINING,,
html-keyboard-response,64,353378,391.3650000031339,"GRATEFUL<img id = ""stim"" ><div class = green_square id = ""topsquare"" ></div><img id = ""stim"" ><div class = green_square  id = ""bottomsquare"" ></div>",32,word_square,response,1,Space,true,,,
html-keyboard-response,65,354886,null,"GRATEFUL",null,word,,,,,GRATEFUL,,
html-keyboard-response,66,355391,null,"LOUD<img id = ""stim"" ><div class = red_square id = ""topsquare"" ></div><img id = ""stim"" ><div class = red_square  id = ""bottomsquare"" ></div>",null,word_square,response,0,none,true,,,
html-keyboard-response,67,356898,null,"LOUD",null,word,,,,,LOUD,,
html-keyboard-response,68,357299,398.24500000395346,"SMART<img id = ""stim"" ><div class = green_square id = ""topsquare"" ></div><img id = ""stim"" ><div class = green_square  id = ""bottomsquare"" ></div>",32,word_square,response,1,Space,true,,,
html-keyboard-response,69,358808,null,"SMART",null,word,,,,,SMART,,
html-keyboard-response,70,359314,null,"SMOOTH<img id = ""stim"" ><div class = green_square id = ""topsquare"" ></div><img id = ""stim"" ><div class = green_square  id = ""bottomsquare"" ></div>",null,word_square,response,1,Space,false,,,
html-keyboard-response,71,360817,null,"SMOOTH",null,word,,,,,SMOOTH,,
html-keyboard-response,72,361333,null,"DISHONEST<img id = ""stim"" ><div class = red_square id = ""topsquare"" ></div><img id = ""stim"" ><div class = red_square  id = ""bottomsquare"" ></div>",null,word_square,response,0,none,true,,,
html-keyboard-response,73,362848,null,"DISHONEST",null,word,,,,,DISHONEST,,
html-keyboard-response,74,363266,415.17999999632593,"WEALTHY<img id = ""stim"" ><div class = green_square id = ""topsquare"" ></div><img id = ""stim"" ><div class = green_square  id = ""bottomsquare"" ></div>",32,word_square,response,1,Space,true,,,
html-keyboard-response,75,364776,null,"WEALTHY",null,word,,,,,WEALTHY,,
html-keyboard-response,76,365285,null,"BEAUTIFUL<img id = ""stim"" ><div class = red_square id = ""topsquare"" ></div><img id = ""stim"" ><div class = red_square  id = ""bottomsquare"" ></div>",null,word_square,response,0,none,true,,,
html-keyboard-response,77,366802,null,"BEAUTIFUL",null,word,,,,,BEAUTIFUL,,
html-keyboard-response,78,367317,null,"DREARY<img id = ""stim"" ><div class = red_square id = ""topsquare"" ></div><img id = ""stim"" ><div class = red_square  id = ""bottomsquare"" ></div>",null,word_square,response,0,none,true,,,
html-keyboard-response,79,368834,null,"DREARY",null,word,,,,,DREARY,,
html-keyboard-response,80,369250,410.8249999990221,"PLAYFUL<img id = ""stim"" ><div class = green_square id = ""topsquare"" ></div><img id = ""stim"" ><div class = green_square  id = ""bottomsquare"" ></div>",32,word_square,response,1,Space,true,,,
html-keyboard-response,81,370756,null,"PLAYFUL",null,word,,,,,PLAYFUL,,
html-keyboard-response,82,377042,6282.825000002049,"<p> Good job! You responded correctly to 94% of the GREEN squares.</p>
                  <p>Be sure to keep your accuracy above 80%</p>
                  <p>Press any key to begin the math and recall sections. Thank you!</p>",32,,,,,,,,
call-function,83,377044,,"",,,,,,,,,
html-keyboard-response,84,377152,null,"",null,,,,,,,,
math-period,85,389960,146587.6150000695,"",,,,,,,,,3
html-keyboard-response,86,390063,null,"",null,,,,,,,,
math-period,87,395912,11110.494999986258,"",,,,,,,,,2
html-keyboard-response,88,396023,null,"",null,,,,,,,,
math-period,89,399296,5327.0749999792315,"",,,,,,,,,2
html-keyboard-response,90,399402,null,"",null,,,,,,,,
math-period,91,401061,null,"",,,,,,,,,
html-keyboard-response,92,402066,null,"Recall Period!",null,,,,,,,,
call-function,93,402068,,"",,,,,,,,,
html-keyboard-response,94,402170,null,"",null,,,,,,,,
recall-period,95,410359,59416.155000028084,"",,,,,,,,,beautiful
html-keyboard-response,96,410471,null,"",null,,,,,,,,
recall-period,97,412662,7948.885000048904,"",,,,,,,,,smart
html-keyboard-response,98,412772,null,"",null,,,,,,,,
recall-period,99,418959,33523.119999983464,"",,,,,,,,,loud
html-keyboard-response,100,419063,null,"",null,,,,,,,,
recall-period,101,429535,48487.43500004639,"",,,,,,,,,cold
html-keyboard-response,102,429639,null,"",null,,,,,,,,
recall-period,103,439439,67763.36000004085,"",,,,,,,,,wealthy
html-keyboard-response,104,439541,null,"",null,,,,,,,,
recall-period,105,452567,86448.07499996386,"",,,,,,,,,playful
html-keyboard-response,106,452670,null,"",null,,,,,,,,
recall-period,107,477081,null,"",,,,,,,,,
html-keyboard-response,108,477587,null,"Time's Up!",null,,,,,,,,
html-keyboard-response,109,491735,14145.514999996522,"<p>We will now begin the experiment!<p><p>Please try to remember all words from each list.<p><p>Press the spacebar whenever you see a GREEN square.<p><p><p><p>Press the spacebar to begin.</p>",32,,,,,,,,
html-keyboard-response,110,496376,4131.429999993998,"<div style=""font-size:48px;"">Press any key to begin list 1 of 24 </div>",32,,,,,,,,
html-keyboard-response,111,498899,null,"<div style=""font-size:60px;"">+</div>",null,,,,,,,,
html-keyboard-response,112,499410,null,"BROOK<img id = ""stim"" ><div class = red_square id = ""topsquare"" ></div><img id = ""stim"" ><div class = red_square  id = ""bottomsquare"" ></div>",null,word_square,response,0,none,true,,,
html-keyboard-response,113,500915,null,"BROOK",null,word,,,,, 'BROOK',,
html-keyboard-response,114,501415,498.2949999975972,"SNEAKER<img id = ""stim"" ><div class = green_square id = ""topsquare"" ></div><img id = ""stim"" ><div class = green_square  id = ""bottomsquare"" ></div>",32,word_square,response,1,Space,true,,,
html-keyboard-response,115,502926,null,"SNEAKER",null,word,,,,, 'SNEAKER',,
html-keyboard-response,116,503430,null,"TORCH<img id = ""stim"" ><div class = red_square id = ""topsquare"" ></div><img id = ""stim"" ><div class = red_square  id = ""bottomsquare"" ></div>",null,word_square,response,0,none,true,,,
html-keyboard-response,117,504945,null,"TORCH",null,word,,,,, 'TORCH',,
html-keyboard-response,118,505450,null,"BUBBLE<img id = ""stim"" ><div class = red_square id = ""topsquare"" ></div><img id = ""stim"" ><div class = red_square  id = ""bottomsquare"" ></div>",null,word_square,response,0,none,true,,,
html-keyboard-response,119,506965,null,"BUBBLE",null,word,,,,, 'BUBBLE',,
html-keyboard-response,120,507361,392.89499999722466,"RUG<img id = ""stim"" ><div class = green_square id = ""topsquare"" ></div><img id = ""stim"" ><div class = green_square  id = ""bottomsquare"" ></div>",32,word_square,response,1,Space,true,,,
html-keyboard-response,121,508865,null,"RUG",null,word,,,,, 'RUG',,
html-keyboard-response,122,509377,null,"POSTAGE<img id = ""stim"" ><div class = red_square id = ""topsquare"" ></div><img id = ""stim"" ><div class = red_square  id = ""bottomsquare"" ></div>",null,word_square,response,0,none,true,,,
html-keyboard-response,123,510893,null,"POSTAGE",null,word,,,,, 'POSTAGE',,
html-keyboard-response,124,511408,null,"HERO<img id = ""stim"" ><div class = red_square id = ""topsquare"" ></div><img id = ""stim"" ><div class = red_square  id = ""bottomsquare"" ></div>",null,word_square,response,0,none,true,,,
html-keyboard-response,125,512920,null,"HERO",null,word,,,,, 'HERO',,
html-keyboard-response,126,513319,396.48500000475906,"IDOL<img id = ""stim"" ><div class = green_square id = ""topsquare"" ></div><img id = ""stim"" ><div class = green_square  id = ""bottomsquare"" ></div>",32,word_square,response,1,Space,true,,,
html-keyboard-response,127,514825,null,"IDOL",null,word,,,,, 'IDOL',,
html-keyboard-response,128,515223,395.3849999961676,"WORKER<img id = ""stim"" ><div class = green_square id = ""topsquare"" ></div><img id = ""stim"" ><div class = green_square  id = ""bottomsquare"" ></div>",32,word_square,response,1,Space,true,,,
html-keyboard-response,129,516729,null,"WORKER",null,word,,,,, 'WORKER',,
html-keyboard-response,130,517241,null,"COLESLAW<img id = ""stim"" ><div class = red_square id = ""topsquare"" ></div><img id = ""stim"" ><div class = red_square  id = ""bottomsquare"" ></div>",null,word_square,response,0,none,true,,,
html-keyboard-response,131,518758,null,"COLESLAW",null,word,,,,, 'COLESLAW',,
html-keyboard-response,132,519268,null,"SWIMMER<img id = ""stim"" ><div class = red_square id = ""topsquare"" ></div><img id = ""stim"" ><div class = red_square  id = ""bottomsquare"" ></div>",null,word_square,response,0,none,true,,,
html-keyboard-response,133,520781,null,"SWIMMER",null,word,,,,, 'SWIMMER',,
html-keyboard-response,134,521168,383.93500000529457,"SHARK<img id = ""stim"" ><div class = green_square id = ""topsquare"" ></div><img id = ""stim"" ><div class = green_square  id = ""bottomsquare"" ></div>",32,word_square,response,1,Space,true,,,
html-keyboard-response,135,522672,null,"SHARK",null,word,,,,, 'SHARK',,
html-keyboard-response,136,523183,null,"SALT<img id = ""stim"" ><div class = red_square id = ""topsquare"" ></div><img id = ""stim"" ><div class = red_square  id = ""bottomsquare"" ></div>",null,word_square,response,0,none,true,,,
html-keyboard-response,137,524687,null,"SALT",null,word,,,,, 'SALT',,
html-keyboard-response,138,525118,429.58499999076594,"PEPPER<img id = ""stim"" ><div class = green_square id = ""topsquare"" ></div><img id = ""stim"" ><div class = green_square  id = ""bottomsquare"" ></div>",32,word_square,response,1,Space,true,,,
html-keyboard-response,139,526631,null,"PEPPER",null,word,,,,, 'PEPPER',,
html-keyboard-response,140,527102,468.59000000404194,"MOP<img id = ""stim"" ><div class = green_square id = ""topsquare"" ></div><img id = ""stim"" ><div class = green_square  id = ""bottomsquare"" ></div>",32,word_square,response,1,Space,true,,,
html-keyboard-response,141,528615,null,"MOP",null,word,,,,, 'MOP',,
html-keyboard-response,142,529127,null,"MONARCH<img id = ""stim"" ><div class = red_square id = ""topsquare"" ></div><img id = ""stim"" ><div class = red_square  id = ""bottomsquare"" ></div>",null,word_square,response,0,none,true,,,
html-keyboard-response,143,530640,null,"MONARCH",null,word,,,,, 'MONARCH',,
html-keyboard-response,144,530982,339.83500000613276,"ADULT<img id = ""stim"" ><div class = green_square id = ""topsquare"" ></div><img id = ""stim"" ><div class = green_square  id = ""bottomsquare"" ></div>",32,word_square,response,1,Space,true,,,
html-keyboard-response,145,532491,null,"ADULT",null,word,,,,, 'ADULT',,
html-keyboard-response,146,532912,417.9149999981746,"SIDING<img id = ""stim"" ><div class = green_square id = ""topsquare"" ></div><img id = ""stim"" ><div class = green_square  id = ""bottomsquare"" ></div>",32,word_square,response,1,Space,true,,,
html-keyboard-response,147,534426,null,"SIDING",null,word,,,,, 'SIDING',,
call-function,148,534428,,"",,,,,,,,,
html-keyboard-response,149,534532,null,"",null,,,,,,,,
math-period,150,540509,18243.419999984326,"",,,,,,,,,4
html-keyboard-response,151,540612,null,"",null,,,,,,,,
math-period,152,542716,3732.5849999760976,"",,,,,,,,,2
html-keyboard-response,153,542823,null,"",null,,,,,,,,
math-period,154,544420,2824.0000000078,"",,,,,,,,,3
html-keyboard-response,155,544524,null,"",null,,,,,,,,
math-period,156,547101,8134.174999999232,"",,,,,,,,,4
html-keyboard-response,157,547204,null,"",null,,,,,,,,
math-period,158,549852,4612.589999989723,"",,,,,,,,,4
html-keyboard-response,159,549955,null,"",null,,,,,,,,
math-period,160,552228,3350.834999990184,"",,,,,,,,,4
html-keyboard-response,161,552333,null,"",null,,,,,,,,
math-period,162,554349,3731.515000021318,"",,,,,,,,,1
html-keyboard-response,163,554452,null,"",null,,,,,,,,
math-period,164,557965,6221.709999997984,"",,,,,,,,,3
html-keyboard-response,165,558067,null,"",null,,,,,,,,
math-period,166,558430,null,"",,,,,,,,,
html-keyboard-response,167,559436,null,"Recall Period!",null,,,,,,,,
call-function,168,559438,,"",,,,,,,,,
html-keyboard-response,169,559540,null,"",null,,,,,,,,
recall-period,170,562844,11512.879999980214,"",,,,,,,,,idol
html-keyboard-response,171,562961,null,"",null,,,,,,,,
recall-period,172,564485,5211.330000005546,"",,,,,,,,,helo
html-keyboard-response,173,564604,null,"",null,,,,,,,,
recall-period,174,566292,5524.370000013732,"",,,,,,,,,shark
html-keyboard-response,175,566399,null,"",null,,,,,,,,
recall-period,176,568100,4326.62999999593,"",,,,,,,,,salt
html-keyboard-response,177,568211,null,"",null,,,,,,,,
recall-period,178,570276,7132.835000011255,"",,,,,,,,,pepper
html-keyboard-response,179,570392,null,"",null,,,,,,,,
recall-period,180,588516,120072.31999997748,"",,,,,,,,,bubble
html-keyboard-response,181,588618,null,"",null,,,,,,,,
recall-period,182,631508,334881.24000006064,"",,,,,,,,,swimmer
html-keyboard-response,183,631612,null,"",null,,,,,,,,
recall-period,184,634440,null,"",,,,,,,,,
html-keyboard-response,185,634944,null,"Time's Up!",null,,,,,,,,
html-keyboard-response,186,647516,12569.430000003194,"<p> Good job! You responded correctly to 97% of the GREEN squares.</p>
                  <p>Be sure to keep your accuracy above 80%</p>
                  <p>Press any key to continue the experiment. Thank you!</p>",32,,,,,,,,
html-keyboard-response,187,648331,812.7749999985099,"<div style=""font-size:48px;"">Press any key to begin list 2 of 24 </div>",32,,,,,,,,
html-keyboard-response,188,650852,null,"<div style=""font-size:60px;"">+</div>",null,,,,,,,,
html-keyboard-response,189,651359,null,"SUITE<img id = ""stim"" ><div class = red_square id = ""topsquare"" ></div><img id = ""stim"" ><div class = red_square  id = ""bottomsquare"" ></div>",null,word_square,response,0,none,true,,,
html-keyboard-response,190,652869,null,"SUITE",null,word,,,,, 'SUITE',,
html-keyboard-response,191,653277,404.64999999676365,"GUITAR<img id = ""stim"" ><div class = green_square id = ""topsquare"" ></div><img id = ""stim"" ><div class = green_square  id = ""bottomsquare"" ></div>",32,word_square,response,1,Space,true,,,
html-keyboard-response,192,654788,null,"GUITAR",null,word,,,,, 'GUITAR',,
html-keyboard-response,193,655291,null,"EGYPT<img id = ""stim"" ><div class = red_square id = ""topsquare"" ></div><img id = ""stim"" ><div class = red_square  id = ""bottomsquare"" ></div>",null,word_square,response,0,none,true,,,
html-keyboard-response,194,656799,null,"EGYPT",null,word,,,,, 'EGYPT',,
html-keyboard-response,195,657312,null,"COOKBOOK<img id = ""stim"" ><div class = red_square id = ""topsquare"" ></div><img id = ""stim"" ><div class = red_square  id = ""bottomsquare"" ></div>",null,word_square,response,0,none,true,,,
html-keyboard-response,196,658818,null,"COOKBOOK",null,word,,,,, 'COOKBOOK',,
html-keyboard-response,197,659251,430.5750000057742,"BISCUIT<img id = ""stim"" ><div class = green_square id = ""topsquare"" ></div><img id = ""stim"" ><div class = green_square  id = ""bottomsquare"" ></div>",32,word_square,response,1,Space,true,,,
html-keyboard-response,198,660765,null,"BISCUIT",null,word,,,,, 'BISCUIT',,
html-keyboard-response,199,661269,null,"HIKER<img id = ""stim"" ><div class = red_square id = ""topsquare"" ></div><img id = ""stim"" ><div class = red_square  id = ""bottomsquare"" ></div>",null,word_square,response,0,none,true,,,
html-keyboard-response,200,662784,null,"HIKER",null,word,,,,, 'HIKER',,
html-keyboard-response,201,663288,null,"CREATURE<img id = ""stim"" ><div class = red_square id = ""topsquare"" ></div><img id = ""stim"" ><div class = red_square  id = ""bottomsquare"" ></div>",null,word_square,response,0,none,true,,,
html-keyboard-response,202,664804,null,"CREATURE",null,word,,,,, 'CREATURE',,
html-keyboard-response,203,665212,405.9850000048755,"DESSERT<img id = ""stim"" ><div class = green_square id = ""topsquare"" ></div><img id = ""stim"" ><div class = green_square  id = ""bottomsquare"" ></div>",32,word_square,response,1,Space,true,,,
html-keyboard-response,204,666720,null,"DESSERT",null,word,,,,, 'DESSERT',,
html-keyboard-response,205,667125,401.8599999981234,"HAMMOCK<img id = ""stim"" ><div class = green_square id = ""topsquare"" ></div><img id = ""stim"" ><div class = green_square  id = ""bottomsquare"" ></div>",32,word_square,response,1,Space,true,,,
html-keyboard-response,206,668637,null,"HAMMOCK",null,word,,,,, 'HAMMOCK',,
html-keyboard-response,207,669145,null,"NEPHEW<img id = ""stim"" ><div class = red_square id = ""topsquare"" ></div><img id = ""stim"" ><div class = red_square  id = ""bottomsquare"" ></div>",null,word_square,response,0,none,true,,,
html-keyboard-response,208,670658,null,"NEPHEW",null,word,,,,, 'NEPHEW',,
html-keyboard-response,209,671169,null,"MAJOR<img id = ""stim"" ><div class = red_square id = ""topsquare"" ></div><img id = ""stim"" ><div class = red_square  id = ""bottomsquare"" ></div>",null,word_square,response,0,none,true,,,
html-keyboard-response,210,672682,null,"MAJOR",null,word,,,,, 'MAJOR',,
html-keyboard-response,211,673116,431.62000000302214,"CRAYON<img id = ""stim"" ><div class = green_square id = ""topsquare"" ></div><img id = ""stim"" ><div class = green_square  id = ""bottomsquare"" ></div>",32,word_square,response,1,Space,true,,,
html-keyboard-response,212,674629,null,"CRAYON",null,word,,,,, 'CRAYON',,
html-keyboard-response,213,675140,null,"FLESH<img id = ""stim"" ><div class = red_square id = ""topsquare"" ></div><img id = ""stim"" ><div class = red_square  id = ""bottomsquare"" ></div>",null,word_square,response,0,none,true,,,
html-keyboard-response,214,676644,null,"FLESH",null,word,,,,, 'FLESH',,
html-keyboard-response,215,677061,414.25999999046326,"BABY<img id = ""stim"" ><div class = green_square id = ""topsquare"" ></div><img id = ""stim"" ><div class = green_square  id = ""bottomsquare"" ></div>",32,word_square,response,1,Space,true,,,
html-keyboard-response,216,678573,null,"BABY",null,word,,,,, 'BABY',,
html-keyboard-response,217,679069,490.6349999946542,"CRIB<img id = ""stim"" ><div class = green_square id = ""topsquare"" ></div><img id = ""stim"" ><div class = green_square  id = ""bottomsquare"" ></div>",32,word_square,response,1,Space,true,,,
html-keyboard-response,218,680581,null,"CRIB",null,word,,,,, 'CRIB',,
html-keyboard-response,219,681099,null,"BARREL<img id = ""stim"" ><div class = red_square id = ""topsquare"" ></div><img id = ""stim"" ><div class = red_square  id = ""bottomsquare"" ></div>",null,word_square,response,0,none,true,,,
html-keyboard-response,220,682601,null,"BARREL",null,word,,,,, 'BARREL',,
html-keyboard-response,221,683028,424.32499999995343,"GREASE<img id = ""stim"" ><div class = green_square id = ""topsquare"" ></div><img id = ""stim"" ><div class = green_square  id = ""bottomsquare"" ></div>",32,word_square,response,1,Space,true,,,
html-keyboard-response,222,684539,null,"GREASE",null,word,,,,, 'GREASE',,
html-keyboard-response,223,684996,453.92500000889413,"FLOWER<img id = ""stim"" ><div class = green_square id = ""topsquare"" ></div><img id = ""stim"" ><div class = green_square  id = ""bottomsquare"" ></div>",32,word_square,response,1,Space,true,,,
html-keyboard-response,224,686508,null,"FLOWER",null,word,,,,, 'FLOWER',,
call-function,225,686511,,"",,,,,,,,,
html-keyboard-response,226,686617,null,"",null,,,,,,,,
math-period,227,692322,43834.789999964414,"",,,,,,,,,1
html-keyboard-response,228,692438,null,"",null,,,,,,,,
math-period,229,696898,15050.57500001567,"",,,,,,,,,1
html-keyboard-response,230,697006,null,"",null,,,,,,,,
math-period,231,701498,14155.779999986407,"",,,,,,,,,1
html-keyboard-response,232,701604,null,"",null,,,,,,,,
math-period,233,703962,4287.284999983967,"",,,,,,,,,2
html-keyboard-response,234,704073,null,"",null,,,,,,,,
math-period,235,707123,5614.6999999764375,"",,,,,,,,,4
html-keyboard-response,236,707230,null,"",null,,,,,,,,
math-period,237,709017,3268.2150000036927,"",,,,,,,,,1
html-keyboard-response,238,709127,null,"",null,,,,,,,,
math-period,239,710514,null,"",,,,,,,,,
html-keyboard-response,240,711521,null,"Recall Period!",null,,,,,,,,
call-function,241,711522,,"",,,,,,,,,
html-keyboard-response,242,711636,null,"",null,,,,,,,,
recall-period,243,714073,8820.6349999964,"",,,,,,,,,baby
html-keyboard-response,244,714178,null,"",null,,,,,,,,
recall-period,245,716305,6860.585000016727,"",,,,,,,,,crip
html-keyboard-response,246,716420,null,"",null,,,,,,,,
recall-period,247,719249,10059.714999981225,"",,,,,,,,,crib
html-keyboard-response,248,719357,null,"",null,,,,,,,,
recall-period,249,724017,11743.235000016284,"",,,,,,,,,flesh
html-keyboard-response,250,724131,null,"",null,,,,,,,,
recall-period,251,755441,183215.68999998271,"",,,,,,,,,major
html-keyboard-response,252,755549,null,"",null,,,,,,,,
recall-period,253,770088,317286.35000027134,"",,,,,,,,,caleslaw
html-keyboard-response,254,770196,null,"",null,,,,,,,,
recall-period,255,786531,null,"",,,,,,,,,
html-keyboard-response,256,787040,null,"Time's Up!",null,,,,,,,,
html-keyboard-response,257,789226,2182.9300000099465,"<p> Good job! You responded correctly to 98% of the GREEN squares.</p>
                  <p>Be sure to keep your accuracy above 80%</p>
                  <p>Press any key to continue the experiment. Thank you!</p>",32,,,,,,,,
html-keyboard-response,258,790401,1172.615000003134,"<div style=""font-size:48px;"">Press any key to begin list 3 of 24 </div>",32,,,,,,,,
html-keyboard-response,259,792925,null,"<div style=""font-size:60px;"">+</div>",null,,,,,,,,
html-keyboard-response,260,793431,null,"JAR<img id = ""stim"" ><div class = green_square id = ""topsquare"" ></div><img id = ""stim"" ><div class = green_square  id = ""bottomsquare"" ></div>",null,word_square,response,1,Space,false,,,
html-keyboard-response,261,794945,null,"JAR",null,word,,,,, 'JAR',,
html-keyboard-response,262,795451,null,"MASK<img id = ""stim"" ><div class = red_square id = ""topsquare"" ></div><img id = ""stim"" ><div class = red_square  id = ""bottomsquare"" ></div>",null,word_square,response,0,none,true,,,
html-keyboard-response,263,796965,null,"MASK",null,word,,,,, 'MASK',,
html-keyboard-response,264,797377,408.79499999573454,"MEAT<img id = ""stim"" ><div class = green_square id = ""topsquare"" ></div><img id = ""stim"" ><div class = green_square  id = ""bottomsquare"" ></div>",32,word_square,response,1,Space,true,,,
html-keyboard-response,265,798881,null,"MEAT",null,word,,,,, 'MEAT',,
html-keyboard-response,266,799299,414.2299999948591,"GRILL<img id = ""stim"" ><div class = green_square id = ""topsquare"" ></div><img id = ""stim"" ><div class = green_square  id = ""bottomsquare"" ></div>",32,word_square,response,1,Space,true,,,
html-keyboard-response,267,800816,null,"GRILL",null,word,,,,, 'GRILL',,
html-keyboard-response,268,801327,null,"MONEY<img id = ""stim"" ><div class = red_square id = ""topsquare"" ></div><img id = ""stim"" ><div class = red_square  id = ""bottomsquare"" ></div>",null,word_square,response,0,none,true,,,
html-keyboard-response,269,802841,null,"MONEY",null,word,,,,, 'MONEY',,
html-keyboard-response,270,803236,390.00499999383464,"LETTER<img id = ""stim"" ><div class = green_square id = ""topsquare"" ></div><img id = ""stim"" ><div class = green_square  id = ""bottomsquare"" ></div>",32,word_square,response,1,Space,true,,,
html-keyboard-response,271,804748,null,"LETTER",null,word,,,,, 'LETTER',,
html-keyboard-response,272,805217,466.33499999006744,"ROOSTER<img id = ""stim"" ><div class = green_square id = ""topsquare"" ></div><img id = ""stim"" ><div class = green_square  id = ""bottomsquare"" ></div>",32,word_square,response,1,Space,true,,,
html-keyboard-response,273,806722,null,"ROOSTER",null,word,,,,, 'ROOSTER',,
html-keyboard-response,274,807236,null,"PENGUIN<img id = ""stim"" ><div class = red_square id = ""topsquare"" ></div><img id = ""stim"" ><div class = red_square  id = ""bottomsquare"" ></div>",null,word_square,response,0,none,true,,,
html-keyboard-response,275,808741,null,"PENGUIN",null,word,,,,, 'PENGUIN',,
html-keyboard-response,276,809252,null,"ORGAN<img id = ""stim"" ><div class = red_square id = ""topsquare"" ></div><img id = ""stim"" ><div class = red_square  id = ""bottomsquare"" ></div>",null,word_square,response,0,none,true,,,
html-keyboard-response,277,810758,null,"ORGAN",null,word,,,,, 'ORGAN',,
html-keyboard-response,278,811179,416.55500000342727,"SCALLOP<img id = ""stim"" ><div class = green_square id = ""topsquare"" ></div><img id = ""stim"" ><div class = green_square  id = ""bottomsquare"" ></div>",32,word_square,response,1,Space,true,,,
html-keyboard-response,279,812685,null,"SCALLOP",null,word,,,,, 'SCALLOP',,
html-keyboard-response,280,813130,441.96999999985565,"DASHBOARD<img id = ""stim"" ><div class = green_square id = ""topsquare"" ></div><img id = ""stim"" ><div class = green_square  id = ""bottomsquare"" ></div>",32,word_square,response,1,Space,true,,,
html-keyboard-response,281,814645,null,"DASHBOARD",null,word,,,,, 'DASHBOARD',,
html-keyboard-response,282,815159,null,"CHAUFFEUR<img id = ""stim"" ><div class = red_square id = ""topsquare"" ></div><img id = ""stim"" ><div class = red_square  id = ""bottomsquare"" ></div>",null,word_square,response,0,none,true,,,
html-keyboard-response,283,816666,null,"CHAUFFEUR",null,word,,,,, 'CHAUFFEUR',,
html-keyboard-response,284,817130,460.59499999682885,"BLOCKADE<img id = ""stim"" ><div class = green_square id = ""topsquare"" ></div><img id = ""stim"" ><div class = green_square  id = ""bottomsquare"" ></div>",32,word_square,response,1,Space,true,,,
html-keyboard-response,285,818638,null,"BLOCKADE",null,word,,,,, 'BLOCKADE',,
html-keyboard-response,286,819144,null,"RUBY<img id = ""stim"" ><div class = red_square id = ""topsquare"" ></div><img id = ""stim"" ><div class = red_square  id = ""bottomsquare"" ></div>",null,word_square,response,0,none,true,,,
html-keyboard-response,287,820655,null,"RUBY",null,word,,,,, 'RUBY',,
html-keyboard-response,288,821169,null,"CASTLE<img id = ""stim"" ><div class = red_square id = ""topsquare"" ></div><img id = ""stim"" ><div class = red_square  id = ""bottomsquare"" ></div>",null,word_square,response,0,none,true,,,
html-keyboard-response,289,822686,null,"CASTLE",null,word,,,,, 'CASTLE',,
html-keyboard-response,290,823106,416.8999999965308,"COD<img id = ""stim"" ><div class = green_square id = ""topsquare"" ></div><img id = ""stim"" ><div class = green_square  id = ""bottomsquare"" ></div>",32,word_square,response,1,Space,true,,,
html-keyboard-response,291,824619,null,"COD",null,word,,,,, 'COD',,
html-keyboard-response,292,825127,null,"HIGHWAY<img id = ""stim"" ><div class = red_square id = ""topsquare"" ></div><img id = ""stim"" ><div class = red_square  id = ""bottomsquare"" ></div>",null,word_square,response,0,none,true,,,
html-keyboard-response,293,826635,null,"HIGHWAY",null,word,,,,, 'HIGHWAY',,
html-keyboard-response,294,827139,null,"INSECT<img id = ""stim"" ><div class = red_square id = ""topsquare"" ></div><img id = ""stim"" ><div class = red_square  id = ""bottomsquare"" ></div>",null,word_square,response,0,none,true,,,
html-keyboard-response,295,828642,null,"INSECT",null,word,,,,, 'INSECT',,
call-function,296,828644,,"",,,,,,,,,
html-keyboard-response,297,828746,null,"",null,,,,,,,,
math-period,298,831911,5701.619999992545,"",,,,,,,,,3
html-keyboard-response,299,832021,null,"",null,,,,,,,,
math-period,300,834350,4088.0599999945844,"",,,,,,,,,2
html-keyboard-response,301,834465,null,"",null,,,,,,,,
math-period,302,836566,3862.3899999947753,"",,,,,,,,,1
html-keyboard-response,303,836668,null,"",null,,,,,,,,
math-period,304,839167,4664.975000006962,"",,,,,,,,,1
html-keyboard-response,305,839273,null,"",null,,,,,,,,
math-period,306,841926,4520.069999998668,"",,,,,,,,,5
html-keyboard-response,307,842032,null,"",null,,,,,,,,
math-period,308,844550,4297.070000015083,"",,,,,,,,,3
html-keyboard-response,309,844652,null,"",null,,,,,,,,
math-period,310,846271,2808.755000005476,"",,,,,,,,,3
html-keyboard-response,311,846387,null,"",null,,,,,,,,
math-period,312,848543,3868.304999996326,"",,,,,,,,,1
html-keyboard-response,313,848649,null,"",null,,,,,,,,
math-period,314,850807,3495.760000005248,"",,,,,,,,,5
html-keyboard-response,315,850913,null,"",null,,,,,,,,
math-period,316,852648,null,"",,,,,,,,,
html-keyboard-response,317,853663,null,"Recall Period!",null,,,,,,,,
call-function,318,853666,,"",,,,,,,,,
html-keyboard-response,319,853771,null,"",null,,,,,,,,
recall-period,320,857759,17410.769999944023,"",,,,,,,,,ruby
html-keyboard-response,321,857876,null,"",null,,,,,,,,
recall-period,322,860382,8644.775000022491,"",,,,,,,,,castle
html-keyboard-response,323,860495,null,"",null,,,,,,,,
recall-period,324,864023,16340.335000029881,"",,,,,,,,,grill
html-keyboard-response,325,864139,null,"",null,,,,,,,,
recall-period,326,865615,3580.069999952684,"",,,,,,,,,meat
html-keyboard-response,327,865721,null,"",null,,,,,,,,
recall-period,328,868598,9036.324999950011,"",,,,,,,,,rooster
html-keyboard-response,329,868700,null,"",null,,,,,,,,
recall-period,330,882127,63538.51500003657,"",,,,,,,,,mask
html-keyboard-response,331,882239,null,"",null,,,,,,,,
recall-period,332,928678,null,"",,,,,,,,,
html-keyboard-response,333,929182,null,"Time's Up!",null,,,,,,,,
html-keyboard-response,334,934961,5775.640000007115,"<p> Good job! You responded correctly to 97% of the GREEN squares.</p>
                  <p>Be sure to keep your accuracy above 80%</p>
                  <p>Press any key to continue the experiment. Thank you!</p>",32,,,,,,,,
html-keyboard-response,335,936279,1315.5699999915669,"<div style=""font-size:48px;"">Press any key to begin list 4 of 24 </div>",32,,,,,,,,
html-keyboard-response,336,938805,null,"<div style=""font-size:60px;"">+</div>",null,,,,,,,,
html-keyboard-response,337,939313,null,"PARSLEY<img id = ""stim"" ><div class = green_square id = ""topsquare"" ></div><img id = ""stim"" ><div class = green_square  id = ""bottomsquare"" ></div>",null,word_square,response,1,Space,false,,,
html-keyboard-response,338,940827,null,"PARSLEY",null,word,,,,, 'PARSLEY',,
html-keyboard-response,339,941330,null,"GHETTO<img id = ""stim"" ><div class = red_square id = ""topsquare"" ></div><img id = ""stim"" ><div class = red_square  id = ""bottomsquare"" ></div>",null,word_square,response,0,none,true,,,
html-keyboard-response,340,942842,null,"GHETTO",null,word,,,,, 'GHETTO',,
html-keyboard-response,341,943256,410.3250000043772,"THIMBLE<img id = ""stim"" ><div class = green_square id = ""topsquare"" ></div><img id = ""stim"" ><div class = green_square  id = ""bottomsquare"" ></div>",32,word_square,response,1,Space,true,,,
html-keyboard-response,342,944774,null,"THIMBLE",null,word,,,,, 'THIMBLE',,
html-keyboard-response,343,945193,415.7850000046892,"TART<img id = ""stim"" ><div class = green_square id = ""topsquare"" ></div><img id = ""stim"" ><div class = green_square  id = ""bottomsquare"" ></div>",32,word_square,response,1,Space,true,,,
html-keyboard-response,344,946696,null,"TART",null,word,,,,, 'TART',,
html-keyboard-response,345,947210,null,"RULER<img id = ""stim"" ><div class = red_square id = ""topsquare"" ></div><img id = ""stim"" ><div class = red_square  id = ""bottomsquare"" ></div>",null,word_square,response,0,none,true,,,
html-keyboard-response,346,948716,null,"RULER",null,word,,,,, 'RULER',,
html-keyboard-response,347,949141,422.6650000055088,"EARRING<img id = ""stim"" ><div class = green_square id = ""topsquare"" ></div><img id = ""stim"" ><div class = green_square  id = ""bottomsquare"" ></div>",32,word_square,response,1,Space,true,,,
html-keyboard-response,348,950659,null,"EARRING",null,word,,,,, 'EARRING',,
html-keyboard-response,349,951101,439.314999995986,"SARDINE<img id = ""stim"" ><div class = green_square id = ""topsquare"" ></div><img id = ""stim"" ><div class = green_square  id = ""bottomsquare"" ></div>",32,word_square,response,1,Space,true,,,
html-keyboard-response,350,952617,null,"SARDINE",null,word,,,,, 'SARDINE',,
html-keyboard-response,351,953122,null,"CANVAS<img id = ""stim"" ><div class = red_square id = ""topsquare"" ></div><img id = ""stim"" ><div class = red_square  id = ""bottomsquare"" ></div>",null,word_square,response,0,none,true,,,
html-keyboard-response,352,954625,null,"CANVAS",null,word,,,,, 'CANVAS',,
html-keyboard-response,353,955132,null,"COCKTAIL<img id = ""stim"" ><div class = red_square id = ""topsquare"" ></div><img id = ""stim"" ><div class = red_square  id = ""bottomsquare"" ></div>",null,word_square,response,0,none,true,,,
html-keyboard-response,354,956647,null,"COCKTAIL",null,word,,,,, 'COCKTAIL',,
html-keyboard-response,355,957030,380.589999986114,"FLASK<img id = ""stim"" ><div class = green_square id = ""topsquare"" ></div><img id = ""stim"" ><div class = green_square  id = ""bottomsquare"" ></div>",32,word_square,response,1,Space,true,,,
html-keyboard-response,356,958540,null,"FLASK",null,word,,,,, 'FLASK',,
html-keyboard-response,357,959043,null,"CANOE<img id = ""stim"" ><div class = green_square id = ""topsquare"" ></div><img id = ""stim"" ><div class = green_square  id = ""bottomsquare"" ></div>",null,word_square,response,1,Space,false,,,
html-keyboard-response,358,960555,null,"CANOE",null,word,,,,, 'CANOE',,
html-keyboard-response,359,961065,null,"GIRAFFE<img id = ""stim"" ><div class = red_square id = ""topsquare"" ></div><img id = ""stim"" ><div class = red_square  id = ""bottomsquare"" ></div>",null,word_square,response,0,none,true,,,
html-keyboard-response,360,962568,null,"GIRAFFE",null,word,,,,, 'GIRAFFE',,
html-keyboard-response,361,962981,409.8800000065239,"TREAT<img id = ""stim"" ><div class = green_square id = ""topsquare"" ></div><img id = ""stim"" ><div class = green_square  id = ""bottomsquare"" ></div>",32,word_square,response,1,Space,true,,,
html-keyboard-response,362,964484,null,"TREAT",null,word,,,,, 'TREAT',,
html-keyboard-response,363,964998,null,"BURGLAR<img id = ""stim"" ><div class = red_square id = ""topsquare"" ></div><img id = ""stim"" ><div class = red_square  id = ""bottomsquare"" ></div>",null,word_square,response,0,none,true,,,
html-keyboard-response,364,966504,null,"BURGLAR",null,word,,,,, 'BURGLAR',,
html-keyboard-response,365,967019,null,"RATTLE<img id = ""stim"" ><div class = red_square id = ""topsquare"" ></div><img id = ""stim"" ><div class = red_square  id = ""bottomsquare"" ></div>",null,word_square,response,0,none,true,,,
html-keyboard-response,366,968536,null,"RATTLE",null,word,,,,, 'RATTLE',,
html-keyboard-response,367,968942,403.600000005099,"RACKET<img id = ""stim"" ><div class = green_square id = ""topsquare"" ></div><img id = ""stim"" ><div class = green_square  id = ""bottomsquare"" ></div>",32,word_square,response,1,Space,true,,,
html-keyboard-response,368,970455,null,"RACKET",null,word,,,,, 'RACKET',,
html-keyboard-response,369,970972,null,"UMPIRE<img id = ""stim"" ><div class = red_square id = ""topsquare"" ></div><img id = ""stim"" ><div class = red_square  id = ""bottomsquare"" ></div>",null,word_square,response,0,none,true,,,
html-keyboard-response,370,972488,null,"UMPIRE",null,word,,,,, 'UMPIRE',,
html-keyboard-response,371,973003,null,"ROBBER<img id = ""stim"" ><div class = red_square id = ""topsquare"" ></div><img id = ""stim"" ><div class = red_square  id = ""bottomsquare"" ></div>",null,word_square,response,0,none,true,,,
html-keyboard-response,372,974510,null,"ROBBER",null,word,,,,, 'ROBBER',,
call-function,373,974512,,"",,,,,,,,,
html-keyboard-response,374,974618,null,"",null,,,,,,,,
math-period,375,981571,51757.88500007184,"",,,,,,,,,4
html-keyboard-response,376,981682,null,"",null,,,,,,,,
math-period,377,983539,3118.755000003148,"",,,,,,,,,5
html-keyboard-response,378,983645,null,"",null,,,,,,,,
math-period,379,985683,3665.450000014971,"",,,,,,,,,1
html-keyboard-response,380,985798,null,"",null,,,,,,,,
math-period,381,987429,2919.2450000118697,"",,,,,,,,,4
html-keyboard-response,382,987531,null,"",null,,,,,,,,
math-period,383,989027,2659.8100000119302,"",,,,,,,,,1
html-keyboard-response,384,989132,null,"",null,,,,,,,,
math-period,385,991907,4837.075000003097,"",,,,,,,,,1
html-keyboard-response,386,992013,null,"",null,,,,,,,,
math-period,387,994171,3784.464999989723,"",,,,,,,,,5
html-keyboard-response,388,994275,null,"",null,,,,,,,,
math-period,389,996691,7662.069999991218,"",,,,,,,,,6
html-keyboard-response,390,996799,null,"",null,,,,,,,,
math-period,391,998515,null,"",,,,,,,,,
html-keyboard-response,392,999529,null,"Recall Period!",null,,,,,,,,
call-function,393,999530,,"",,,,,,,,,
html-keyboard-response,394,999640,null,"",null,,,,,,,,
recall-period,395,1003003,18017.330000002403,"",,,,,,,,,giraffe
html-keyboard-response,396,1003117,null,"",null,,,,,,,,
recall-period,397,1006427,10145.424999980605,"",,,,,,,,,treat
html-keyboard-response,398,1006532,null,"",null,,,,,,,,
recall-period,399,1009667,13470.809999955236,"",,,,,,,,,robber
html-keyboard-response,400,1009782,null,"",null,,,,,,,,
recall-period,401,1016283,29400.995000032708,"",,,,,,,,,racket
html-keyboard-response,402,1016391,null,"",null,,,,,,,,
recall-period,403,1074533,null,"",,,,,,,,,
html-keyboard-response,404,1075037,null,"Time's Up!",null,,,,,,,,
html-keyboard-response,405,1077557,2516.795000003185,"<p> Good job! You responded correctly to 96% of the GREEN squares.</p>
                  <p>Be sure to keep your accuracy above 80%</p>
                  <p>Press any key to continue the experiment. Thank you!</p>",32,,,,,,,,
html-keyboard-response,406,1078933,1372.6999999925029,"<div style=""font-size:48px;"">Press any key to begin list 5 of 24 </div>",32,,,,,,,,
html-keyboard-response,407,1081449,null,"<div style=""font-size:60px;"">+</div>",null,,,,,,,,
html-keyboard-response,408,1081953,null,"PORPOISE<img id = ""stim"" ><div class = red_square id = ""topsquare"" ></div><img id = ""stim"" ><div class = red_square  id = ""bottomsquare"" ></div>",null,word_square,response,0,none,true,,,
html-keyboard-response,409,1083468,null,"PORPOISE",null,word,,,,, 'PORPOISE',,
html-keyboard-response,410,1083987,null,"SIRLOIN<img id = ""stim"" ><div class = red_square id = ""topsquare"" ></div><img id = ""stim"" ><div class = red_square  id = ""bottomsquare"" ></div>",null,word_square,response,0,none,true,,,
html-keyboard-response,411,1085495,null,"SIRLOIN",null,word,,,,, 'SIRLOIN',,
html-keyboard-response,412,1085909,410.7249999945052,"DECK<img id = ""stim"" ><div class = green_square id = ""topsquare"" ></div><img id = ""stim"" ><div class = green_square  id = ""bottomsquare"" ></div>",32,word_square,response,1,Space,true,,,
html-keyboard-response,413,1087419,null,"DECK",null,word,,,,, 'DECK',,
html-keyboard-response,414,1087923,null,"SALMON<img id = ""stim"" ><div class = red_square id = ""topsquare"" ></div><img id = ""stim"" ><div class = red_square  id = ""bottomsquare"" ></div>",null,word_square,response,0,none,true,,,
html-keyboard-response,415,1089433,null,"SALMON",null,word,,,,, 'SALMON',,
html-keyboard-response,416,1089862,426.1499999994412,"MONSTER<img id = ""stim"" ><div class = green_square id = ""topsquare"" ></div><img id = ""stim"" ><div class = green_square  id = ""bottomsquare"" ></div>",32,word_square,response,1,Space,true,,,
html-keyboard-response,417,1091371,null,"MONSTER",null,word,,,,, 'MONSTER',,
html-keyboard-response,418,1091887,null,"RABBIT<img id = ""stim"" ><div class = red_square id = ""topsquare"" ></div><img id = ""stim"" ><div class = red_square  id = ""bottomsquare"" ></div>",null,word_square,response,0,none,true,,,
html-keyboard-response,419,1093391,null,"RABBIT",null,word,,,,, 'RABBIT',,
html-keyboard-response,420,1093821,426.5750000048429,"TURTLE<img id = ""stim"" ><div class = green_square id = ""topsquare"" ></div><img id = ""stim"" ><div class = green_square  id = ""bottomsquare"" ></div>",32,word_square,response,1,Space,true,,,
html-keyboard-response,421,1095331,null,"TURTLE",null,word,,,,, 'TURTLE',,
html-keyboard-response,422,1095842,null,"CAMEL<img id = ""stim"" ><div class = red_square id = ""topsquare"" ></div><img id = ""stim"" ><div class = red_square  id = ""bottomsquare"" ></div>",null,word_square,response,0,none,true,,,
html-keyboard-response,423,1097346,null,"CAMEL",null,word,,,,, 'CAMEL',,
html-keyboard-response,424,1097780,431.4450000091456,"GRIZZLY<img id = ""stim"" ><div class = green_square id = ""topsquare"" ></div><img id = ""stim"" ><div class = green_square  id = ""bottomsquare"" ></div>",32,word_square,response,1,Space,true,,,
html-keyboard-response,425,1099296,null,"GRIZZLY",null,word,,,,, 'GRIZZLY',,
html-keyboard-response,426,1099749,450.1799999999348,"CRAB<img id = ""stim"" ><div class = green_square id = ""topsquare"" ></div><img id = ""stim"" ><div class = green_square  id = ""bottomsquare"" ></div>",32,word_square,response,1,Space,true,,,
html-keyboard-response,427,1101263,null,"CRAB",null,word,,,,, 'CRAB',,
html-keyboard-response,428,1101773,null,"WIFE<img id = ""stim"" ><div class = red_square id = ""topsquare"" ></div><img id = ""stim"" ><div class = red_square  id = ""bottomsquare"" ></div>",null,word_square,response,0,none,true,,,
html-keyboard-response,429,1103277,null,"WIFE",null,word,,,,, 'WIFE',,
html-keyboard-response,430,1103786,null,"COBWEB<img id = ""stim"" ><div class = red_square id = ""topsquare"" ></div><img id = ""stim"" ><div class = red_square  id = ""bottomsquare"" ></div>",null,word_square,response,0,none,true,,,
html-keyboard-response,431,1105297,null,"COBWEB",null,word,,,,, 'COBWEB',,
html-keyboard-response,432,1105637,337.83499999856576,"BRAKE<img id = ""stim"" ><div class = green_square id = ""topsquare"" ></div><img id = ""stim"" ><div class = green_square  id = ""bottomsquare"" ></div>",32,word_square,response,1,Space,true,,,
html-keyboard-response,433,1107143,null,"BRAKE",null,word,,,,, 'BRAKE',,
html-keyboard-response,434,1107620,474.75500000291504,"SPOUSE<img id = ""stim"" ><div class = green_square id = ""topsquare"" ></div><img id = ""stim"" ><div class = green_square  id = ""bottomsquare"" ></div>",32,word_square,response,1,Space,true,,,
html-keyboard-response,435,1109132,null,"SPOUSE",null,word,,,,, 'SPOUSE',,
html-keyboard-response,436,1109645,null,"DOCK<img id = ""stim"" ><div class = red_square id = ""topsquare"" ></div><img id = ""stim"" ><div class = red_square  id = ""bottomsquare"" ></div>",null,word_square,response,0,none,true,,,
html-keyboard-response,437,1111151,null,"DOCK",null,word,,,,, 'DOCK',,
html-keyboard-response,438,1111655,null,"TUTU<img id = ""stim"" ><div class = red_square id = ""topsquare"" ></div><img id = ""stim"" ><div class = red_square  id = ""bottomsquare"" ></div>",null,word_square,response,0,none,true,,,
html-keyboard-response,439,1113159,null,"TUTU",null,word,,,,, 'TUTU',,
html-keyboard-response,440,1113501,339.7249999977648,"DANCER<img id = ""stim"" ><div class = green_square id = ""topsquare"" ></div><img id = ""stim"" ><div class = green_square  id = ""bottomsquare"" ></div>",32,word_square,response,1,Space,true,,,
html-keyboard-response,441,1115017,null,"DANCER",null,word,,,,, 'DANCER',,
html-keyboard-response,442,1115453,432.84500000299886,"BRANCH<img id = ""stim"" ><div class = green_square id = ""topsquare"" ></div><img id = ""stim"" ><div class = green_square  id = ""bottomsquare"" ></div>",32,word_square,response,1,Space,true,,,
html-keyboard-response,443,1116971,null,"BRANCH",null,word,,,,, 'BRANCH',,
call-function,444,1116974,,"",,,,,,,,,
html-keyboard-response,445,1117090,null,"",null,,,,,,,,
math-period,446,1119123,3463.609999991255,"",,,,,,,,,4
html-keyboard-response,447,1119227,null,"",null,,,,,,,,
math-period,448,1120875,2874.9699999897275,"",,,,,,,,,6
html-keyboard-response,449,1120991,null,"",null,,,,,,,,
math-period,450,1122315,2189.2749999966472,"",,,,,,,,,5
html-keyboard-response,451,1122430,null,"",null,,,,,,,,
math-period,452,1124355,3645.100000008708,"",,,,,,,,,1
html-keyboard-response,453,1124471,null,"",null,,,,,,,,
math-period,454,1126443,3347.7500000004657,"",,,,,,,,,4
html-keyboard-response,455,1126546,null,"",null,,,,,,,,
math-period,456,1128275,2981.4150000021327,"",,,,,,,,,6
html-keyboard-response,457,1128389,null,"",null,,,,,,,,
math-period,458,1130537,3824.800000002142,"",,,,,,,,,4
html-keyboard-response,459,1130644,null,"",null,,,,,,,,
math-period,460,1133729,5424.650000000605,"",,,,,,,,,4
html-keyboard-response,461,1133846,null,"",null,,,,,,,,
math-period,462,1136249,3892.1950000077486,"",,,,,,,,,2
html-keyboard-response,463,1136358,null,"",null,,,,,,,,
math-period,464,1140315,7523.159999996889,"",,,,,,,,,1
html-keyboard-response,465,1140427,null,"",null,,,,,,,,
math-period,466,1140984,null,"",,,,,,,,,
html-keyboard-response,467,1142002,null,"Recall Period!",null,,,,,,,,
call-function,468,1142004,,"",,,,,,,,,
html-keyboard-response,469,1142113,null,"",null,,,,,,,,
recall-period,470,1145634,17605.28500004066,"",,,,,,,,,turtle
html-keyboard-response,471,1145745,null,"",null,,,,,,,,
recall-period,472,1147377,5344.340000025462,"",,,,,,,,,wife
html-keyboard-response,473,1147483,null,"",null,,,,,,,,
recall-period,474,1149826,7285.40000003716,"",,,,,,,,,spouse
html-keyboard-response,475,1149933,null,"",null,,,,,,,,
recall-period,476,1153874,23053.335000062827,"",,,,,,,,,monster
html-keyboard-response,477,1153980,null,"",null,,,,,,,,
recall-period,478,1155890,6300.53000002238,"",,,,,,,,,deck
html-keyboard-response,479,1155997,null,"",null,,,,,,,,
recall-period,480,1159266,5253.7750000339,"",,,,,,,,,dock
html-keyboard-response,481,1159376,null,"",null,,,,,,,,
recall-period,482,1174545,152665.6800000188,"",,,,,,,,,grizzly
html-keyboard-response,483,1174660,null,"",null,,,,,,,,
recall-period,484,1217005,null,"",,,,,,,,,
html-keyboard-response,485,1217509,null,"Time's Up!",null,,,,,,,,
html-keyboard-response,486,1219971,2458.5850000001956,"<p> Good job! You responded correctly to 96% of the GREEN squares.</p>
                  <p>Be sure to keep your accuracy above 80%</p>
                  <p>Press any key to continue the experiment. Thank you!</p>",32,,,,,,,,
html-keyboard-response,487,1220898,924.0050000082701,"<div style=""font-size:48px;"">Press any key to begin list 6 of 24 </div>",32,,,,,,,,
html-keyboard-response,488,1223427,null,"<div style=""font-size:60px;"">+</div>",null,,,,,,,,
html-keyboard-response,489,1223933,null,"BRIDE<img id = ""stim"" ><div class = red_square id = ""topsquare"" ></div><img id = ""stim"" ><div class = red_square  id = ""bottomsquare"" ></div>",null,word_square,response,0,none,true,,,
html-keyboard-response,490,1225440,null,"BRIDE",null,word,,,,, 'BRIDE',,
html-keyboard-response,491,1225949,null,"LIVER<img id = ""stim"" ><div class = red_square id = ""topsquare"" ></div><img id = ""stim"" ><div class = red_square  id = ""bottomsquare"" ></div>",null,word_square,response,0,none,true,,,
html-keyboard-response,492,1227452,null,"LIVER",null,word,,,,, 'LIVER',,
html-keyboard-response,493,1227858,403.01999999792315,"KIDNEY<img id = ""stim"" ><div class = green_square id = ""topsquare"" ></div><img id = ""stim"" ><div class = green_square  id = ""bottomsquare"" ></div>",32,word_square,response,1,Space,true,,,
html-keyboard-response,494,1229362,null,"KIDNEY",null,word,,,,, 'KIDNEY',,
html-keyboard-response,495,1229868,null,"TABLET<img id = ""stim"" ><div class = red_square id = ""topsquare"" ></div><img id = ""stim"" ><div class = red_square  id = ""bottomsquare"" ></div>",null,word_square,response,0,none,true,,,
html-keyboard-response,496,1231383,null,"TABLET",null,word,,,,, 'TABLET',,
html-keyboard-response,497,1231795,409.50999999791384,"KEEPER<img id = ""stim"" ><div class = green_square id = ""topsquare"" ></div><img id = ""stim"" ><div class = green_square  id = ""bottomsquare"" ></div>",32,word_square,response,1,Space,true,,,
html-keyboard-response,498,1233307,null,"KEEPER",null,word,,,,, 'KEEPER',,
html-keyboard-response,499,1233824,null,"DAISY<img id = ""stim"" ><div class = red_square id = ""topsquare"" ></div><img id = ""stim"" ><div class = red_square  id = ""bottomsquare"" ></div>",null,word_square,response,0,none,true,,,
html-keyboard-response,500,1235332,null,"DAISY",null,word,,,,, 'DAISY',,
html-keyboard-response,501,1235786,450.9600000018254,"BRIEFCASE<img id = ""stim"" ><div class = green_square id = ""topsquare"" ></div><img id = ""stim"" ><div class = green_square  id = ""bottomsquare"" ></div>",32,word_square,response,1,Space,true,,,
html-keyboard-response,502,1237304,null,"BRIEFCASE",null,word,,,,, 'BRIEFCASE',,
html-keyboard-response,503,1237808,null,"SICKLE<img id = ""stim"" ><div class = red_square id = ""topsquare"" ></div><img id = ""stim"" ><div class = red_square  id = ""bottomsquare"" ></div>",null,word_square,response,0,none,true,,,
html-keyboard-response,504,1239313,null,"SICKLE",null,word,,,,, 'SICKLE',,
html-keyboard-response,505,1239818,501.94499999657273,"BRACELET<img id = ""stim"" ><div class = green_square id = ""topsquare"" ></div><img id = ""stim"" ><div class = green_square  id = ""bottomsquare"" ></div>",32,word_square,response,1,Space,true,,,
html-keyboard-response,506,1241322,null,"BRACELET",null,word,,,,, 'BRACELET',,
html-keyboard-response,507,1241762,437.32499999180436,"OINTMENT<img id = ""stim"" ><div class = green_square id = ""topsquare"" ></div><img id = ""stim"" ><div class = green_square  id = ""bottomsquare"" ></div>",32,word_square,response,1,Space,true,,,
html-keyboard-response,508,1243278,null,"OINTMENT",null,word,,,,, 'OINTMENT',,
html-keyboard-response,509,1243784,null,"LAMP<img id = ""stim"" ><div class = red_square id = ""topsquare"" ></div><img id = ""stim"" ><div class = red_square  id = ""bottomsquare"" ></div>",null,word_square,response,0,none,true,,,
html-keyboard-response,510,1245293,null,"LAMP",null,word,,,,, 'LAMP',,
html-keyboard-response,511,1245797,null,"HANGER<img id = ""stim"" ><div class = red_square id = ""topsquare"" ></div><img id = ""stim"" ><div class = red_square  id = ""bottomsquare"" ></div>",null,word_square,response,0,none,true,,,
html-keyboard-response,512,1247303,null,"HANGER",null,word,,,,, 'HANGER',,
html-keyboard-response,513,1247714,408.79000000143424,"WRIST<img id = ""stim"" ><div class = green_square id = ""topsquare"" ></div><img id = ""stim"" ><div class = green_square  id = ""bottomsquare"" ></div>",32,word_square,response,1,Space,true,,,
html-keyboard-response,514,1249223,null,"WRIST",null,word,,,,, 'WRIST',,
html-keyboard-response,515,1249739,null,"FINGER<img id = ""stim"" ><div class = green_square id = ""topsquare"" ></div><img id = ""stim"" ><div class = green_square  id = ""bottomsquare"" ></div>",null,word_square,response,1,Space,false,,,
html-keyboard-response,516,1251248,null,"FINGER",null,word,,,,, 'FINGER',,
html-keyboard-response,517,1251754,null,"ANTLER<img id = ""stim"" ><div class = red_square id = ""topsquare"" ></div><img id = ""stim"" ><div class = red_square  id = ""bottomsquare"" ></div>",null,word_square,response,0,none,true,,,
html-keyboard-response,518,1253264,null,"ANTLER",null,word,,,,, 'ANTLER',,
html-keyboard-response,519,1253781,null,"BEAVER<img id = ""stim"" ><div class = red_square id = ""topsquare"" ></div><img id = ""stim"" ><div class = red_square  id = ""bottomsquare"" ></div>",null,word_square,response,0,none,true,,,
html-keyboard-response,520,1255290,null,"BEAVER",null,word,,,,, 'BEAVER',,
html-keyboard-response,521,1255650,357.05499998596497,"SWITCH<img id = ""stim"" ><div class = green_square id = ""topsquare"" ></div><img id = ""stim"" ><div class = green_square  id = ""bottomsquare"" ></div>",32,word_square,response,1,Space,true,,,
html-keyboard-response,522,1257157,null,"SWITCH",null,word,,,,, 'SWITCH',,
html-keyboard-response,523,1257609,450.32000000355765,"PEOPLE<img id = ""stim"" ><div class = green_square id = ""topsquare"" ></div><img id = ""stim"" ><div class = green_square  id = ""bottomsquare"" ></div>",32,word_square,response,1,Space,true,,,
html-keyboard-response,524,1259121,null,"PEOPLE",null,word,,,,, 'PEOPLE',,
call-function,525,1259123,,"",,,,,,,,,
html-keyboard-response,526,1259232,null,"",null,,,,,,,,
math-period,527,1262833,8506.120000019902,"",,,,,,,,,3
html-keyboard-response,528,1262948,null,"",null,,,,,,,,
math-period,529,1264152,2197.424999990966,"",,,,,,,,,3
html-keyboard-response,530,1264269,null,"",null,,,,,,,,
math-period,531,1266408,6876.575000016484,"",,,,,,,,,6
html-keyboard-response,532,1266514,null,"",null,,,,,,,,
math-period,533,1268368,3095.8400000089314,"",,,,,,,,,5
html-keyboard-response,534,1268482,null,"",null,,,,,,,,
math-period,535,1271352,5385.334999999031,"",,,,,,,,,4
html-keyboard-response,536,1271461,null,"",null,,,,,,,,
math-period,537,1273352,3505.1149999930058,"",,,,,,,,,2
html-keyboard-response,538,1273465,null,"",null,,,,,,,,
math-period,539,1275113,3059.2199999953154,"",,,,,,,,,3
html-keyboard-response,540,1275221,null,"",null,,,,,,,,
math-period,541,1277152,3336.3150000076275,"",,,,,,,,,5
html-keyboard-response,542,1277260,null,"",null,,,,,,,,
math-period,543,1278528,2371.675000002142,"",,,,,,,,,2
html-keyboard-response,544,1278631,null,"",null,,,,,,,,
math-period,545,1280336,2918.3749999939464,"",,,,,,,,,6
html-keyboard-response,546,1280443,null,"",null,,,,,,,,
math-period,547,1282008,2671.205000006128,"",,,,,,,,,3
html-keyboard-response,548,1282120,null,"",null,,,,,,,,
math-period,549,1283139,null,"",,,,,,,,,
html-keyboard-response,550,1284144,null,"Recall Period!",null,,,,,,,,
call-function,551,1284145,,"",,,,,,,,,
html-keyboard-response,552,1284256,null,"",null,,,,,,,,
recall-period,553,1288168,18961.08499995875,"",,,,,,,,,beaver
html-keyboard-response,554,1288272,null,"",null,,,,,,,,
recall-period,555,1290608,9902.884999958565,"",,,,,,,,,kidney
html-keyboard-response,556,1290721,null,"",null,,,,,,,,
recall-period,557,1292057,4136.420000010403,"",,,,,,,,,switch
html-keyboard-response,558,1292164,null,"",null,,,,,,,,
recall-period,559,1294336,9520.975000006845,"",,,,,,,,,people
html-keyboard-response,560,1294451,null,"",null,,,,,,,,
recall-period,561,1296872,6732.30000003241,"",,,,,,,,,bride
html-keyboard-response,562,1296984,null,"",null,,,,,,,,
recall-period,563,1301200,26713.735000010813,"",,,,,,,,,bracelet
html-keyboard-response,564,1301306,null,"",null,,,,,,,,
recall-period,565,1303168,5683.350000021514,"",,,,,,,,,wrist
html-keyboard-response,566,1303280,null,"",null,,,,,,,,
recall-period,567,1359153,null,"",,,,,,,,,
html-keyboard-response,568,1359660,null,"Time's Up!",null,,,,,,,,
html-keyboard-response,569,1362288,2624.6699999901466,"<p> Good job! You responded correctly to 96% of the GREEN squares.</p>
                  <p>Be sure to keep your accuracy above 80%</p>
                  <p>Press any key to continue the experiment. Thank you!</p>",32,,,,,,,,
html-keyboard-response,570,1363255,964.2650000022259,"<div style=""font-size:48px;"">Press any key to begin list 7 of 24 </div>",32,,,,,,,,
html-keyboard-response,571,1365773,null,"<div style=""font-size:60px;"">+</div>",null,,,,,,,,
html-keyboard-response,572,1366151,375.63999999826774,"COURSE<img id = ""stim"" ><div class = green_square id = ""topsquare"" ></div><img id = ""stim"" ><div class = green_square  id = ""bottomsquare"" ></div>",32,word_square,response,1,Space,true,,,
html-keyboard-response,573,1367665,null,"COURSE",null,word,,,,, 'COURSE',,
html-keyboard-response,574,1368169,null,"COLONEL<img id = ""stim"" ><div class = green_square id = ""topsquare"" ></div><img id = ""stim"" ><div class = green_square  id = ""bottomsquare"" ></div>",null,word_square,response,1,Space,false,,,
html-keyboard-response,575,1369672,null,"COLONEL",null,word,,,,, 'COLONEL',,
html-keyboard-response,576,1370178,null,"BACON<img id = ""stim"" ><div class = red_square id = ""topsquare"" ></div><img id = ""stim"" ><div class = red_square  id = ""bottomsquare"" ></div>",null,word_square,response,0,none,true,,,
html-keyboard-response,577,1371690,null,"BACON",null,word,,,,, 'BACON',,
html-keyboard-response,578,1372121,426.9550000028685,"NOTEBOOK<img id = ""stim"" ><div class = green_square id = ""topsquare"" ></div><img id = ""stim"" ><div class = green_square  id = ""bottomsquare"" ></div>",32,word_square,response,1,Space,true,,,
html-keyboard-response,579,1373628,null,"NOTEBOOK",null,word,,,,, 'NOTEBOOK',,
html-keyboard-response,580,1374138,null,"CLIFF<img id = ""stim"" ><div class = red_square id = ""topsquare"" ></div><img id = ""stim"" ><div class = red_square  id = ""bottomsquare"" ></div>",null,word_square,response,0,none,true,,,
html-keyboard-response,581,1375641,null,"CLIFF",null,word,,,,, 'CLIFF',,
html-keyboard-response,582,1376081,436.424999992596,"GIRL<img id = ""stim"" ><div class = green_square id = ""topsquare"" ></div><img id = ""stim"" ><div class = green_square  id = ""bottomsquare"" ></div>",32,word_square,response,1,Space,true,,,
html-keyboard-response,583,1377595,null,"GIRL",null,word,,,,, 'GIRL',,
html-keyboard-response,584,1378109,null,"DAUGHTER<img id = ""stim"" ><div class = red_square id = ""topsquare"" ></div><img id = ""stim"" ><div class = red_square  id = ""bottomsquare"" ></div>",null,word_square,response,0,none,true,,,
html-keyboard-response,585,1379618,null,"DAUGHTER",null,word,,,,, 'DAUGHTER',,
html-keyboard-response,586,1380023,402.4700000009034,"OFFICE<img id = ""stim"" ><div class = green_square id = ""topsquare"" ></div><img id = ""stim"" ><div class = green_square  id = ""bottomsquare"" ></div>",32,word_square,response,1,Space,true,,,
html-keyboard-response,587,1381541,null,"OFFICE",null,word,,,,, 'OFFICE',,
html-keyboard-response,588,1382058,null,"MATCH<img id = ""stim"" ><div class = red_square id = ""topsquare"" ></div><img id = ""stim"" ><div class = red_square  id = ""bottomsquare"" ></div>",null,word_square,response,0,none,true,,,
html-keyboard-response,589,1383562,null,"MATCH",null,word,,,,, 'MATCH',,
html-keyboard-response,590,1384066,null,"FIGHTER<img id = ""stim"" ><div class = red_square id = ""topsquare"" ></div><img id = ""stim"" ><div class = red_square  id = ""bottomsquare"" ></div>",null,word_square,response,0,none,true,,,
html-keyboard-response,591,1385578,null,"FIGHTER",null,word,,,,, 'FIGHTER',,
html-keyboard-response,592,1386016,434.2699999976903,"GRAVE<img id = ""stim"" ><div class = green_square id = ""topsquare"" ></div><img id = ""stim"" ><div class = green_square  id = ""bottomsquare"" ></div>",32,word_square,response,1,Space,true,,,
html-keyboard-response,593,1387522,null,"GRAVE",null,word,,,,, 'GRAVE',,
html-keyboard-response,594,1387970,444.00500001199543,"WIDOW<img id = ""stim"" ><div class = green_square id = ""topsquare"" ></div><img id = ""stim"" ><div class = green_square  id = ""bottomsquare"" ></div>",32,word_square,response,1,Space,true,,,
html-keyboard-response,595,1389486,null,"WIDOW",null,word,,,,, 'WIDOW',,
html-keyboard-response,596,1389995,null,"TYPIST<img id = ""stim"" ><div class = red_square id = ""topsquare"" ></div><img id = ""stim"" ><div class = red_square  id = ""bottomsquare"" ></div>",null,word_square,response,0,none,true,,,
html-keyboard-response,597,1391502,null,"TYPIST",null,word,,,,, 'TYPIST',,
html-keyboard-response,598,1392006,null,"KITTEN<img id = ""stim"" ><div class = red_square id = ""topsquare"" ></div><img id = ""stim"" ><div class = red_square  id = ""bottomsquare"" ></div>",null,word_square,response,0,none,true,,,
html-keyboard-response,599,1393513,null,"KITTEN",null,word,,,,, 'KITTEN',,
html-keyboard-response,600,1393935,418.5950000099838,"CHARCOAL<img id = ""stim"" ><div class = green_square id = ""topsquare"" ></div><img id = ""stim"" ><div class = green_square  id = ""bottomsquare"" ></div>",32,word_square,response,1,Space,true,,,
html-keyboard-response,601,1395443,null,"CHARCOAL",null,word,,,,, 'CHARCOAL',,
html-keyboard-response,602,1395950,null,"WAITER<img id = ""stim"" ><div class = green_square id = ""topsquare"" ></div><img id = ""stim"" ><div class = green_square  id = ""bottomsquare"" ></div>",null,word_square,response,1,Space,false,,,
html-keyboard-response,603,1397466,null,"WAITER",null,word,,,,, 'WAITER',,
html-keyboard-response,604,1397980,null,"SURVEY<img id = ""stim"" ><div class = red_square id = ""topsquare"" ></div><img id = ""stim"" ><div class = red_square  id = ""bottomsquare"" ></div>",null,word_square,response,0,none,true,,,
html-keyboard-response,605,1399487,null,"SURVEY",null,word,,,,, 'SURVEY',,
html-keyboard-response,606,1399993,null,"SOFA<img id = ""stim"" ><div class = red_square id = ""topsquare"" ></div><img id = ""stim"" ><div class = red_square  id = ""bottomsquare"" ></div>",null,word_square,response,0,none,true,,,
html-keyboard-response,607,1401500,null,"SOFA",null,word,,,,, 'SOFA',,
call-function,608,1401502,,"",,,,,,,,,
html-keyboard-response,609,1401614,null,"",null,,,,,,,,
math-period,610,1404516,6592.145000002347,"",,,,,,,,,4
html-keyboard-response,611,1404630,null,"",null,,,,,,,,
math-period,612,1406693,3921.7749999808148,"",,,,,,,,,1
html-keyboard-response,613,1406803,null,"",null,,,,,,,,
math-period,614,1409549,4857.294999993872,"",,,,,,,,,4
html-keyboard-response,615,1409657,null,"",null,,,,,,,,
math-period,616,1411333,2867.6999999878462,"",,,,,,,,,3
html-keyboard-response,617,1411447,null,"",null,,,,,,,,
math-period,618,1412981,2695.3350000113714,"",,,,,,,,,3
html-keyboard-response,619,1413093,null,"",null,,,,,,,,
math-period,620,1414941,2780.5949999894947,"",,,,,,,,,3
html-keyboard-response,621,1415045,null,"",null,,,,,,,,
math-period,622,1418013,8490.47999999323,"",,,,,,,,,4
html-keyboard-response,623,1418117,null,"",null,,,,,,,,
math-period,624,1419605,2490.0500000221655,"",,,,,,,,,3
html-keyboard-response,625,1419716,null,"",null,,,,,,,,
math-period,626,1423062,10470.929999995511,"",,,,,,,,,1
html-keyboard-response,627,1423177,null,"",null,,,,,,,,
math-period,628,1425469,3598.5249999936204,"",,,,,,,,,3
html-keyboard-response,629,1425575,null,"",null,,,,,,,,
math-period,630,1425581,null,"",,,,,,,,,
html-keyboard-response,631,1426594,null,"Recall Period!",null,,,,,,,,
call-function,632,1426596,,"",,,,,,,,,
html-keyboard-response,633,1426708,null,"",null,,,,,,,,
recall-period,634,1429229,8601.179999953834,"",,,,,,,,,bacon
html-keyboard-response,635,1429335,null,"",null,,,,,,,,
recall-period,636,1431597,6808.154999992112,"",,,,,,,,,girl
html-keyboard-response,637,1431713,null,"",null,,,,,,,,
recall-period,638,1434614,14329.615000024205,"",,,,,,,,,daughter
html-keyboard-response,639,1434718,null,"",null,,,,,,,,
recall-period,640,1437541,10249.004999961704,"",,,,,,,,,survey
html-keyboard-response,641,1437646,null,"",null,,,,,,,,
recall-period,642,1502119,null,"",,,,,,,,,
html-keyboard-response,643,1503167,null,"Time's Up!",null,,,,,,,,
html-keyboard-response,644,1508358,5180.6450000002515,"<p> Good job! You responded correctly to 95% of the GREEN squares.</p>
                  <p>Be sure to keep your accuracy above 80%</p>
                  <p>Press any key to continue the experiment. Thank you!</p>",32,,,,,,,,
html-keyboard-response,645,1509342,981.5050000033807,"<div style=""font-size:48px;"">Press any key to begin list 8 of 24 </div>",32,,,,,,,,
html-keyboard-response,646,1511859,null,"<div style=""font-size:60px;"">+</div>",null,,,,,,,,
html-keyboard-response,647,1512231,367.48000000067987,"SCAPEGOAT<img id = ""stim"" ><div class = green_square id = ""topsquare"" ></div><img id = ""stim"" ><div class = green_square  id = ""bottomsquare"" ></div>",32,word_square,response,1,Space,true,,,
html-keyboard-response,648,1513742,null,"SCAPEGOAT",null,word,,,,, 'SCAPEGOAT',,
html-keyboard-response,649,1514164,419.32500000996515,"BOUILLON<img id = ""stim"" ><div class = green_square id = ""topsquare"" ></div><img id = ""stim"" ><div class = green_square  id = ""bottomsquare"" ></div>",32,word_square,response,1,Space,true,,,
html-keyboard-response,650,1515682,null,"BOUILLON",null,word,,,,, 'BOUILLON',,
html-keyboard-response,651,1516181,495.21500000264496,"SOCKET<img id = ""stim"" ><div class = red_square id = ""topsquare"" ></div><img id = ""stim"" ><div class = red_square  id = ""bottomsquare"" ></div>",32,word_square,response,0,none,false,,,
html-keyboard-response,652,1517685,null,"SOCKET",null,word,,,,, 'SOCKET',,
html-keyboard-response,653,1518085,395.96500000334345,"PEANUT<img id = ""stim"" ><div class = green_square id = ""topsquare"" ></div><img id = ""stim"" ><div class = green_square  id = ""bottomsquare"" ></div>",32,word_square,response,1,Space,true,,,
html-keyboard-response,654,1519592,null,"PEANUT",null,word,,,,, 'PEANUT',,
html-keyboard-response,655,1520021,425.71500000497326,"CASHEW<img id = ""stim"" ><div class = red_square id = ""topsquare"" ></div><img id = ""stim"" ><div class = red_square  id = ""bottomsquare"" ></div>",32,word_square,response,0,none,false,,,
html-keyboard-response,656,1521539,null,"CASHEW",null,word,,,,, 'CASHEW',,
html-keyboard-response,657,1521925,382.4400000013411,"HAMMER<img id = ""stim"" ><div class = green_square id = ""topsquare"" ></div><img id = ""stim"" ><div class = green_square  id = ""bottomsquare"" ></div>",32,word_square,response,1,Space,true,,,
html-keyboard-response,658,1523438,null,"HAMMER",null,word,,,,, 'HAMMER',,
html-keyboard-response,659,1523869,428.4800000023097,"PLAYGROUND<img id = ""stim"" ><div class = red_square id = ""topsquare"" ></div><img id = ""stim"" ><div class = red_square  id = ""bottomsquare"" ></div>",32,word_square,response,0,none,false,,,
html-keyboard-response,660,1525378,null,"PLAYGROUND",null,word,,,,, 'PLAYGROUND',,
html-keyboard-response,661,1525797,415.92500000819564,"TRACTOR<img id = ""stim"" ><div class = green_square id = ""topsquare"" ></div><img id = ""stim"" ><div class = green_square  id = ""bottomsquare"" ></div>",32,word_square,response,1,Space,true,,,
html-keyboard-response,662,1527301,null,"TRACTOR",null,word,,,,, 'TRACTOR',,
html-keyboard-response,663,1527817,null,"KNIFE<img id = ""stim"" ><div class = red_square id = ""topsquare"" ></div><img id = ""stim"" ><div class = red_square  id = ""bottomsquare"" ></div>",null,word_square,response,0,none,true,,,
html-keyboard-response,664,1529329,null,"KNIFE",null,word,,,,, 'KNIFE',,
html-keyboard-response,665,1529844,null,"LIGHTNING<img id = ""stim"" ><div class = red_square id = ""topsquare"" ></div><img id = ""stim"" ><div class = red_square  id = ""bottomsquare"" ></div>",null,word_square,response,0,none,true,,,
html-keyboard-response,666,1531352,null,"LIGHTNING",null,word,,,,, 'LIGHTNING',,
html-keyboard-response,667,1531765,410.29999998863786,"CRUTCH<img id = ""stim"" ><div class = green_square id = ""topsquare"" ></div><img id = ""stim"" ><div class = green_square  id = ""bottomsquare"" ></div>",32,word_square,response,1,Space,true,,,
html-keyboard-response,668,1533271,null,"CRUTCH",null,word,,,,, 'CRUTCH',,
html-keyboard-response,669,1533795,null,"JUNGLE<img id = ""stim"" ><div class = green_square id = ""topsquare"" ></div><img id = ""stim"" ><div class = green_square  id = ""bottomsquare"" ></div>",null,word_square,response,1,Space,false,,,
html-keyboard-response,670,1535302,null,"JUNGLE",null,word,,,,, 'JUNGLE',,
html-keyboard-response,671,1535813,null,"COOK<img id = ""stim"" ><div class = red_square id = ""topsquare"" ></div><img id = ""stim"" ><div class = red_square  id = ""bottomsquare"" ></div>",null,word_square,response,0,none,true,,,
html-keyboard-response,672,1537329,null,"COOK",null,word,,,,, 'COOK',,
html-keyboard-response,673,1537850,null,"REPTILE<img id = ""stim"" ><div class = red_square id = ""topsquare"" ></div><img id = ""stim"" ><div class = red_square  id = ""bottomsquare"" ></div>",null,word_square,response,0,none,true,,,
html-keyboard-response,674,1539356,null,"REPTILE",null,word,,,,, 'REPTILE',,
html-keyboard-response,675,1539766,406.75999999791384,"CLOUD<img id = ""stim"" ><div class = green_square id = ""topsquare"" ></div><img id = ""stim"" ><div class = green_square  id = ""bottomsquare"" ></div>",32,word_square,response,1,Space,true,,,
html-keyboard-response,676,1541282,null,"CLOUD",null,word,,,,, 'CLOUD',,
html-keyboard-response,677,1541709,424.2599999997765,"BEAST<img id = ""stim"" ><div class = green_square id = ""topsquare"" ></div><img id = ""stim"" ><div class = green_square  id = ""bottomsquare"" ></div>",32,word_square,response,1,Space,true,,,
html-keyboard-response,678,1543224,null,"BEAST",null,word,,,,, 'BEAST',,
html-keyboard-response,679,1543738,null,"FEATHER<img id = ""stim"" ><div class = red_square id = ""topsquare"" ></div><img id = ""stim"" ><div class = red_square  id = ""bottomsquare"" ></div>",null,word_square,response,0,none,true,,,
html-keyboard-response,680,1545249,null,"FEATHER",null,word,,,,, 'FEATHER',,
html-keyboard-response,681,1545636,384.1649999958463,"STICKER<img id = ""stim"" ><div class = red_square id = ""topsquare"" ></div><img id = ""stim"" ><div class = red_square  id = ""bottomsquare"" ></div>",32,word_square,response,0,none,false,,,
html-keyboard-response,682,1547144,null,"STICKER",null,word,,,,, 'STICKER',,
call-function,683,1547146,,"",,,,,,,,,
html-keyboard-response,684,1547264,null,"",null,,,,,,,,
math-period,685,1549611,3698.664999989327,"",,,,,,,,,4
html-keyboard-response,686,1549718,null,"",null,,,,,,,,
math-period,687,1552179,3695.615000018617,"",,,,,,,,,3
html-keyboard-response,688,1552287,null,"",null,,,,,,,,
math-period,689,1553835,2570.809999990277,"",,,,,,,,,2
html-keyboard-response,690,1553939,null,"",null,,,,,,,,
math-period,691,1556667,7922.280000013299,"",,,,,,,,,4
html-keyboard-response,692,1556773,null,"",null,,,,,,,,
math-period,693,1558747,3454.8149999901652,"",,,,,,,,,5
html-keyboard-response,694,1558864,null,"",null,,,,,,,,
math-period,695,1560219,2337.2899999958463,"",,,,,,,,,6
html-keyboard-response,696,1560328,null,"",null,,,,,,,,
math-period,697,1562538,3772.6649999967776,"",,,,,,,,,1
html-keyboard-response,698,1562647,null,"",null,,,,,,,,
math-period,699,1564419,3003.2349999821745,"",,,,,,,,,4
html-keyboard-response,700,1564532,null,"",null,,,,,,,,
math-period,701,1566162,2810.834999981802,"",,,,,,,,,3
html-keyboard-response,702,1566269,null,"",null,,,,,,,,
math-period,703,1569787,5745.135000004666,"",,,,,,,,,4
html-keyboard-response,704,1569904,null,"",null,,,,,,,,
math-period,705,1571149,null,"",,,,,,,,,
html-keyboard-response,706,1572154,null,"Recall Period!",null,,,,,,,,
call-function,707,1572157,,"",,,,,,,,,
html-keyboard-response,708,1572273,null,"",null,,,,,,,,
recall-period,709,1578258,31075.374999970896,"",,,,,,,,,peunut
html-keyboard-response,710,1578364,null,"",null,,,,,,,,
recall-period,711,1580154,6520.755000020377,"",,,,,,,,,cashew
html-keyboard-response,712,1580267,null,"",null,,,,,,,,
recall-period,713,1582442,9187.149999953574,"",,,,,,,,,hammer
html-keyboard-response,714,1582551,null,"",null,,,,,,,,
recall-period,715,1584530,6226.189999972004,"",,,,,,,,,knife
html-keyboard-response,716,1584638,null,"",null,,,,,,,,
recall-period,717,1586058,3315.5950000211596,"",,,,,,,,,cook
html-keyboard-response,718,1586169,null,"",null,,,,,,,,
recall-period,719,1590458,8385.015000035986,"",,,,,,,,,lizard
html-keyboard-response,720,1590580,null,"",null,,,,,,,,
recall-period,721,1647160,null,"",,,,,,,,,
html-keyboard-response,722,1647671,null,"Time's Up!",null,,,,,,,,
html-keyboard-response,723,1651749,4074.249999990454,"<p> Good job! You responded correctly to 93% of the GREEN squares.</p>
                  <p>Be sure to keep your accuracy above 80%</p>
                  <p>Press any key to continue the experiment. Thank you!</p>",32,,,,,,,,
html-keyboard-response,724,1653131,1379.6149999978952,"<div style=""font-size:48px;"">Press any key to begin list 9 of 24 </div>",32,,,,,,,,
html-keyboard-response,725,1655656,null,"<div style=""font-size:60px;"">+</div>",null,,,,,,,,
html-keyboard-response,726,1656173,null,"BUCKLE<img id = ""stim"" ><div class = red_square id = ""topsquare"" ></div><img id = ""stim"" ><div class = red_square  id = ""bottomsquare"" ></div>",null,word_square,response,0,none,true,,,
html-keyboard-response,727,1657683,null,"BUCKLE",null,word,,,,, 'BUCKLE',,
html-keyboard-response,728,1658198,null,"PORCH<img id = ""stim"" ><div class = red_square id = ""topsquare"" ></div><img id = ""stim"" ><div class = red_square  id = ""bottomsquare"" ></div>",null,word_square,response,0,none,true,,,
html-keyboard-response,729,1659714,null,"PORCH",null,word,,,,, 'PORCH',,
html-keyboard-response,730,1660229,null,"CATCHER<img id = ""stim"" ><div class = green_square id = ""topsquare"" ></div><img id = ""stim"" ><div class = green_square  id = ""bottomsquare"" ></div>",null,word_square,response,1,Space,false,,,
html-keyboard-response,731,1661746,null,"CATCHER",null,word,,,,, 'CATCHER',,
html-keyboard-response,732,1662253,null,"SHRUB<img id = ""stim"" ><div class = red_square id = ""topsquare"" ></div><img id = ""stim"" ><div class = red_square  id = ""bottomsquare"" ></div>",null,word_square,response,0,none,true,,,
html-keyboard-response,733,1663756,null,"SHRUB",null,word,,,,, 'SHRUB',,
html-keyboard-response,734,1664265,null,"HARP<img id = ""stim"" ><div class = red_square id = ""topsquare"" ></div><img id = ""stim"" ><div class = red_square  id = ""bottomsquare"" ></div>",null,word_square,response,0,none,true,,,
html-keyboard-response,735,1665776,null,"HARP",null,word,,,,, 'HARP',,
html-keyboard-response,736,1666269,489.7250000068452,"CONCERT<img id = ""stim"" ><div class = green_square id = ""topsquare"" ></div><img id = ""stim"" ><div class = green_square  id = ""bottomsquare"" ></div>",32,word_square,response,1,Space,true,,,
html-keyboard-response,737,1667772,null,"CONCERT",null,word,,,,, 'CONCERT',,
html-keyboard-response,738,1668285,null,"BEEF<img id = ""stim"" ><div class = green_square id = ""topsquare"" ></div><img id = ""stim"" ><div class = green_square  id = ""bottomsquare"" ></div>",null,word_square,response,1,Space,false,,,
html-keyboard-response,739,1669801,null,"BEEF",null,word,,,,, 'BEEF',,
html-keyboard-response,740,1670305,null,"SPARROW<img id = ""stim"" ><div class = green_square id = ""topsquare"" ></div><img id = ""stim"" ><div class = green_square  id = ""bottomsquare"" ></div>",null,word_square,response,1,Space,false,,,
html-keyboard-response,741,1671816,null,"SPARROW",null,word,,,,, 'SPARROW',,
html-keyboard-response,742,1672320,null,"LUMBER<img id = ""stim"" ><div class = red_square id = ""topsquare"" ></div><img id = ""stim"" ><div class = red_square  id = ""bottomsquare"" ></div>",null,word_square,response,0,none,true,,,
html-keyboard-response,743,1673823,null,"LUMBER",null,word,,,,, 'LUMBER',,
html-keyboard-response,744,1674251,424.7299999988172,"SCARF<img id = ""stim"" ><div class = green_square id = ""topsquare"" ></div><img id = ""stim"" ><div class = green_square  id = ""bottomsquare"" ></div>",32,word_square,response,1,Space,true,,,
html-keyboard-response,745,1675755,null,"SCARF",null,word,,,,, 'SCARF',,
html-keyboard-response,746,1676267,null,"FREEZER<img id = ""stim"" ><div class = red_square id = ""topsquare"" ></div><img id = ""stim"" ><div class = red_square  id = ""bottomsquare"" ></div>",null,word_square,response,0,none,true,,,
html-keyboard-response,747,1677771,null,"FREEZER",null,word,,,,, 'FREEZER',,
html-keyboard-response,748,1678285,null,"FIELD<img id = ""stim"" ><div class = red_square id = ""topsquare"" ></div><img id = ""stim"" ><div class = red_square  id = ""bottomsquare"" ></div>",null,word_square,response,0,none,true,,,
html-keyboard-response,749,1679796,null,"FIELD",null,word,,,,, 'FIELD',,
html-keyboard-response,750,1680228,429.02999999932945,"SUMMIT<img id = ""stim"" ><div class = green_square id = ""topsquare"" ></div><img id = ""stim"" ><div class = green_square  id = ""bottomsquare"" ></div>",32,word_square,response,1,Space,true,,,
html-keyboard-response,751,1681731,null,"SUMMIT",null,word,,,,, 'SUMMIT',,
html-keyboard-response,752,1682234,null,"MEDAL<img id = ""stim"" ><div class = green_square id = ""topsquare"" ></div><img id = ""stim"" ><div class = green_square  id = ""bottomsquare"" ></div>",null,word_square,response,1,Space,false,,,
html-keyboard-response,753,1683749,null,"MEDAL",null,word,,,,, 'MEDAL',,
html-keyboard-response,754,1684262,null,"AIRCRAFT<img id = ""stim"" ><div class = red_square id = ""topsquare"" ></div><img id = ""stim"" ><div class = red_square  id = ""bottomsquare"" ></div>",null,word_square,response,0,none,true,,,
html-keyboard-response,755,1685768,null,"AIRCRAFT",null,word,,,,, 'AIRCRAFT',,
html-keyboard-response,756,1686212,440.6500000040978,"SOFTBALL<img id = ""stim"" ><div class = green_square id = ""topsquare"" ></div><img id = ""stim"" ><div class = green_square  id = ""bottomsquare"" ></div>",32,word_square,response,1,Space,true,,,
html-keyboard-response,757,1687729,null,"SOFTBALL",null,word,,,,, 'SOFTBALL',,
html-keyboard-response,758,1688244,null,"JEEP<img id = ""stim"" ><div class = red_square id = ""topsquare"" ></div><img id = ""stim"" ><div class = red_square  id = ""bottomsquare"" ></div>",null,word_square,response,0,none,true,,,
html-keyboard-response,759,1689757,null,"JEEP",null,word,,,,, 'JEEP',,
html-keyboard-response,760,1690252,492.26999998791143,"PRIMATE<img id = ""stim"" ><div class = green_square id = ""topsquare"" ></div><img id = ""stim"" ><div class = green_square  id = ""bottomsquare"" ></div>",32,word_square,response,1,Space,true,,,
html-keyboard-response,761,1691770,null,"PRIMATE",null,word,,,,, 'PRIMATE',,
call-function,762,1691772,,"",,,,,,,,,
html-keyboard-response,763,1691883,null,"",null,,,,,,,,
math-period,764,1693712,3089.034999997355,"",,,,,,,,,4
html-keyboard-response,765,1693818,null,"",null,,,,,,,,
math-period,766,1695088,2190.4399999910966,"",,,,,,,,,5
html-keyboard-response,767,1695196,null,"",null,,,,,,,,
math-period,768,1696192,1851.8549999864772,"",,,,,,,,,5
html-keyboard-response,769,1696296,null,"",null,,,,,,,,
math-period,770,1697880,2782.9349999953993,"",,,,,,,,,3
html-keyboard-response,771,1697988,null,"",null,,,,,,,,
math-period,772,1701592,6470.78000000352,"",,,,,,,,,0
html-keyboard-response,773,1701708,null,"",null,,,,,,,,
math-period,774,1703057,2332.2299999999814,"",,,,,,,,,3
html-keyboard-response,775,1703173,null,"",null,,,,,,,,
math-period,776,1706688,6434.60500000231,"",,,,,,,,,2
html-keyboard-response,777,1706790,null,"",null,,,,,,,,
math-period,778,1709097,3623.8299999821465,"",,,,,,,,,4
html-keyboard-response,779,1709200,null,"",null,,,,,,,,
math-period,780,1710929,3213.099999993574,"",,,,,,,,,1
html-keyboard-response,781,1711042,null,"",null,,,,,,,,
math-period,782,1713753,5185.304999991786,"",,,,,,,,,1
html-keyboard-response,783,1713859,null,"",null,,,,,,,,
math-period,784,1715736,6165.415000010282,"",,,,,,,,,3
html-keyboard-response,785,1715843,null,"",null,,,,,,,,
math-period,786,1715848,null,"",,,,,,,,,
html-keyboard-response,787,1716861,null,"Recall Period!",null,,,,,,,,
call-function,788,1716863,,"",,,,,,,,,
html-keyboard-response,789,1716979,null,"",null,,,,,,,,
recall-period,790,1719728,10831.505000009434,"",,,,,,,,,porch
html-keyboard-response,791,1719834,null,"",null,,,,,,,,
recall-period,792,1721313,4662.270000030752,"",,,,,,,,,medal
html-keyboard-response,793,1721432,null,"",null,,,,,,,,
recall-period,794,1724320,10474.255000009434,"",,,,,,,,,scarf
html-keyboard-response,795,1724434,null,"",null,,,,,,,,
recall-period,796,1727376,5438.420000049751,"",,,,,,,,,jeep
html-keyboard-response,797,1727486,null,"",null,,,,,,,,
recall-period,798,1791866,null,"",,,,,,,,,
html-keyboard-response,799,1792383,null,"Time's Up!",null,,,,,,,,
html-keyboard-response,800,1794922,2535.759999998845,"<p> Good job! You responded correctly to 91% of the GREEN squares.</p>
                  <p>Be sure to keep your accuracy above 80%</p>
                  <p>Press any key to continue the experiment. Thank you!</p>",32,,,,,,,,
html-keyboard-response,801,1797729,2803.6900000006426,"<div style=""font-size:48px;"">Press any key to begin list 10 of 24 </div>",32,,,,,,,,
html-keyboard-response,802,1800254,null,"<div style=""font-size:60px;"">+</div>",null,,,,,,,,
html-keyboard-response,803,1800773,null,"STAIRS<img id = ""stim"" ><div class = red_square id = ""topsquare"" ></div><img id = ""stim"" ><div class = red_square  id = ""bottomsquare"" ></div>",null,word_square,response,0,none,true,,,
html-keyboard-response,804,1802283,null,"STAIRS",null,word,,,,, 'STAIRS',,
html-keyboard-response,805,1802802,null,"SLIME<img id = ""stim"" ><div class = red_square id = ""topsquare"" ></div><img id = ""stim"" ><div class = red_square  id = ""bottomsquare"" ></div>",null,word_square,response,0,none,true,,,
html-keyboard-response,806,1804316,null,"SLIME",null,word,,,,, 'SLIME',,
html-keyboard-response,807,1804650,330.20500000566244,"GOBLIN<img id = ""stim"" ><div class = green_square id = ""topsquare"" ></div><img id = ""stim"" ><div class = green_square  id = ""bottomsquare"" ></div>",32,word_square,response,1,Space,true,,,
html-keyboard-response,808,1806166,null,"GOBLIN",null,word,,,,, 'GOBLIN',,
html-keyboard-response,809,1806674,null,"CASHIER<img id = ""stim"" ><div class = red_square id = ""topsquare"" ></div><img id = ""stim"" ><div class = red_square  id = ""bottomsquare"" ></div>",null,word_square,response,0,none,true,,,
html-keyboard-response,810,1808177,null,"CASHIER",null,word,,,,, 'CASHIER',,
html-keyboard-response,811,1808695,null,"MOUNTAIN<img id = ""stim"" ><div class = red_square id = ""topsquare"" ></div><img id = ""stim"" ><div class = red_square  id = ""bottomsquare"" ></div>",null,word_square,response,0,none,true,,,
html-keyboard-response,812,1810198,null,"MOUNTAIN",null,word,,,,, 'MOUNTAIN',,
html-keyboard-response,813,1810578,377.0499999956228,"SCRIBBLE<img id = ""stim"" ><div class = green_square id = ""topsquare"" ></div><img id = ""stim"" ><div class = green_square  id = ""bottomsquare"" ></div>",32,word_square,response,1,Space,true,,,
html-keyboard-response,814,1812097,null,"SCRIBBLE",null,word,,,,, 'SCRIBBLE',,
html-keyboard-response,815,1812604,null,"SHEPHERD<img id = ""stim"" ><div class = green_square id = ""topsquare"" ></div><img id = ""stim"" ><div class = green_square  id = ""bottomsquare"" ></div>",null,word_square,response,1,Space,false,,,
html-keyboard-response,816,1814120,null,"SHEPHERD",null,word,,,,, 'SHEPHERD',,
html-keyboard-response,817,1814537,414.09499999997206,"ANGEL<img id = ""stim"" ><div class = green_square id = ""topsquare"" ></div><img id = ""stim"" ><div class = green_square  id = ""bottomsquare"" ></div>",32,word_square,response,1,Space,true,,,
html-keyboard-response,818,1816044,null,"ANGEL",null,word,,,,, 'ANGEL',,
html-keyboard-response,819,1816560,null,"WASHER<img id = ""stim"" ><div class = red_square id = ""topsquare"" ></div><img id = ""stim"" ><div class = red_square  id = ""bottomsquare"" ></div>",null,word_square,response,0,none,true,,,
html-keyboard-response,820,1818063,null,"WASHER",null,word,,,,, 'WASHER',,
html-keyboard-response,821,1818439,374.43999999947846,"MILDEW<img id = ""stim"" ><div class = green_square id = ""topsquare"" ></div><img id = ""stim"" ><div class = green_square  id = ""bottomsquare"" ></div>",32,word_square,response,1,Space,true,,,
html-keyboard-response,822,1819947,null,"MILDEW",null,word,,,,, 'MILDEW',,
html-keyboard-response,823,1820457,null,"ISLAND<img id = ""stim"" ><div class = red_square id = ""topsquare"" ></div><img id = ""stim"" ><div class = red_square  id = ""bottomsquare"" ></div>",null,word_square,response,0,none,true,,,
html-keyboard-response,824,1821976,null,"ISLAND",null,word,,,,, 'ISLAND',,
html-keyboard-response,825,1822491,null,"RECEIPT<img id = ""stim"" ><div class = red_square id = ""topsquare"" ></div><img id = ""stim"" ><div class = red_square  id = ""bottomsquare"" ></div>",null,word_square,response,0,none,true,,,
html-keyboard-response,826,1823997,null,"RECEIPT",null,word,,,,, 'RECEIPT',,
html-keyboard-response,827,1824394,393.9400000087917,"PENCIL<img id = ""stim"" ><div class = green_square id = ""topsquare"" ></div><img id = ""stim"" ><div class = green_square  id = ""bottomsquare"" ></div>",32,word_square,response,1,Space,true,,,
html-keyboard-response,828,1825898,null,"PENCIL",null,word,,,,, 'PENCIL',,
html-keyboard-response,829,1826394,491.1100000026636,"LEMON<img id = ""stim"" ><div class = green_square id = ""topsquare"" ></div><img id = ""stim"" ><div class = green_square  id = ""bottomsquare"" ></div>",32,word_square,response,1,Space,true,,,
html-keyboard-response,830,1827912,null,"LEMON",null,word,,,,, 'LEMON',,
html-keyboard-response,831,1828430,null,"SCALPEL<img id = ""stim"" ><div class = red_square id = ""topsquare"" ></div><img id = ""stim"" ><div class = red_square  id = ""bottomsquare"" ></div>",null,word_square,response,0,none,true,,,
html-keyboard-response,832,1829941,null,"SCALPEL",null,word,,,,, 'SCALPEL',,
html-keyboard-response,833,1830345,399.92499999073334,"FROG<img id = ""stim"" ><div class = green_square id = ""topsquare"" ></div><img id = ""stim"" ><div class = green_square  id = ""bottomsquare"" ></div>",32,word_square,response,1,Space,true,,,
html-keyboard-response,834,1831855,null,"FROG",null,word,,,,, 'FROG',,
html-keyboard-response,835,1832360,null,"PAIL<img id = ""stim"" ><div class = red_square id = ""topsquare"" ></div><img id = ""stim"" ><div class = red_square  id = ""bottomsquare"" ></div>",null,word_square,response,0,none,true,,,
html-keyboard-response,836,1833868,null,"PAIL",null,word,,,,, 'PAIL',,
html-keyboard-response,837,1834208,336.6300000050105,"GLASSES<img id = ""stim"" ><div class = green_square id = ""topsquare"" ></div><img id = ""stim"" ><div class = green_square  id = ""bottomsquare"" ></div>",32,word_square,response,1,Space,true,,,
html-keyboard-response,838,1835718,null,"GLASSES",null,word,,,,, 'GLASSES',,
call-function,839,1835720,,"",,,,,,,,,
html-keyboard-response,840,1835831,null,"",null,,,,,,,,
math-period,841,1838262,3987.329999988666,"",,,,,,,,,6
html-keyboard-response,842,1838368,null,"",null,,,,,,,,
math-period,843,1840174,3097.810000006575,"",,,,,,,,,3
html-keyboard-response,844,1840285,null,"",null,,,,,,,,
math-period,845,1842254,3518.4699999950826,"",,,,,,,,,1
html-keyboard-response,846,1842371,null,"",null,,,,,,,,
math-period,847,1845440,5707.340000008233,"",,,,,,,,,1
html-keyboard-response,848,1845560,null,"",null,,,,,,,,
math-period,849,1846958,2361.3700000129174,"",,,,,,,,,3
html-keyboard-response,850,1847076,null,"",null,,,,,,,,
math-period,851,1850007,5226.800000018673,"",,,,,,,,,3
html-keyboard-response,852,1850113,null,"",null,,,,,,,,
math-period,853,1852374,3871.6950000233483,"",,,,,,,,,2
html-keyboard-response,854,1852481,null,"",null,,,,,,,,
math-period,855,1855006,4352.200000008801,"",,,,,,,,,5
html-keyboard-response,856,1855119,null,"",null,,,,,,,,
math-period,857,1856903,3250.050000002142,"",,,,,,,,,2
html-keyboard-response,858,1857019,null,"",null,,,,,,,,
math-period,859,1858270,2306.765000015497,"",,,,,,,,,2
html-keyboard-response,860,1858374,null,"",null,,,,,,,,
math-period,861,1859736,null,"",,,,,,,,,
html-keyboard-response,862,1860753,null,"Recall Period!",null,,,,,,,,
call-function,863,1860756,,"",,,,,,,,,
html-keyboard-response,864,1860861,null,"",null,,,,,,,,
recall-period,865,1863343,9086.065000010421,"",,,,,,,,,angel
html-keyboard-response,866,1863458,null,"",null,,,,,,,,
recall-period,867,1865423,7987.159999988973,"",,,,,,,,,goblin
html-keyboard-response,868,1865530,null,"",null,,,,,,,,
recall-period,869,1867318,5837.605000052368,"",,,,,,,,,stairs
html-keyboard-response,870,1867432,null,"",null,,,,,,,,
recall-period,871,1870023,11354.924999991432,"",,,,,,,,,pencil
html-keyboard-response,872,1870133,null,"",null,,,,,,,,
recall-period,873,1872103,5815.509999970207,"",,,,,,,,,lemon
html-keyboard-response,874,1872208,null,"",null,,,,,,,,
recall-period,875,1874630,6553.744999969378,"",,,,,,,,,island
html-keyboard-response,876,1874738,null,"",null,,,,,,,,
recall-period,877,1935758,null,"",,,,,,,,,
html-keyboard-response,878,1936262,null,"Time's Up!",null,,,,,,,,
html-keyboard-response,879,1938435,2168.4600000006612,"<p> Good job! You responded correctly to 91% of the GREEN squares.</p>
                  <p>Be sure to keep your accuracy above 80%</p>
                  <p>Press any key to continue the experiment. Thank you!</p>",32,,,,,,,,
html-keyboard-response,880,1939167,729.5949999971781,"<div style=""font-size:48px;"">Press any key to begin list 11 of 24 </div>",32,,,,,,,,
html-keyboard-response,881,1941685,null,"<div style=""font-size:60px;"">+</div>",null,,,,,,,,
html-keyboard-response,882,1942072,383.2500000135042,"APRON<img id = ""stim"" ><div class = green_square id = ""topsquare"" ></div><img id = ""stim"" ><div class = green_square  id = ""bottomsquare"" ></div>",32,word_square,response,1,Space,true,,,
html-keyboard-response,883,1943585,null,"APRON",null,word,,,,, 'APRON',,
html-keyboard-response,884,1944008,420.09499999391846,"CONVENT<img id = ""stim"" ><div class = green_square id = ""topsquare"" ></div><img id = ""stim"" ><div class = green_square  id = ""bottomsquare"" ></div>",32,word_square,response,1,Space,true,,,
html-keyboard-response,885,1945522,null,"CONVENT",null,word,,,,, 'CONVENT',,
html-keyboard-response,886,1946034,null,"GROUND<img id = ""stim"" ><div class = red_square id = ""topsquare"" ></div><img id = ""stim"" ><div class = red_square  id = ""bottomsquare"" ></div>",null,word_square,response,0,none,true,,,
html-keyboard-response,887,1947552,null,"GROUND",null,word,,,,, 'GROUND',,
html-keyboard-response,888,1947906,349.28999999840744,"FARMER<img id = ""stim"" ><div class = green_square id = ""topsquare"" ></div><img id = ""stim"" ><div class = green_square  id = ""bottomsquare"" ></div>",32,word_square,response,1,Space,true,,,
html-keyboard-response,889,1949416,null,"FARMER",null,word,,,,, 'FARMER',,
