trial_type,trial_index,time_elapsed,rt,stimulus,key_press,test_part,targ_cond,correct_response,word,responses
pavlovia,0,948,,"",,,,,,""
external-html,1,2846367,1351896.4849999757,"",,,,,,""
html-keyboard-response,2,2851966,5585.480000008829,"Welcome to the experiment. Press any key to begin.",32,,,,,""
html-keyboard-response,3,2863029,11060.895000002347,"<p>You will see a list of words and colored squares in the following task.<p><p>Press the spacebar whenever you see a GREEN square.<p><p>Do not press a key if the square is RED<p><p>Press the spacebar to continue.</p>",32,,,,,""
html-keyboard-response,4,2875707,12172.814999998081,"<p>Please try to remember as many of the words as you can, and try to think about the meaning of each word as it appears.<p><p>After the detection and encoding task you will be asked to solve some math problems for 24 seconds.<p> Please solve as many problems as you can in the time given. <p>",32,,,,,""
html-keyboard-response,5,2884156,7944.390000018757,"After solving the math problems, you will be asked to type in as many words <p>from the previous list as you can remember for 75 seconds.<p> If you finish recalling before the 75 seconds are up,<p> just sit tight and try to think of any more words you could have missed. <p><p>We will begin with a brief practice session<p>Press the spacebar to begin the practice.</p>",32,,,,,""
html-keyboard-response,6,2886664,null,"<div style=""font-size:60px;"">+</div>",null,,,,,""
html-keyboard-response,7,2887174,null,"HAPPY<img id = ""stim"" ><div class = red_square id = ""topsquare"" ></div><img id = ""stim"" ><div class = red_square  id = ""bottomsquare"" ></div>",null,word_square,D,none,,""
html-keyboard-response,8,2888678,null,"HAPPY",null,word,,,HAPPY,""
html-keyboard-response,9,2888685,null,"COLD<img id = ""stim"" ><div class = green_square id = ""topsquare"" ></div><img id = ""stim"" ><div class = green_square  id = ""bottomsquare"" ></div>",null,word_square,T,SPACEBAR,,""
html-keyboard-response,10,2890189,null,"COLD",null,word,,,COLD,""
html-keyboard-response,11,2890196,null,"HEAVY<img id = ""stim"" ><div class = green_square id = ""topsquare"" ></div><img id = ""stim"" ><div class = green_square  id = ""bottomsquare"" ></div>",null,word_square,T,SPACEBAR,,""
html-keyboard-response,12,2891701,null,"HEAVY",null,word,,,HEAVY,""
html-keyboard-response,13,2892206,null,"FUNNY<img id = ""stim"" ><div class = red_square id = ""topsquare"" ></div><img id = ""stim"" ><div class = red_square  id = ""bottomsquare"" ></div>",null,word_square,D,none,,""
html-keyboard-response,14,2893709,null,"FUNNY",null,word,,,FUNNY,""
html-keyboard-response,15,2893716,null,"SCARY<img id = ""stim"" ><div class = green_square id = ""topsquare"" ></div><img id = ""stim"" ><div class = green_square  id = ""bottomsquare"" ></div>",null,word_square,T,SPACEBAR,,""
html-keyboard-response,16,2895222,null,"SCARY",null,word,,,SCARY,""
html-keyboard-response,17,2895230,null,"PEACEFUL<img id = ""stim"" ><div class = green_square id = ""topsquare"" ></div><img id = ""stim"" ><div class = green_square  id = ""bottomsquare"" ></div>",null,word_square,T,SPACEBAR,,""
html-keyboard-response,18,2896735,null,"PEACEFUL",null,word,,,PEACEFUL,""
html-keyboard-response,19,2897243,null,"LITTLE<img id = ""stim"" ><div class = red_square id = ""topsquare"" ></div><img id = ""stim"" ><div class = red_square  id = ""bottomsquare"" ></div>",null,word_square,D,none,,""
html-keyboard-response,20,2898745,null,"LITTLE",null,word,,,LITTLE,""
html-keyboard-response,21,2899248,null,"TIRED<img id = ""stim"" ><div class = red_square id = ""topsquare"" ></div><img id = ""stim"" ><div class = red_square  id = ""bottomsquare"" ></div>",null,word_square,D,none,,""
html-keyboard-response,22,2900753,null,"TIRED",null,word,,,TIRED,""
html-keyboard-response,23,2901256,null,"ENTERTAINING<img id = ""stim"" ><div class = red_square id = ""topsquare"" ></div><img id = ""stim"" ><div class = red_square  id = ""bottomsquare"" ></div>",null,word_square,D,none,,""
html-keyboard-response,24,2902762,null,"ENTERTAINING",null,word,,,ENTERTAINING,""
html-keyboard-response,25,2902769,null,"GRATEFUL<img id = ""stim"" ><div class = green_square id = ""topsquare"" ></div><img id = ""stim"" ><div class = green_square  id = ""bottomsquare"" ></div>",null,word_square,T,SPACEBAR,,""
html-keyboard-response,26,2904276,null,"GRATEFUL",null,word,,,GRATEFUL,""
html-keyboard-response,27,2904780,null,"LOUD<img id = ""stim"" ><div class = red_square id = ""topsquare"" ></div><img id = ""stim"" ><div class = red_square  id = ""bottomsquare"" ></div>",null,word_square,D,none,,""
html-keyboard-response,28,2906284,null,"LOUD",null,word,,,LOUD,""
html-keyboard-response,29,2906291,null,"SMART<img id = ""stim"" ><div class = green_square id = ""topsquare"" ></div><img id = ""stim"" ><div class = green_square  id = ""bottomsquare"" ></div>",null,word_square,T,SPACEBAR,,""
html-keyboard-response,30,2907797,null,"SMART",null,word,,,SMART,""
html-keyboard-response,31,2907804,null,"SMOOTH<img id = ""stim"" ><div class = green_square id = ""topsquare"" ></div><img id = ""stim"" ><div class = green_square  id = ""bottomsquare"" ></div>",null,word_square,T,SPACEBAR,,""
html-keyboard-response,32,2909308,null,"SMOOTH",null,word,,,SMOOTH,""
html-keyboard-response,33,2909812,null,"DISHONEST<img id = ""stim"" ><div class = red_square id = ""topsquare"" ></div><img id = ""stim"" ><div class = red_square  id = ""bottomsquare"" ></div>",null,word_square,D,none,,""
html-keyboard-response,34,2911318,null,"DISHONEST",null,word,,,DISHONEST,""
html-keyboard-response,35,2911326,null,"WEALTHY<img id = ""stim"" ><div class = green_square id = ""topsquare"" ></div><img id = ""stim"" ><div class = green_square  id = ""bottomsquare"" ></div>",null,word_square,T,SPACEBAR,,""
html-keyboard-response,36,2912828,null,"WEALTHY",null,word,,,WEALTHY,""
html-keyboard-response,37,2913336,null,"BEAUTIFUL<img id = ""stim"" ><div class = red_square id = ""topsquare"" ></div><img id = ""stim"" ><div class = red_square  id = ""bottomsquare"" ></div>",null,word_square,D,none,,""
html-keyboard-response,38,2914837,null,"BEAUTIFUL",null,word,,,BEAUTIFUL,""
html-keyboard-response,39,2915344,null,"DREARY<img id = ""stim"" ><div class = red_square id = ""topsquare"" ></div><img id = ""stim"" ><div class = red_square  id = ""bottomsquare"" ></div>",null,word_square,D,none,,""
html-keyboard-response,40,2916846,null,"DREARY",null,word,,,DREARY,""
html-keyboard-response,41,2917354,null,"PLAYFUL<img id = ""stim"" ><div class = red_square id = ""topsquare"" ></div><img id = ""stim"" ><div class = red_square  id = ""bottomsquare"" ></div>",null,word_square,D,none,,""
html-keyboard-response,42,2918856,null,"PLAYFUL",null,word,,,PLAYFUL,""
survey-text,43,2922499,3613.9799999655224,"",,,,,,"{""Q0"":""1""}"
survey-text,44,2923744,1239.804999961052,"",,,,,,"{""Q0"":""1""}"
survey-text,45,2925260,1512.5649999827147,"",,,,,,"{""Q0"":""3""}"
survey-text,46,2926476,1211.650000012014,"",,,,,,"{""Q0"":""2""}"
survey-text,47,2928019,1539.1250000102445,"",,,,,,"{""Q0"":""5""}"
survey-text,48,2929472,1448.1699999887496,"",,,,,,"{""Q0"":""2""}"
survey-text,49,2932555,3079.250000009779,"",,,,,,"{""Q0"":""4""}"
survey-text,50,2934071,1511.7099999915808,"",,,,,,"{""Q0"":""4""}"
survey-text,51,2935430,1354.909999994561,"",,,,,,"{""Q0"":""2""}"
survey-text,52,2936609,1174.4000000180677,"",,,,,,"{""Q0"":""3""}"
survey-text,53,2938004,1391.005000041332,"",,,,,,"{""Q0"":""5""}"
survey-text,54,2939453,1445.1000000117347,"",,,,,,"{""Q0"":""2""}"
survey-text,55,2940407,949.1749999579042,"",,,,,,"{""Q0"":""2""}"
survey-text,56,2942357,1945.5799999996088,"",,,,,,"{""Q0"":""2""}"
survey-text,57,2943669,1307.9349999898113,"",,,,,,"{""Q0"":""4""}"
survey-text,58,2966195,22520.490000024438,"",,,,,,"{""Q0"":""Cold, heavy, funny, peaceful, loud, dreary, tired, beautiful, scary,""}"
survey-text,59,2971321,5120.215000002645,"",,,,,,"{""Q0"":""heavy""}"
survey-text,60,2973014,1687.625000020489,"",,,,,,"{""Q0"":""funny""}"
survey-text,61,2975780,2758.9049999951385,"",,,,,,"{""Q0"":""peacful""}"
survey-text,62,2977330,1537.8749999799766,"",,,,,,"{""Q0"":""loud""}"
survey-text,63,2979945,2610.5899999965914,"",,,,,,"{""Q0"":""beautiful""}"
survey-text,64,2981894,1944.4950000033714,"",,,,,,"{""Q0"":""tired""}"
survey-text,65,2984402,2502.9999999678694,"",,,,,,"{""Q0"":""dreary""}"
survey-text,66,2990629,6221.81499999715,"",,,,,,"{""Q0"":""beautiful""}"
survey-text,67,2995677,5043.53500000434,"",,,,,,"{""Q0"":""scared""}"
survey-text,68,3010515,14832.605000003241,"",,,,,,"{""Q0"":""happy""}"
survey-text,69,3012373,1852.3800000548363,"",,,,,,"{""Q0"":""cold""}"
survey-text,70,3019092,6713.86000001803,"",,,,,,"{""Q0"":""sad""}"
html-keyboard-response,71,3026440,7345.560000045225,"<p>We will now begin the experiment!<p><p>Please try to remember all words from each list.<p><p>Press the spacebar whenever you see a GREEN square.<p><p><p><p>Press the spacebar to begin.</p>",32,,,,,""
html-keyboard-response,72,3030655,3713.1850000005215,"<div style=""font-size:48px;"">Press any key to begin list 1 of 24 </div>",32,,,,,""
html-keyboard-response,73,3033162,null,"<div style=""font-size:60px;"">+</div>",null,,,,,""
html-keyboard-response,74,3033668,null,"BELT<img id = ""stim"" ><div class = red_square id = ""topsquare"" ></div><img id = ""stim"" ><div class = red_square  id = ""bottomsquare"" ></div>",null,word_square,0,SPACEBAR,,""
html-keyboard-response,75,3035171,null,"BELT",null,word,,, 'BELT',""
html-keyboard-response,76,3035678,null,"FLASK<img id = ""stim"" ><div class = red_square id = ""topsquare"" ></div><img id = ""stim"" ><div class = red_square  id = ""bottomsquare"" ></div>",null,word_square,0,SPACEBAR,,""
html-keyboard-response,77,3037181,null,"FLASK",null,word,,, 'FLASK',""
html-keyboard-response,78,3037688,null,"PLUTO<img id = ""stim"" ><div class = green_square id = ""topsquare"" ></div><img id = ""stim"" ><div class = green_square  id = ""bottomsquare"" ></div>",null,word_square,1,SPACEBAR,,""
html-keyboard-response,79,3039191,null,"PLUTO",null,word,,, 'PLUTO',""
html-keyboard-response,80,3039698,null,"JOURNAL<img id = ""stim"" ><div class = red_square id = ""topsquare"" ></div><img id = ""stim"" ><div class = red_square  id = ""bottomsquare"" ></div>",null,word_square,0,SPACEBAR,,""
html-keyboard-response,81,3041200,null,"JOURNAL",null,word,,, 'JOURNAL',""
html-keyboard-response,82,3041703,null,"SCRIBBLE<img id = ""stim"" ><div class = red_square id = ""topsquare"" ></div><img id = ""stim"" ><div class = red_square  id = ""bottomsquare"" ></div>",null,word_square,0,SPACEBAR,,""
html-keyboard-response,83,3043210,null,"SCRIBBLE",null,word,,, 'SCRIBBLE',""
html-keyboard-response,84,3043716,null,"CROSS<img id = ""stim"" ><div class = green_square id = ""topsquare"" ></div><img id = ""stim"" ><div class = green_square  id = ""bottomsquare"" ></div>",null,word_square,1,SPACEBAR,,""
html-keyboard-response,85,3045218,null,"CROSS",null,word,,, 'CROSS',""
html-keyboard-response,86,3045722,null,"CHAPEL<img id = ""stim"" ><div class = red_square id = ""topsquare"" ></div><img id = ""stim"" ><div class = red_square  id = ""bottomsquare"" ></div>",null,word_square,0,SPACEBAR,,""
html-keyboard-response,87,3047227,null,"CHAPEL",null,word,,, 'CHAPEL',""
html-keyboard-response,88,3047735,null,"PUPPY<img id = ""stim"" ><div class = green_square id = ""topsquare"" ></div><img id = ""stim"" ><div class = green_square  id = ""bottomsquare"" ></div>",null,word_square,1,SPACEBAR,,""
html-keyboard-response,89,3049241,null,"PUPPY",null,word,,, 'PUPPY',""
html-keyboard-response,90,3049747,null,"PAIL<img id = ""stim"" ><div class = green_square id = ""topsquare"" ></div><img id = ""stim"" ><div class = green_square  id = ""bottomsquare"" ></div>",null,word_square,1,SPACEBAR,,""
html-keyboard-response,91,3051252,null,"PAIL",null,word,,, 'PAIL',""
html-keyboard-response,92,3051755,null,"FLOWER<img id = ""stim"" ><div class = red_square id = ""topsquare"" ></div><img id = ""stim"" ><div class = red_square  id = ""bottomsquare"" ></div>",null,word_square,0,SPACEBAR,,""
html-keyboard-response,93,3053260,null,"FLOWER",null,word,,, 'FLOWER',""
html-keyboard-response,94,3053767,null,"NEPHEW<img id = ""stim"" ><div class = green_square id = ""topsquare"" ></div><img id = ""stim"" ><div class = green_square  id = ""bottomsquare"" ></div>",null,word_square,1,SPACEBAR,,""
html-keyboard-response,95,3055269,null,"NEPHEW",null,word,,, 'NEPHEW',""
html-keyboard-response,96,3055774,null,"SCOTCH<img id = ""stim"" ><div class = green_square id = ""topsquare"" ></div><img id = ""stim"" ><div class = green_square  id = ""bottomsquare"" ></div>",null,word_square,1,SPACEBAR,,""
html-keyboard-response,97,3057276,null,"SCOTCH",null,word,,, 'SCOTCH',""
html-keyboard-response,98,3057778,null,"MEAT<img id = ""stim"" ><div class = red_square id = ""topsquare"" ></div><img id = ""stim"" ><div class = red_square  id = ""bottomsquare"" ></div>",null,word_square,0,SPACEBAR,,""
html-keyboard-response,99,3059283,null,"MEAT",null,word,,, 'MEAT',""
html-keyboard-response,100,3059626,341.1000000196509,"STREAM<img id = ""stim"" ><div class = green_square id = ""topsquare"" ></div><img id = ""stim"" ><div class = green_square  id = ""bottomsquare"" ></div>",32,word_square,1,SPACEBAR,,""
html-keyboard-response,101,3061128,null,"STREAM",null,word,,, 'STREAM',""
html-keyboard-response,102,3061636,null,"MARSH<img id = ""stim"" ><div class = green_square id = ""topsquare"" ></div><img id = ""stim"" ><div class = green_square  id = ""bottomsquare"" ></div>",null,word_square,1,SPACEBAR,,""
html-keyboard-response,103,3063138,null,"MARSH",null,word,,, 'MARSH',""
html-keyboard-response,104,3063643,null,"SEAL<img id = ""stim"" ><div class = red_square id = ""topsquare"" ></div><img id = ""stim"" ><div class = red_square  id = ""bottomsquare"" ></div>",null,word_square,0,SPACEBAR,,""
html-keyboard-response,105,3065148,null,"SEAL",null,word,,, 'SEAL',""
html-keyboard-response,106,3065651,null,"MAGNET<img id = ""stim"" ><div class = red_square id = ""topsquare"" ></div><img id = ""stim"" ><div class = red_square  id = ""bottomsquare"" ></div>",null,word_square,0,SPACEBAR,,""
html-keyboard-response,107,3067158,null,"MAGNET",null,word,,, 'MAGNET',""
html-keyboard-response,108,3067589,429.3449999531731,"GLOVE<img id = ""stim"" ><div class = green_square id = ""topsquare"" ></div><img id = ""stim"" ><div class = green_square  id = ""bottomsquare"" ></div>",32,word_square,1,SPACEBAR,,""
html-keyboard-response,109,3069092,null,"GLOVE",null,word,,, 'GLOVE',""
survey-text,110,3070594,1496.7750000068918,"",,,,,,"{""Q0"":""2""}"
survey-text,111,3072830,2231.2950000050478,"",,,,,,"{""Q0"":""5""}"
survey-text,112,3074290,1455.4100000532344,"",,,,,,"{""Q0"":""2""}"
survey-text,113,3075118,823.934999993071,"",,,,,,"{""Q0"":""2""}"
survey-text,114,3076448,1326.7100000521168,"",,,,,,"{""Q0"":""3""}"
survey-text,115,3077288,836.0450000036508,"",,,,,,"{""Q0"":""2""}"
survey-text,116,3078575,1282.2900000028312,"",,,,,,"{""Q0"":""6""}"
survey-text,117,3079868,1288.5899999528192,"",,,,,,"{""Q0"":""2""}"
survey-text,118,3082460,2588.2149999961257,"",,,,,,"{""Q0"":""4""}"
survey-text,119,3083438,973.7249999889173,"",,,,,,"{""Q0"":""4""}"
survey-text,120,3084950,1507.4200000381097,"",,,,,,"{""Q0"":""2""}"
survey-text,121,3086190,1235.99999997532,"",,,,,,"{""Q0"":""5""}"
survey-text,122,3087551,1357.1050000027753,"",,,,,,"{""Q0"":""1""}"
survey-text,123,3089039,1483.1549999653362,"",,,,,,"{""Q0"":""5""}"
survey-text,124,3090551,1508.7000000057742,"",,,,,,"{""Q0"":""4""}"
survey-text,125,3091467,910.9550000284798,"",,,,,,"{""Q0"":""2""}"
survey-text,126,3092874,1403.0999999959022,"",,,,,,"{""Q0"":""4""}"
survey-text,127,3095473,2594.799999962561,"",,,,,,"{""Q0"":""1""}"
survey-text,128,3098140,2662.335000000894,"",,,,,,"{""Q0"":""belt""}"
survey-text,129,3099458,1314.2850000294857,"",,,,,,"{""Q0"":""pluto""}"
survey-text,130,3101069,1606.424999947194,"",,,,,,"{""Q0"":""flask""}"
survey-text,131,3102079,1004.1549999732524,"",,,,,,"{""Q0"":""seal""}"
survey-text,132,3107554,5469.12500000326,"",,,,,,"{""Q0"":""puppy""}"
survey-text,133,3109285,1725.6300000008196,"",,,,,,"{""Q0"":""marsh""}"
survey-text,134,3121075,11784.785000025295,"",,,,,,"{""Q0"":""pail""}"
survey-text,135,3126287,5206.964999961201,"",,,,,,"{""Q0"":""cold""}"
survey-text,136,3130281,3988.290000008419,"",,,,,,"{""Q0"":""belt""}"
survey-text,137,3208184,77898.17499998026,"",,,,,,"{""Q0"":""corn""}"
html-keyboard-response,138,3210203,2016.4499999955297,"<div style=""font-size:48px;"">Press any key to begin list 2 of 24 </div>",32,,,,,""
html-keyboard-response,139,3212709,null,"<div style=""font-size:60px;"">+</div>",null,,,,,""
html-keyboard-response,140,3213211,null,"PORPOISE<img id = ""stim"" ><div class = red_square id = ""topsquare"" ></div><img id = ""stim"" ><div class = red_square  id = ""bottomsquare"" ></div>",null,word_square,0,SPACEBAR,,""
html-keyboard-response,141,3214718,null,"PORPOISE",null,word,,, 'PORPOISE',""
html-keyboard-response,142,3215225,null,"QUARTER<img id = ""stim"" ><div class = red_square id = ""topsquare"" ></div><img id = ""stim"" ><div class = red_square  id = ""bottomsquare"" ></div>",null,word_square,0,SPACEBAR,,""
html-keyboard-response,143,3216729,null,"QUARTER",null,word,,, 'QUARTER',""
html-keyboard-response,144,3217236,null,"WHISTLE<img id = ""stim"" ><div class = green_square id = ""topsquare"" ></div><img id = ""stim"" ><div class = green_square  id = ""bottomsquare"" ></div>",null,word_square,1,SPACEBAR,,""
html-keyboard-response,145,3218738,null,"WHISTLE",null,word,,, 'WHISTLE',""
html-keyboard-response,146,3219242,null,"NEEDLE<img id = ""stim"" ><div class = red_square id = ""topsquare"" ></div><img id = ""stim"" ><div class = red_square  id = ""bottomsquare"" ></div>",null,word_square,0,SPACEBAR,,""
html-keyboard-response,147,3220747,null,"NEEDLE",null,word,,, 'NEEDLE',""
html-keyboard-response,148,3221254,null,"PARTNER<img id = ""stim"" ><div class = red_square id = ""topsquare"" ></div><img id = ""stim"" ><div class = red_square  id = ""bottomsquare"" ></div>",null,word_square,0,SPACEBAR,,""
html-keyboard-response,149,3222757,null,"PARTNER",null,word,,, 'PARTNER',""
html-keyboard-response,150,3223264,null,"FRIEND<img id = ""stim"" ><div class = green_square id = ""topsquare"" ></div><img id = ""stim"" ><div class = green_square  id = ""bottomsquare"" ></div>",null,word_square,1,SPACEBAR,,""
html-keyboard-response,151,3224765,null,"FRIEND",null,word,,, 'FRIEND',""
html-keyboard-response,152,3225268,null,"MARKET<img id = ""stim"" ><div class = red_square id = ""topsquare"" ></div><img id = ""stim"" ><div class = red_square  id = ""bottomsquare"" ></div>",null,word_square,0,SPACEBAR,,""
html-keyboard-response,153,3226772,null,"MARKET",null,word,,, 'MARKET',""
html-keyboard-response,154,3227279,null,"CHISEL<img id = ""stim"" ><div class = green_square id = ""topsquare"" ></div><img id = ""stim"" ><div class = green_square  id = ""bottomsquare"" ></div>",null,word_square,1,SPACEBAR,,""
html-keyboard-response,155,3228781,null,"CHISEL",null,word,,, 'CHISEL',""
html-keyboard-response,156,3229283,null,"BANKER<img id = ""stim"" ><div class = green_square id = ""topsquare"" ></div><img id = ""stim"" ><div class = green_square  id = ""bottomsquare"" ></div>",null,word_square,1,SPACEBAR,,""
html-keyboard-response,157,3230789,null,"BANKER",null,word,,, 'BANKER',""
html-keyboard-response,158,3231293,null,"COIN<img id = ""stim"" ><div class = red_square id = ""topsquare"" ></div><img id = ""stim"" ><div class = red_square  id = ""bottomsquare"" ></div>",null,word_square,0,SPACEBAR,,""
html-keyboard-response,159,3232798,null,"COIN",null,word,,, 'COIN',""
html-keyboard-response,160,3233303,null,"SWITCH<img id = ""stim"" ><div class = green_square id = ""topsquare"" ></div><img id = ""stim"" ><div class = green_square  id = ""bottomsquare"" ></div>",null,word_square,1,SPACEBAR,,""
html-keyboard-response,161,3234806,null,"SWITCH",null,word,,, 'SWITCH',""
html-keyboard-response,162,3235308,null,"BOX<img id = ""stim"" ><div class = green_square id = ""topsquare"" ></div><img id = ""stim"" ><div class = green_square  id = ""bottomsquare"" ></div>",null,word_square,1,SPACEBAR,,""
html-keyboard-response,163,3236814,null,"BOX",null,word,,, 'BOX',""
html-keyboard-response,164,3237321,null,"GOBLIN<img id = ""stim"" ><div class = red_square id = ""topsquare"" ></div><img id = ""stim"" ><div class = red_square  id = ""bottomsquare"" ></div>",null,word_square,0,SPACEBAR,,""
html-keyboard-response,165,3238825,null,"GOBLIN",null,word,,, 'GOBLIN',""
html-keyboard-response,166,3239165,338.96000002278015,"STOMACH<img id = ""stim"" ><div class = green_square id = ""topsquare"" ></div><img id = ""stim"" ><div class = green_square  id = ""bottomsquare"" ></div>",32,word_square,1,SPACEBAR,,""
html-keyboard-response,167,3240670,null,"STOMACH",null,word,,, 'STOMACH',""
html-keyboard-response,168,3241010,338.5800000396557,"LIVER<img id = ""stim"" ><div class = green_square id = ""topsquare"" ></div><img id = ""stim"" ><div class = green_square  id = ""bottomsquare"" ></div>",32,word_square,1,SPACEBAR,,""
html-keyboard-response,169,3242517,null,"LIVER",null,word,,, 'LIVER',""
html-keyboard-response,170,3243024,null,"KNIFE<img id = ""stim"" ><div class = red_square id = ""topsquare"" ></div><img id = ""stim"" ><div class = red_square  id = ""bottomsquare"" ></div>",null,word_square,0,SPACEBAR,,""
html-keyboard-response,171,3244526,null,"KNIFE",null,word,,, 'KNIFE',""
html-keyboard-response,172,3245033,null,"COOKBOOK<img id = ""stim"" ><div class = red_square id = ""topsquare"" ></div><img id = ""stim"" ><div class = red_square  id = ""bottomsquare"" ></div>",null,word_square,0,SPACEBAR,,""
html-keyboard-response,173,3246537,null,"COOKBOOK",null,word,,, 'COOKBOOK',""
html-keyboard-response,174,3246927,388.28499999362975,"GUITAR<img id = ""stim"" ><div class = green_square id = ""topsquare"" ></div><img id = ""stim"" ><div class = green_square  id = ""bottomsquare"" ></div>",32,word_square,1,SPACEBAR,,""
html-keyboard-response,175,3248430,null,"GUITAR",null,word,,, 'GUITAR',""
survey-text,176,3250021,1585.9349999809638,"",,,,,,"{""Q0"":""3""}"
survey-text,177,3251192,1166.4650000166148,"",,,,,,"{""Q0"":""4""}"
survey-text,178,3252287,1091.695000010077,"",,,,,,"{""Q0"":""4""}"
survey-text,179,3253191,900.1200000056997,"",,,,,,"{""Q0"":""4""}"
survey-text,180,3254104,908.8150000316091,"",,,,,,"{""Q0"":""3""}"
survey-text,181,3255062,954.4350000214763,"",,,,,,"{""Q0"":""2""}"
survey-text,182,3256038,971.3200000114739,"",,,,,,"{""Q0"":""4""}"
survey-text,183,3257946,1903.0849999981,"",,,,,,"{""Q0"":""4""}"
survey-text,184,3259410,1460.2700000395998,"",,,,,,"{""Q0"":""2""}"
survey-text,185,3260416,1001.2049999786541,"",,,,,,"{""Q0"":""3""}"
survey-text,186,3261302,882.0500000147149,"",,,,,,"{""Q0"":""4""}"
survey-text,187,3262471,1165.584999951534,"",,,,,,"{""Q0"":""6""}"
survey-text,188,3263444,968.0900000385009,"",,,,,,"{""Q0"":""4""}"
survey-text,189,3265766,2317.559999995865,"",,,,,,"{""Q0"":""4""}"
survey-text,190,3266808,1036.8149999994785,"",,,,,,"{""Q0"":""4""}"
survey-text,191,3267718,904.8299999558367,"",,,,,,"{""Q0"":""3""}"
survey-text,192,3268680,958.6099999723956,"",,,,,,"{""Q0"":""3""}"
survey-text,193,3269840,1155.0900000147521,"",,,,,,"{""Q0"":""6""}"
survey-text,194,3270933,1089.475000044331,"",,,,,,"{""Q0"":""3""}"
survey-text,195,3273197,2259.9100000225008,"",,,,,,"{""Q0"":""1""}"
survey-text,196,3275420,2218.624999979511,"",,,,,,"{""Q0"":""friend""}"
survey-text,197,3279414,3988.8900000369176,"",,,,,,"{""Q0"":""qortois""}"
survey-text,198,3281009,1590.6299999915063,"",,,,,,"{""Q0"":""banker""}"
survey-text,199,3282028,1014.1749999602325,"",,,,,,"{""Q0"":""partner""}"
survey-text,200,3284032,1999.9149999930523,"",,,,,,"{""Q0"":""marriage""}"
survey-text,201,3286275,2238.5600000270642,"",,,,,,"{""Q0"":""bank""}"
survey-text,202,3288076,1796.8300000065938,"",,,,,,"{""Q0"":""quarter""}"
survey-text,203,3290523,2443.044999963604,"",,,,,,"{""Q0"":""knife""}"
survey-text,204,3291874,1346.895000024233,"",,,,,,"{""Q0"":""cookbook""}"
survey-text,205,3294809,2930.1899999845773,"",,,,,,"{""Q0"":""guitar""}"
survey-text,206,3298748,3934.685000043828,"",,,,,,"{""Q0"":""instrument""}"
survey-text,207,3325668,26915.825000032783,"",,,,,,"{""Q0"":""seal""}"
survey-text,208,3336852,11179.015000001527,"",,,,,,"{""Q0"":""puppy""}"
survey-text,209,3353095,16237.910000025295,"",,,,,,"{""Q0"":""d""}"
html-keyboard-response,210,3353822,725.7099999696948,"<div style=""font-size:48px;"">Press any key to begin list 3 of 24 </div>",13,,,,,""
html-keyboard-response,211,3356333,null,"<div style=""font-size:60px;"">+</div>",null,,,,,""
html-keyboard-response,212,3356838,null,"SIRLOIN<img id = ""stim"" ><div class = green_square id = ""topsquare"" ></div><img id = ""stim"" ><div class = green_square  id = ""bottomsquare"" ></div>",null,word_square,1,SPACEBAR,,""
html-keyboard-response,213,3358344,null,"SIRLOIN",null,word,,, 'SIRLOIN',""
html-keyboard-response,214,3358852,null,"OUTDOORS<img id = ""stim"" ><div class = green_square id = ""topsquare"" ></div><img id = ""stim"" ><div class = green_square  id = ""bottomsquare"" ></div>",null,word_square,1,SPACEBAR,,""
html-keyboard-response,215,3360354,null,"OUTDOORS",null,word,,, 'OUTDOORS',""
html-keyboard-response,216,3360862,null,"FOREST<img id = ""stim"" ><div class = red_square id = ""topsquare"" ></div><img id = ""stim"" ><div class = red_square  id = ""bottomsquare"" ></div>",null,word_square,0,SPACEBAR,,""
html-keyboard-response,217,3362364,null,"FOREST",null,word,,, 'FOREST',""
html-keyboard-response,218,3362871,null,"EYELASH<img id = ""stim"" ><div class = green_square id = ""topsquare"" ></div><img id = ""stim"" ><div class = green_square  id = ""bottomsquare"" ></div>",null,word_square,1,SPACEBAR,,""
html-keyboard-response,219,3364373,null,"EYELASH",null,word,,, 'EYELASH',""
html-keyboard-response,220,3364865,489.54000003868714,"NAPKIN<img id = ""stim"" ><div class = green_square id = ""topsquare"" ></div><img id = ""stim"" ><div class = green_square  id = ""bottomsquare"" ></div>",32,word_square,1,SPACEBAR,,""
html-keyboard-response,221,3366368,null,"NAPKIN",null,word,,, 'NAPKIN',""
html-keyboard-response,222,3366873,null,"SNAKE<img id = ""stim"" ><div class = red_square id = ""topsquare"" ></div><img id = ""stim"" ><div class = red_square  id = ""bottomsquare"" ></div>",null,word_square,0,SPACEBAR,,""
html-keyboard-response,223,3368380,null,"SNAKE",null,word,,, 'SNAKE',""
html-keyboard-response,224,3368886,null,"CRACKER<img id = ""stim"" ><div class = green_square id = ""topsquare"" ></div><img id = ""stim"" ><div class = green_square  id = ""bottomsquare"" ></div>",null,word_square,1,SPACEBAR,,""
html-keyboard-response,225,3370389,null,"CRACKER",null,word,,, 'CRACKER',""
html-keyboard-response,226,3370896,null,"OINTMENT<img id = ""stim"" ><div class = red_square id = ""topsquare"" ></div><img id = ""stim"" ><div class = red_square  id = ""bottomsquare"" ></div>",null,word_square,0,SPACEBAR,,""
html-keyboard-response,227,3372398,null,"OINTMENT",null,word,,, 'OINTMENT',""
html-keyboard-response,228,3372901,null,"HUSBAND<img id = ""stim"" ><div class = red_square id = ""topsquare"" ></div><img id = ""stim"" ><div class = red_square  id = ""bottomsquare"" ></div>",null,word_square,0,SPACEBAR,,""
html-keyboard-response,229,3374406,null,"HUSBAND",null,word,,, 'HUSBAND',""
html-keyboard-response,230,3374744,336.53000002959743,"SPOUSE<img id = ""stim"" ><div class = green_square id = ""topsquare"" ></div><img id = ""stim"" ><div class = green_square  id = ""bottomsquare"" ></div>",32,word_square,1,SPACEBAR,,""
html-keyboard-response,231,3376252,null,"SPOUSE",null,word,,, 'SPOUSE',""
html-keyboard-response,232,3376759,null,"LIZARD<img id = ""stim"" ><div class = red_square id = ""topsquare"" ></div><img id = ""stim"" ><div class = red_square  id = ""bottomsquare"" ></div>",null,word_square,0,SPACEBAR,,""
html-keyboard-response,233,3378266,null,"LIZARD",null,word,,, 'LIZARD',""
html-keyboard-response,234,3378774,null,"PARSLEY<img id = ""stim"" ><div class = red_square id = ""topsquare"" ></div><img id = ""stim"" ><div class = red_square  id = ""bottomsquare"" ></div>",null,word_square,0,SPACEBAR,,""
html-keyboard-response,235,3380281,null,"PARSLEY",null,word,,, 'PARSLEY',""
html-keyboard-response,236,3380642,359.9099999992177,"PUDDING<img id = ""stim"" ><div class = green_square id = ""topsquare"" ></div><img id = ""stim"" ><div class = green_square  id = ""bottomsquare"" ></div>",32,word_square,1,SPACEBAR,,""
html-keyboard-response,237,3382147,null,"PUDDING",null,word,,, 'PUDDING',""
html-keyboard-response,238,3382654,null,"JUDGE<img id = ""stim"" ><div class = red_square id = ""topsquare"" ></div><img id = ""stim"" ><div class = red_square  id = ""bottomsquare"" ></div>",null,word_square,0,SPACEBAR,,""
html-keyboard-response,239,3384160,null,"JUDGE",null,word,,, 'JUDGE',""
html-keyboard-response,240,3384663,null,"REPORT<img id = ""stim"" ><div class = red_square id = ""topsquare"" ></div><img id = ""stim"" ><div class = red_square  id = ""bottomsquare"" ></div>",null,word_square,0,SPACEBAR,,""
html-keyboard-response,241,3386168,null,"REPORT",null,word,,, 'REPORT',""
html-keyboard-response,242,3386504,334.8649999825284,"POWDER<img id = ""stim"" ><div class = green_square id = ""topsquare"" ></div><img id = ""stim"" ><div class = green_square  id = ""bottomsquare"" ></div>",32,word_square,1,SPACEBAR,,""
html-keyboard-response,243,3388012,null,"POWDER",null,word,,, 'POWDER',""
html-keyboard-response,244,3388346,332.59499998530373,"ROOSTER<img id = ""stim"" ><div class = green_square id = ""topsquare"" ></div><img id = ""stim"" ><div class = green_square  id = ""bottomsquare"" ></div>",32,word_square,1,SPACEBAR,,""
html-keyboard-response,245,3389850,null,"ROOSTER",null,word,,, 'ROOSTER',""
html-keyboard-response,246,3390232,380.50500000827014,"YOLK<img id = ""stim"" ><div class = red_square id = ""topsquare"" ></div><img id = ""stim"" ><div class = red_square  id = ""bottomsquare"" ></div>",32,word_square,0,SPACEBAR,,""
html-keyboard-response,247,3391738,null,"YOLK",null,word,,, 'YOLK',""
survey-text,248,3392884,1141.4099999819882,"",,,,,,"{""Q0"":""2""}"
survey-text,249,3394125,1236.1999999848194,"",,,,,,"{""Q0"":""4""}"
survey-text,250,3395117,988.0600000033155,"",,,,,,"{""Q0"":""4""}"
survey-text,251,3396383,1262.2700000065379,"",,,,,,"{""Q0"":""2""}"
survey-text,252,3397466,1078.4650000277907,"",,,,,,"{""Q0"":""5""}"
survey-text,253,3398442,971.7700000037439,"",,,,,,"{""Q0"":""6""}"
survey-text,254,3399590,1142.5299999536946,"",,,,,,"{""Q0"":""3""}"
survey-text,255,3401540,1946.0499999695458,"",,,,,,"{""Q0"":""4""}"
survey-text,256,3402527,982.9800000297837,"",,,,,,"{""Q0"":""3""}"
survey-text,257,3403373,841.7749999789521,"",,,,,,"{""Q0"":""3""}"
survey-text,258,3404444,1066.594999982044,"",,,,,,"{""Q0"":""2""}"
survey-text,259,3405787,1339.1149999806657,"",,,,,,"{""Q0"":""2""}"
survey-text,260,3406883,1091.5900000254624,"",,,,,,"{""Q0"":""4""}"
survey-text,261,3407905,1017.8350000060163,"",,,,,,"{""Q0"":""4""}"
survey-text,262,3408767,858.0300000030547,"",,,,,,"{""Q0"":""4""}"
survey-text,263,3409929,1157.1099999709986,"",,,,,,"{""Q0"":""3""}"
survey-text,264,3410700,767.0100000104867,"",,,,,,"{""Q0"":""2""}"
survey-text,265,3411870,1165.9199999994598,"",,,,,,"{""Q0"":""4""}"
survey-text,266,3413922,2047.5100000039674,"",,,,,,"{""Q0"":""4""}"
survey-text,267,3414858,931.4200000371784,"",,,,,,"{""Q0"":""4""}"
survey-text,268,3415960,1098.8550000474788,"",,,,,,"{""Q0"":""3""}"
survey-text,269,3418536,2570.7300000358373,"",,,,,,"{""Q0"":""sirloin""}"
survey-text,270,3419965,1424.475000007078,"",,,,,,"{""Q0"":""outdoors""}"
survey-text,271,3423308,3338.5400000261143,"",,,,,,"{""Q0"":""snake""}"
survey-text,272,3424796,1483.2149999565445,"",,,,,,"{""Q0"":""forest""}"
survey-text,273,3425901,1101.444999978412,"",,,,,,"{""Q0"":""parsely""}"
survey-text,274,3429965,4058.740000007674,"",,,,,,"{""Q0"":""husband""}"
survey-text,275,3431756,1787.099999957718,"",,,,,,"{""Q0"":""spouse""}"
survey-text,276,3433015,1253.995000035502,"",,,,,,"{""Q0"":""rooster""}"
survey-text,277,3435571,2552.610000013374,"",,,,,,"{""Q0"":""bench""}"
survey-text,278,3439973,4397.524999978486,"",,,,,,"{""Q0"":""eyelash""}"
survey-text,279,3441689,1711.2900000065565,"",,,,,,"{""Q0"":""eyelids""}"
survey-text,280,3458381,16687.950000050478,"",,,,,,"{""Q0"":""parent""}"
survey-text,281,3483641,25255.74999995297,"",,,,,,"{""Q0"":""d""}"
survey-text,282,3511349,27703.284999995958,"",,,,,,"{""Q0"":""rooster""}"
html-keyboard-response,283,3511937,586.0450000036508,"<div style=""font-size:48px;"">Press any key to begin list 4 of 24 </div>",13,,,,,""
html-keyboard-response,284,3514444,null,"<div style=""font-size:60px;"">+</div>",null,,,,,""
html-keyboard-response,285,3514951,null,"INMATE<img id = ""stim"" ><div class = green_square id = ""topsquare"" ></div><img id = ""stim"" ><div class = green_square  id = ""bottomsquare"" ></div>",null,word_square,1,SPACEBAR,,""
html-keyboard-response,286,3516455,null,"INMATE",null,word,,, 'INMATE',""
html-keyboard-response,287,3516963,null,"SLIDE<img id = ""stim"" ><div class = green_square id = ""topsquare"" ></div><img id = ""stim"" ><div class = green_square  id = ""bottomsquare"" ></div>",null,word_square,1,SPACEBAR,,""
html-keyboard-response,288,3518465,null,"SLIDE",null,word,,, 'SLIDE',""
html-keyboard-response,289,3518972,null,"REBEL<img id = ""stim"" ><div class = red_square id = ""topsquare"" ></div><img id = ""stim"" ><div class = red_square  id = ""bottomsquare"" ></div>",null,word_square,0,SPACEBAR,,""
html-keyboard-response,290,3520475,null,"REBEL",null,word,,, 'REBEL',""
html-keyboard-response,291,3520983,null,"PAPER<img id = ""stim"" ><div class = green_square id = ""topsquare"" ></div><img id = ""stim"" ><div class = green_square  id = ""bottomsquare"" ></div>",null,word_square,1,SPACEBAR,,""
html-keyboard-response,292,3522485,null,"PAPER",null,word,,, 'PAPER',""
html-keyboard-response,293,3522992,null,"HANDBAG<img id = ""stim"" ><div class = green_square id = ""topsquare"" ></div><img id = ""stim"" ><div class = green_square  id = ""bottomsquare"" ></div>",null,word_square,1,SPACEBAR,,""
html-keyboard-response,294,3524493,null,"HANDBAG",null,word,,, 'HANDBAG',""
html-keyboard-response,295,3524998,null,"POCKET<img id = ""stim"" ><div class = red_square id = ""topsquare"" ></div><img id = ""stim"" ><div class = red_square  id = ""bottomsquare"" ></div>",null,word_square,0,SPACEBAR,,""
html-keyboard-response,296,3526502,null,"POCKET",null,word,,, 'POCKET',""
html-keyboard-response,297,3526841,336.7100000032224,"JUGGLER<img id = ""stim"" ><div class = green_square id = ""topsquare"" ></div><img id = ""stim"" ><div class = green_square  id = ""bottomsquare"" ></div>",32,word_square,1,SPACEBAR,,""
html-keyboard-response,298,3528347,null,"JUGGLER",null,word,,, 'JUGGLER',""
html-keyboard-response,299,3528850,null,"ACTOR<img id = ""stim"" ><div class = red_square id = ""topsquare"" ></div><img id = ""stim"" ><div class = red_square  id = ""bottomsquare"" ></div>",null,word_square,0,SPACEBAR,,""
html-keyboard-response,300,3530357,null,"ACTOR",null,word,,, 'ACTOR',""
html-keyboard-response,301,3530865,null,"MUSHROOM<img id = ""stim"" ><div class = red_square id = ""topsquare"" ></div><img id = ""stim"" ><div class = red_square  id = ""bottomsquare"" ></div>",null,word_square,0,SPACEBAR,,""
html-keyboard-response,302,3532368,null,"MUSHROOM",null,word,,, 'MUSHROOM',""
html-keyboard-response,303,3532743,373.18499997491017,"KIWI<img id = ""stim"" ><div class = green_square id = ""topsquare"" ></div><img id = ""stim"" ><div class = green_square  id = ""bottomsquare"" ></div>",32,word_square,1,SPACEBAR,,""
html-keyboard-response,304,3534246,null,"KIWI",null,word,,, 'KIWI',""
html-keyboard-response,305,3534754,null,"BUCKET<img id = ""stim"" ><div class = red_square id = ""topsquare"" ></div><img id = ""stim"" ><div class = red_square  id = ""bottomsquare"" ></div>",null,word_square,0,SPACEBAR,,""
html-keyboard-response,306,3536261,null,"BUCKET",null,word,,, 'BUCKET',""
html-keyboard-response,307,3536768,null,"JAPAN<img id = ""stim"" ><div class = red_square id = ""topsquare"" ></div><img id = ""stim"" ><div class = red_square  id = ""bottomsquare"" ></div>",null,word_square,0,SPACEBAR,,""
html-keyboard-response,308,3538275,null,"JAPAN",null,word,,, 'JAPAN',""
html-keyboard-response,309,3538647,370.5399999744259,"COUNTRY<img id = ""stim"" ><div class = green_square id = ""topsquare"" ></div><img id = ""stim"" ><div class = green_square  id = ""bottomsquare"" ></div>",32,word_square,1,SPACEBAR,,""
html-keyboard-response,310,3540154,null,"COUNTRY",null,word,,, 'COUNTRY',""
html-keyboard-response,311,3540662,null,"TURKEY<img id = ""stim"" ><div class = red_square id = ""topsquare"" ></div><img id = ""stim"" ><div class = red_square  id = ""bottomsquare"" ></div>",null,word_square,0,SPACEBAR,,""
html-keyboard-response,312,3542167,null,"TURKEY",null,word,,, 'TURKEY',""
html-keyboard-response,313,3542674,null,"TUTU<img id = ""stim"" ><div class = red_square id = ""topsquare"" ></div><img id = ""stim"" ><div class = red_square  id = ""bottomsquare"" ></div>",null,word_square,0,SPACEBAR,,""
html-keyboard-response,314,3544181,null,"TUTU",null,word,,, 'TUTU',""
html-keyboard-response,315,3544521,337.98499999102205,"DRAWER<img id = ""stim"" ><div class = green_square id = ""topsquare"" ></div><img id = ""stim"" ><div class = green_square  id = ""bottomsquare"" ></div>",32,word_square,1,SPACEBAR,,""
html-keyboard-response,316,3546028,null,"DRAWER",null,word,,, 'DRAWER',""
html-keyboard-response,317,3546397,367.31000000145286,"SPARROW<img id = ""stim"" ><div class = green_square id = ""topsquare"" ></div><img id = ""stim"" ><div class = green_square  id = ""bottomsquare"" ></div>",32,word_square,1,SPACEBAR,,""
html-keyboard-response,318,3547901,null,"SPARROW",null,word,,, 'SPARROW',""
html-keyboard-response,319,3548404,null,"SICKLE<img id = ""stim"" ><div class = red_square id = ""topsquare"" ></div><img id = ""stim"" ><div class = red_square  id = ""bottomsquare"" ></div>",null,word_square,0,SPACEBAR,,""
html-keyboard-response,320,3549911,null,"SICKLE",null,word,,, 'SICKLE',""
survey-text,321,3552083,2167.235000000801,"",,,,,,"{""Q0"":""5""}"
survey-text,322,3553334,1247.434999968391,"",,,,,,"{""Q0"":""4""}"
survey-text,323,3554355,1018.6000000103377,"",,,,,,"{""Q0"":""3""}"
survey-text,324,3556141,1782.3549999739043,"",,,,,,"{""Q0"":""3""}"
survey-text,325,3557102,956.9950000150129,"",,,,,,"{""Q0"":""4""}"
survey-text,326,3558373,1266.490000009071,"",,,,,,"{""Q0"":""3""}"
survey-text,327,3559327,950.4799999995157,"",,,,,,"{""Q0"":""2""}"
survey-text,328,3560223,891.0550000146031,"",,,,,,"{""Q0"":""3""}"
survey-text,329,3562101,1874.2850000271574,"",,,,,,"{""Q0"":""5""}"
survey-text,330,3563235,1130.429999961052,"",,,,,,"{""Q0"":""2""}"
survey-text,331,3564167,927.3350000148639,"",,,,,,"{""Q0"":""4""}"
survey-text,332,3565048,875.9650000138208,"",,,,,,"{""Q0"":""3""}"
survey-text,333,3566153,1100.9999999660067,"",,,,,,"{""Q0"":""3""}"
survey-text,334,3567326,1169.0100000123493,"",,,,,,"{""Q0"":""3""}"
survey-text,335,3569623,2294.034999969881,"",,,,,,"{""Q0"":""4""}"
survey-text,336,3570477,850.3950000158511,"",,,,,,"{""Q0"":""3""}"
survey-text,337,3571195,714.3250000081025,"",,,,,,"{""Q0"":""2""}"
survey-text,338,3572113,914.0499999630265,"",,,,,,"{""Q0"":""3""}"
survey-text,339,3572912,794.2249999614432,"",,,,,,"{""Q0"":""2""}"
survey-text,340,3574193,1276.9400000106543,"",,,,,,"{""Q0"":""5""}"
survey-text,341,3576501,2304.1599999996834,"",,,,,,"{""Q0"":""inmate""}"
survey-text,342,3577928,1423.030000005383,"",,,,,,"{""Q0"":""turkey""}"
survey-text,343,3579998,2065.684999979567,"",,,,,,"{""Q0"":""rebel""}"
survey-text,344,3581247,1244.7249999968335,"",,,,,,"{""Q0"":""sickle""}"
survey-text,345,3582730,1479.700000025332,"",,,,,,"{""Q0"":""japan""}"
survey-text,346,3583825,1090.985000017099,"",,,,,,"{""Q0"":""country""}"
survey-text,347,3591061,7231.880000035744,"",,,,,,"{""Q0"":""food""}"
survey-text,348,3595802,4735.879999992903,"",,,,,,"{""Q0"":""juggler""}"
survey-text,349,3610368,14561.035000020638,"",,,,,,"{""Q0"":""kiwi""}"
survey-text,350,3611306,933.2350000040606,"",,,,,,"{""Q0"":""tutu""}"
survey-text,351,3629308,17998.95999999717,"",,,,,,"{""Q0"":""sparrow""}"
survey-text,352,3659098,29785.13999999268,"",,,,,,"{""Q0"":""that's it""}"
html-keyboard-response,353,3661404,2304.420000000391,"<div style=""font-size:48px;"">Press any key to begin list 5 of 24 </div>",13,,,,,""
html-keyboard-response,354,3663911,null,"<div style=""font-size:60px;"">+</div>",null,,,,,""
html-keyboard-response,355,3664417,null,"JOINT<img id = ""stim"" ><div class = red_square id = ""topsquare"" ></div><img id = ""stim"" ><div class = red_square  id = ""bottomsquare"" ></div>",null,word_square,0,SPACEBAR,,""
html-keyboard-response,356,3665922,null,"JOINT",null,word,,, 'JOINT',""
html-keyboard-response,357,3666424,null,"CREATURE<img id = ""stim"" ><div class = green_square id = ""topsquare"" ></div><img id = ""stim"" ><div class = green_square  id = ""bottomsquare"" ></div>",null,word_square,1,SPACEBAR,,""
html-keyboard-response,358,3667930,null,"CREATURE",null,word,,, 'CREATURE',""
html-keyboard-response,359,3668438,null,"SPINACH<img id = ""stim"" ><div class = red_square id = ""topsquare"" ></div><img id = ""stim"" ><div class = red_square  id = ""bottomsquare"" ></div>",null,word_square,0,SPACEBAR,,""
html-keyboard-response,360,3669940,null,"SPINACH",null,word,,, 'SPINACH',""
html-keyboard-response,361,3670447,null,"COLONEL<img id = ""stim"" ><div class = green_square id = ""topsquare"" ></div><img id = ""stim"" ><div class = green_square  id = ""bottomsquare"" ></div>",null,word_square,1,SPACEBAR,,""
html-keyboard-response,362,3671949,null,"COLONEL",null,word,,, 'COLONEL',""
html-keyboard-response,363,3672396,445.48500003293157,"BEAVER<img id = ""stim"" ><div class = green_square id = ""topsquare"" ></div><img id = ""stim"" ><div class = green_square  id = ""bottomsquare"" ></div>",32,word_square,1,SPACEBAR,,""
html-keyboard-response,364,3673903,null,"BEAVER",null,word,,, 'BEAVER',""
html-keyboard-response,365,3674411,null,"SCALLOP<img id = ""stim"" ><div class = red_square id = ""topsquare"" ></div><img id = ""stim"" ><div class = red_square  id = ""bottomsquare"" ></div>",null,word_square,0,SPACEBAR,,""
html-keyboard-response,366,3675918,null,"SCALLOP",null,word,,, 'SCALLOP',""
html-keyboard-response,367,3676424,null,"CIRCUS<img id = ""stim"" ><div class = green_square id = ""topsquare"" ></div><img id = ""stim"" ><div class = green_square  id = ""bottomsquare"" ></div>",null,word_square,1,SPACEBAR,,""
html-keyboard-response,368,3677929,null,"CIRCUS",null,word,,, 'CIRCUS',""
html-keyboard-response,369,3678432,null,"BOARD<img id = ""stim"" ><div class = red_square id = ""topsquare"" ></div><img id = ""stim"" ><div class = red_square  id = ""bottomsquare"" ></div>",null,word_square,0,SPACEBAR,,""
html-keyboard-response,370,3679938,null,"BOARD",null,word,,, 'BOARD',""
html-keyboard-response,371,3680445,null,"BLACKBOARD<img id = ""stim"" ><div class = red_square id = ""topsquare"" ></div><img id = ""stim"" ><div class = red_square  id = ""bottomsquare"" ></div>",null,word_square,0,SPACEBAR,,""
html-keyboard-response,372,3681952,null,"BLACKBOARD",null,word,,, 'BLACKBOARD',""
html-keyboard-response,373,3682333,378.98999999742955,"COD<img id = ""stim"" ><div class = green_square id = ""topsquare"" ></div><img id = ""stim"" ><div class = green_square  id = ""bottomsquare"" ></div>",32,word_square,1,SPACEBAR,,""
html-keyboard-response,374,3683838,null,"COD",null,word,,, 'COD',""
html-keyboard-response,375,3684217,377.4599999887869,"MARINE<img id = ""stim"" ><div class = green_square id = ""topsquare"" ></div><img id = ""stim"" ><div class = green_square  id = ""bottomsquare"" ></div>",32,word_square,1,SPACEBAR,,""
html-keyboard-response,376,3685724,null,"MARINE",null,word,,, 'MARINE',""
html-keyboard-response,377,3686073,346.95999999530613,"GROUND<img id = ""stim"" ><div class = green_square id = ""topsquare"" ></div><img id = ""stim"" ><div class = green_square  id = ""bottomsquare"" ></div>",32,word_square,1,SPACEBAR,,""
html-keyboard-response,378,3687580,null,"GROUND",null,word,,, 'GROUND',""
html-keyboard-response,379,3688088,null,"STAPLE<img id = ""stim"" ><div class = red_square id = ""topsquare"" ></div><img id = ""stim"" ><div class = red_square  id = ""bottomsquare"" ></div>",null,word_square,0,SPACEBAR,,""
html-keyboard-response,380,3689595,null,"STAPLE",null,word,,, 'STAPLE',""
html-keyboard-response,381,3690097,null,"PICKLE<img id = ""stim"" ><div class = red_square id = ""topsquare"" ></div><img id = ""stim"" ><div class = red_square  id = ""bottomsquare"" ></div>",null,word_square,0,SPACEBAR,,""
html-keyboard-response,382,3691603,null,"PICKLE",null,word,,, 'PICKLE',""
html-keyboard-response,383,3691994,389.069999975618,"STAKE<img id = ""stim"" ><div class = green_square id = ""topsquare"" ></div><img id = ""stim"" ><div class = green_square  id = ""bottomsquare"" ></div>",32,word_square,1,SPACEBAR,,""
html-keyboard-response,384,3693497,null,"STAKE",null,word,,, 'STAKE',""
html-keyboard-response,385,3694005,null,"WOMAN<img id = ""stim"" ><div class = red_square id = ""topsquare"" ></div><img id = ""stim"" ><div class = red_square  id = ""bottomsquare"" ></div>",null,word_square,0,SPACEBAR,,""
html-keyboard-response,386,3695509,null,"WOMAN",null,word,,, 'WOMAN',""
html-keyboard-response,387,3696017,null,"GIRL<img id = ""stim"" ><div class = red_square id = ""topsquare"" ></div><img id = ""stim"" ><div class = red_square  id = ""bottomsquare"" ></div>",null,word_square,0,SPACEBAR,,""
html-keyboard-response,388,3697519,null,"GIRL",null,word,,, 'GIRL',""
html-keyboard-response,389,3697916,395.0250000343658,"OZONE<img id = ""stim"" ><div class = green_square id = ""topsquare"" ></div><img id = ""stim"" ><div class = green_square  id = ""bottomsquare"" ></div>",32,word_square,1,SPACEBAR,,""
html-keyboard-response,390,3699423,null,"OZONE",null,word,,, 'OZONE',""
survey-text,391,3700883,1454.6899999841116,"",,,,,,"{""Q0"":""3""}"
survey-text,392,3702201,1313.529999984894,"",,,,,,"{""Q0"":""4""}"
survey-text,393,3703559,1353.1649999786168,"",,,,,,"{""Q0"":""4""}"
survey-text,394,3704613,1049.544999958016,"",,,,,,"{""Q0"":""3""}"
survey-text,395,3705640,1023.7149999593385,"",,,,,,"{""Q0"":""3""}"
survey-text,396,3706494,850.0350000103936,"",,,,,,"{""Q0"":""4""}"
survey-text,397,3707633,1133.704999985639,"",,,,,,"{""Q0"":""5""}"
survey-text,398,3708632,995.5999999656342,"",,,,,,"{""Q0"":""3""}"
survey-text,399,3709686,1050.6049999967217,"",,,,,,"{""Q0"":""6""}"
survey-text,400,3710841,1150.9749999968335,"",,,,,,"{""Q0"":""3""}"
survey-text,401,3712085,1239.8249999969266,"",,,,,,"{""Q0"":""4""}"
survey-text,402,3713221,1132.1549999993294,"",,,,,,"{""Q0"":""3""}"
survey-text,403,3714613,1388.1050000200048,"",,,,,,"{""Q0"":""3""}"
survey-text,404,3715679,1062.3049999703653,"",,,,,,"{""Q0"":""3""}"
survey-text,405,3716822,1138.9000000199303,"",,,,,,"{""Q0"":""4""}"
survey-text,406,3717887,1060.5600000126287,"",,,,,,"{""Q0"":""5""}"
survey-text,407,3718916,1024.5649999706075,"",,,,,,"{""Q0"":""4""}"
survey-text,408,3720380,1459.7500000381842,"",,,,,,"{""Q0"":""4""}"
survey-text,409,3721399,1015.4900000197813,"",,,,,,"{""Q0"":""3""}"
survey-text,410,3722288,884.1699999757111,"",,,,,,"{""Q0"":""3""}"
survey-text,411,3723356,1063.910000026226,"",,,,,,"{""Q0"":""6""}"
survey-text,412,3724319,958.8000000221655,"",,,,,,"{""Q0"":""4""}"
survey-text,413,3726492,2168.6549999867566,"",,,,,,"{""Q0"":""joint""}"
survey-text,414,3727209,712.729999970179,"",,,,,,"{""Q0"":""cod""}"
survey-text,415,3728076,862.5100000062957,"",,,,,,"{""Q0"":""stake""}"
survey-text,416,3729974,1893.309999955818,"",,,,,,"{""Q0"":""scallop""}"
survey-text,417,3730699,720.499999995809,"",,,,,,"{""Q0"":""marine""}"
survey-text,418,3732538,1834.6850000089034,"",,,,,,"{""Q0"":""colonel""}"
survey-text,419,3734223,1680.034999968484,"",,,,,,"{""Q0"":""woman""}"
survey-text,420,3734987,759.2350000049919,"",,,,,,"{""Q0"":""girl""}"
survey-text,421,3739168,4176.514999999199,"",,,,,,"{""Q0"":""spinach""}"
survey-text,422,3740620,1448.355000000447,"",,,,,,"{""Q0"":""mushroom""}"
survey-text,423,3756826,16200.214999960735,"",,,,,,"{""Q0"":""bench""}"
survey-text,424,3768598,11767.16500002658,"",,,,,,"{""Q0"":""seafood""}"
survey-text,425,3796810,28208.21499999147,"",,,,,,"{""Q0"":"" ""}"
survey-text,426,3797784,969.0849999897182,"",,,,,,"{""Q0"":""a""}"
survey-text,427,3820205,22416.789999988396,"",,,,,,"{""Q0"":""a""}"
html-keyboard-response,428,3821364,1156.714999990072,"<div style=""font-size:48px;"">Press any key to begin list 6 of 24 </div>",13,,,,,""
html-keyboard-response,429,3823870,null,"<div style=""font-size:60px;"">+</div>",null,,,,,""
html-keyboard-response,430,3824373,null,"APRON<img id = ""stim"" ><div class = red_square id = ""topsquare"" ></div><img id = ""stim"" ><div class = red_square  id = ""bottomsquare"" ></div>",null,word_square,0,SPACEBAR,,""
html-keyboard-response,431,3825879,null,"APRON",null,word,,, 'APRON',""
html-keyboard-response,432,3826385,null,"PASTRY<img id = ""stim"" ><div class = green_square id = ""topsquare"" ></div><img id = ""stim"" ><div class = green_square  id = ""bottomsquare"" ></div>",null,word_square,1,SPACEBAR,,""
html-keyboard-response,433,3827888,null,"PASTRY",null,word,,, 'PASTRY',""
html-keyboard-response,434,3828391,null,"GRAVE<img id = ""stim"" ><div class = red_square id = ""topsquare"" ></div><img id = ""stim"" ><div class = red_square  id = ""bottomsquare"" ></div>",null,word_square,0,SPACEBAR,,""
html-keyboard-response,435,3829897,null,"GRAVE",null,word,,, 'GRAVE',""
html-keyboard-response,436,3830402,null,"CHAMPAGNE<img id = ""stim"" ><div class = green_square id = ""topsquare"" ></div><img id = ""stim"" ><div class = green_square  id = ""bottomsquare"" ></div>",null,word_square,1,SPACEBAR,,""
html-keyboard-response,437,3831904,null,"CHAMPAGNE",null,word,,, 'CHAMPAGNE',""
html-keyboard-response,438,3832411,null,"COFFIN<img id = ""stim"" ><div class = green_square id = ""topsquare"" ></div><img id = ""stim"" ><div class = green_square  id = ""bottomsquare"" ></div>",null,word_square,1,SPACEBAR,,""
html-keyboard-response,439,3833914,null,"COFFIN",null,word,,, 'COFFIN',""
html-keyboard-response,440,3834417,null,"FIDDLE<img id = ""stim"" ><div class = red_square id = ""topsquare"" ></div><img id = ""stim"" ><div class = red_square  id = ""bottomsquare"" ></div>",null,word_square,0,SPACEBAR,,""
html-keyboard-response,441,3835920,null,"FIDDLE",null,word,,, 'FIDDLE',""
html-keyboard-response,442,3836423,null,"RECORD<img id = ""stim"" ><div class = green_square id = ""topsquare"" ></div><img id = ""stim"" ><div class = green_square  id = ""bottomsquare"" ></div>",null,word_square,1,SPACEBAR,,""
html-keyboard-response,443,3837929,null,"RECORD",null,word,,, 'RECORD',""
html-keyboard-response,444,3838436,null,"PLUM<img id = ""stim"" ><div class = red_square id = ""topsquare"" ></div><img id = ""stim"" ><div class = red_square  id = ""bottomsquare"" ></div>",null,word_square,0,SPACEBAR,,""
html-keyboard-response,445,3839938,null,"PLUM",null,word,,, 'PLUM',""
html-keyboard-response,446,3840445,null,"BRANCH<img id = ""stim"" ><div class = red_square id = ""topsquare"" ></div><img id = ""stim"" ><div class = red_square  id = ""bottomsquare"" ></div>",null,word_square,0,SPACEBAR,,""
html-keyboard-response,447,3841947,null,"BRANCH",null,word,,, 'BRANCH',""
html-keyboard-response,448,3842334,385.11999999172986,"DINER<img id = ""stim"" ><div class = green_square id = ""topsquare"" ></div><img id = ""stim"" ><div class = green_square  id = ""bottomsquare"" ></div>",32,word_square,1,SPACEBAR,,""
html-keyboard-response,449,3843837,null,"DINER",null,word,,, 'DINER',""
html-keyboard-response,450,3844218,378.484999993816,"TOOTHPASTE<img id = ""stim"" ><div class = green_square id = ""topsquare"" ></div><img id = ""stim"" ><div class = green_square  id = ""bottomsquare"" ></div>",32,word_square,1,SPACEBAR,,""
html-keyboard-response,451,3845720,null,"TOOTHPASTE",null,word,,, 'TOOTHPASTE',""
html-keyboard-response,452,3846057,335.27999999932945,"CASKET<img id = ""stim"" ><div class = green_square id = ""topsquare"" ></div><img id = ""stim"" ><div class = green_square  id = ""bottomsquare"" ></div>",32,word_square,1,SPACEBAR,,""
html-keyboard-response,453,3847564,null,"CASKET",null,word,,, 'CASKET',""
html-keyboard-response,454,3848067,null,"VAGRANT<img id = ""stim"" ><div class = red_square id = ""topsquare"" ></div><img id = ""stim"" ><div class = red_square  id = ""bottomsquare"" ></div>",null,word_square,0,SPACEBAR,,""
html-keyboard-response,455,3849573,null,"VAGRANT",null,word,,, 'VAGRANT',""
html-keyboard-response,456,3850078,null,"GRAPE<img id = ""stim"" ><div class = red_square id = ""topsquare"" ></div><img id = ""stim"" ><div class = red_square  id = ""bottomsquare"" ></div>",null,word_square,0,SPACEBAR,,""
html-keyboard-response,457,3851584,null,"GRAPE",null,word,,, 'GRAPE',""
html-keyboard-response,458,3851949,363.30500000622123,"PEACH<img id = ""stim"" ><div class = green_square id = ""topsquare"" ></div><img id = ""stim"" ><div class = green_square  id = ""bottomsquare"" ></div>",32,word_square,1,SPACEBAR,,""
html-keyboard-response,459,3853456,null,"PEACH",null,word,,, 'PEACH',""
html-keyboard-response,460,3853963,null,"CRICKET<img id = ""stim"" ><div class = red_square id = ""topsquare"" ></div><img id = ""stim"" ><div class = red_square  id = ""bottomsquare"" ></div>",null,word_square,0,SPACEBAR,,""
html-keyboard-response,461,3855466,null,"CRICKET",null,word,,, 'CRICKET',""
html-keyboard-response,462,3855974,null,"BUG<img id = ""stim"" ><div class = red_square id = ""topsquare"" ></div><img id = ""stim"" ><div class = red_square  id = ""bottomsquare"" ></div>",null,word_square,0,SPACEBAR,,""
html-keyboard-response,463,3857476,null,"BUG",null,word,,, 'BUG',""
html-keyboard-response,464,3857919,441.0700000007637,"FRANCE<img id = ""stim"" ><div class = green_square id = ""topsquare"" ></div><img id = ""stim"" ><div class = green_square  id = ""bottomsquare"" ></div>",32,word_square,1,SPACEBAR,,""
html-keyboard-response,465,3859423,null,"FRANCE",null,word,,, 'FRANCE',""
survey-text,466,3860881,1453.110000002198,"",,,,,,"{""Q0"":""3""}"
survey-text,467,3862601,1715.3999999864027,"",,,,,,"{""Q0"":""5""}"
survey-text,468,3864806,2200.7849999936298,"",,,,,,"{""Q0"":""4""}"
survey-text,469,3866002,1192.2600000398234,"",,,,,,"{""Q0"":""3""}"
survey-text,470,3867045,1037.899999995716,"",,,,,,"{""Q0"":""3""}"
survey-text,471,3870256,3207.924999995157,"",,,,,,"{""Q0"":""5""}"
survey-text,472,3871684,1423.6500000115484,"",,,,,,"{""Q0"":""3""}"
survey-text,473,3872652,962.6200000056997,"",,,,,,"{""Q0"":""4""}"
survey-text,474,3874309,1654.1250000009313,"",,,,,,"{""Q0"":""4""}"
survey-text,475,3875621,1308.145000017248,"",,,,,,"{""Q0"":""3""}"
survey-text,476,3876980,1353.5649999976158,"",,,,,,"{""Q0"":""2""}"
survey-text,477,3879052,2067.525000020396,"",,,,,,"{""Q0"":""2""}"
survey-text,478,3880531,1474.8649999964982,"",,,,,,"{""Q0"":""5""}"
survey-text,479,3881546,1010.7600000337698,"",,,,,,"{""Q0"":""2""}"
survey-text,480,3882436,886.594999989029,"",,,,,,"{""Q0"":""2""}"
survey-text,481,3883302,861.2399999983609,"",,,,,,"{""Q0"":""3""}"
survey-text,482,3884241,934.5200000097975,"",,,,,,"{""Q0"":""4""}"
survey-text,483,3885845,1599.495000031311,"",,,,,,"{""Q0"":""apron""}"
survey-text,484,3886912,1063.1100000464357,"",,,,,,"{""Q0"":""coffin""}"
survey-text,485,3887959,1042.4749999656342,"",,,,,,"{""Q0"":""plum""}"
survey-text,486,3889692,1728.6650000023656,"",,,,,,"{""Q0"":""cricket""}"
survey-text,487,3890277,580.054999969434,"",,,,,,"{""Q0"":""bug""}"
survey-text,488,3892908,2626.464999979362,"",,,,,,"{""Q0"":""branch""}"
survey-text,489,3894181,1268.8550000311807,"",,,,,,"{""Q0"":""france""}"
survey-text,490,3943068,48881.47999998182,"",,,,,,"{""Q0"":""wine""}"
survey-text,491,3973022,29947.23500002874,"",,,,,,"{""Q0"":""pocket""}"
html-keyboard-response,492,3974029,1005.7849999866448,"<div style=""font-size:48px;"">Press any key to begin list 7 of 24 </div>",13,,,,,""
html-keyboard-response,493,3976537,null,"<div style=""font-size:60px;"">+</div>",null,,,,,""
html-keyboard-response,494,3977045,null,"SPACE<img id = ""stim"" ><div class = green_square id = ""topsquare"" ></div><img id = ""stim"" ><div class = green_square  id = ""bottomsquare"" ></div>",null,word_square,1,SPACEBAR,,""
html-keyboard-response,495,3978547,null,"SPACE",null,word,,, 'SPACE',""
html-keyboard-response,496,3979055,null,"TREAT<img id = ""stim"" ><div class = red_square id = ""topsquare"" ></div><img id = ""stim"" ><div class = red_square  id = ""bottomsquare"" ></div>",null,word_square,0,SPACEBAR,,""
html-keyboard-response,497,3980558,null,"TREAT",null,word,,, 'TREAT',""
html-keyboard-response,498,3981033,473.5000000218861,"CANDY<img id = ""stim"" ><div class = green_square id = ""topsquare"" ></div><img id = ""stim"" ><div class = green_square  id = ""bottomsquare"" ></div>",32,word_square,1,SPACEBAR,,""
html-keyboard-response,499,3982540,null,"CANDY",null,word,,, 'CANDY',""
html-keyboard-response,500,3983048,null,"CONCERT<img id = ""stim"" ><div class = red_square id = ""topsquare"" ></div><img id = ""stim"" ><div class = red_square  id = ""bottomsquare"" ></div>",null,word_square,0,SPACEBAR,,""
html-keyboard-response,501,3984555,null,"CONCERT",null,word,,, 'CONCERT',""
html-keyboard-response,502,3985061,null,"WRIST<img id = ""stim"" ><div class = red_square id = ""topsquare"" ></div><img id = ""stim"" ><div class = red_square  id = ""bottomsquare"" ></div>",null,word_square,0,SPACEBAR,,""
html-keyboard-response,503,3986567,null,"WRIST",null,word,,, 'WRIST',""
html-keyboard-response,504,3987038,468.8750000204891,"STONE<img id = ""stim"" ><div class = green_square id = ""topsquare"" ></div><img id = ""stim"" ><div class = green_square  id = ""bottomsquare"" ></div>",32,word_square,1,SPACEBAR,,""
html-keyboard-response,505,3988544,null,"STONE",null,word,,, 'STONE',""
html-keyboard-response,506,3989049,null,"LAVA<img id = ""stim"" ><div class = red_square id = ""topsquare"" ></div><img id = ""stim"" ><div class = red_square  id = ""bottomsquare"" ></div>",null,word_square,0,SPACEBAR,,""
html-keyboard-response,507,3990552,null,"LAVA",null,word,,, 'LAVA',""
html-keyboard-response,508,3990895,341.5750000276603,"ELBOW<img id = ""stim"" ><div class = green_square id = ""topsquare"" ></div><img id = ""stim"" ><div class = green_square  id = ""bottomsquare"" ></div>",32,word_square,1,SPACEBAR,,""
html-keyboard-response,509,3992401,null,"ELBOW",null,word,,, 'ELBOW',""
html-keyboard-response,510,3992908,null,"QUAIL<img id = ""stim"" ><div class = green_square id = ""topsquare"" ></div><img id = ""stim"" ><div class = green_square  id = ""bottomsquare"" ></div>",null,word_square,1,SPACEBAR,,""
html-keyboard-response,511,3994416,null,"QUAIL",null,word,,, 'QUAIL',""
html-keyboard-response,512,3994923,null,"PISTON<img id = ""stim"" ><div class = red_square id = ""topsquare"" ></div><img id = ""stim"" ><div class = red_square  id = ""bottomsquare"" ></div>",null,word_square,0,SPACEBAR,,""
html-keyboard-response,513,3996430,null,"PISTON",null,word,,, 'PISTON',""
html-keyboard-response,514,3996937,null,"PARTY<img id = ""stim"" ><div class = red_square id = ""topsquare"" ></div><img id = ""stim"" ><div class = red_square  id = ""bottomsquare"" ></div>",null,word_square,0,SPACEBAR,,""
html-keyboard-response,515,3998441,null,"PARTY",null,word,,, 'PARTY',""
html-keyboard-response,516,3998741,297.76500002481043,"DIAMOND<img id = ""stim"" ><div class = red_square id = ""topsquare"" ></div><img id = ""stim"" ><div class = red_square  id = ""bottomsquare"" ></div>",32,word_square,0,SPACEBAR,,""
html-keyboard-response,517,4000247,null,"DIAMOND",null,word,,, 'DIAMOND',""
html-keyboard-response,518,4000595,346.66000003926456,"VENUS<img id = ""stim"" ><div class = green_square id = ""topsquare"" ></div><img id = ""stim"" ><div class = green_square  id = ""bottomsquare"" ></div>",32,word_square,1,SPACEBAR,,""
html-keyboard-response,519,4002102,null,"VENUS",null,word,,, 'VENUS',""
html-keyboard-response,520,4002443,338.9200000092387,"BENCH<img id = ""stim"" ><div class = green_square id = ""topsquare"" ></div><img id = ""stim"" ><div class = green_square  id = ""bottomsquare"" ></div>",32,word_square,1,SPACEBAR,,""
html-keyboard-response,521,4003950,null,"BENCH",null,word,,, 'BENCH',""
html-keyboard-response,522,4004458,null,"SKETCH<img id = ""stim"" ><div class = red_square id = ""topsquare"" ></div><img id = ""stim"" ><div class = red_square  id = ""bottomsquare"" ></div>",null,word_square,0,SPACEBAR,,""
html-keyboard-response,523,4005965,null,"SKETCH",null,word,,, 'SKETCH',""
html-keyboard-response,524,4006379,410.90499999700114,"SCULPTURE<img id = ""stim"" ><div class = green_square id = ""topsquare"" ></div><img id = ""stim"" ><div class = green_square  id = ""bottomsquare"" ></div>",32,word_square,1,SPACEBAR,,""
html-keyboard-response,525,4007885,null,"SCULPTURE",null,word,,, 'SCULPTURE',""
html-keyboard-response,526,4008297,410.67500005010515,"HOOD<img id = ""stim"" ><div class = green_square id = ""topsquare"" ></div><img id = ""stim"" ><div class = green_square  id = ""bottomsquare"" ></div>",32,word_square,1,SPACEBAR,,""
html-keyboard-response,527,4009804,null,"HOOD",null,word,,, 'HOOD',""
html-keyboard-response,528,4010307,null,"SERPENT<img id = ""stim"" ><div class = red_square id = ""topsquare"" ></div><img id = ""stim"" ><div class = red_square  id = ""bottomsquare"" ></div>",null,word_square,0,SPACEBAR,,""
html-keyboard-response,529,4011812,null,"SERPENT",null,word,,, 'SERPENT',""
survey-text,530,4013116,1298.6999999848194,"",,,,,,"{""Q0"":""4""}"
survey-text,531,4014257,1136.3300000084564,"",,,,,,"{""Q0"":""5""}"
survey-text,532,4015269,1008.5850000032224,"",,,,,,"{""Q0"":""2""}"
survey-text,533,4016201,926.8499999889173,"",,,,,,"{""Q0"":""3""}"
survey-text,534,4017090,884.7550000064075,"",,,,,,"{""Q0"":""2""}"
survey-text,535,4018232,1137.4800000339746,"",,,,,,"{""Q0"":""3""}"
survey-text,536,4019656,1420.0749999727122,"",,,,,,"{""Q0"":""4""}"
survey-text,537,4021142,1482.190000009723,"",,,,,,"{""Q0"":""3""}"
survey-text,538,4022056,909.4349999795668,"",,,,,,"{""Q0"":""2""}"
survey-text,539,4023132,1071.4300000108778,"",,,,,,"{""Q0"":""3""}"
survey-text,540,4024547,1411.629999987781,"",,,,,,"{""Q0"":""4""}"
survey-text,541,4026044,1492.6599999889731,"",,,,,,"{""Q0"":""3""}"
survey-text,542,4027017,968.1149999960326,"",,,,,,"{""Q0"":""3""}"
survey-text,543,4027806,784.6900000004098,"",,,,,,"{""Q0"":""2""}"
survey-text,544,4029247,1436.5300000063144,"",,,,,,"{""Q0"":""5""}"
survey-text,545,4030191,939.0750000020489,"",,,,,,"{""Q0"":""4""}"
survey-text,546,4030934,738.7849999940954,"",,,,,,"{""Q0"":""4""}"
survey-text,547,4031834,895.4950000043027,"",,,,,,"{""Q0"":""4""}"
survey-text,548,4032753,914.0299999853596,"",,,,,,"{""Q0"":""3""}"
survey-text,549,4035176,2418.9900000346825,"",,,,,,"{""Q0"":""1""}"
survey-text,550,4036231,1050.4949999740347,"",,,,,,"{""Q0"":""6""}"
survey-text,551,4038135,1900.3699999884702,"",,,,,,"{""Q0"":""space""}"
survey-text,552,4040666,2526.1699999682605,"",,,,,,"{""Q0"":""wrist""}"
survey-text,553,4042028,1358.089999994263,"",,,,,,"{""Q0"":""concert""}"
survey-text,554,4043105,1071.5750000090338,"",,,,,,"{""Q0"":""elbow""}"
survey-text,555,4046020,2910.070000041742,"",,,,,,"{""Q0"":""venus""}"
survey-text,556,4047444,1420.3749999869615,"",,,,,,"{""Q0"":""serpent""}"
survey-text,557,4048392,943.1949999998324,"",,,,,,"{""Q0"":""space""}"
survey-text,558,4105594,57198.19500000449,"",,,,,,"{""Q0"":""hood""}"
survey-text,559,4115020,9421.429999987595,"",,,,,,"{""Q0"":""treat""}"
html-keyboard-response,560,4115235,212.73999998811632,"<div style=""font-size:48px;"">Press any key to begin list 8 of 24 </div>",67,,,,,""
html-keyboard-response,561,4117743,null,"<div style=""font-size:60px;"">+</div>",null,,,,,""
html-keyboard-response,562,4118246,null,"STICKER<img id = ""stim"" ><div class = green_square id = ""topsquare"" ></div><img id = ""stim"" ><div class = green_square  id = ""bottomsquare"" ></div>",null,word_square,1,SPACEBAR,,""
html-keyboard-response,563,4119752,null,"STICKER",null,word,,, 'STICKER',""
html-keyboard-response,564,4120257,null,"SHELF<img id = ""stim"" ><div class = red_square id = ""topsquare"" ></div><img id = ""stim"" ><div class = red_square  id = ""bottomsquare"" ></div>",null,word_square,0,SPACEBAR,,""
html-keyboard-response,565,4121762,null,"SHELF",null,word,,, 'SHELF',""
html-keyboard-response,566,4122266,501.5100000309758,"COUCH<img id = ""stim"" ><div class = green_square id = ""topsquare"" ></div><img id = ""stim"" ><div class = green_square  id = ""bottomsquare"" ></div>",32,word_square,1,SPACEBAR,,""
html-keyboard-response,567,4123772,null,"COUCH",null,word,,, 'COUCH',""
html-keyboard-response,568,4124277,null,"PICTURE<img id = ""stim"" ><div class = red_square id = ""topsquare"" ></div><img id = ""stim"" ><div class = red_square  id = ""bottomsquare"" ></div>",null,word_square,0,SPACEBAR,,""
html-keyboard-response,569,4125781,null,"PICTURE",null,word,,, 'PICTURE',""
html-keyboard-response,570,4126288,null,"TERMITE<img id = ""stim"" ><div class = red_square id = ""topsquare"" ></div><img id = ""stim"" ><div class = red_square  id = ""bottomsquare"" ></div>",null,word_square,0,SPACEBAR,,""
html-keyboard-response,571,4127790,null,"TERMITE",null,word,,, 'TERMITE',""
html-keyboard-response,572,4128297,null,"SPIDER<img id = ""stim"" ><div class = green_square id = ""topsquare"" ></div><img id = ""stim"" ><div class = green_square  id = ""bottomsquare"" ></div>",null,word_square,1,SPACEBAR,,""
html-keyboard-response,573,4129799,null,"SPIDER",null,word,,, 'SPIDER',""
html-keyboard-response,574,4130307,null,"COLUMN<img id = ""stim"" ><div class = red_square id = ""topsquare"" ></div><img id = ""stim"" ><div class = red_square  id = ""bottomsquare"" ></div>",null,word_square,0,SPACEBAR,,""
html-keyboard-response,575,4131810,null,"COLUMN",null,word,,, 'COLUMN',""
html-keyboard-response,576,4132317,null,"LOFT<img id = ""stim"" ><div class = green_square id = ""topsquare"" ></div><img id = ""stim"" ><div class = green_square  id = ""bottomsquare"" ></div>",null,word_square,1,SPACEBAR,,""
html-keyboard-response,577,4133820,null,"LOFT",null,word,,, 'LOFT',""
html-keyboard-response,578,4134327,null,"CHIPMUNK<img id = ""stim"" ><div class = green_square id = ""topsquare"" ></div><img id = ""stim"" ><div class = green_square  id = ""bottomsquare"" ></div>",null,word_square,1,SPACEBAR,,""
html-keyboard-response,579,4135830,null,"CHIPMUNK",null,word,,, 'CHIPMUNK',""
html-keyboard-response,580,4136333,null,"BUREAU<img id = ""stim"" ><div class = red_square id = ""topsquare"" ></div><img id = ""stim"" ><div class = red_square  id = ""bottomsquare"" ></div>",null,word_square,0,SPACEBAR,,""
html-keyboard-response,581,4137836,null,"BUREAU",null,word,,, 'BUREAU',""
html-keyboard-response,582,4138343,null,"OUTFIT<img id = ""stim"" ><div class = red_square id = ""topsquare"" ></div><img id = ""stim"" ><div class = red_square  id = ""bottomsquare"" ></div>",null,word_square,0,SPACEBAR,,""
html-keyboard-response,583,4139845,null,"OUTFIT",null,word,,, 'OUTFIT',""
html-keyboard-response,584,4140351,null,"BEAST<img id = ""stim"" ><div class = red_square id = ""topsquare"" ></div><img id = ""stim"" ><div class = red_square  id = ""bottomsquare"" ></div>",null,word_square,0,SPACEBAR,,""
html-keyboard-response,585,4141853,null,"BEAST",null,word,,, 'BEAST',""
html-keyboard-response,586,4142199,343.83500000694767,"LEMON<img id = ""stim"" ><div class = green_square id = ""topsquare"" ></div><img id = ""stim"" ><div class = green_square  id = ""bottomsquare"" ></div>",32,word_square,1,SPACEBAR,,""
html-keyboard-response,587,4143705,null,"LEMON",null,word,,, 'LEMON',""
html-keyboard-response,588,4144079,372.47999996179715,"LEAF<img id = ""stim"" ><div class = green_square id = ""topsquare"" ></div><img id = ""stim"" ><div class = green_square  id = ""bottomsquare"" ></div>",32,word_square,1,SPACEBAR,,""
html-keyboard-response,589,4145586,null,"LEAF",null,word,,, 'LEAF',""
html-keyboard-response,590,4146092,null,"BRIDE<img id = ""stim"" ><div class = red_square id = ""topsquare"" ></div><img id = ""stim"" ><div class = red_square  id = ""bottomsquare"" ></div>",null,word_square,0,SPACEBAR,,""
html-keyboard-response,591,4147597,null,"BRIDE",null,word,,, 'BRIDE',""
html-keyboard-response,592,4147920,321.4650000445545,"CABBAGE<img id = ""stim"" ><div class = green_square id = ""topsquare"" ></div><img id = ""stim"" ><div class = green_square  id = ""bottomsquare"" ></div>",32,word_square,1,SPACEBAR,,""
html-keyboard-response,593,4149428,null,"CABBAGE",null,word,,, 'CABBAGE',""
html-keyboard-response,594,4149768,338.57500000158325,"SHOVEL<img id = ""stim"" ><div class = green_square id = ""topsquare"" ></div><img id = ""stim"" ><div class = green_square  id = ""bottomsquare"" ></div>",32,word_square,1,SPACEBAR,,""
html-keyboard-response,595,4151271,null,"SHOVEL",null,word,,, 'SHOVEL',""
html-keyboard-response,596,4151677,404.4249999569729,"AGENT<img id = ""stim"" ><div class = red_square id = ""topsquare"" ></div><img id = ""stim"" ><div class = red_square  id = ""bottomsquare"" ></div>",32,word_square,0,SPACEBAR,,""
html-keyboard-response,597,4153183,null,"AGENT",null,word,,, 'AGENT',""
survey-text,598,4154880,1692.1600000350736,"",,,,,,"{""Q0"":""5""}"
survey-text,599,4155945,1060.0700000068173,"",,,,,,"{""Q0"":""4""}"
survey-text,600,4157240,1291.0699999774806,"",,,,,,"{""Q0"":""4""}"
survey-text,601,4158345,1101.334999955725,"",,,,,,"{""Q0"":""4""}"
survey-text,602,4159440,1090.5250000068918,"",,,,,,"{""Q0"":""6""}"
survey-text,603,4161139,1695.0949999736622,"",,,,,,"{""Q0"":""2""}"
survey-text,604,4162162,1018.7949999817647,"",,,,,,"{""Q0"":""6""}"
survey-text,605,4163257,1090.2900000219233,"",,,,,,"{""Q0"":""3""}"
survey-text,606,4165123,1861.380000016652,"",,,,,,"{""Q0"":""1""}"
survey-text,607,4166594,1466.8499999679625,"",,,,,,"{""Q0"":""4""}"
survey-text,608,4167793,1194.8199999751523,"",,,,,,"{""Q0"":""4""}"
survey-text,609,4168982,1184.0350000420585,"",,,,,,"{""Q0"":""3""}"
survey-text,610,4169940,954.5300000463612,"",,,,,,"{""Q0"":""3""}"
survey-text,611,4171476,1531.4149999758229,"",,,,,,"{""Q0"":""1""}"
survey-text,612,4172961,1479.875000019092,"",,,,,,"{""Q0"":""4""}"
survey-text,613,4174852,1886.8300000322051,"",,,,,,"{""Q0"":""4""}"
survey-text,614,4176056,1199.9250000226311,"",,,,,,"{""Q0"":""3""}"
survey-text,615,4177132,1071.6649999958463,"",,,,,,"{""Q0"":""3""}"
survey-text,616,4178276,1139.2549999873154,"",,,,,,"{""Q0"":""3""}"
survey-text,617,4179681,1400.4999999888241,"",,,,,,"{""Q0"":""shelf""}"
survey-text,618,4180837,1151.5350000117905,"",,,,,,"{""Q0"":""couch""}"
survey-text,619,4183056,2214.6999999531545,"",,,,,,"{""Q0"":""carpet""}"
survey-text,620,4186143,3083.135000022594,"",,,,,,"{""Q0"":""picture""}"
survey-text,621,4187235,1087.2299999464303,"",,,,,,"{""Q0"":""termite""}"
survey-text,622,4188096,856.4800000167452,"",,,,,,"{""Q0"":""spider""}"
survey-text,623,4189584,1483.3850000286475,"",,,,,,"{""Q0"":""beast""}"
survey-text,624,4190863,1273.4000000054948,"",,,,,,"{""Q0"":""outfit""}"
survey-text,625,4197848,6980.645000003278,"",,,,,,"{""Q0"":""leaf""}"
survey-text,626,4199347,1494.654999987688,"",,,,,,"{""Q0"":""cabbage""}"
survey-text,627,4252803,53451.76000002539,"",,,,,,"{""Q0"":""garden""}"
survey-text,628,4257015,4206.929999985732,"",,,,,,"{""Q0"":""turmoil""}"
html-keyboard-response,629,4257876,858.9849999989383,"<div style=""font-size:48px;"">Press any key to begin list 9 of 24 </div>",13,,,,,""
html-keyboard-response,630,4260387,null,"<div style=""font-size:60px;"">+</div>",null,,,,,""
html-keyboard-response,631,4260895,null,"WINGS<img id = ""stim"" ><div class = green_square id = ""topsquare"" ></div><img id = ""stim"" ><div class = green_square  id = ""bottomsquare"" ></div>",null,word_square,1,SPACEBAR,,""
html-keyboard-response,632,4262397,null,"WINGS",null,word,,, 'WINGS',""
html-keyboard-response,633,4262904,null,"HANDCUFFS<img id = ""stim"" ><div class = red_square id = ""topsquare"" ></div><img id = ""stim"" ><div class = red_square  id = ""bottomsquare"" ></div>",null,word_square,0,SPACEBAR,,""
html-keyboard-response,634,4264406,null,"HANDCUFFS",null,word,,, 'HANDCUFFS',""
html-keyboard-response,635,4264913,null,"ROBIN<img id = ""stim"" ><div class = red_square id = ""topsquare"" ></div><img id = ""stim"" ><div class = red_square  id = ""bottomsquare"" ></div>",null,word_square,0,SPACEBAR,,""
html-keyboard-response,636,4266416,null,"ROBIN",null,word,,, 'ROBIN',""
html-keyboard-response,637,4266905,487.5300000421703,"CONVENT<img id = ""stim"" ><div class = green_square id = ""topsquare"" ></div><img id = ""stim"" ><div class = green_square  id = ""bottomsquare"" ></div>",32,word_square,1,SPACEBAR,,""
html-keyboard-response,638,4268412,null,"CONVENT",null,word,,, 'CONVENT',""
html-keyboard-response,639,4268917,null,"APPLE<img id = ""stim"" ><div class = red_square id = ""topsquare"" ></div><img id = ""stim"" ><div class = red_square  id = ""bottomsquare"" ></div>",null,word_square,0,SPACEBAR,,""
html-keyboard-response,640,4270424,null,"APPLE",null,word,,, 'APPLE',""
html-keyboard-response,641,4270932,null,"BEEF<img id = ""stim"" ><div class = red_square id = ""topsquare"" ></div><img id = ""stim"" ><div class = red_square  id = ""bottomsquare"" ></div>",null,word_square,0,SPACEBAR,,""
html-keyboard-response,642,4272434,null,"BEEF",null,word,,, 'BEEF',""
html-keyboard-response,643,4272808,372.8899999987334,"FLEET<img id = ""stim"" ><div class = green_square id = ""topsquare"" ></div><img id = ""stim"" ><div class = green_square  id = ""bottomsquare"" ></div>",32,word_square,1,SPACEBAR,,""
html-keyboard-response,644,4274316,null,"FLEET",null,word,,, 'FLEET',""
html-keyboard-response,645,4274823,null,"FIREPLACE<img id = ""stim"" ><div class = red_square id = ""topsquare"" ></div><img id = ""stim"" ><div class = red_square  id = ""bottomsquare"" ></div>",null,word_square,0,SPACEBAR,,""
html-keyboard-response,646,4276330,null,"FIREPLACE",null,word,,, 'FIREPLACE',""
html-keyboard-response,647,4276837,null,"PIZZA<img id = ""stim"" ><div class = red_square id = ""topsquare"" ></div><img id = ""stim"" ><div class = red_square  id = ""bottomsquare"" ></div>",null,word_square,0,SPACEBAR,,""
html-keyboard-response,648,4278345,null,"PIZZA",null,word,,, 'PIZZA',""
html-keyboard-response,649,4278826,479.85000000335276,"BANQUET<img id = ""stim"" ><div class = green_square id = ""topsquare"" ></div><img id = ""stim"" ><div class = green_square  id = ""bottomsquare"" ></div>",32,word_square,1,SPACEBAR,,""
html-keyboard-response,650,4280333,null,"BANQUET",null,word,,, 'BANQUET',""
html-keyboard-response,651,4280841,null,"POISON<img id = ""stim"" ><div class = red_square id = ""topsquare"" ></div><img id = ""stim"" ><div class = red_square  id = ""bottomsquare"" ></div>",null,word_square,0,SPACEBAR,,""
html-keyboard-response,652,4282348,null,"POISON",null,word,,, 'POISON',""
html-keyboard-response,653,4282725,374.6299999766052,"ATLAS<img id = ""stim"" ><div class = green_square id = ""topsquare"" ></div><img id = ""stim"" ><div class = green_square  id = ""bottomsquare"" ></div>",32,word_square,1,SPACEBAR,,""
html-keyboard-response,654,4284232,null,"ATLAS",null,word,,, 'ATLAS',""
html-keyboard-response,655,4284736,null,"WORLD<img id = ""stim"" ><div class = red_square id = ""topsquare"" ></div><img id = ""stim"" ><div class = red_square  id = ""bottomsquare"" ></div>",null,word_square,0,SPACEBAR,,""
html-keyboard-response,656,4286243,null,"WORLD",null,word,,, 'WORLD',""
html-keyboard-response,657,4286543,297.5499999593012,"FRIES<img id = ""stim"" ><div class = green_square id = ""topsquare"" ></div><img id = ""stim"" ><div class = green_square  id = ""bottomsquare"" ></div>",32,word_square,1,SPACEBAR,,""
html-keyboard-response,658,4288050,null,"FRIES",null,word,,, 'FRIES',""
html-keyboard-response,659,4288525,473.77500002039596,"CRAB<img id = ""stim"" ><div class = green_square id = ""topsquare"" ></div><img id = ""stim"" ><div class = green_square  id = ""bottomsquare"" ></div>",32,word_square,1,SPACEBAR,,""
html-keyboard-response,660,4290033,null,"CRAB",null,word,,, 'CRAB',""
html-keyboard-response,661,4290537,null,"MESSAGE<img id = ""stim"" ><div class = red_square id = ""topsquare"" ></div><img id = ""stim"" ><div class = red_square  id = ""bottomsquare"" ></div>",null,word_square,0,SPACEBAR,,""
html-keyboard-response,662,4292041,null,"MESSAGE",null,word,,, 'MESSAGE',""
html-keyboard-response,663,4292417,373.65500000305474,"PIGEON<img id = ""stim"" ><div class = green_square id = ""topsquare"" ></div><img id = ""stim"" ><div class = green_square  id = ""bottomsquare"" ></div>",32,word_square,1,SPACEBAR,,""
html-keyboard-response,664,4293923,null,"PIGEON",null,word,,, 'PIGEON',""
html-keyboard-response,665,4294249,324.06000001356006,"CABIN<img id = ""stim"" ><div class = green_square id = ""topsquare"" ></div><img id = ""stim"" ><div class = green_square  id = ""bottomsquare"" ></div>",32,word_square,1,SPACEBAR,,""
html-keyboard-response,666,4295757,null,"CABIN",null,word,,, 'CABIN',""
survey-text,667,4297059,1297.1900000120513,"",,,,,,"{""Q0"":""3""}"
survey-text,668,4298838,1774.6250000200234,"",,,,,,"{""Q0"":""4""}"
survey-text,669,4300236,1393.9750000135973,"",,,,,,"{""Q0"":""4""}"
survey-text,670,4301213,972.3399999784306,"",,,,,,"{""Q0"":""3""}"
survey-text,671,4302251,1033.5149999591522,"",,,,,,"{""Q0"":""2""}"
survey-text,672,4303752,1496.5200000442564,"",,,,,,"{""Q0"":""2""}"
survey-text,673,4305918,2161.614999989979,"",,,,,,"{""Q0"":""6""}"
survey-text,674,4308614,2691.1650000256486,"",,,,,,"{""Q0"":""0""}"
survey-text,675,4310323,1704.4149999856018,"",,,,,,"{""Q0"":""4""}"
survey-text,676,4312278,1951.0149999987334,"",,,,,,"{""Q0"":""0""}"
survey-text,677,4314658,2375.995000009425,"",,,,,,"{""Q0"":""2""}"
survey-text,678,4315605,942.2199999680743,"",,,,,,"{""Q0"":""3""}"
survey-text,679,4317483,1874.2149999598041,"",,,,,,"{""Q0"":""3""}"
survey-text,680,4318794,1307.1650000056252,"",,,,,,"{""Q0"":""1""}"
survey-text,681,4320293,1494.074999995064,"",,,,,,"{""Q0"":""2""}"
survey-text,682,4321953,1655.094999994617,"",,,,,,"{""Q0"":""wings""}"
survey-text,683,4323301,1343.6649999930523,"",,,,,,"{""Q0"":""cabin""}"
survey-text,684,4324152,847.45500003919,"",,,,,,"{""Q0"":""robin""}"
survey-text,685,4325903,1746.5099999681115,"",,,,,,"{""Q0"":""fireplace""}"
survey-text,686,4327467,1559.5299999695271,"",,,,,,"{""Q0"":""fries""}"
survey-text,687,4329586,2114.4400000339374,"",,,,,,"{""Q0"":""crab""}"
survey-text,688,4339513,9922.194999991916,"",,,,,,"{""Q0"":""handcuff""}"
survey-text,689,4345211,5694.019999995362,"",,,,,,"{""Q0"":""atlas""}"
survey-text,690,4348694,3478.530000022147,"",,,,,,"{""Q0"":""earth""}"
survey-text,691,4397697,48997.94500001008,"",,,,,,"{""Q0"":""fireplace""}"
html-keyboard-response,692,4398384,684.754999994766,"<div style=""font-size:48px;"">Press any key to begin list 10 of 24 </div>",13,,,,,""
html-keyboard-response,693,4400893,null,"<div style=""font-size:60px;"">+</div>",null,,,,,""
html-keyboard-response,694,4401397,null,"CLAM<img id = ""stim"" ><div class = green_square id = ""topsquare"" ></div><img id = ""stim"" ><div class = green_square  id = ""bottomsquare"" ></div>",null,word_square,1,SPACEBAR,,""
html-keyboard-response,695,4402899,null,"CLAM",null,word,,, 'CLAM',""
html-keyboard-response,696,4403405,null,"STATUE<img id = ""stim"" ><div class = red_square id = ""topsquare"" ></div><img id = ""stim"" ><div class = red_square  id = ""bottomsquare"" ></div>",null,word_square,0,SPACEBAR,,""
html-keyboard-response,697,4404908,null,"STATUE",null,word,,, 'STATUE',""
html-keyboard-response,698,4405413,null,"SMOG<img id = ""stim"" ><div class = red_square id = ""topsquare"" ></div><img id = ""stim"" ><div class = red_square  id = ""bottomsquare"" ></div>",null,word_square,0,SPACEBAR,,""
html-keyboard-response,699,4406917,null,"SMOG",null,word,,, 'SMOG',""
html-keyboard-response,700,4407408,488.86000004131347,"DRIVER<img id = ""stim"" ><div class = green_square id = ""topsquare"" ></div><img id = ""stim"" ><div class = green_square  id = ""bottomsquare"" ></div>",32,word_square,1,SPACEBAR,,""
html-keyboard-response,701,4408917,null,"DRIVER",null,word,,, 'DRIVER',""
html-keyboard-response,702,4409422,null,"SUGAR<img id = ""stim"" ><div class = red_square id = ""topsquare"" ></div><img id = ""stim"" ><div class = red_square  id = ""bottomsquare"" ></div>",null,word_square,0,SPACEBAR,,""
html-keyboard-response,703,4410928,null,"SUGAR",null,word,,, 'SUGAR',""
html-keyboard-response,704,4411433,null,"LANDSCAPE<img id = ""stim"" ><div class = red_square id = ""topsquare"" ></div><img id = ""stim"" ><div class = red_square  id = ""bottomsquare"" ></div>",null,word_square,0,SPACEBAR,,""
html-keyboard-response,705,4412936,null,"LANDSCAPE",null,word,,, 'LANDSCAPE',""
html-keyboard-response,706,4413373,434.380000049714,"ELK<img id = ""stim"" ><div class = green_square id = ""topsquare"" ></div><img id = ""stim"" ><div class = green_square  id = ""bottomsquare"" ></div>",32,word_square,1,SPACEBAR,,""
html-keyboard-response,707,4414877,null,"ELK",null,word,,, 'ELK',""
html-keyboard-response,708,4415385,null,"CHAUFFEUR<img id = ""stim"" ><div class = red_square id = ""topsquare"" ></div><img id = ""stim"" ><div class = red_square  id = ""bottomsquare"" ></div>",null,word_square,0,SPACEBAR,,""
html-keyboard-response,709,4416892,null,"CHAUFFEUR",null,word,,, 'CHAUFFEUR',""
html-keyboard-response,710,4417397,null,"OX<img id = ""stim"" ><div class = red_square id = ""topsquare"" ></div><img id = ""stim"" ><div class = red_square  id = ""bottomsquare"" ></div>",null,word_square,0,SPACEBAR,,""
html-keyboard-response,711,4418903,null,"OX",null,word,,, 'OX',""
html-keyboard-response,712,4419301,396.6800000052899,"SADDLE<img id = ""stim"" ><div class = green_square id = ""topsquare"" ></div><img id = ""stim"" ><div class = green_square  id = ""bottomsquare"" ></div>",32,word_square,1,SPACEBAR,,""
html-keyboard-response,713,4420804,null,"SADDLE",null,word,,, 'SADDLE',""
html-keyboard-response,714,4421308,null,"SNAIL<img id = ""stim"" ><div class = red_square id = ""topsquare"" ></div><img id = ""stim"" ><div class = red_square  id = ""bottomsquare"" ></div>",null,word_square,0,SPACEBAR,,""
html-keyboard-response,715,4422811,null,"SNAIL",null,word,,, 'SNAIL',""
html-keyboard-response,716,4423271,457.3349999845959,"BADGE<img id = ""stim"" ><div class = green_square id = ""topsquare"" ></div><img id = ""stim"" ><div class = green_square  id = ""bottomsquare"" ></div>",32,word_square,1,SPACEBAR,,""
html-keyboard-response,717,4424774,null,"BADGE",null,word,,, 'BADGE',""
html-keyboard-response,718,4425277,null,"GRAVEL<img id = ""stim"" ><div class = red_square id = ""topsquare"" ></div><img id = ""stim"" ><div class = red_square  id = ""bottomsquare"" ></div>",null,word_square,0,SPACEBAR,,""
html-keyboard-response,719,4426784,null,"GRAVEL",null,word,,, 'GRAVEL',""
html-keyboard-response,720,4427137,350.70000000996515,"WASP<img id = ""stim"" ><div class = green_square id = ""topsquare"" ></div><img id = ""stim"" ><div class = green_square  id = ""bottomsquare"" ></div>",32,word_square,1,SPACEBAR,,""
html-keyboard-response,721,4428640,null,"WASP",null,word,,, 'WASP',""
html-keyboard-response,722,4429020,378.3649999531917,"HONEY<img id = ""stim"" ><div class = green_square id = ""topsquare"" ></div><img id = ""stim"" ><div class = green_square  id = ""bottomsquare"" ></div>",32,word_square,1,SPACEBAR,,""
html-keyboard-response,723,4430527,null,"HONEY",null,word,,, 'HONEY',""
html-keyboard-response,724,4431035,null,"DUST<img id = ""stim"" ><div class = red_square id = ""topsquare"" ></div><img id = ""stim"" ><div class = red_square  id = ""bottomsquare"" ></div>",null,word_square,0,SPACEBAR,,""
html-keyboard-response,725,4432542,null,"DUST",null,word,,, 'DUST',""
html-keyboard-response,726,4432923,379.4650000054389,"WARDROBE<img id = ""stim"" ><div class = green_square id = ""topsquare"" ></div><img id = ""stim"" ><div class = green_square  id = ""bottomsquare"" ></div>",32,word_square,1,SPACEBAR,,""
html-keyboard-response,727,4434430,null,"WARDROBE",null,word,,, 'WARDROBE',""
html-keyboard-response,728,4434769,337.0050000376068,"COSTUME<img id = ""stim"" ><div class = green_square id = ""topsquare"" ></div><img id = ""stim"" ><div class = green_square  id = ""bottomsquare"" ></div>",32,word_square,1,SPACEBAR,,""
html-keyboard-response,729,4436276,null,"COSTUME",null,word,,, 'COSTUME',""
survey-text,730,4437954,1672.8250000160187,"",,,,,,"{""Q0"":""4""}"
survey-text,731,4439434,1475.3500000224449,"",,,,,,"{""Q0"":""1""}"
survey-text,732,4440508,1070.0049999868497,"",,,,,,"{""Q0"":""2""}"
survey-text,733,4441581,1068.4049999690615,"",,,,,,"{""Q0"":""2""}"
survey-text,734,4442808,1221.8799999682233,"",,,,,,"{""Q0"":""4""}"
survey-text,735,4444330,1517.8299999679439,"",,,,,,"{""Q0"":""0""}"
survey-text,736,4445916,1581.6900000208989,"",,,,,,"{""Q0"":""2""}"
survey-text,737,4447115,1195.27000002563,"",,,,,,"{""Q0"":""4""}"
survey-text,738,4448061,940.9599999780767,"",,,,,,"{""Q0"":""3""}"
survey-text,739,4448964,898.8750000135042,"",,,,,,"{""Q0"":""3""}"
survey-text,740,4450297,1328.9799999911338,"",,,,,,"{""Q0"":""2""}"
survey-text,741,4451750,1445.6849999842234,"",,,,,,"{""Q0"":""0""}"
survey-text,742,4453195,1434.4600000185892,"",,,,,,"{""Q0"":""1""}"
survey-text,743,4454696,1496.0549999959767,"",,,,,,"{""Q0"":""5""}"
survey-text,744,4455679,979.1449999902397,"",,,,,,"{""Q0"":""3""}"
survey-text,745,4457877,2192.7799999830313,"",,,,,,"{""Q0"":""3""}"
survey-text,746,4459327,1446.0800000233576,"",,,,,,"{""Q0"":""2""}"
survey-text,747,4460686,1354.879999998957,"",,,,,,"{""Q0"":""1""}"
survey-text,748,4463773,3081.884999992326,"",,,,,,"{""Q0"":""clam""}"
survey-text,749,4465715,1936.8100000428967,"",,,,,,"{""Q0"":""statue""}"
survey-text,750,4466614,894.4800000172108,"",,,,,,"{""Q0"":""elk""}"
survey-text,751,4470245,3626.739999977872,"",,,,,,"{""Q0"":""rabbit""}"
survey-text,752,4472106,1856.0450000222772,"",,,,,,"{""Q0"":""gravel""}"
survey-text,753,4473303,1192.0200000167824,"",,,,,,"{""Q0"":""shovel""}"
survey-text,754,4475672,2364.9500000174157,"",,,,,,"{""Q0"":""deer""}"
survey-text,755,4479898,4221.889999986161,"",,,,,,"{""Q0"":""pigeon""}"
survey-text,756,4527135,47232.84000001149,"",,,,,,"{""Q0"":""surface""}"
survey-text,757,4532595,5455.744999984745,"",,,,,,"{""Q0"":""clothes""}"
survey-text,758,4534748,2148.3749999897555,"",,,,,,"{""Q0"":""costume""}"
survey-text,759,4542392,7638.464999967255,"",,,,,,"{""Q0"":""wasp""}"
html-keyboard-response,760,4546796,4402.46000001207,"<div style=""font-size:48px;"">Press any key to begin list 11 of 24 </div>",13,,,,,""
html-keyboard-response,761,4549303,null,"<div style=""font-size:60px;"">+</div>",null,,,,,""
html-keyboard-response,762,4549809,null,"BRIEFCASE<img id = ""stim"" ><div class = red_square id = ""topsquare"" ></div><img id = ""stim"" ><div class = red_square  id = ""bottomsquare"" ></div>",null,word_square,0,SPACEBAR,,""
html-keyboard-response,763,4551313,null,"BRIEFCASE",null,word,,, 'BRIEFCASE',""
html-keyboard-response,764,4551817,null,"FIGHTER<img id = ""stim"" ><div class = green_square id = ""topsquare"" ></div><img id = ""stim"" ><div class = green_square  id = ""bottomsquare"" ></div>",null,word_square,1,SPACEBAR,,""
html-keyboard-response,765,4553322,null,"FIGHTER",null,word,,, 'FIGHTER',""
html-keyboard-response,766,4553735,411.16999997757375,"SISTER<img id = ""stim"" ><div class = green_square id = ""topsquare"" ></div><img id = ""stim"" ><div class = green_square  id = ""bottomsquare"" ></div>",32,word_square,1,SPACEBAR,,""
html-keyboard-response,767,4555243,null,"SISTER",null,word,,, 'SISTER',""
html-keyboard-response,768,4555750,null,"TRUMPET<img id = ""stim"" ><div class = red_square id = ""topsquare"" ></div><img id = ""stim"" ><div class = red_square  id = ""bottomsquare"" ></div>",null,word_square,0,SPACEBAR,,""
html-keyboard-response,769,4557255,null,"TRUMPET",null,word,,, 'TRUMPET',""
html-keyboard-response,770,4557762,null,"STUMP<img id = ""stim"" ><div class = green_square id = ""topsquare"" ></div><img id = ""stim"" ><div class = green_square  id = ""bottomsquare"" ></div>",null,word_square,1,SPACEBAR,,""
html-keyboard-response,771,4559267,null,"STUMP",null,word,,, 'STUMP',""
html-keyboard-response,772,4559606,337.31500001158565,"PASTA<img id = ""stim"" ><div class = green_square id = ""topsquare"" ></div><img id = ""stim"" ><div class = green_square  id = ""bottomsquare"" ></div>",32,word_square,1,SPACEBAR,,""
html-keyboard-response,773,4561109,null,"PASTA",null,word,,, 'PASTA',""
html-keyboard-response,774,4561615,null,"GARLIC<img id = ""stim"" ><div class = red_square id = ""topsquare"" ></div><img id = ""stim"" ><div class = red_square  id = ""bottomsquare"" ></div>",null,word_square,0,SPACEBAR,,""
html-keyboard-response,775,4563123,null,"GARLIC",null,word,,, 'GARLIC',""
html-keyboard-response,776,4563513,388.00500001525506,"COTTAGE<img id = ""stim"" ><div class = green_square id = ""topsquare"" ></div><img id = ""stim"" ><div class = green_square  id = ""bottomsquare"" ></div>",32,word_square,1,SPACEBAR,,""
html-keyboard-response,777,4565016,null,"COTTAGE",null,word,,, 'COTTAGE',""
html-keyboard-response,778,4565372,353.47000003093854,"PICNIC<img id = ""stim"" ><div class = green_square id = ""topsquare"" ></div><img id = ""stim"" ><div class = green_square  id = ""bottomsquare"" ></div>",32,word_square,1,SPACEBAR,,""
html-keyboard-response,779,4566878,null,"PICNIC",null,word,,, 'PICNIC',""
html-keyboard-response,780,4567383,null,"NECKLACE<img id = ""stim"" ><div class = red_square id = ""topsquare"" ></div><img id = ""stim"" ><div class = red_square  id = ""bottomsquare"" ></div>",null,word_square,0,SPACEBAR,,""
html-keyboard-response,781,4568886,null,"NECKLACE",null,word,,, 'NECKLACE',""
html-keyboard-response,782,4569295,406.9000000017695,"STRING<img id = ""stim"" ><div class = green_square id = ""topsquare"" ></div><img id = ""stim"" ><div class = green_square  id = ""bottomsquare"" ></div>",32,word_square,1,SPACEBAR,,""
html-keyboard-response,783,4570799,null,"STRING",null,word,,, 'STRING',""
html-keyboard-response,784,4571306,null,"TOURIST<img id = ""stim"" ><div class = red_square id = ""topsquare"" ></div><img id = ""stim"" ><div class = red_square  id = ""bottomsquare"" ></div>",null,word_square,0,SPACEBAR,,""
html-keyboard-response,785,4572809,null,"TOURIST",null,word,,, 'TOURIST',""
html-keyboard-response,786,4573162,351.01500002201647,"FINGER<img id = ""stim"" ><div class = green_square id = ""topsquare"" ></div><img id = ""stim"" ><div class = green_square  id = ""bottomsquare"" ></div>",32,word_square,1,SPACEBAR,,""
html-keyboard-response,787,4574667,null,"FINGER",null,word,,, 'FINGER',""
html-keyboard-response,788,4575172,null,"HAND<img id = ""stim"" ><div class = red_square id = ""topsquare"" ></div><img id = ""stim"" ><div class = red_square  id = ""bottomsquare"" ></div>",null,word_square,0,SPACEBAR,,""
html-keyboard-response,789,4576679,null,"HAND",null,word,,, 'HAND',""
html-keyboard-response,790,4577186,null,"DANDRUFF<img id = ""stim"" ><div class = red_square id = ""topsquare"" ></div><img id = ""stim"" ><div class = red_square  id = ""bottomsquare"" ></div>",null,word_square,0,SPACEBAR,,""
html-keyboard-response,791,4578688,null,"DANDRUFF",null,word,,, 'DANDRUFF',""
html-keyboard-response,792,4579084,393.8600000110455,"SUITCASE<img id = ""stim"" ><div class = green_square id = ""topsquare"" ></div><img id = ""stim"" ><div class = green_square  id = ""bottomsquare"" ></div>",32,word_square,1,SPACEBAR,,""
html-keyboard-response,793,4580586,null,"SUITCASE",null,word,,, 'SUITCASE',""
html-keyboard-response,794,4581093,null,"MONEY<img id = ""stim"" ><div class = red_square id = ""topsquare"" ></div><img id = ""stim"" ><div class = red_square  id = ""bottomsquare"" ></div>",null,word_square,0,SPACEBAR,,""
html-keyboard-response,795,4582596,null,"MONEY",null,word,,, 'MONEY',""
html-keyboard-response,796,4583104,null,"CRIB<img id = ""stim"" ><div class = red_square id = ""topsquare"" ></div><img id = ""stim"" ><div class = red_square  id = ""bottomsquare"" ></div>",null,word_square,0,SPACEBAR,,""
html-keyboard-response,797,4584607,null,"CRIB",null,word,,, 'CRIB',""
survey-text,798,4587203,2591.0300000105053,"",,,,,,"{""Q0"":""5""}"
survey-text,799,4589081,1873.5600000363775,"",,,,,,"{""Q0"":""5""}"
survey-text,800,4590448,1361.994999984745,"",,,,,,"{""Q0"":""1""}"
survey-text,801,4591704,1252.0500000100583,"",,,,,,"{""Q0"":""4""}"
survey-text,802,4593158,1449.2350000073202,"",,,,,,"{""Q0"":""2""}"
survey-text,803,4594457,1294.1650000284426,"",,,,,,"{""Q0"":""2""}"
survey-text,804,4596272,1811.394999967888,"",,,,,,"{""Q0"":""1""}"
survey-text,805,4597578,1300.890000013169,"",,,,,,"{""Q0"":""1""}"
survey-text,806,4598701,1118.0700000259094,"",,,,,,"{""Q0"":""3""}"
survey-text,807,4600727,2022.2100000246428,"",,,,,,"{""Q0"":""0""}"
survey-text,808,4602571,1839.2250000033528,"",,,,,,"{""Q0"":""5""}"
survey-text,809,4603929,1353.5050000064075,"",,,,,,"{""Q0"":""5""}"
survey-text,810,4605003,1068.9400000264868,"",,,,,,"{""Q0"":""3""}"
survey-text,811,4605886,878.6800000234507,"",,,,,,"{""Q0"":""2""}"
survey-text,812,4606841,951.3150000129826,"",,,,,,"{""Q0"":""3""}"
survey-text,813,4607921,1075.5950000020675,"",,,,,,"{""Q0"":""4""}"
survey-text,814,4608844,918.5799999977462,"",,,,,,"{""Q0"":""2""}"
survey-text,815,4611639,2790.3100000112318,"",,,,,,"{""Q0"":""suitcase""}"
survey-text,816,4613522,1878.6199999740347,"",,,,,,"{""Q0"":""fighter""}"
survey-text,817,4614440,913.254999963101,"",,,,,,"{""Q0"":""sister""}"
survey-text,818,4616765,2320.3300000168383,"",,,,,,"{""Q0"":""past""}"
survey-text,819,4618108,1338.8799999956973,"",,,,,,"{""Q0"":""pastq""}"
survey-text,820,4620136,2023.044999979902,"",,,,,,"{""Q0"":""pasta""}"
survey-text,821,4621546,1405.3649999550544,"",,,,,,"{""Q0"":""garlic""}"
survey-text,822,4622989,1438.1350000039674,"",,,,,,"{""Q0"":""picnic""}"
survey-text,823,4628988,5994.305000000168,"",,,,,,"{""Q0"":""suitcase""}"
survey-text,824,4678221,49228.2600000035,"",,,,,,"{""Q0"":""ranch""}"
survey-text,825,4724581,46355.69500003476,"",,,,,,"{""Q0"":""food""}"
html-keyboard-response,826,4725195,611.4749999833293,"<div style=""font-size:48px;"">Press any key to begin list 12 of 24 </div>",13,,,,,""
html-keyboard-response,827,4727702,null,"<div style=""font-size:60px;"">+</div>",null,,,,,""
html-keyboard-response,828,4728207,null,"TEMPLE<img id = ""stim"" ><div class = red_square id = ""topsquare"" ></div><img id = ""stim"" ><div class = red_square  id = ""bottomsquare"" ></div>",null,word_square,0,SPACEBAR,,""
html-keyboard-response,829,4729711,null,"TEMPLE",null,word,,, 'TEMPLE',""
html-keyboard-response,830,4730216,null,"BARLEY<img id = ""stim"" ><div class = green_square id = ""topsquare"" ></div><img id = ""stim"" ><div class = green_square  id = ""bottomsquare"" ></div>",null,word_square,1,SPACEBAR,,""
html-keyboard-response,831,4731719,null,"BARLEY",null,word,,, 'BARLEY',""
html-keyboard-response,832,4732042,320.84499998018146,"GERM<img id = ""stim"" ><div class = green_square id = ""topsquare"" ></div><img id = ""stim"" ><div class = green_square  id = ""bottomsquare"" ></div>",32,word_square,1,SPACEBAR,,""
html-keyboard-response,833,4733550,null,"GERM",null,word,,, 'GERM',""
html-keyboard-response,834,4734056,null,"RATTLE<img id = ""stim"" ><div class = red_square id = ""topsquare"" ></div><img id = ""stim"" ><div class = red_square  id = ""bottomsquare"" ></div>",null,word_square,0,SPACEBAR,,""
html-keyboard-response,835,4735563,null,"RATTLE",null,word,,, 'RATTLE',""
html-keyboard-response,836,4735923,357.82999999355525,"FOSSIL<img id = ""stim"" ><div class = green_square id = ""topsquare"" ></div><img id = ""stim"" ><div class = green_square  id = ""bottomsquare"" ></div>",32,word_square,1,SPACEBAR,,""
html-keyboard-response,837,4737430,null,"FOSSIL",null,word,,, 'FOSSIL',""
html-keyboard-response,838,4737797,365.02999998629093,"VELVET<img id = ""stim"" ><div class = green_square id = ""topsquare"" ></div><img id = ""stim"" ><div class = green_square  id = ""bottomsquare"" ></div>",32,word_square,1,SPACEBAR,,""
html-keyboard-response,839,4739305,null,"VELVET",null,word,,, 'VELVET',""
html-keyboard-response,840,4739812,null,"SILK<img id = ""stim"" ><div class = red_square id = ""topsquare"" ></div><img id = ""stim"" ><div class = red_square  id = ""bottomsquare"" ></div>",null,word_square,0,SPACEBAR,,""
html-keyboard-response,841,4741316,null,"SILK",null,word,,, 'SILK',""
html-keyboard-response,842,4741638,319.614999985788,"TAXI<img id = ""stim"" ><div class = green_square id = ""topsquare"" ></div><img id = ""stim"" ><div class = green_square  id = ""bottomsquare"" ></div>",32,word_square,1,SPACEBAR,,""
html-keyboard-response,843,4743145,null,"TAXI",null,word,,, 'TAXI',""
html-keyboard-response,844,4743475,327.8500000014901,"AIRPORT<img id = ""stim"" ><div class = green_square id = ""topsquare"" ></div><img id = ""stim"" ><div class = green_square  id = ""bottomsquare"" ></div>",32,word_square,1,SPACEBAR,,""
html-keyboard-response,845,4744980,null,"AIRPORT",null,word,,, 'AIRPORT',""
html-keyboard-response,846,4745483,null,"PORCH<img id = ""stim"" ><div class = red_square id = ""topsquare"" ></div><img id = ""stim"" ><div class = red_square  id = ""bottomsquare"" ></div>",null,word_square,0,SPACEBAR,,""
html-keyboard-response,847,4746990,null,"PORCH",null,word,,, 'PORCH',""
html-keyboard-response,848,4747283,290.53999995812774,"HORSE<img id = ""stim"" ><div class = green_square id = ""topsquare"" ></div><img id = ""stim"" ><div class = green_square  id = ""bottomsquare"" ></div>",32,word_square,1,SPACEBAR,,""
html-keyboard-response,849,4748790,null,"HORSE",null,word,,, 'HORSE',""
html-keyboard-response,850,4749296,null,"CASHEW<img id = ""stim"" ><div class = red_square id = ""topsquare"" ></div><img id = ""stim"" ><div class = red_square  id = ""bottomsquare"" ></div>",null,word_square,0,SPACEBAR,,""
html-keyboard-response,851,4750803,null,"CASHEW",null,word,,, 'CASHEW',""
html-keyboard-response,852,4751124,318.87999997707084,"FRIAR<img id = ""stim"" ><div class = green_square id = ""topsquare"" ></div><img id = ""stim"" ><div class = green_square  id = ""bottomsquare"" ></div>",32,word_square,1,SPACEBAR,,""
html-keyboard-response,853,4752631,null,"FRIAR",null,word,,, 'FRIAR',""
html-keyboard-response,854,4753136,null,"LONDON<img id = ""stim"" ><div class = red_square id = ""topsquare"" ></div><img id = ""stim"" ><div class = red_square  id = ""bottomsquare"" ></div>",null,word_square,0,SPACEBAR,,""
html-keyboard-response,855,4754639,null,"LONDON",null,word,,, 'LONDON',""
html-keyboard-response,856,4755140,null,"ASIA<img id = ""stim"" ><div class = red_square id = ""topsquare"" ></div><img id = ""stim"" ><div class = red_square  id = ""bottomsquare"" ></div>",null,word_square,0,SPACEBAR,,""
html-keyboard-response,857,4756647,null,"ASIA",null,word,,, 'ASIA',""
