trial_type,trial_index,time_elapsed,rt,stimulus,key_press,test_part,targ_cond,correct_response,word,responses
pavlovia,0,600,,"",,,,,,
external-html,1,2742,2135.865000076592,"",,,,,,
html-keyboard-response,2,3363,617.934999987483,"Welcome to the experiment. Press any key to begin.",32,,,,,
html-keyboard-response,3,3858,493.360000080429,"<p>You will see a list of words and colored squares in the following task.<p><p>Press the spacebar whenever you see a GREEN square.<p><p>Do not press a key if the square is RED<p><p>Press the spacebar to continue.</p>",32,,,,,
html-keyboard-response,4,5265,906.4850000431761,"<p>Please try to remember as many of the words as you can, and try to think about the meaning of each word as it appears.<p><p>After the detection and encoding task you will be asked to solve some math problems for 24 seconds.<p> Please solve as many problems as you can in the time given. <p>",32,,,,,
html-keyboard-response,5,6801,1033.5999999660999,"After solving the math problems, you will be asked to type in as many words <p>from the previous list as you can remember for 75 seconds.<p> If you finish recalling before the 75 seconds are up,<p> just sit tight and try to think of any more words you could have missed. <p><p>We will begin with a brief practice session<p>Press the spacebar to begin the practice.</p>",32,,,,,
html-keyboard-response,6,7334,null,"<div style=""font-size:60px;"">+</div>",null,,,,,
html-keyboard-response,7,7342,null,"HAPPY<img id = ""stim"" ><div class = red_square id = ""topsquare"" ></div><img id = ""stim"" ><div class = red_square  id = ""bottomsquare"" ></div>",null,word_square,D,none,,
html-keyboard-response,8,7360,null,"HAPPY",null,word,,,HAPPY,
html-keyboard-response,9,7366,null,"COLD<img id = ""stim"" ><div class = green_square id = ""topsquare"" ></div><img id = ""stim"" ><div class = green_square  id = ""bottomsquare"" ></div>",null,word_square,T,SPACEBAR,,
html-keyboard-response,10,7382,null,"COLD",null,word,,,COLD,
html-keyboard-response,11,7390,null,"HEAVY<img id = ""stim"" ><div class = green_square id = ""topsquare"" ></div><img id = ""stim"" ><div class = green_square  id = ""bottomsquare"" ></div>",null,word_square,T,SPACEBAR,,
html-keyboard-response,12,7405,null,"HEAVY",null,word,,,HEAVY,
html-keyboard-response,13,7412,null,"FUNNY<img id = ""stim"" ><div class = red_square id = ""topsquare"" ></div><img id = ""stim"" ><div class = red_square  id = ""bottomsquare"" ></div>",null,word_square,D,none,,
html-keyboard-response,14,7431,null,"FUNNY",null,word,,,FUNNY,
html-keyboard-response,15,7438,null,"SCARY<img id = ""stim"" ><div class = green_square id = ""topsquare"" ></div><img id = ""stim"" ><div class = green_square  id = ""bottomsquare"" ></div>",null,word_square,T,SPACEBAR,,
html-keyboard-response,16,7455,null,"SCARY",null,word,,,SCARY,
html-keyboard-response,17,7461,null,"PEACEFUL<img id = ""stim"" ><div class = green_square id = ""topsquare"" ></div><img id = ""stim"" ><div class = green_square  id = ""bottomsquare"" ></div>",null,word_square,T,SPACEBAR,,
html-keyboard-response,18,7477,null,"PEACEFUL",null,word,,,PEACEFUL,
html-keyboard-response,19,7483,null,"LITTLE<img id = ""stim"" ><div class = red_square id = ""topsquare"" ></div><img id = ""stim"" ><div class = red_square  id = ""bottomsquare"" ></div>",null,word_square,D,none,,
html-keyboard-response,20,7499,null,"LITTLE",null,word,,,LITTLE,
html-keyboard-response,21,7506,null,"TIRED<img id = ""stim"" ><div class = red_square id = ""topsquare"" ></div><img id = ""stim"" ><div class = red_square  id = ""bottomsquare"" ></div>",null,word_square,D,none,,
html-keyboard-response,22,7522,null,"TIRED",null,word,,,TIRED,
html-keyboard-response,23,7529,null,"ENTERTAINING<img id = ""stim"" ><div class = red_square id = ""topsquare"" ></div><img id = ""stim"" ><div class = red_square  id = ""bottomsquare"" ></div>",null,word_square,D,none,,
html-keyboard-response,24,7547,null,"ENTERTAINING",null,word,,,ENTERTAINING,
html-keyboard-response,25,7554,null,"GRATEFUL<img id = ""stim"" ><div class = green_square id = ""topsquare"" ></div><img id = ""stim"" ><div class = green_square  id = ""bottomsquare"" ></div>",null,word_square,T,SPACEBAR,,
html-keyboard-response,26,7571,null,"GRATEFUL",null,word,,,GRATEFUL,
html-keyboard-response,27,7577,null,"LOUD<img id = ""stim"" ><div class = red_square id = ""topsquare"" ></div><img id = ""stim"" ><div class = red_square  id = ""bottomsquare"" ></div>",null,word_square,D,none,,
html-keyboard-response,28,7594,null,"LOUD",null,word,,,LOUD,
html-keyboard-response,29,7601,null,"SMART<img id = ""stim"" ><div class = green_square id = ""topsquare"" ></div><img id = ""stim"" ><div class = green_square  id = ""bottomsquare"" ></div>",null,word_square,T,SPACEBAR,,
html-keyboard-response,30,7617,null,"SMART",null,word,,,SMART,
html-keyboard-response,31,7623,null,"SMOOTH<img id = ""stim"" ><div class = green_square id = ""topsquare"" ></div><img id = ""stim"" ><div class = green_square  id = ""bottomsquare"" ></div>",null,word_square,T,SPACEBAR,,
html-keyboard-response,32,7640,null,"SMOOTH",null,word,,,SMOOTH,
html-keyboard-response,33,7646,null,"DISHONEST<img id = ""stim"" ><div class = red_square id = ""topsquare"" ></div><img id = ""stim"" ><div class = red_square  id = ""bottomsquare"" ></div>",null,word_square,D,none,,
html-keyboard-response,34,7663,null,"DISHONEST",null,word,,,DISHONEST,
html-keyboard-response,35,7670,null,"WEALTHY<img id = ""stim"" ><div class = green_square id = ""topsquare"" ></div><img id = ""stim"" ><div class = green_square  id = ""bottomsquare"" ></div>",null,word_square,T,SPACEBAR,,
html-keyboard-response,36,7687,null,"WEALTHY",null,word,,,WEALTHY,
html-keyboard-response,37,7694,null,"BEAUTIFUL<img id = ""stim"" ><div class = red_square id = ""topsquare"" ></div><img id = ""stim"" ><div class = red_square  id = ""bottomsquare"" ></div>",null,word_square,D,none,,
html-keyboard-response,38,7712,null,"BEAUTIFUL",null,word,,,BEAUTIFUL,
html-keyboard-response,39,7717,null,"DREARY<img id = ""stim"" ><div class = red_square id = ""topsquare"" ></div><img id = ""stim"" ><div class = red_square  id = ""bottomsquare"" ></div>",null,word_square,D,none,,
html-keyboard-response,40,7734,null,"DREARY",null,word,,,DREARY,
html-keyboard-response,41,7740,null,"PLAYFUL<img id = ""stim"" ><div class = red_square id = ""topsquare"" ></div><img id = ""stim"" ><div class = red_square  id = ""bottomsquare"" ></div>",null,word_square,D,none,,
html-keyboard-response,42,7756,null,"PLAYFUL",null,word,,,PLAYFUL,
survey-text,43,8735,971.3800000026822,"",,,,,,{"Q0":"3"}
survey-text,44,9833,1094.8949999874458,"",,,,,,{"Q0":"3"}
html-keyboard-response,45,10406,571.570000029169,"<p>We will now begin the experiment!<p><p>Please try to remember all words from each list.<p><p>Press the spacebar whenever you see a GREEN square.<p><p><p><p>Press the spacebar to begin.</p>",51,,,,,
html-keyboard-response,46,11531,624.0450000623241,"<div style=""font-size:48px;"">Press any key to begin list 1 of 24 </div>",51,,,,,
html-keyboard-response,47,12056,null,"<div style=""font-size:60px;"">+</div>",null,,,,,
html-keyboard-response,48,12063,null,"BELT<img id = ""stim"" ><div class = red_square id = ""topsquare"" ></div><img id = ""stim"" ><div class = red_square  id = ""bottomsquare"" ></div>",null,word_square,0,SPACEBAR,,
html-keyboard-response,49,12082,null,"BELT",null,word,,, 'BELT',
html-keyboard-response,50,12088,null,"FLASK<img id = ""stim"" ><div class = red_square id = ""topsquare"" ></div><img id = ""stim"" ><div class = red_square  id = ""bottomsquare"" ></div>",null,word_square,0,SPACEBAR,,
html-keyboard-response,51,12104,null,"FLASK",null,word,,, 'FLASK',
html-keyboard-response,52,12111,null,"PLUTO<img id = ""stim"" ><div class = green_square id = ""topsquare"" ></div><img id = ""stim"" ><div class = green_square  id = ""bottomsquare"" ></div>",null,word_square,1,SPACEBAR,,
html-keyboard-response,53,12128,null,"PLUTO",null,word,,, 'PLUTO',
html-keyboard-response,54,12134,null,"JOURNAL<img id = ""stim"" ><div class = green_square id = ""topsquare"" ></div><img id = ""stim"" ><div class = green_square  id = ""bottomsquare"" ></div>",null,word_square,1,SPACEBAR,,
html-keyboard-response,55,12150,null,"JOURNAL",null,word,,, 'JOURNAL',
html-keyboard-response,56,12158,null,"SCRIBBLE<img id = ""stim"" ><div class = green_square id = ""topsquare"" ></div><img id = ""stim"" ><div class = green_square  id = ""bottomsquare"" ></div>",null,word_square,1,SPACEBAR,,
html-keyboard-response,57,12174,null,"SCRIBBLE",null,word,,, 'SCRIBBLE',
html-keyboard-response,58,12181,null,"CROSS<img id = ""stim"" ><div class = red_square id = ""topsquare"" ></div><img id = ""stim"" ><div class = red_square  id = ""bottomsquare"" ></div>",null,word_square,0,SPACEBAR,,
html-keyboard-response,59,12199,null,"CROSS",null,word,,, 'CROSS',
html-keyboard-response,60,12205,null,"CHAPEL<img id = ""stim"" ><div class = red_square id = ""topsquare"" ></div><img id = ""stim"" ><div class = red_square  id = ""bottomsquare"" ></div>",null,word_square,0,SPACEBAR,,
html-keyboard-response,61,12222,null,"CHAPEL",null,word,,, 'CHAPEL',
html-keyboard-response,62,12228,null,"PUPPY<img id = ""stim"" ><div class = green_square id = ""topsquare"" ></div><img id = ""stim"" ><div class = green_square  id = ""bottomsquare"" ></div>",null,word_square,1,SPACEBAR,,
html-keyboard-response,63,12245,null,"PUPPY",null,word,,, 'PUPPY',
html-keyboard-response,64,12251,null,"PAIL<img id = ""stim"" ><div class = red_square id = ""topsquare"" ></div><img id = ""stim"" ><div class = red_square  id = ""bottomsquare"" ></div>",null,word_square,0,SPACEBAR,,
html-keyboard-response,65,12267,null,"PAIL",null,word,,, 'PAIL',
html-keyboard-response,66,12274,null,"FLOWER<img id = ""stim"" ><div class = green_square id = ""topsquare"" ></div><img id = ""stim"" ><div class = green_square  id = ""bottomsquare"" ></div>",null,word_square,1,SPACEBAR,,
html-keyboard-response,67,12291,null,"FLOWER",null,word,,, 'FLOWER',
html-keyboard-response,68,12298,null,"NEPHEW<img id = ""stim"" ><div class = red_square id = ""topsquare"" ></div><img id = ""stim"" ><div class = red_square  id = ""bottomsquare"" ></div>",null,word_square,0,SPACEBAR,,
html-keyboard-response,69,12315,null,"NEPHEW",null,word,,, 'NEPHEW',
html-keyboard-response,70,12322,null,"SCOTCH<img id = ""stim"" ><div class = red_square id = ""topsquare"" ></div><img id = ""stim"" ><div class = red_square  id = ""bottomsquare"" ></div>",null,word_square,0,SPACEBAR,,
html-keyboard-response,71,12339,null,"SCOTCH",null,word,,, 'SCOTCH',
html-keyboard-response,72,12345,null,"MEAT<img id = ""stim"" ><div class = green_square id = ""topsquare"" ></div><img id = ""stim"" ><div class = green_square  id = ""bottomsquare"" ></div>",null,word_square,1,SPACEBAR,,
html-keyboard-response,73,12362,null,"MEAT",null,word,,, 'MEAT',
html-keyboard-response,74,12368,null,"STREAM<img id = ""stim"" ><div class = green_square id = ""topsquare"" ></div><img id = ""stim"" ><div class = green_square  id = ""bottomsquare"" ></div>",null,word_square,1,SPACEBAR,,
html-keyboard-response,75,12385,null,"STREAM",null,word,,, 'STREAM',
html-keyboard-response,76,12391,null,"MARSH<img id = ""stim"" ><div class = red_square id = ""topsquare"" ></div><img id = ""stim"" ><div class = red_square  id = ""bottomsquare"" ></div>",null,word_square,0,SPACEBAR,,
html-keyboard-response,77,12408,null,"MARSH",null,word,,, 'MARSH',
html-keyboard-response,78,12415,null,"SEAL<img id = ""stim"" ><div class = green_square id = ""topsquare"" ></div><img id = ""stim"" ><div class = green_square  id = ""bottomsquare"" ></div>",null,word_square,1,SPACEBAR,,
html-keyboard-response,79,12432,null,"SEAL",null,word,,, 'SEAL',
html-keyboard-response,80,12440,null,"MAGNET<img id = ""stim"" ><div class = red_square id = ""topsquare"" ></div><img id = ""stim"" ><div class = red_square  id = ""bottomsquare"" ></div>",null,word_square,0,SPACEBAR,,
html-keyboard-response,81,12457,null,"MAGNET",null,word,,, 'MAGNET',
html-keyboard-response,82,12463,null,"GLOVE<img id = ""stim"" ><div class = green_square id = ""topsquare"" ></div><img id = ""stim"" ><div class = green_square  id = ""bottomsquare"" ></div>",null,word_square,1,SPACEBAR,,
html-keyboard-response,83,12479,null,"GLOVE",null,word,,, 'GLOVE',
survey-text,84,12870,388.2549999980256,"",,,,,,{"Q0":"3"}
survey-text,85,13602,728.8449999177828,"",,,,,,{"Q0":"3"}
survey-text,86,14333,727.6500000152737,"",,,,,,{"Q0":"33"}
html-keyboard-response,87,14704,370.0850000604987,"<div style=""font-size:48px;"">Press any key to begin list 2 of 24 </div>",51,,,,,
html-keyboard-response,88,15229,null,"<div style=""font-size:60px;"">+</div>",null,,,,,
html-keyboard-response,89,15235,null,"PORPOISE<img id = ""stim"" ><div class = red_square id = ""topsquare"" ></div><img id = ""stim"" ><div class = red_square  id = ""bottomsquare"" ></div>",null,word_square,0,SPACEBAR,,
html-keyboard-response,90,15251,null,"PORPOISE",null,word,,, 'PORPOISE',
html-keyboard-response,91,15258,null,"QUARTER<img id = ""stim"" ><div class = red_square id = ""topsquare"" ></div><img id = ""stim"" ><div class = red_square  id = ""bottomsquare"" ></div>",null,word_square,0,SPACEBAR,,
html-keyboard-response,92,15274,null,"QUARTER",null,word,,, 'QUARTER',
html-keyboard-response,93,15280,null,"WHISTLE<img id = ""stim"" ><div class = green_square id = ""topsquare"" ></div><img id = ""stim"" ><div class = green_square  id = ""bottomsquare"" ></div>",null,word_square,1,SPACEBAR,,
html-keyboard-response,94,15299,null,"WHISTLE",null,word,,, 'WHISTLE',
html-keyboard-response,95,15305,null,"NEEDLE<img id = ""stim"" ><div class = green_square id = ""topsquare"" ></div><img id = ""stim"" ><div class = green_square  id = ""bottomsquare"" ></div>",null,word_square,1,SPACEBAR,,
html-keyboard-response,96,15321,null,"NEEDLE",null,word,,, 'NEEDLE',
html-keyboard-response,97,15328,null,"PARTNER<img id = ""stim"" ><div class = green_square id = ""topsquare"" ></div><img id = ""stim"" ><div class = green_square  id = ""bottomsquare"" ></div>",null,word_square,1,SPACEBAR,,
html-keyboard-response,98,15346,null,"PARTNER",null,word,,, 'PARTNER',
html-keyboard-response,99,15352,null,"FRIEND<img id = ""stim"" ><div class = red_square id = ""topsquare"" ></div><img id = ""stim"" ><div class = red_square  id = ""bottomsquare"" ></div>",null,word_square,0,SPACEBAR,,
html-keyboard-response,100,15368,null,"FRIEND",null,word,,, 'FRIEND',
html-keyboard-response,101,15374,null,"MARKET<img id = ""stim"" ><div class = red_square id = ""topsquare"" ></div><img id = ""stim"" ><div class = red_square  id = ""bottomsquare"" ></div>",null,word_square,0,SPACEBAR,,
html-keyboard-response,102,15392,null,"MARKET",null,word,,, 'MARKET',
html-keyboard-response,103,15398,null,"CHISEL<img id = ""stim"" ><div class = green_square id = ""topsquare"" ></div><img id = ""stim"" ><div class = green_square  id = ""bottomsquare"" ></div>",null,word_square,1,SPACEBAR,,
html-keyboard-response,104,15416,null,"CHISEL",null,word,,, 'CHISEL',
html-keyboard-response,105,15423,null,"BANKER<img id = ""stim"" ><div class = red_square id = ""topsquare"" ></div><img id = ""stim"" ><div class = red_square  id = ""bottomsquare"" ></div>",null,word_square,0,SPACEBAR,,
html-keyboard-response,106,15440,null,"BANKER",null,word,,, 'BANKER',
html-keyboard-response,107,15446,null,"COIN<img id = ""stim"" ><div class = green_square id = ""topsquare"" ></div><img id = ""stim"" ><div class = green_square  id = ""bottomsquare"" ></div>",null,word_square,1,SPACEBAR,,
html-keyboard-response,108,15463,null,"COIN",null,word,,, 'COIN',
html-keyboard-response,109,15469,null,"SWITCH<img id = ""stim"" ><div class = red_square id = ""topsquare"" ></div><img id = ""stim"" ><div class = red_square  id = ""bottomsquare"" ></div>",null,word_square,0,SPACEBAR,,
html-keyboard-response,110,15485,null,"SWITCH",null,word,,, 'SWITCH',
html-keyboard-response,111,15492,null,"BOX<img id = ""stim"" ><div class = red_square id = ""topsquare"" ></div><img id = ""stim"" ><div class = red_square  id = ""bottomsquare"" ></div>",null,word_square,0,SPACEBAR,,
html-keyboard-response,112,15508,null,"BOX",null,word,,, 'BOX',
html-keyboard-response,113,15514,null,"GOBLIN<img id = ""stim"" ><div class = green_square id = ""topsquare"" ></div><img id = ""stim"" ><div class = green_square  id = ""bottomsquare"" ></div>",null,word_square,1,SPACEBAR,,
html-keyboard-response,114,15533,null,"GOBLIN",null,word,,, 'GOBLIN',
html-keyboard-response,115,15539,null,"STOMACH<img id = ""stim"" ><div class = green_square id = ""topsquare"" ></div><img id = ""stim"" ><div class = green_square  id = ""bottomsquare"" ></div>",null,word_square,1,SPACEBAR,,
html-keyboard-response,116,15555,null,"STOMACH",null,word,,, 'STOMACH',
html-keyboard-response,117,15562,null,"LIVER<img id = ""stim"" ><div class = red_square id = ""topsquare"" ></div><img id = ""stim"" ><div class = red_square  id = ""bottomsquare"" ></div>",null,word_square,0,SPACEBAR,,
html-keyboard-response,118,15580,null,"LIVER",null,word,,, 'LIVER',
html-keyboard-response,119,15586,null,"KNIFE<img id = ""stim"" ><div class = green_square id = ""topsquare"" ></div><img id = ""stim"" ><div class = green_square  id = ""bottomsquare"" ></div>",null,word_square,1,SPACEBAR,,
html-keyboard-response,120,15602,null,"KNIFE",null,word,,, 'KNIFE',
html-keyboard-response,121,15609,null,"COOKBOOK<img id = ""stim"" ><div class = red_square id = ""topsquare"" ></div><img id = ""stim"" ><div class = red_square  id = ""bottomsquare"" ></div>",null,word_square,0,SPACEBAR,,
html-keyboard-response,122,15626,null,"COOKBOOK",null,word,,, 'COOKBOOK',
html-keyboard-response,123,15633,null,"GUITAR<img id = ""stim"" ><div class = green_square id = ""topsquare"" ></div><img id = ""stim"" ><div class = green_square  id = ""bottomsquare"" ></div>",null,word_square,1,SPACEBAR,,
html-keyboard-response,124,15649,null,"GUITAR",null,word,,, 'GUITAR',
survey-text,125,16155,503.0549999792129,"",,,,,,{"Q0":"3"}
survey-text,126,17022,864.3249999731779,"",,,,,,{"Q0":"3"}
html-keyboard-response,127,17280,257.149999961257,"<div style=""font-size:48px;"">Press any key to begin list 3 of 24 </div>",51,,,,,
html-keyboard-response,128,17801,null,"<div style=""font-size:60px;"">+</div>",null,,,,,
html-keyboard-response,129,17808,null,"SIRLOIN<img id = ""stim"" ><div class = green_square id = ""topsquare"" ></div><img id = ""stim"" ><div class = green_square  id = ""bottomsquare"" ></div>",null,word_square,1,SPACEBAR,,
html-keyboard-response,130,17825,null,"SIRLOIN",null,word,,, 'SIRLOIN',
html-keyboard-response,131,17832,null,"OUTDOORS<img id = ""stim"" ><div class = green_square id = ""topsquare"" ></div><img id = ""stim"" ><div class = green_square  id = ""bottomsquare"" ></div>",null,word_square,1,SPACEBAR,,
html-keyboard-response,132,17850,null,"OUTDOORS",null,word,,, 'OUTDOORS',
html-keyboard-response,133,17856,null,"FOREST<img id = ""stim"" ><div class = red_square id = ""topsquare"" ></div><img id = ""stim"" ><div class = red_square  id = ""bottomsquare"" ></div>",null,word_square,0,SPACEBAR,,
html-keyboard-response,134,17873,null,"FOREST",null,word,,, 'FOREST',
html-keyboard-response,135,17880,null,"EYELASH<img id = ""stim"" ><div class = red_square id = ""topsquare"" ></div><img id = ""stim"" ><div class = red_square  id = ""bottomsquare"" ></div>",null,word_square,0,SPACEBAR,,
html-keyboard-response,136,17897,null,"EYELASH",null,word,,, 'EYELASH',
html-keyboard-response,137,17903,null,"NAPKIN<img id = ""stim"" ><div class = red_square id = ""topsquare"" ></div><img id = ""stim"" ><div class = red_square  id = ""bottomsquare"" ></div>",null,word_square,0,SPACEBAR,,
html-keyboard-response,138,17919,null,"NAPKIN",null,word,,, 'NAPKIN',
html-keyboard-response,139,17925,null,"SNAKE<img id = ""stim"" ><div class = green_square id = ""topsquare"" ></div><img id = ""stim"" ><div class = green_square  id = ""bottomsquare"" ></div>",null,word_square,1,SPACEBAR,,
html-keyboard-response,140,17941,null,"SNAKE",null,word,,, 'SNAKE',
html-keyboard-response,141,17947,null,"CRACKER<img id = ""stim"" ><div class = green_square id = ""topsquare"" ></div><img id = ""stim"" ><div class = green_square  id = ""bottomsquare"" ></div>",null,word_square,1,SPACEBAR,,
html-keyboard-response,142,17965,null,"CRACKER",null,word,,, 'CRACKER',
html-keyboard-response,143,17971,null,"OINTMENT<img id = ""stim"" ><div class = red_square id = ""topsquare"" ></div><img id = ""stim"" ><div class = red_square  id = ""bottomsquare"" ></div>",null,word_square,0,SPACEBAR,,
html-keyboard-response,144,17987,null,"OINTMENT",null,word,,, 'OINTMENT',
html-keyboard-response,145,17994,null,"HUSBAND<img id = ""stim"" ><div class = green_square id = ""topsquare"" ></div><img id = ""stim"" ><div class = green_square  id = ""bottomsquare"" ></div>",null,word_square,1,SPACEBAR,,
html-keyboard-response,146,18010,null,"HUSBAND",null,word,,, 'HUSBAND',
html-keyboard-response,147,18017,null,"SPOUSE<img id = ""stim"" ><div class = red_square id = ""topsquare"" ></div><img id = ""stim"" ><div class = red_square  id = ""bottomsquare"" ></div>",null,word_square,0,SPACEBAR,,
html-keyboard-response,148,18034,null,"SPOUSE",null,word,,, 'SPOUSE',
html-keyboard-response,149,18041,null,"LIZARD<img id = ""stim"" ><div class = green_square id = ""topsquare"" ></div><img id = ""stim"" ><div class = green_square  id = ""bottomsquare"" ></div>",null,word_square,1,SPACEBAR,,
html-keyboard-response,150,18058,null,"LIZARD",null,word,,, 'LIZARD',
html-keyboard-response,151,18065,null,"PARSLEY<img id = ""stim"" ><div class = green_square id = ""topsquare"" ></div><img id = ""stim"" ><div class = green_square  id = ""bottomsquare"" ></div>",null,word_square,1,SPACEBAR,,
html-keyboard-response,152,18084,null,"PARSLEY",null,word,,, 'PARSLEY',
html-keyboard-response,153,18090,null,"PUDDING<img id = ""stim"" ><div class = red_square id = ""topsquare"" ></div><img id = ""stim"" ><div class = red_square  id = ""bottomsquare"" ></div>",null,word_square,0,SPACEBAR,,
html-keyboard-response,154,18107,null,"PUDDING",null,word,,, 'PUDDING',
html-keyboard-response,155,18114,null,"JUDGE<img id = ""stim"" ><div class = red_square id = ""topsquare"" ></div><img id = ""stim"" ><div class = red_square  id = ""bottomsquare"" ></div>",null,word_square,0,SPACEBAR,,
html-keyboard-response,156,18130,null,"JUDGE",null,word,,, 'JUDGE',
html-keyboard-response,157,18136,null,"REPORT<img id = ""stim"" ><div class = green_square id = ""topsquare"" ></div><img id = ""stim"" ><div class = green_square  id = ""bottomsquare"" ></div>",null,word_square,1,SPACEBAR,,
html-keyboard-response,158,18152,null,"REPORT",null,word,,, 'REPORT',
html-keyboard-response,159,18159,null,"POWDER<img id = ""stim"" ><div class = red_square id = ""topsquare"" ></div><img id = ""stim"" ><div class = red_square  id = ""bottomsquare"" ></div>",null,word_square,0,SPACEBAR,,
html-keyboard-response,160,18176,null,"POWDER",null,word,,, 'POWDER',
html-keyboard-response,161,18183,null,"ROOSTER<img id = ""stim"" ><div class = green_square id = ""topsquare"" ></div><img id = ""stim"" ><div class = green_square  id = ""bottomsquare"" ></div>",null,word_square,1,SPACEBAR,,
html-keyboard-response,162,18200,null,"ROOSTER",null,word,,, 'ROOSTER',
html-keyboard-response,163,18207,null,"YOLK<img id = ""stim"" ><div class = red_square id = ""topsquare"" ></div><img id = ""stim"" ><div class = red_square  id = ""bottomsquare"" ></div>",null,word_square,0,SPACEBAR,,
html-keyboard-response,164,18224,null,"YOLK",null,word,,, 'YOLK',
survey-text,165,18608,382.1199999656528,"",,,,,,{"Q0":"3"}
survey-text,166,19441,829.9450000049546,"",,,,,,{"Q0":"3"}
html-keyboard-response,167,19631,189.3750000745058,"<div style=""font-size:48px;"">Press any key to begin list 4 of 24 </div>",51,,,,,
html-keyboard-response,168,20158,null,"<div style=""font-size:60px;"">+</div>",null,,,,,
html-keyboard-response,169,20165,null,"INMATE<img id = ""stim"" ><div class = green_square id = ""topsquare"" ></div><img id = ""stim"" ><div class = green_square  id = ""bottomsquare"" ></div>",null,word_square,1,SPACEBAR,,
html-keyboard-response,170,20183,null,"INMATE",null,word,,, 'INMATE',
html-keyboard-response,171,20190,null,"SLIDE<img id = ""stim"" ><div class = green_square id = ""topsquare"" ></div><img id = ""stim"" ><div class = green_square  id = ""bottomsquare"" ></div>",null,word_square,1,SPACEBAR,,
html-keyboard-response,172,20207,null,"SLIDE",null,word,,, 'SLIDE',
html-keyboard-response,173,20213,null,"REBEL<img id = ""stim"" ><div class = red_square id = ""topsquare"" ></div><img id = ""stim"" ><div class = red_square  id = ""bottomsquare"" ></div>",null,word_square,0,SPACEBAR,,
html-keyboard-response,174,20232,null,"REBEL",null,word,,, 'REBEL',
html-keyboard-response,175,20239,null,"PAPER<img id = ""stim"" ><div class = red_square id = ""topsquare"" ></div><img id = ""stim"" ><div class = red_square  id = ""bottomsquare"" ></div>",null,word_square,0,SPACEBAR,,
html-keyboard-response,176,20255,null,"PAPER",null,word,,, 'PAPER',
html-keyboard-response,177,20262,null,"HANDBAG<img id = ""stim"" ><div class = red_square id = ""topsquare"" ></div><img id = ""stim"" ><div class = red_square  id = ""bottomsquare"" ></div>",null,word_square,0,SPACEBAR,,
html-keyboard-response,178,20280,null,"HANDBAG",null,word,,, 'HANDBAG',
html-keyboard-response,179,20286,null,"POCKET<img id = ""stim"" ><div class = green_square id = ""topsquare"" ></div><img id = ""stim"" ><div class = green_square  id = ""bottomsquare"" ></div>",null,word_square,1,SPACEBAR,,
html-keyboard-response,180,20302,null,"POCKET",null,word,,, 'POCKET',
html-keyboard-response,181,20309,null,"JUGGLER<img id = ""stim"" ><div class = green_square id = ""topsquare"" ></div><img id = ""stim"" ><div class = green_square  id = ""bottomsquare"" ></div>",null,word_square,1,SPACEBAR,,
html-keyboard-response,182,20325,null,"JUGGLER",null,word,,, 'JUGGLER',
html-keyboard-response,183,20332,null,"ACTOR<img id = ""stim"" ><div class = red_square id = ""topsquare"" ></div><img id = ""stim"" ><div class = red_square  id = ""bottomsquare"" ></div>",null,word_square,0,SPACEBAR,,
html-keyboard-response,184,20351,null,"ACTOR",null,word,,, 'ACTOR',
html-keyboard-response,185,20357,null,"MUSHROOM<img id = ""stim"" ><div class = green_square id = ""topsquare"" ></div><img id = ""stim"" ><div class = green_square  id = ""bottomsquare"" ></div>",null,word_square,1,SPACEBAR,,
html-keyboard-response,186,20373,null,"MUSHROOM",null,word,,, 'MUSHROOM',
html-keyboard-response,187,20380,null,"KIWI<img id = ""stim"" ><div class = red_square id = ""topsquare"" ></div><img id = ""stim"" ><div class = red_square  id = ""bottomsquare"" ></div>",null,word_square,0,SPACEBAR,,
html-keyboard-response,188,20397,null,"KIWI",null,word,,, 'KIWI',
html-keyboard-response,189,20403,null,"BUCKET<img id = ""stim"" ><div class = green_square id = ""topsquare"" ></div><img id = ""stim"" ><div class = green_square  id = ""bottomsquare"" ></div>",null,word_square,1,SPACEBAR,,
html-keyboard-response,190,20419,null,"BUCKET",null,word,,, 'BUCKET',
html-keyboard-response,191,20426,null,"JAPAN<img id = ""stim"" ><div class = green_square id = ""topsquare"" ></div><img id = ""stim"" ><div class = green_square  id = ""bottomsquare"" ></div>",null,word_square,1,SPACEBAR,,
html-keyboard-response,192,20443,null,"JAPAN",null,word,,, 'JAPAN',
html-keyboard-response,193,20450,null,"COUNTRY<img id = ""stim"" ><div class = red_square id = ""topsquare"" ></div><img id = ""stim"" ><div class = red_square  id = ""bottomsquare"" ></div>",null,word_square,0,SPACEBAR,,
html-keyboard-response,194,20467,null,"COUNTRY",null,word,,, 'COUNTRY',
html-keyboard-response,195,20474,null,"TURKEY<img id = ""stim"" ><div class = red_square id = ""topsquare"" ></div><img id = ""stim"" ><div class = red_square  id = ""bottomsquare"" ></div>",null,word_square,0,SPACEBAR,,
html-keyboard-response,196,20490,null,"TURKEY",null,word,,, 'TURKEY',
html-keyboard-response,197,20497,null,"TUTU<img id = ""stim"" ><div class = green_square id = ""topsquare"" ></div><img id = ""stim"" ><div class = green_square  id = ""bottomsquare"" ></div>",null,word_square,1,SPACEBAR,,
html-keyboard-response,198,20514,null,"TUTU",null,word,,, 'TUTU',
html-keyboard-response,199,20519,null,"DRAWER<img id = ""stim"" ><div class = red_square id = ""topsquare"" ></div><img id = ""stim"" ><div class = red_square  id = ""bottomsquare"" ></div>",null,word_square,0,SPACEBAR,,
html-keyboard-response,200,20536,null,"DRAWER",null,word,,, 'DRAWER',
html-keyboard-response,201,20543,null,"SPARROW<img id = ""stim"" ><div class = green_square id = ""topsquare"" ></div><img id = ""stim"" ><div class = green_square  id = ""bottomsquare"" ></div>",null,word_square,1,SPACEBAR,,
html-keyboard-response,202,20560,null,"SPARROW",null,word,,, 'SPARROW',
html-keyboard-response,203,20567,null,"SICKLE<img id = ""stim"" ><div class = red_square id = ""topsquare"" ></div><img id = ""stim"" ><div class = red_square  id = ""bottomsquare"" ></div>",null,word_square,0,SPACEBAR,,
html-keyboard-response,204,20583,null,"SICKLE",null,word,,, 'SICKLE',
survey-text,205,21050,464.03999999165535,"",,,,,,{"Q0":"3"}
survey-text,206,21927,874.7149999253452,"",,,,,,{"Q0":"3"}
html-keyboard-response,207,22128,200.43999992776662,"<div style=""font-size:48px;"">Press any key to begin list 5 of 24 </div>",51,,,,,
html-keyboard-response,208,22653,null,"<div style=""font-size:60px;"">+</div>",null,,,,,
html-keyboard-response,209,22659,null,"JOINT<img id = ""stim"" ><div class = red_square id = ""topsquare"" ></div><img id = ""stim"" ><div class = red_square  id = ""bottomsquare"" ></div>",null,word_square,0,SPACEBAR,,
html-keyboard-response,210,22675,null,"JOINT",null,word,,, 'JOINT',
html-keyboard-response,211,22682,null,"CREATURE<img id = ""stim"" ><div class = red_square id = ""topsquare"" ></div><img id = ""stim"" ><div class = red_square  id = ""bottomsquare"" ></div>",null,word_square,0,SPACEBAR,,
html-keyboard-response,212,22698,null,"CREATURE",null,word,,, 'CREATURE',
html-keyboard-response,213,22704,null,"SPINACH<img id = ""stim"" ><div class = green_square id = ""topsquare"" ></div><img id = ""stim"" ><div class = green_square  id = ""bottomsquare"" ></div>",null,word_square,1,SPACEBAR,,
html-keyboard-response,214,22720,null,"SPINACH",null,word,,, 'SPINACH',
html-keyboard-response,215,22727,null,"COLONEL<img id = ""stim"" ><div class = green_square id = ""topsquare"" ></div><img id = ""stim"" ><div class = green_square  id = ""bottomsquare"" ></div>",null,word_square,1,SPACEBAR,,
html-keyboard-response,216,22744,null,"COLONEL",null,word,,, 'COLONEL',
html-keyboard-response,217,22751,null,"BEAVER<img id = ""stim"" ><div class = red_square id = ""topsquare"" ></div><img id = ""stim"" ><div class = red_square  id = ""bottomsquare"" ></div>",null,word_square,0,SPACEBAR,,
html-keyboard-response,218,22769,null,"BEAVER",null,word,,, 'BEAVER',
html-keyboard-response,219,22776,null,"SCALLOP<img id = ""stim"" ><div class = red_square id = ""topsquare"" ></div><img id = ""stim"" ><div class = red_square  id = ""bottomsquare"" ></div>",null,word_square,0,SPACEBAR,,
html-keyboard-response,220,22792,null,"SCALLOP",null,word,,, 'SCALLOP',
html-keyboard-response,221,22798,null,"CIRCUS<img id = ""stim"" ><div class = green_square id = ""topsquare"" ></div><img id = ""stim"" ><div class = green_square  id = ""bottomsquare"" ></div>",null,word_square,1,SPACEBAR,,
html-keyboard-response,222,22816,null,"CIRCUS",null,word,,, 'CIRCUS',
html-keyboard-response,223,22822,null,"BOARD<img id = ""stim"" ><div class = green_square id = ""topsquare"" ></div><img id = ""stim"" ><div class = green_square  id = ""bottomsquare"" ></div>",null,word_square,1,SPACEBAR,,
html-keyboard-response,224,22838,null,"BOARD",null,word,,, 'BOARD',
html-keyboard-response,225,22844,null,"BLACKBOARD<img id = ""stim"" ><div class = red_square id = ""topsquare"" ></div><img id = ""stim"" ><div class = red_square  id = ""bottomsquare"" ></div>",null,word_square,0,SPACEBAR,,
html-keyboard-response,226,22861,null,"BLACKBOARD",null,word,,, 'BLACKBOARD',
html-keyboard-response,227,22867,null,"COD<img id = ""stim"" ><div class = green_square id = ""topsquare"" ></div><img id = ""stim"" ><div class = green_square  id = ""bottomsquare"" ></div>",null,word_square,1,SPACEBAR,,
html-keyboard-response,228,22886,null,"COD",null,word,,, 'COD',
html-keyboard-response,229,22893,null,"MARINE<img id = ""stim"" ><div class = red_square id = ""topsquare"" ></div><img id = ""stim"" ><div class = red_square  id = ""bottomsquare"" ></div>",null,word_square,0,SPACEBAR,,
html-keyboard-response,230,22910,null,"MARINE",null,word,,, 'MARINE',
html-keyboard-response,231,22916,null,"GROUND<img id = ""stim"" ><div class = red_square id = ""topsquare"" ></div><img id = ""stim"" ><div class = red_square  id = ""bottomsquare"" ></div>",null,word_square,0,SPACEBAR,,
html-keyboard-response,232,22933,null,"GROUND",null,word,,, 'GROUND',
html-keyboard-response,233,22939,null,"STAPLE<img id = ""stim"" ><div class = green_square id = ""topsquare"" ></div><img id = ""stim"" ><div class = green_square  id = ""bottomsquare"" ></div>",null,word_square,1,SPACEBAR,,
html-keyboard-response,234,22955,null,"STAPLE",null,word,,, 'STAPLE',
html-keyboard-response,235,22961,null,"PICKLE<img id = ""stim"" ><div class = red_square id = ""topsquare"" ></div><img id = ""stim"" ><div class = red_square  id = ""bottomsquare"" ></div>",null,word_square,0,SPACEBAR,,
html-keyboard-response,236,22978,null,"PICKLE",null,word,,, 'PICKLE',
html-keyboard-response,237,22985,null,"STAKE<img id = ""stim"" ><div class = green_square id = ""topsquare"" ></div><img id = ""stim"" ><div class = green_square  id = ""bottomsquare"" ></div>",null,word_square,1,SPACEBAR,,
html-keyboard-response,238,23003,null,"STAKE",null,word,,, 'STAKE',
html-keyboard-response,239,23009,null,"WOMAN<img id = ""stim"" ><div class = green_square id = ""topsquare"" ></div><img id = ""stim"" ><div class = green_square  id = ""bottomsquare"" ></div>",null,word_square,1,SPACEBAR,,
html-keyboard-response,240,23026,null,"WOMAN",null,word,,, 'WOMAN',
html-keyboard-response,241,23033,null,"GIRL<img id = ""stim"" ><div class = red_square id = ""topsquare"" ></div><img id = ""stim"" ><div class = red_square  id = ""bottomsquare"" ></div>",null,word_square,0,SPACEBAR,,
html-keyboard-response,242,23050,null,"GIRL",null,word,,, 'GIRL',
html-keyboard-response,243,23056,null,"OZONE<img id = ""stim"" ><div class = green_square id = ""topsquare"" ></div><img id = ""stim"" ><div class = green_square  id = ""bottomsquare"" ></div>",null,word_square,1,SPACEBAR,,
html-keyboard-response,244,23073,null,"OZONE",null,word,,, 'OZONE',
survey-text,245,23434,358.6300000315532,"",,,,,,{"Q0":"3"}
survey-text,246,24210,773.795000044629,"",,,,,,{"Q0":"3"}
html-keyboard-response,247,24423,212.09499996621162,"<div style=""font-size:48px;"">Press any key to begin list 6 of 24 </div>",51,,,,,
html-keyboard-response,248,24948,null,"<div style=""font-size:60px;"">+</div>",null,,,,,
html-keyboard-response,249,24955,null,"APRON<img id = ""stim"" ><div class = red_square id = ""topsquare"" ></div><img id = ""stim"" ><div class = red_square  id = ""bottomsquare"" ></div>",null,word_square,0,SPACEBAR,,
html-keyboard-response,250,24972,null,"APRON",null,word,,, 'APRON',
html-keyboard-response,251,24979,null,"PASTRY<img id = ""stim"" ><div class = red_square id = ""topsquare"" ></div><img id = ""stim"" ><div class = red_square  id = ""bottomsquare"" ></div>",null,word_square,0,SPACEBAR,,
html-keyboard-response,252,24994,null,"PASTRY",null,word,,, 'PASTRY',
html-keyboard-response,253,25001,null,"GRAVE<img id = ""stim"" ><div class = green_square id = ""topsquare"" ></div><img id = ""stim"" ><div class = green_square  id = ""bottomsquare"" ></div>",null,word_square,1,SPACEBAR,,
html-keyboard-response,254,25019,null,"GRAVE",null,word,,, 'GRAVE',
html-keyboard-response,255,25026,null,"CHAMPAGNE<img id = ""stim"" ><div class = green_square id = ""topsquare"" ></div><img id = ""stim"" ><div class = green_square  id = ""bottomsquare"" ></div>",null,word_square,1,SPACEBAR,,
html-keyboard-response,256,25043,null,"CHAMPAGNE",null,word,,, 'CHAMPAGNE',
html-keyboard-response,257,25050,null,"COFFIN<img id = ""stim"" ><div class = red_square id = ""topsquare"" ></div><img id = ""stim"" ><div class = red_square  id = ""bottomsquare"" ></div>",null,word_square,0,SPACEBAR,,
html-keyboard-response,258,25069,null,"COFFIN",null,word,,, 'COFFIN',
html-keyboard-response,259,25076,null,"FIDDLE<img id = ""stim"" ><div class = red_square id = ""topsquare"" ></div><img id = ""stim"" ><div class = red_square  id = ""bottomsquare"" ></div>",null,word_square,0,SPACEBAR,,
html-keyboard-response,260,25092,null,"FIDDLE",null,word,,, 'FIDDLE',
html-keyboard-response,261,25098,null,"RECORD<img id = ""stim"" ><div class = green_square id = ""topsquare"" ></div><img id = ""stim"" ><div class = green_square  id = ""bottomsquare"" ></div>",null,word_square,1,SPACEBAR,,
html-keyboard-response,262,25115,null,"RECORD",null,word,,, 'RECORD',
html-keyboard-response,263,25121,null,"PLUM<img id = ""stim"" ><div class = green_square id = ""topsquare"" ></div><img id = ""stim"" ><div class = green_square  id = ""bottomsquare"" ></div>",null,word_square,1,SPACEBAR,,
html-keyboard-response,264,25138,null,"PLUM",null,word,,, 'PLUM',
html-keyboard-response,265,25144,null,"BRANCH<img id = ""stim"" ><div class = red_square id = ""topsquare"" ></div><img id = ""stim"" ><div class = red_square  id = ""bottomsquare"" ></div>",null,word_square,0,SPACEBAR,,
html-keyboard-response,266,25161,null,"BRANCH",null,word,,, 'BRANCH',
html-keyboard-response,267,25167,null,"DINER<img id = ""stim"" ><div class = green_square id = ""topsquare"" ></div><img id = ""stim"" ><div class = green_square  id = ""bottomsquare"" ></div>",null,word_square,1,SPACEBAR,,
html-keyboard-response,268,25186,null,"DINER",null,word,,, 'DINER',
html-keyboard-response,269,25192,null,"TOOTHPASTE<img id = ""stim"" ><div class = red_square id = ""topsquare"" ></div><img id = ""stim"" ><div class = red_square  id = ""bottomsquare"" ></div>",null,word_square,0,SPACEBAR,,
html-keyboard-response,270,25209,null,"TOOTHPASTE",null,word,,, 'TOOTHPASTE',
html-keyboard-response,271,25215,null,"CASKET<img id = ""stim"" ><div class = red_square id = ""topsquare"" ></div><img id = ""stim"" ><div class = red_square  id = ""bottomsquare"" ></div>",null,word_square,0,SPACEBAR,,
html-keyboard-response,272,25233,null,"CASKET",null,word,,, 'CASKET',
html-keyboard-response,273,25239,null,"VAGRANT<img id = ""stim"" ><div class = green_square id = ""topsquare"" ></div><img id = ""stim"" ><div class = green_square  id = ""bottomsquare"" ></div>",null,word_square,1,SPACEBAR,,
html-keyboard-response,274,25255,null,"VAGRANT",null,word,,, 'VAGRANT',
html-keyboard-response,275,25261,null,"GRAPE<img id = ""stim"" ><div class = red_square id = ""topsquare"" ></div><img id = ""stim"" ><div class = red_square  id = ""bottomsquare"" ></div>",null,word_square,0,SPACEBAR,,
html-keyboard-response,276,25278,null,"GRAPE",null,word,,, 'GRAPE',
html-keyboard-response,277,25285,null,"PEACH<img id = ""stim"" ><div class = green_square id = ""topsquare"" ></div><img id = ""stim"" ><div class = green_square  id = ""bottomsquare"" ></div>",null,word_square,1,SPACEBAR,,
html-keyboard-response,278,25303,null,"PEACH",null,word,,, 'PEACH',
html-keyboard-response,279,25310,null,"CRICKET<img id = ""stim"" ><div class = green_square id = ""topsquare"" ></div><img id = ""stim"" ><div class = green_square  id = ""bottomsquare"" ></div>",null,word_square,1,SPACEBAR,,
html-keyboard-response,280,25326,null,"CRICKET",null,word,,, 'CRICKET',
html-keyboard-response,281,25333,null,"BUG<img id = ""stim"" ><div class = red_square id = ""topsquare"" ></div><img id = ""stim"" ><div class = red_square  id = ""bottomsquare"" ></div>",null,word_square,0,SPACEBAR,,
html-keyboard-response,282,25349,null,"BUG",null,word,,, 'BUG',
html-keyboard-response,283,25355,null,"FRANCE<img id = ""stim"" ><div class = green_square id = ""topsquare"" ></div><img id = ""stim"" ><div class = green_square  id = ""bottomsquare"" ></div>",null,word_square,1,SPACEBAR,,
html-keyboard-response,284,25371,null,"FRANCE",null,word,,, 'FRANCE',
survey-text,285,25684,310.6250000419095,"",,,,,,{"Q0":"3"}
survey-text,286,26438,751.3350000372157,"",,,,,,{"Q0":"3"}
html-keyboard-response,287,26730,290.7600000035018,"<div style=""font-size:48px;"">Press any key to begin list 7 of 24 </div>",51,,,,,
html-keyboard-response,288,27256,null,"<div style=""font-size:60px;"">+</div>",null,,,,,
html-keyboard-response,289,27262,null,"SPACE<img id = ""stim"" ><div class = green_square id = ""topsquare"" ></div><img id = ""stim"" ><div class = green_square  id = ""bottomsquare"" ></div>",null,word_square,1,SPACEBAR,,
html-keyboard-response,290,27279,null,"SPACE",null,word,,, 'SPACE',
html-keyboard-response,291,27286,null,"TREAT<img id = ""stim"" ><div class = green_square id = ""topsquare"" ></div><img id = ""stim"" ><div class = green_square  id = ""bottomsquare"" ></div>",null,word_square,1,SPACEBAR,,
html-keyboard-response,292,27303,null,"TREAT",null,word,,, 'TREAT',
html-keyboard-response,293,27310,null,"CANDY<img id = ""stim"" ><div class = red_square id = ""topsquare"" ></div><img id = ""stim"" ><div class = red_square  id = ""bottomsquare"" ></div>",null,word_square,0,SPACEBAR,,
html-keyboard-response,294,27326,null,"CANDY",null,word,,, 'CANDY',
html-keyboard-response,295,27333,null,"CONCERT<img id = ""stim"" ><div class = red_square id = ""topsquare"" ></div><img id = ""stim"" ><div class = red_square  id = ""bottomsquare"" ></div>",null,word_square,0,SPACEBAR,,
html-keyboard-response,296,27350,null,"CONCERT",null,word,,, 'CONCERT',
html-keyboard-response,297,27356,null,"WRIST<img id = ""stim"" ><div class = green_square id = ""topsquare"" ></div><img id = ""stim"" ><div class = green_square  id = ""bottomsquare"" ></div>",null,word_square,1,SPACEBAR,,
html-keyboard-response,298,27372,null,"WRIST",null,word,,, 'WRIST',
html-keyboard-response,299,27378,null,"STONE<img id = ""stim"" ><div class = green_square id = ""topsquare"" ></div><img id = ""stim"" ><div class = green_square  id = ""bottomsquare"" ></div>",null,word_square,1,SPACEBAR,,
html-keyboard-response,300,27396,null,"STONE",null,word,,, 'STONE',
html-keyboard-response,301,27402,null,"LAVA<img id = ""stim"" ><div class = red_square id = ""topsquare"" ></div><img id = ""stim"" ><div class = red_square  id = ""bottomsquare"" ></div>",null,word_square,0,SPACEBAR,,
html-keyboard-response,302,27420,null,"LAVA",null,word,,, 'LAVA',
html-keyboard-response,303,27427,null,"ELBOW<img id = ""stim"" ><div class = red_square id = ""topsquare"" ></div><img id = ""stim"" ><div class = red_square  id = ""bottomsquare"" ></div>",null,word_square,0,SPACEBAR,,
html-keyboard-response,304,27444,null,"ELBOW",null,word,,, 'ELBOW',
html-keyboard-response,305,27450,null,"QUAIL<img id = ""stim"" ><div class = green_square id = ""topsquare"" ></div><img id = ""stim"" ><div class = green_square  id = ""bottomsquare"" ></div>",null,word_square,1,SPACEBAR,,
html-keyboard-response,306,27466,null,"QUAIL",null,word,,, 'QUAIL',
html-keyboard-response,307,27472,null,"PISTON<img id = ""stim"" ><div class = red_square id = ""topsquare"" ></div><img id = ""stim"" ><div class = red_square  id = ""bottomsquare"" ></div>",null,word_square,0,SPACEBAR,,
html-keyboard-response,308,27488,null,"PISTON",null,word,,, 'PISTON',
html-keyboard-response,309,27495,null,"PARTY<img id = ""stim"" ><div class = green_square id = ""topsquare"" ></div><img id = ""stim"" ><div class = green_square  id = ""bottomsquare"" ></div>",null,word_square,1,SPACEBAR,,
html-keyboard-response,310,27512,null,"PARTY",null,word,,, 'PARTY',
html-keyboard-response,311,27519,null,"DIAMOND<img id = ""stim"" ><div class = green_square id = ""topsquare"" ></div><img id = ""stim"" ><div class = green_square  id = ""bottomsquare"" ></div>",null,word_square,1,SPACEBAR,,
html-keyboard-response,312,27537,null,"DIAMOND",null,word,,, 'DIAMOND',
html-keyboard-response,313,27543,null,"VENUS<img id = ""stim"" ><div class = red_square id = ""topsquare"" ></div><img id = ""stim"" ><div class = red_square  id = ""bottomsquare"" ></div>",null,word_square,0,SPACEBAR,,
html-keyboard-response,314,27561,null,"VENUS",null,word,,, 'VENUS',
html-keyboard-response,315,27567,null,"BENCH<img id = ""stim"" ><div class = green_square id = ""topsquare"" ></div><img id = ""stim"" ><div class = green_square  id = ""bottomsquare"" ></div>",null,word_square,1,SPACEBAR,,
html-keyboard-response,316,27583,null,"BENCH",null,word,,, 'BENCH',
html-keyboard-response,317,27589,null,"SKETCH<img id = ""stim"" ><div class = red_square id = ""topsquare"" ></div><img id = ""stim"" ><div class = red_square  id = ""bottomsquare"" ></div>",null,word_square,0,SPACEBAR,,
html-keyboard-response,318,27606,null,"SKETCH",null,word,,, 'SKETCH',
html-keyboard-response,319,27612,null,"SCULPTURE<img id = ""stim"" ><div class = red_square id = ""topsquare"" ></div><img id = ""stim"" ><div class = red_square  id = ""bottomsquare"" ></div>",null,word_square,0,SPACEBAR,,
html-keyboard-response,320,27628,null,"SCULPTURE",null,word,,, 'SCULPTURE',
html-keyboard-response,321,27635,null,"HOOD<img id = ""stim"" ><div class = green_square id = ""topsquare"" ></div><img id = ""stim"" ><div class = green_square  id = ""bottomsquare"" ></div>",null,word_square,1,SPACEBAR,,
html-keyboard-response,322,27653,null,"HOOD",null,word,,, 'HOOD',
html-keyboard-response,323,27660,null,"SERPENT<img id = ""stim"" ><div class = red_square id = ""topsquare"" ></div><img id = ""stim"" ><div class = red_square  id = ""bottomsquare"" ></div>",null,word_square,0,SPACEBAR,,
html-keyboard-response,324,27677,null,"SERPENT",null,word,,, 'SERPENT',
survey-text,325,27990,310.8400000492111,"",,,,,,{"Q0":"3"}
survey-text,326,28733,739.3300000112504,"",,,,,,{"Q0":"3"}
survey-text,327,29306,571.0650000255555,"",,,,,,{"Q0":"3"}
html-keyboard-response,328,29655,347.58000005967915,"<div style=""font-size:48px;"">Press any key to begin list 8 of 24 </div>",51,,,,,
html-keyboard-response,329,30177,null,"<div style=""font-size:60px;"">+</div>",null,,,,,
html-keyboard-response,330,30183,null,"STICKER<img id = ""stim"" ><div class = green_square id = ""topsquare"" ></div><img id = ""stim"" ><div class = green_square  id = ""bottomsquare"" ></div>",null,word_square,1,SPACEBAR,,
html-keyboard-response,331,30202,null,"STICKER",null,word,,, 'STICKER',
html-keyboard-response,332,30208,null,"SHELF<img id = ""stim"" ><div class = green_square id = ""topsquare"" ></div><img id = ""stim"" ><div class = green_square  id = ""bottomsquare"" ></div>",null,word_square,1,SPACEBAR,,
html-keyboard-response,333,30224,null,"SHELF",null,word,,, 'SHELF',
html-keyboard-response,334,30231,null,"COUCH<img id = ""stim"" ><div class = red_square id = ""topsquare"" ></div><img id = ""stim"" ><div class = red_square  id = ""bottomsquare"" ></div>",null,word_square,0,SPACEBAR,,
html-keyboard-response,335,30249,null,"COUCH",null,word,,, 'COUCH',
html-keyboard-response,336,30256,null,"PICTURE<img id = ""stim"" ><div class = red_square id = ""topsquare"" ></div><img id = ""stim"" ><div class = red_square  id = ""bottomsquare"" ></div>",null,word_square,0,SPACEBAR,,
html-keyboard-response,337,30272,null,"PICTURE",null,word,,, 'PICTURE',
html-keyboard-response,338,30278,null,"TERMITE<img id = ""stim"" ><div class = green_square id = ""topsquare"" ></div><img id = ""stim"" ><div class = green_square  id = ""bottomsquare"" ></div>",null,word_square,1,SPACEBAR,,
html-keyboard-response,339,30294,null,"TERMITE",null,word,,, 'TERMITE',
html-keyboard-response,340,30301,null,"SPIDER<img id = ""stim"" ><div class = green_square id = ""topsquare"" ></div><img id = ""stim"" ><div class = green_square  id = ""bottomsquare"" ></div>",null,word_square,1,SPACEBAR,,
html-keyboard-response,341,30317,null,"SPIDER",null,word,,, 'SPIDER',
html-keyboard-response,342,30323,null,"COLUMN<img id = ""stim"" ><div class = red_square id = ""topsquare"" ></div><img id = ""stim"" ><div class = red_square  id = ""bottomsquare"" ></div>",null,word_square,0,SPACEBAR,,
html-keyboard-response,343,30339,null,"COLUMN",null,word,,, 'COLUMN',
html-keyboard-response,344,30346,null,"LOFT<img id = ""stim"" ><div class = red_square id = ""topsquare"" ></div><img id = ""stim"" ><div class = red_square  id = ""bottomsquare"" ></div>",null,word_square,0,SPACEBAR,,
html-keyboard-response,345,30361,null,"LOFT",null,word,,, 'LOFT',
html-keyboard-response,346,30368,null,"CHIPMUNK<img id = ""stim"" ><div class = green_square id = ""topsquare"" ></div><img id = ""stim"" ><div class = green_square  id = ""bottomsquare"" ></div>",null,word_square,1,SPACEBAR,,
html-keyboard-response,347,30387,null,"CHIPMUNK",null,word,,, 'CHIPMUNK',
html-keyboard-response,348,30394,null,"BUREAU<img id = ""stim"" ><div class = red_square id = ""topsquare"" ></div><img id = ""stim"" ><div class = red_square  id = ""bottomsquare"" ></div>",null,word_square,0,SPACEBAR,,
html-keyboard-response,349,30410,null,"BUREAU",null,word,,, 'BUREAU',
html-keyboard-response,350,30416,null,"OUTFIT<img id = ""stim"" ><div class = green_square id = ""topsquare"" ></div><img id = ""stim"" ><div class = green_square  id = ""bottomsquare"" ></div>",null,word_square,1,SPACEBAR,,
html-keyboard-response,351,30432,null,"OUTFIT",null,word,,, 'OUTFIT',
html-keyboard-response,352,30439,null,"BEAST<img id = ""stim"" ><div class = green_square id = ""topsquare"" ></div><img id = ""stim"" ><div class = green_square  id = ""bottomsquare"" ></div>",null,word_square,1,SPACEBAR,,
html-keyboard-response,353,30455,null,"BEAST",null,word,,, 'BEAST',
html-keyboard-response,354,30462,null,"LEMON<img id = ""stim"" ><div class = red_square id = ""topsquare"" ></div><img id = ""stim"" ><div class = red_square  id = ""bottomsquare"" ></div>",null,word_square,0,SPACEBAR,,
html-keyboard-response,355,30479,null,"LEMON",null,word,,, 'LEMON',
html-keyboard-response,356,30485,null,"LEAF<img id = ""stim"" ><div class = green_square id = ""topsquare"" ></div><img id = ""stim"" ><div class = green_square  id = ""bottomsquare"" ></div>",null,word_square,1,SPACEBAR,,
html-keyboard-response,357,30503,null,"LEAF",null,word,,, 'LEAF',
html-keyboard-response,358,30510,null,"BRIDE<img id = ""stim"" ><div class = red_square id = ""topsquare"" ></div><img id = ""stim"" ><div class = red_square  id = ""bottomsquare"" ></div>",null,word_square,0,SPACEBAR,,
html-keyboard-response,359,30527,null,"BRIDE",null,word,,, 'BRIDE',
html-keyboard-response,360,30534,null,"CABBAGE<img id = ""stim"" ><div class = red_square id = ""topsquare"" ></div><img id = ""stim"" ><div class = red_square  id = ""bottomsquare"" ></div>",null,word_square,0,SPACEBAR,,
html-keyboard-response,361,30552,null,"CABBAGE",null,word,,, 'CABBAGE',
html-keyboard-response,362,30558,null,"SHOVEL<img id = ""stim"" ><div class = green_square id = ""topsquare"" ></div><img id = ""stim"" ><div class = green_square  id = ""bottomsquare"" ></div>",null,word_square,1,SPACEBAR,,
html-keyboard-response,363,30575,null,"SHOVEL",null,word,,, 'SHOVEL',
html-keyboard-response,364,30582,null,"AGENT<img id = ""stim"" ><div class = red_square id = ""topsquare"" ></div><img id = ""stim"" ><div class = red_square  id = ""bottomsquare"" ></div>",null,word_square,0,SPACEBAR,,
html-keyboard-response,365,30597,null,"AGENT",null,word,,, 'AGENT',
survey-text,366,30949,349.90999998990446,"",,,,,,{"Q0":"4"}
survey-text,367,31794,841.4999999804422,"",,,,,,{"Q0":"4"}
html-keyboard-response,368,32108,312.62999994214624,"<div style=""font-size:48px;"">Press any key to begin list 9 of 24 </div>",52,,,,,
html-keyboard-response,369,32630,null,"<div style=""font-size:60px;"">+</div>",null,,,,,
html-keyboard-response,370,32636,null,"WINGS<img id = ""stim"" ><div class = red_square id = ""topsquare"" ></div><img id = ""stim"" ><div class = red_square  id = ""bottomsquare"" ></div>",null,word_square,0,SPACEBAR,,
html-keyboard-response,371,32655,null,"WINGS",null,word,,, 'WINGS',
html-keyboard-response,372,32662,null,"HANDCUFFS<img id = ""stim"" ><div class = green_square id = ""topsquare"" ></div><img id = ""stim"" ><div class = green_square  id = ""bottomsquare"" ></div>",null,word_square,1,SPACEBAR,,
html-keyboard-response,373,32678,null,"HANDCUFFS",null,word,,, 'HANDCUFFS',
html-keyboard-response,374,32685,null,"ROBIN<img id = ""stim"" ><div class = green_square id = ""topsquare"" ></div><img id = ""stim"" ><div class = green_square  id = ""bottomsquare"" ></div>",null,word_square,1,SPACEBAR,,
html-keyboard-response,375,32702,null,"ROBIN",null,word,,, 'ROBIN',
html-keyboard-response,376,32708,null,"CONVENT<img id = ""stim"" ><div class = red_square id = ""topsquare"" ></div><img id = ""stim"" ><div class = red_square  id = ""bottomsquare"" ></div>",null,word_square,0,SPACEBAR,,
html-keyboard-response,377,32724,null,"CONVENT",null,word,,, 'CONVENT',
html-keyboard-response,378,32730,null,"APPLE<img id = ""stim"" ><div class = red_square id = ""topsquare"" ></div><img id = ""stim"" ><div class = red_square  id = ""bottomsquare"" ></div>",null,word_square,0,SPACEBAR,,
html-keyboard-response,379,32747,null,"APPLE",null,word,,, 'APPLE',
html-keyboard-response,380,32753,null,"BEEF<img id = ""stim"" ><div class = green_square id = ""topsquare"" ></div><img id = ""stim"" ><div class = green_square  id = ""bottomsquare"" ></div>",null,word_square,1,SPACEBAR,,
html-keyboard-response,381,32772,null,"BEEF",null,word,,, 'BEEF',
html-keyboard-response,382,32779,null,"FLEET<img id = ""stim"" ><div class = green_square id = ""topsquare"" ></div><img id = ""stim"" ><div class = green_square  id = ""bottomsquare"" ></div>",null,word_square,1,SPACEBAR,,
html-keyboard-response,383,32795,null,"FLEET",null,word,,, 'FLEET',
html-keyboard-response,384,32802,null,"FIREPLACE<img id = ""stim"" ><div class = red_square id = ""topsquare"" ></div><img id = ""stim"" ><div class = red_square  id = ""bottomsquare"" ></div>",null,word_square,0,SPACEBAR,,
html-keyboard-response,385,32820,null,"FIREPLACE",null,word,,, 'FIREPLACE',
html-keyboard-response,386,32827,null,"PIZZA<img id = ""stim"" ><div class = red_square id = ""topsquare"" ></div><img id = ""stim"" ><div class = red_square  id = ""bottomsquare"" ></div>",null,word_square,0,SPACEBAR,,
html-keyboard-response,387,32843,null,"PIZZA",null,word,,, 'PIZZA',
html-keyboard-response,388,32850,null,"BANQUET<img id = ""stim"" ><div class = green_square id = ""topsquare"" ></div><img id = ""stim"" ><div class = green_square  id = ""bottomsquare"" ></div>",null,word_square,1,SPACEBAR,,
html-keyboard-response,389,32868,null,"BANQUET",null,word,,, 'BANQUET',
html-keyboard-response,390,32874,null,"POISON<img id = ""stim"" ><div class = red_square id = ""topsquare"" ></div><img id = ""stim"" ><div class = red_square  id = ""bottomsquare"" ></div>",null,word_square,0,SPACEBAR,,
html-keyboard-response,391,32891,null,"POISON",null,word,,, 'POISON',
html-keyboard-response,392,32898,null,"ATLAS<img id = ""stim"" ><div class = green_square id = ""topsquare"" ></div><img id = ""stim"" ><div class = green_square  id = ""bottomsquare"" ></div>",null,word_square,1,SPACEBAR,,
html-keyboard-response,393,32914,null,"ATLAS",null,word,,, 'ATLAS',
html-keyboard-response,394,32920,null,"WORLD<img id = ""stim"" ><div class = red_square id = ""topsquare"" ></div><img id = ""stim"" ><div class = red_square  id = ""bottomsquare"" ></div>",null,word_square,0,SPACEBAR,,
html-keyboard-response,395,32939,null,"WORLD",null,word,,, 'WORLD',
html-keyboard-response,396,32945,null,"FRIES<img id = ""stim"" ><div class = red_square id = ""topsquare"" ></div><img id = ""stim"" ><div class = red_square  id = ""bottomsquare"" ></div>",null,word_square,0,SPACEBAR,,
html-keyboard-response,397,32960,null,"FRIES",null,word,,, 'FRIES',
html-keyboard-response,398,32967,null,"CRAB<img id = ""stim"" ><div class = green_square id = ""topsquare"" ></div><img id = ""stim"" ><div class = green_square  id = ""bottomsquare"" ></div>",null,word_square,1,SPACEBAR,,
html-keyboard-response,399,32985,null,"CRAB",null,word,,, 'CRAB',
html-keyboard-response,400,32991,null,"MESSAGE<img id = ""stim"" ><div class = green_square id = ""topsquare"" ></div><img id = ""stim"" ><div class = green_square  id = ""bottomsquare"" ></div>",null,word_square,1,SPACEBAR,,
html-keyboard-response,401,33008,null,"MESSAGE",null,word,,, 'MESSAGE',
html-keyboard-response,402,33014,null,"PIGEON<img id = ""stim"" ><div class = red_square id = ""topsquare"" ></div><img id = ""stim"" ><div class = red_square  id = ""bottomsquare"" ></div>",null,word_square,0,SPACEBAR,,
html-keyboard-response,403,33030,null,"PIGEON",null,word,,, 'PIGEON',
html-keyboard-response,404,33037,null,"CABIN<img id = ""stim"" ><div class = green_square id = ""topsquare"" ></div><img id = ""stim"" ><div class = green_square  id = ""bottomsquare"" ></div>",null,word_square,1,SPACEBAR,,
html-keyboard-response,405,33055,null,"CABIN",null,word,,, 'CABIN',
survey-text,406,33469,411.1800000537187,"",,,,,,{"Q0":"2"}
survey-text,407,34313,841.1199999973178,"",,,,,,{"Q0":"2"}
html-keyboard-response,408,34639,324.6499999659136,"<div style=""font-size:48px;"">Press any key to begin list 10 of 24 </div>",50,,,,,
html-keyboard-response,409,35163,null,"<div style=""font-size:60px;"">+</div>",null,,,,,
html-keyboard-response,410,35169,null,"CLAM<img id = ""stim"" ><div class = red_square id = ""topsquare"" ></div><img id = ""stim"" ><div class = red_square  id = ""bottomsquare"" ></div>",null,word_square,0,SPACEBAR,,
html-keyboard-response,411,35187,null,"CLAM",null,word,,, 'CLAM',
html-keyboard-response,412,35194,null,"STATUE<img id = ""stim"" ><div class = green_square id = ""topsquare"" ></div><img id = ""stim"" ><div class = green_square  id = ""bottomsquare"" ></div>",null,word_square,1,SPACEBAR,,
html-keyboard-response,413,35211,null,"STATUE",null,word,,, 'STATUE',
html-keyboard-response,414,35216,null,"SMOG<img id = ""stim"" ><div class = green_square id = ""topsquare"" ></div><img id = ""stim"" ><div class = green_square  id = ""bottomsquare"" ></div>",null,word_square,1,SPACEBAR,,
html-keyboard-response,415,35232,null,"SMOG",null,word,,, 'SMOG',
html-keyboard-response,416,35239,null,"DRIVER<img id = ""stim"" ><div class = red_square id = ""topsquare"" ></div><img id = ""stim"" ><div class = red_square  id = ""bottomsquare"" ></div>",null,word_square,0,SPACEBAR,,
html-keyboard-response,417,35255,null,"DRIVER",null,word,,, 'DRIVER',
html-keyboard-response,418,35262,null,"SUGAR<img id = ""stim"" ><div class = red_square id = ""topsquare"" ></div><img id = ""stim"" ><div class = red_square  id = ""bottomsquare"" ></div>",null,word_square,0,SPACEBAR,,
html-keyboard-response,419,35279,null,"SUGAR",null,word,,, 'SUGAR',
html-keyboard-response,420,35285,null,"LANDSCAPE<img id = ""stim"" ><div class = green_square id = ""topsquare"" ></div><img id = ""stim"" ><div class = green_square  id = ""bottomsquare"" ></div>",null,word_square,1,SPACEBAR,,
html-keyboard-response,421,35302,null,"LANDSCAPE",null,word,,, 'LANDSCAPE',
html-keyboard-response,422,35308,null,"ELK<img id = ""stim"" ><div class = green_square id = ""topsquare"" ></div><img id = ""stim"" ><div class = green_square  id = ""bottomsquare"" ></div>",null,word_square,1,SPACEBAR,,
html-keyboard-response,423,35324,null,"ELK",null,word,,, 'ELK',
html-keyboard-response,424,35331,null,"CHAUFFEUR<img id = ""stim"" ><div class = red_square id = ""topsquare"" ></div><img id = ""stim"" ><div class = red_square  id = ""bottomsquare"" ></div>",null,word_square,0,SPACEBAR,,
html-keyboard-response,425,35348,null,"CHAUFFEUR",null,word,,, 'CHAUFFEUR',
html-keyboard-response,426,35354,null,"OX<img id = ""stim"" ><div class = red_square id = ""topsquare"" ></div><img id = ""stim"" ><div class = red_square  id = ""bottomsquare"" ></div>",null,word_square,0,SPACEBAR,,
html-keyboard-response,427,35371,null,"OX",null,word,,, 'OX',
html-keyboard-response,428,35377,null,"SADDLE<img id = ""stim"" ><div class = green_square id = ""topsquare"" ></div><img id = ""stim"" ><div class = green_square  id = ""bottomsquare"" ></div>",null,word_square,1,SPACEBAR,,
html-keyboard-response,429,35393,null,"SADDLE",null,word,,, 'SADDLE',
html-keyboard-response,430,35399,null,"SNAIL<img id = ""stim"" ><div class = red_square id = ""topsquare"" ></div><img id = ""stim"" ><div class = red_square  id = ""bottomsquare"" ></div>",null,word_square,0,SPACEBAR,,
html-keyboard-response,431,35417,null,"SNAIL",null,word,,, 'SNAIL',
html-keyboard-response,432,35423,null,"BADGE<img id = ""stim"" ><div class = green_square id = ""topsquare"" ></div><img id = ""stim"" ><div class = green_square  id = ""bottomsquare"" ></div>",null,word_square,1,SPACEBAR,,
html-keyboard-response,433,35440,null,"BADGE",null,word,,, 'BADGE',
html-keyboard-response,434,35447,null,"GRAVEL<img id = ""stim"" ><div class = red_square id = ""topsquare"" ></div><img id = ""stim"" ><div class = red_square  id = ""bottomsquare"" ></div>",null,word_square,0,SPACEBAR,,
html-keyboard-response,435,35463,null,"GRAVEL",null,word,,, 'GRAVEL',
html-keyboard-response,436,35470,null,"WASP<img id = ""stim"" ><div class = red_square id = ""topsquare"" ></div><img id = ""stim"" ><div class = red_square  id = ""bottomsquare"" ></div>",null,word_square,0,SPACEBAR,,
html-keyboard-response,437,35489,null,"WASP",null,word,,, 'WASP',
html-keyboard-response,438,35496,null,"HONEY<img id = ""stim"" ><div class = green_square id = ""topsquare"" ></div><img id = ""stim"" ><div class = green_square  id = ""bottomsquare"" ></div>",null,word_square,1,SPACEBAR,,
html-keyboard-response,439,35513,null,"HONEY",null,word,,, 'HONEY',
html-keyboard-response,440,35519,null,"DUST<img id = ""stim"" ><div class = green_square id = ""topsquare"" ></div><img id = ""stim"" ><div class = green_square  id = ""bottomsquare"" ></div>",null,word_square,1,SPACEBAR,,
html-keyboard-response,441,35537,null,"DUST",null,word,,, 'DUST',
html-keyboard-response,442,35543,null,"WARDROBE<img id = ""stim"" ><div class = red_square id = ""topsquare"" ></div><img id = ""stim"" ><div class = red_square  id = ""bottomsquare"" ></div>",null,word_square,0,SPACEBAR,,
html-keyboard-response,443,35559,null,"WARDROBE",null,word,,, 'WARDROBE',
html-keyboard-response,444,35565,null,"COSTUME<img id = ""stim"" ><div class = green_square id = ""topsquare"" ></div><img id = ""stim"" ><div class = green_square  id = ""bottomsquare"" ></div>",null,word_square,1,SPACEBAR,,
html-keyboard-response,445,35582,null,"COSTUME",null,word,,, 'COSTUME',
survey-text,446,35922,337.7200000686571,"",,,,,,{"Q0":"2"}
survey-text,447,36619,694.5449999766424,"",,,,,,{"Q0":"2"}
survey-text,448,37148,526.3050000648946,"",,,,,,{"Q0":"2"}
html-keyboard-response,449,37361,211.9599999859929,"<div style=""font-size:48px;"">Press any key to begin list 11 of 24 </div>",50,,,,,
html-keyboard-response,450,37888,null,"<div style=""font-size:60px;"">+</div>",null,,,,,
html-keyboard-response,451,37894,null,"BRIEFCASE<img id = ""stim"" ><div class = green_square id = ""topsquare"" ></div><img id = ""stim"" ><div class = green_square  id = ""bottomsquare"" ></div>",null,word_square,1,SPACEBAR,,
html-keyboard-response,452,37910,null,"BRIEFCASE",null,word,,, 'BRIEFCASE',
html-keyboard-response,453,37917,null,"FIGHTER<img id = ""stim"" ><div class = red_square id = ""topsquare"" ></div><img id = ""stim"" ><div class = red_square  id = ""bottomsquare"" ></div>",null,word_square,0,SPACEBAR,,
html-keyboard-response,454,37935,null,"FIGHTER",null,word,,, 'FIGHTER',
html-keyboard-response,455,37941,null,"SISTER<img id = ""stim"" ><div class = red_square id = ""topsquare"" ></div><img id = ""stim"" ><div class = red_square  id = ""bottomsquare"" ></div>",null,word_square,0,SPACEBAR,,
html-keyboard-response,456,37957,null,"SISTER",null,word,,, 'SISTER',
html-keyboard-response,457,37965,null,"TRUMPET<img id = ""stim"" ><div class = green_square id = ""topsquare"" ></div><img id = ""stim"" ><div class = green_square  id = ""bottomsquare"" ></div>",null,word_square,1,SPACEBAR,,
html-keyboard-response,458,37981,null,"TRUMPET",null,word,,, 'TRUMPET',
html-keyboard-response,459,37987,null,"STUMP<img id = ""stim"" ><div class = green_square id = ""topsquare"" ></div><img id = ""stim"" ><div class = green_square  id = ""bottomsquare"" ></div>",null,word_square,1,SPACEBAR,,
html-keyboard-response,460,38004,null,"STUMP",null,word,,, 'STUMP',
html-keyboard-response,461,38010,null,"PASTA<img id = ""stim"" ><div class = red_square id = ""topsquare"" ></div><img id = ""stim"" ><div class = red_square  id = ""bottomsquare"" ></div>",null,word_square,0,SPACEBAR,,
html-keyboard-response,462,38027,null,"PASTA",null,word,,, 'PASTA',
html-keyboard-response,463,38034,null,"GARLIC<img id = ""stim"" ><div class = red_square id = ""topsquare"" ></div><img id = ""stim"" ><div class = red_square  id = ""bottomsquare"" ></div>",null,word_square,0,SPACEBAR,,
html-keyboard-response,464,38051,null,"GARLIC",null,word,,, 'GARLIC',
html-keyboard-response,465,38057,null,"COTTAGE<img id = ""stim"" ><div class = green_square id = ""topsquare"" ></div><img id = ""stim"" ><div class = green_square  id = ""bottomsquare"" ></div>",null,word_square,1,SPACEBAR,,
html-keyboard-response,466,38074,null,"COTTAGE",null,word,,, 'COTTAGE',
html-keyboard-response,467,38080,null,"PICNIC<img id = ""stim"" ><div class = green_square id = ""topsquare"" ></div><img id = ""stim"" ><div class = green_square  id = ""bottomsquare"" ></div>",null,word_square,1,SPACEBAR,,
html-keyboard-response,468,38097,null,"PICNIC",null,word,,, 'PICNIC',
html-keyboard-response,469,38104,null,"NECKLACE<img id = ""stim"" ><div class = red_square id = ""topsquare"" ></div><img id = ""stim"" ><div class = red_square  id = ""bottomsquare"" ></div>",null,word_square,0,SPACEBAR,,
html-keyboard-response,470,38121,null,"NECKLACE",null,word,,, 'NECKLACE',
html-keyboard-response,471,38127,null,"STRING<img id = ""stim"" ><div class = green_square id = ""topsquare"" ></div><img id = ""stim"" ><div class = green_square  id = ""bottomsquare"" ></div>",null,word_square,1,SPACEBAR,,
html-keyboard-response,472,38143,null,"STRING",null,word,,, 'STRING',
html-keyboard-response,473,38149,null,"TOURIST<img id = ""stim"" ><div class = red_square id = ""topsquare"" ></div><img id = ""stim"" ><div class = red_square  id = ""bottomsquare"" ></div>",null,word_square,0,SPACEBAR,,
html-keyboard-response,474,38166,null,"TOURIST",null,word,,, 'TOURIST',
html-keyboard-response,475,38172,null,"FINGER<img id = ""stim"" ><div class = green_square id = ""topsquare"" ></div><img id = ""stim"" ><div class = green_square  id = ""bottomsquare"" ></div>",null,word_square,1,SPACEBAR,,
html-keyboard-response,476,38190,null,"FINGER",null,word,,, 'FINGER',
html-keyboard-response,477,38197,null,"HAND<img id = ""stim"" ><div class = green_square id = ""topsquare"" ></div><img id = ""stim"" ><div class = green_square  id = ""bottomsquare"" ></div>",null,word_square,1,SPACEBAR,,
html-keyboard-response,478,38214,null,"HAND",null,word,,, 'HAND',
html-keyboard-response,479,38220,null,"DANDRUFF<img id = ""stim"" ><div class = red_square id = ""topsquare"" ></div><img id = ""stim"" ><div class = red_square  id = ""bottomsquare"" ></div>",null,word_square,0,SPACEBAR,,
html-keyboard-response,480,38238,null,"DANDRUFF",null,word,,, 'DANDRUFF',
html-keyboard-response,481,38244,null,"SUITCASE<img id = ""stim"" ><div class = red_square id = ""topsquare"" ></div><img id = ""stim"" ><div class = red_square  id = ""bottomsquare"" ></div>",null,word_square,0,SPACEBAR,,
html-keyboard-response,482,38260,null,"SUITCASE",null,word,,, 'SUITCASE',
html-keyboard-response,483,38267,null,"MONEY<img id = ""stim"" ><div class = green_square id = ""topsquare"" ></div><img id = ""stim"" ><div class = green_square  id = ""bottomsquare"" ></div>",null,word_square,1,SPACEBAR,,
html-keyboard-response,484,38283,null,"MONEY",null,word,,, 'MONEY',
html-keyboard-response,485,38290,null,"CRIB<img id = ""stim"" ><div class = red_square id = ""topsquare"" ></div><img id = ""stim"" ><div class = red_square  id = ""bottomsquare"" ></div>",null,word_square,0,SPACEBAR,,
html-keyboard-response,486,38307,null,"CRIB",null,word,,, 'CRIB',
survey-text,487,38734,424.99500000849366,"",,,,,,{"Q0":"2"}
survey-text,488,39837,1100.014999974519,"",,,,,,{"Q0":"2"}
html-keyboard-response,489,40129,290.8800001023337,"<div style=""font-size:48px;"">Press any key to begin list 12 of 24 </div>",50,,,,,
html-keyboard-response,490,40655,null,"<div style=""font-size:60px;"">+</div>",null,,,,,
html-keyboard-response,491,40662,null,"TEMPLE<img id = ""stim"" ><div class = green_square id = ""topsquare"" ></div><img id = ""stim"" ><div class = green_square  id = ""bottomsquare"" ></div>",null,word_square,1,SPACEBAR,,
html-keyboard-response,492,40677,null,"TEMPLE",null,word,,, 'TEMPLE',
html-keyboard-response,493,40683,null,"BARLEY<img id = ""stim"" ><div class = red_square id = ""topsquare"" ></div><img id = ""stim"" ><div class = red_square  id = ""bottomsquare"" ></div>",null,word_square,0,SPACEBAR,,
html-keyboard-response,494,40699,null,"BARLEY",null,word,,, 'BARLEY',
html-keyboard-response,495,40706,null,"GERM<img id = ""stim"" ><div class = red_square id = ""topsquare"" ></div><img id = ""stim"" ><div class = red_square  id = ""bottomsquare"" ></div>",null,word_square,0,SPACEBAR,,
html-keyboard-response,496,40723,null,"GERM",null,word,,, 'GERM',
html-keyboard-response,497,40730,null,"RATTLE<img id = ""stim"" ><div class = green_square id = ""topsquare"" ></div><img id = ""stim"" ><div class = green_square  id = ""bottomsquare"" ></div>",null,word_square,1,SPACEBAR,,
html-keyboard-response,498,40746,null,"RATTLE",null,word,,, 'RATTLE',
html-keyboard-response,499,40752,null,"FOSSIL<img id = ""stim"" ><div class = green_square id = ""topsquare"" ></div><img id = ""stim"" ><div class = green_square  id = ""bottomsquare"" ></div>",null,word_square,1,SPACEBAR,,
html-keyboard-response,500,40768,null,"FOSSIL",null,word,,, 'FOSSIL',
html-keyboard-response,501,40774,null,"VELVET<img id = ""stim"" ><div class = red_square id = ""topsquare"" ></div><img id = ""stim"" ><div class = red_square  id = ""bottomsquare"" ></div>",null,word_square,0,SPACEBAR,,
html-keyboard-response,502,40791,null,"VELVET",null,word,,, 'VELVET',
html-keyboard-response,503,40798,null,"SILK<img id = ""stim"" ><div class = red_square id = ""topsquare"" ></div><img id = ""stim"" ><div class = red_square  id = ""bottomsquare"" ></div>",null,word_square,0,SPACEBAR,,
html-keyboard-response,504,40815,null,"SILK",null,word,,, 'SILK',
html-keyboard-response,505,40821,null,"TAXI<img id = ""stim"" ><div class = green_square id = ""topsquare"" ></div><img id = ""stim"" ><div class = green_square  id = ""bottomsquare"" ></div>",null,word_square,1,SPACEBAR,,
html-keyboard-response,506,40838,null,"TAXI",null,word,,, 'TAXI',
html-keyboard-response,507,40845,null,"AIRPORT<img id = ""stim"" ><div class = green_square id = ""topsquare"" ></div><img id = ""stim"" ><div class = green_square  id = ""bottomsquare"" ></div>",null,word_square,1,SPACEBAR,,
html-keyboard-response,508,40861,null,"AIRPORT",null,word,,, 'AIRPORT',
html-keyboard-response,509,40867,null,"PORCH<img id = ""stim"" ><div class = red_square id = ""topsquare"" ></div><img id = ""stim"" ><div class = red_square  id = ""bottomsquare"" ></div>",null,word_square,0,SPACEBAR,,
html-keyboard-response,510,40884,null,"PORCH",null,word,,, 'PORCH',
html-keyboard-response,511,40889,null,"HORSE<img id = ""stim"" ><div class = green_square id = ""topsquare"" ></div><img id = ""stim"" ><div class = green_square  id = ""bottomsquare"" ></div>",null,word_square,1,SPACEBAR,,
html-keyboard-response,512,40907,null,"HORSE",null,word,,, 'HORSE',
html-keyboard-response,513,40914,null,"CASHEW<img id = ""stim"" ><div class = red_square id = ""topsquare"" ></div><img id = ""stim"" ><div class = red_square  id = ""bottomsquare"" ></div>",null,word_square,0,SPACEBAR,,
html-keyboard-response,514,40931,null,"CASHEW",null,word,,, 'CASHEW',
html-keyboard-response,515,40938,null,"FRIAR<img id = ""stim"" ><div class = green_square id = ""topsquare"" ></div><img id = ""stim"" ><div class = green_square  id = ""bottomsquare"" ></div>",null,word_square,1,SPACEBAR,,
html-keyboard-response,516,40955,null,"FRIAR",null,word,,, 'FRIAR',
html-keyboard-response,517,40961,null,"LONDON<img id = ""stim"" ><div class = green_square id = ""topsquare"" ></div><img id = ""stim"" ><div class = green_square  id = ""bottomsquare"" ></div>",null,word_square,1,SPACEBAR,,
html-keyboard-response,518,40977,null,"LONDON",null,word,,, 'LONDON',
html-keyboard-response,519,40983,null,"ASIA<img id = ""stim"" ><div class = red_square id = ""topsquare"" ></div><img id = ""stim"" ><div class = red_square  id = ""bottomsquare"" ></div>",null,word_square,0,SPACEBAR,,
html-keyboard-response,520,41000,null,"ASIA",null,word,,, 'ASIA',
html-keyboard-response,521,41007,null,"UMPIRE<img id = ""stim"" ><div class = red_square id = ""topsquare"" ></div><img id = ""stim"" ><div class = red_square  id = ""bottomsquare"" ></div>",null,word_square,0,SPACEBAR,,
html-keyboard-response,522,41023,null,"UMPIRE",null,word,,, 'UMPIRE',
html-keyboard-response,523,41030,null,"SHOELACE<img id = ""stim"" ><div class = green_square id = ""topsquare"" ></div><img id = ""stim"" ><div class = green_square  id = ""bottomsquare"" ></div>",null,word_square,1,SPACEBAR,,
html-keyboard-response,524,41047,null,"SHOELACE",null,word,,, 'SHOELACE',
html-keyboard-response,525,41054,null,"COBRA<img id = ""stim"" ><div class = red_square id = ""topsquare"" ></div><img id = ""stim"" ><div class = red_square  id = ""bottomsquare"" ></div>",null,word_square,0,SPACEBAR,,
html-keyboard-response,526,41073,null,"COBRA",null,word,,, 'COBRA',
survey-text,527,41423,347.18500007875264,"",,,,,,{"Q0":"2"}
survey-text,528,42481,1055.140000069514,"",,,,,,{"Q0":"2"}
html-keyboard-response,529,42818,335.2500000037253,"<div style=""font-size:48px;"">Press any key to begin list 13 of 24 </div>",50,,,,,
html-keyboard-response,530,43344,null,"<div style=""font-size:60px;"">+</div>",null,,,,,
html-keyboard-response,531,43351,null,"FIST<img id = ""stim"" ><div class = red_square id = ""topsquare"" ></div><img id = ""stim"" ><div class = red_square  id = ""bottomsquare"" ></div>",null,word_square,0,SPACEBAR,,
html-keyboard-response,532,43367,null,"FIST",null,word,,, 'FIST',
html-keyboard-response,533,43374,null,"SOLDIER<img id = ""stim"" ><div class = red_square id = ""topsquare"" ></div><img id = ""stim"" ><div class = red_square  id = ""bottomsquare"" ></div>",null,word_square,0,SPACEBAR,,
html-keyboard-response,534,43390,null,"SOLDIER",null,word,,, 'SOLDIER',
html-keyboard-response,535,43396,null,"GLOBE<img id = ""stim"" ><div class = green_square id = ""topsquare"" ></div><img id = ""stim"" ><div class = green_square  id = ""bottomsquare"" ></div>",null,word_square,1,SPACEBAR,,
html-keyboard-response,536,43412,null,"GLOBE",null,word,,, 'GLOBE',
html-keyboard-response,537,43419,null,"HAYSTACK<img id = ""stim"" ><div class = red_square id = ""topsquare"" ></div><img id = ""stim"" ><div class = red_square  id = ""bottomsquare"" ></div>",null,word_square,0,SPACEBAR,,
html-keyboard-response,538,43435,null,"HAYSTACK",null,word,,, 'HAYSTACK',
html-keyboard-response,539,43442,null,"THIMBLE<img id = ""stim"" ><div class = green_square id = ""topsquare"" ></div><img id = ""stim"" ><div class = green_square  id = ""bottomsquare"" ></div>",null,word_square,1,SPACEBAR,,
html-keyboard-response,540,43458,null,"THIMBLE",null,word,,, 'THIMBLE',
html-keyboard-response,541,43465,null,"DOORBELL<img id = ""stim"" ><div class = green_square id = ""topsquare"" ></div><img id = ""stim"" ><div class = green_square  id = ""bottomsquare"" ></div>",null,word_square,1,SPACEBAR,,
html-keyboard-response,542,43481,null,"DOORBELL",null,word,,, 'DOORBELL',
html-keyboard-response,543,43488,null,"MILDEW<img id = ""stim"" ><div class = green_square id = ""topsquare"" ></div><img id = ""stim"" ><div class = green_square  id = ""bottomsquare"" ></div>",null,word_square,1,SPACEBAR,,
html-keyboard-response,544,43505,null,"MILDEW",null,word,,, 'MILDEW',
html-keyboard-response,545,43511,null,"SHACK<img id = ""stim"" ><div class = red_square id = ""topsquare"" ></div><img id = ""stim"" ><div class = red_square  id = ""bottomsquare"" ></div>",null,word_square,0,SPACEBAR,,
html-keyboard-response,546,43527,null,"SHACK",null,word,,, 'SHACK',
html-keyboard-response,547,43534,null,"REPTILE<img id = ""stim"" ><div class = red_square id = ""topsquare"" ></div><img id = ""stim"" ><div class = red_square  id = ""bottomsquare"" ></div>",null,word_square,0,SPACEBAR,,
html-keyboard-response,548,43551,null,"REPTILE",null,word,,, 'REPTILE',
html-keyboard-response,549,43557,null,"KNUCKLE<img id = ""stim"" ><div class = green_square id = ""topsquare"" ></div><img id = ""stim"" ><div class = green_square  id = ""bottomsquare"" ></div>",null,word_square,1,SPACEBAR,,
html-keyboard-response,550,43575,null,"KNUCKLE",null,word,,, 'KNUCKLE',
html-keyboard-response,551,43582,null,"RAILROAD<img id = ""stim"" ><div class = red_square id = ""topsquare"" ></div><img id = ""stim"" ><div class = red_square  id = ""bottomsquare"" ></div>",null,word_square,0,SPACEBAR,,
html-keyboard-response,552,43599,null,"RAILROAD",null,word,,, 'RAILROAD',
html-keyboard-response,553,43605,null,"FEAST<img id = ""stim"" ><div class = green_square id = ""topsquare"" ></div><img id = ""stim"" ><div class = green_square  id = ""bottomsquare"" ></div>",null,word_square,1,SPACEBAR,,
html-keyboard-response,554,43622,null,"FEAST",null,word,,, 'FEAST',
html-keyboard-response,555,43628,null,"GIFT<img id = ""stim"" ><div class = red_square id = ""topsquare"" ></div><img id = ""stim"" ><div class = red_square  id = ""bottomsquare"" ></div>",null,word_square,0,SPACEBAR,,
html-keyboard-response,556,43644,null,"GIFT",null,word,,, 'GIFT',
html-keyboard-response,557,43650,null,"CRYSTAL<img id = ""stim"" ><div class = red_square id = ""topsquare"" ></div><img id = ""stim"" ><div class = red_square  id = ""bottomsquare"" ></div>",null,word_square,0,SPACEBAR,,
html-keyboard-response,558,43667,null,"CRYSTAL",null,word,,, 'CRYSTAL',
html-keyboard-response,559,43674,null,"BROOK<img id = ""stim"" ><div class = green_square id = ""topsquare"" ></div><img id = ""stim"" ><div class = green_square  id = ""bottomsquare"" ></div>",null,word_square,1,SPACEBAR,,
html-keyboard-response,560,43692,null,"BROOK",null,word,,, 'BROOK',
html-keyboard-response,561,43698,null,"SLEEVE<img id = ""stim"" ><div class = red_square id = ""topsquare"" ></div><img id = ""stim"" ><div class = red_square  id = ""bottomsquare"" ></div>",null,word_square,0,SPACEBAR,,
html-keyboard-response,562,43715,null,"SLEEVE",null,word,,, 'SLEEVE',
html-keyboard-response,563,43721,null,"JACKET<img id = ""stim"" ><div class = green_square id = ""topsquare"" ></div><img id = ""stim"" ><div class = green_square  id = ""bottomsquare"" ></div>",null,word_square,1,SPACEBAR,,
html-keyboard-response,564,43738,null,"JACKET",null,word,,, 'JACKET',
html-keyboard-response,565,43744,null,"CABOOSE<img id = ""stim"" ><div class = green_square id = ""topsquare"" ></div><img id = ""stim"" ><div class = green_square  id = ""bottomsquare"" ></div>",null,word_square,1,SPACEBAR,,
html-keyboard-response,566,43760,null,"CABOOSE",null,word,,, 'CABOOSE',
survey-text,567,44134,371.44499993883073,"",,,,,,{"Q0":"2"}
survey-text,568,45035,898.0600000359118,"",,,,,,{"Q0":"2"}
html-keyboard-response,569,45315,278.72499998193234,"<div style=""font-size:48px;"">Press any key to begin list 14 of 24 </div>",50,,,,,
html-keyboard-response,570,45840,null,"<div style=""font-size:60px;"">+</div>",null,,,,,
html-keyboard-response,571,45847,null,"SAUSAGE<img id = ""stim"" ><div class = red_square id = ""topsquare"" ></div><img id = ""stim"" ><div class = red_square  id = ""bottomsquare"" ></div>",null,word_square,0,SPACEBAR,,
html-keyboard-response,572,45863,null,"SAUSAGE",null,word,,, 'SAUSAGE',
html-keyboard-response,573,45870,null,"WINDSHIELD<img id = ""stim"" ><div class = red_square id = ""topsquare"" ></div><img id = ""stim"" ><div class = red_square  id = ""bottomsquare"" ></div>",null,word_square,0,SPACEBAR,,
html-keyboard-response,574,45888,null,"WINDSHIELD",null,word,,, 'WINDSHIELD',
html-keyboard-response,575,45895,null,"PRISON<img id = ""stim"" ><div class = green_square id = ""topsquare"" ></div><img id = ""stim"" ><div class = green_square  id = ""bottomsquare"" ></div>",null,word_square,1,SPACEBAR,,
html-keyboard-response,576,45911,null,"PRISON",null,word,,, 'PRISON',
html-keyboard-response,577,45918,null,"DUNGEON<img id = ""stim"" ><div class = red_square id = ""topsquare"" ></div><img id = ""stim"" ><div class = red_square  id = ""bottomsquare"" ></div>",null,word_square,0,SPACEBAR,,
html-keyboard-response,578,45935,null,"DUNGEON",null,word,,, 'DUNGEON',
html-keyboard-response,579,45941,null,"PLUMBER<img id = ""stim"" ><div class = green_square id = ""topsquare"" ></div><img id = ""stim"" ><div class = green_square  id = ""bottomsquare"" ></div>",null,word_square,1,SPACEBAR,,
html-keyboard-response,580,45960,null,"PLUMBER",null,word,,, 'PLUMBER',
html-keyboard-response,581,45967,null,"MANSION<img id = ""stim"" ><div class = green_square id = ""topsquare"" ></div><img id = ""stim"" ><div class = green_square  id = ""bottomsquare"" ></div>",null,word_square,1,SPACEBAR,,
html-keyboard-response,582,45984,null,"MANSION",null,word,,, 'MANSION',
html-keyboard-response,583,45991,null,"HEEL<img id = ""stim"" ><div class = green_square id = ""topsquare"" ></div><img id = ""stim"" ><div class = green_square  id = ""bottomsquare"" ></div>",null,word_square,1,SPACEBAR,,
html-keyboard-response,584,46009,null,"HEEL",null,word,,, 'HEEL',
html-keyboard-response,585,46016,null,"BUCKLE<img id = ""stim"" ><div class = red_square id = ""topsquare"" ></div><img id = ""stim"" ><div class = red_square  id = ""bottomsquare"" ></div>",null,word_square,0,SPACEBAR,,
html-keyboard-response,586,46032,null,"BUCKLE",null,word,,, 'BUCKLE',
html-keyboard-response,587,46038,null,"YARD<img id = ""stim"" ><div class = red_square id = ""topsquare"" ></div><img id = ""stim"" ><div class = red_square  id = ""bottomsquare"" ></div>",null,word_square,0,SPACEBAR,,
html-keyboard-response,588,46055,null,"YARD",null,word,,, 'YARD',
html-keyboard-response,589,46061,null,"TWIG<img id = ""stim"" ><div class = green_square id = ""topsquare"" ></div><img id = ""stim"" ><div class = green_square  id = ""bottomsquare"" ></div>",null,word_square,1,SPACEBAR,,
html-keyboard-response,590,46077,null,"TWIG",null,word,,, 'TWIG',
html-keyboard-response,591,46085,null,"HAMMER<img id = ""stim"" ><div class = red_square id = ""topsquare"" ></div><img id = ""stim"" ><div class = red_square  id = ""bottomsquare"" ></div>",null,word_square,0,SPACEBAR,,
html-keyboard-response,592,46101,null,"HAMMER",null,word,,, 'HAMMER',
html-keyboard-response,593,46107,null,"FREEWAY<img id = ""stim"" ><div class = green_square id = ""topsquare"" ></div><img id = ""stim"" ><div class = green_square  id = ""bottomsquare"" ></div>",null,word_square,1,SPACEBAR,,
html-keyboard-response,594,46126,null,"FREEWAY",null,word,,, 'FREEWAY',
html-keyboard-response,595,46132,null,"ATTIC<img id = ""stim"" ><div class = red_square id = ""topsquare"" ></div><img id = ""stim"" ><div class = red_square  id = ""bottomsquare"" ></div>",null,word_square,0,SPACEBAR,,
html-keyboard-response,596,46149,null,"ATTIC",null,word,,, 'ATTIC',
html-keyboard-response,597,46155,null,"CACTUS<img id = ""stim"" ><div class = red_square id = ""topsquare"" ></div><img id = ""stim"" ><div class = red_square  id = ""bottomsquare"" ></div>",null,word_square,0,SPACEBAR,,
html-keyboard-response,598,46172,null,"CACTUS",null,word,,, 'CACTUS',
html-keyboard-response,599,46178,null,"BASEBALL<img id = ""stim"" ><div class = green_square id = ""topsquare"" ></div><img id = ""stim"" ><div class = green_square  id = ""bottomsquare"" ></div>",null,word_square,1,SPACEBAR,,
html-keyboard-response,600,46194,null,"BASEBALL",null,word,,, 'BASEBALL',
html-keyboard-response,601,46202,null,"WIDOW<img id = ""stim"" ><div class = red_square id = ""topsquare"" ></div><img id = ""stim"" ><div class = red_square  id = ""bottomsquare"" ></div>",null,word_square,0,SPACEBAR,,
html-keyboard-response,602,46219,null,"WIDOW",null,word,,, 'WIDOW',
html-keyboard-response,603,46224,null,"BRACELET<img id = ""stim"" ><div class = green_square id = ""topsquare"" ></div><img id = ""stim"" ><div class = green_square  id = ""bottomsquare"" ></div>",null,word_square,1,SPACEBAR,,
html-keyboard-response,604,46242,null,"BRACELET",null,word,,, 'BRACELET',
html-keyboard-response,605,46249,null,"EARRING<img id = ""stim"" ><div class = green_square id = ""topsquare"" ></div><img id = ""stim"" ><div class = green_square  id = ""bottomsquare"" ></div>",null,word_square,1,SPACEBAR,,
html-keyboard-response,606,46267,null,"EARRING",null,word,,, 'EARRING',
survey-text,607,46632,362.91499994695187,"",,,,,,{"Q0":"2"}
survey-text,608,47431,796.5049999766052,"",,,,,,{"Q0":"2"}
html-keyboard-response,609,47723,290.9900000086054,"<div style=""font-size:48px;"">Press any key to begin list 15 of 24 </div>",50,,,,,
html-keyboard-response,610,48245,null,"<div style=""font-size:60px;"">+</div>",null,,,,,
html-keyboard-response,611,48251,null,"TAVERN<img id = ""stim"" ><div class = green_square id = ""topsquare"" ></div><img id = ""stim"" ><div class = green_square  id = ""bottomsquare"" ></div>",null,word_square,1,SPACEBAR,,
html-keyboard-response,612,48267,null,"TAVERN",null,word,,, 'TAVERN',
html-keyboard-response,613,48274,null,"SAILOR<img id = ""stim"" ><div class = green_square id = ""topsquare"" ></div><img id = ""stim"" ><div class = green_square  id = ""bottomsquare"" ></div>",null,word_square,1,SPACEBAR,,
html-keyboard-response,614,48293,null,"SAILOR",null,word,,, 'SAILOR',
html-keyboard-response,615,48299,null,"COBWEB<img id = ""stim"" ><div class = red_square id = ""topsquare"" ></div><img id = ""stim"" ><div class = red_square  id = ""bottomsquare"" ></div>",null,word_square,0,SPACEBAR,,
html-keyboard-response,616,48315,null,"COBWEB",null,word,,, 'COBWEB',
html-keyboard-response,617,48322,null,"INSECT<img id = ""stim"" ><div class = green_square id = ""topsquare"" ></div><img id = ""stim"" ><div class = green_square  id = ""bottomsquare"" ></div>",null,word_square,1,SPACEBAR,,
html-keyboard-response,618,48339,null,"INSECT",null,word,,, 'INSECT',
html-keyboard-response,619,48345,null,"COOKIE<img id = ""stim"" ><div class = red_square id = ""topsquare"" ></div><img id = ""stim"" ><div class = red_square  id = ""bottomsquare"" ></div>",null,word_square,0,SPACEBAR,,
html-keyboard-response,620,48361,null,"COOKIE",null,word,,, 'COOKIE',
html-keyboard-response,621,48368,null,"POSSUM<img id = ""stim"" ><div class = red_square id = ""topsquare"" ></div><img id = ""stim"" ><div class = red_square  id = ""bottomsquare"" ></div>",null,word_square,0,SPACEBAR,,
html-keyboard-response,622,48384,null,"POSSUM",null,word,,, 'POSSUM',
html-keyboard-response,623,48391,null,"PORT<img id = ""stim"" ><div class = red_square id = ""topsquare"" ></div><img id = ""stim"" ><div class = red_square  id = ""bottomsquare"" ></div>",null,word_square,0,SPACEBAR,,
html-keyboard-response,624,48410,null,"PORT",null,word,,, 'PORT',
html-keyboard-response,625,48416,null,"BOTTLE<img id = ""stim"" ><div class = green_square id = ""topsquare"" ></div><img id = ""stim"" ><div class = green_square  id = ""bottomsquare"" ></div>",null,word_square,1,SPACEBAR,,
html-keyboard-response,626,48432,null,"BOTTLE",null,word,,, 'BOTTLE',
html-keyboard-response,627,48438,null,"BATHROOM<img id = ""stim"" ><div class = green_square id = ""topsquare"" ></div><img id = ""stim"" ><div class = green_square  id = ""bottomsquare"" ></div>",null,word_square,1,SPACEBAR,,
html-keyboard-response,628,48455,null,"BATHROOM",null,word,,, 'BATHROOM',
html-keyboard-response,629,48462,null,"TOILET<img id = ""stim"" ><div class = red_square id = ""topsquare"" ></div><img id = ""stim"" ><div class = red_square  id = ""bottomsquare"" ></div>",null,word_square,0,SPACEBAR,,
html-keyboard-response,630,48478,null,"TOILET",null,word,,, 'TOILET',
html-keyboard-response,631,48485,null,"VILLAIN<img id = ""stim"" ><div class = green_square id = ""topsquare"" ></div><img id = ""stim"" ><div class = green_square  id = ""bottomsquare"" ></div>",null,word_square,1,SPACEBAR,,
html-keyboard-response,632,48502,null,"VILLAIN",null,word,,, 'VILLAIN',
html-keyboard-response,633,48509,null,"CLOSET<img id = ""stim"" ><div class = red_square id = ""topsquare"" ></div><img id = ""stim"" ><div class = red_square  id = ""bottomsquare"" ></div>",null,word_square,0,SPACEBAR,,
html-keyboard-response,634,48526,null,"CLOSET",null,word,,, 'CLOSET',
html-keyboard-response,635,48533,null,"BEAKER<img id = ""stim"" ><div class = green_square id = ""topsquare"" ></div><img id = ""stim"" ><div class = green_square  id = ""bottomsquare"" ></div>",null,word_square,1,SPACEBAR,,
html-keyboard-response,636,48550,null,"BEAKER",null,word,,, 'BEAKER',
html-keyboard-response,637,48555,null,"COUGAR<img id = ""stim"" ><div class = green_square id = ""topsquare"" ></div><img id = ""stim"" ><div class = green_square  id = ""bottomsquare"" ></div>",null,word_square,1,SPACEBAR,,
html-keyboard-response,638,48572,null,"COUGAR",null,word,,, 'COUGAR',
html-keyboard-response,639,48579,null,"BASKET<img id = ""stim"" ><div class = red_square id = ""topsquare"" ></div><img id = ""stim"" ><div class = red_square  id = ""bottomsquare"" ></div>",null,word_square,0,SPACEBAR,,
html-keyboard-response,640,48595,null,"BASKET",null,word,,, 'BASKET',
html-keyboard-response,641,48602,null,"DESK<img id = ""stim"" ><div class = green_square id = ""topsquare"" ></div><img id = ""stim"" ><div class = green_square  id = ""bottomsquare"" ></div>",null,word_square,1,SPACEBAR,,
html-keyboard-response,642,48619,null,"DESK",null,word,,, 'DESK',
html-keyboard-response,643,48626,null,"SERVANT<img id = ""stim"" ><div class = red_square id = ""topsquare"" ></div><img id = ""stim"" ><div class = red_square  id = ""bottomsquare"" ></div>",null,word_square,0,SPACEBAR,,
html-keyboard-response,644,48643,null,"SERVANT",null,word,,, 'SERVANT',
html-keyboard-response,645,48650,null,"WALRUS<img id = ""stim"" ><div class = red_square id = ""topsquare"" ></div><img id = ""stim"" ><div class = red_square  id = ""bottomsquare"" ></div>",null,word_square,0,SPACEBAR,,
html-keyboard-response,646,48667,null,"WALRUS",null,word,,, 'WALRUS',
survey-text,647,49062,392.494999920018,"",,,,,,{"Q0":"2"}
survey-text,648,49714,649.764999980107,"",,,,,,{"Q0":"2"}
survey-text,649,50142,425.2250000135973,"",,,,,,{"Q0":"2"}
html-keyboard-response,650,50445,302.0099999848753,"<div style=""font-size:48px;"">Press any key to begin list 16 of 24 </div>",50,,,,,
html-keyboard-response,651,50972,null,"<div style=""font-size:60px;"">+</div>",null,,,,,
html-keyboard-response,652,50979,null,"SHORTCAKE<img id = ""stim"" ><div class = green_square id = ""topsquare"" ></div><img id = ""stim"" ><div class = green_square  id = ""bottomsquare"" ></div>",null,word_square,1,SPACEBAR,,
html-keyboard-response,653,50996,null,"SHORTCAKE",null,word,,, 'SHORTCAKE',
html-keyboard-response,654,51003,null,"CHAMBER<img id = ""stim"" ><div class = green_square id = ""topsquare"" ></div><img id = ""stim"" ><div class = green_square  id = ""bottomsquare"" ></div>",null,word_square,1,SPACEBAR,,
html-keyboard-response,655,51019,null,"CHAMBER",null,word,,, 'CHAMBER',
html-keyboard-response,656,51026,null,"SUITE<img id = ""stim"" ><div class = red_square id = ""topsquare"" ></div><img id = ""stim"" ><div class = red_square  id = ""bottomsquare"" ></div>",null,word_square,0,SPACEBAR,,
html-keyboard-response,657,51044,null,"SUITE",null,word,,, 'SUITE',
html-keyboard-response,658,51050,null,"STAPLER<img id = ""stim"" ><div class = green_square id = ""topsquare"" ></div><img id = ""stim"" ><div class = green_square  id = ""bottomsquare"" ></div>",null,word_square,1,SPACEBAR,,
html-keyboard-response,659,51067,null,"STAPLER",null,word,,, 'STAPLER',
html-keyboard-response,660,51074,null,"STAMP<img id = ""stim"" ><div class = red_square id = ""topsquare"" ></div><img id = ""stim"" ><div class = red_square  id = ""bottomsquare"" ></div>",null,word_square,0,SPACEBAR,,
html-keyboard-response,661,51092,null,"STAMP",null,word,,, 'STAMP',
html-keyboard-response,662,51099,null,"DWARF<img id = ""stim"" ><div class = red_square id = ""topsquare"" ></div><img id = ""stim"" ><div class = red_square  id = ""bottomsquare"" ></div>",null,word_square,0,SPACEBAR,,
html-keyboard-response,663,51115,null,"DWARF",null,word,,, 'DWARF',
html-keyboard-response,664,51122,null,"NEWSSTAND<img id = ""stim"" ><div class = red_square id = ""topsquare"" ></div><img id = ""stim"" ><div class = red_square  id = ""bottomsquare"" ></div>",null,word_square,0,SPACEBAR,,
html-keyboard-response,665,51139,null,"NEWSSTAND",null,word,,, 'NEWSSTAND',
html-keyboard-response,666,51145,null,"CONVICT<img id = ""stim"" ><div class = green_square id = ""topsquare"" ></div><img id = ""stim"" ><div class = green_square  id = ""bottomsquare"" ></div>",null,word_square,1,SPACEBAR,,
html-keyboard-response,667,51161,null,"CONVICT",null,word,,, 'CONVICT',
html-keyboard-response,668,51168,null,"SERGEANT<img id = ""stim"" ><div class = green_square id = ""topsquare"" ></div><img id = ""stim"" ><div class = green_square  id = ""bottomsquare"" ></div>",null,word_square,1,SPACEBAR,,
html-keyboard-response,669,51184,null,"SERGEANT",null,word,,, 'SERGEANT',
html-keyboard-response,670,51190,null,"SKUNK<img id = ""stim"" ><div class = red_square id = ""topsquare"" ></div><img id = ""stim"" ><div class = red_square  id = ""bottomsquare"" ></div>",null,word_square,0,SPACEBAR,,
html-keyboard-response,671,51209,null,"SKUNK",null,word,,, 'SKUNK',
html-keyboard-response,672,51215,null,"VICTOR<img id = ""stim"" ><div class = green_square id = ""topsquare"" ></div><img id = ""stim"" ><div class = green_square  id = ""bottomsquare"" ></div>",null,word_square,1,SPACEBAR,,
html-keyboard-response,673,51232,null,"VICTOR",null,word,,, 'VICTOR',
html-keyboard-response,674,51239,null,"MAJOR<img id = ""stim"" ><div class = red_square id = ""topsquare"" ></div><img id = ""stim"" ><div class = red_square  id = ""bottomsquare"" ></div>",null,word_square,0,SPACEBAR,,
html-keyboard-response,675,51256,null,"MAJOR",null,word,,, 'MAJOR',
html-keyboard-response,676,51262,null,"DART<img id = ""stim"" ><div class = green_square id = ""topsquare"" ></div><img id = ""stim"" ><div class = green_square  id = ""bottomsquare"" ></div>",null,word_square,1,SPACEBAR,,
html-keyboard-response,677,51278,null,"DART",null,word,,, 'DART',
html-keyboard-response,678,51285,null,"SQUIRREL<img id = ""stim"" ><div class = green_square id = ""topsquare"" ></div><img id = ""stim"" ><div class = green_square  id = ""bottomsquare"" ></div>",null,word_square,1,SPACEBAR,,
html-keyboard-response,679,51302,null,"SQUIRREL",null,word,,, 'SQUIRREL',
html-keyboard-response,680,51307,null,"MONGOOSE<img id = ""stim"" ><div class = red_square id = ""topsquare"" ></div><img id = ""stim"" ><div class = red_square  id = ""bottomsquare"" ></div>",null,word_square,0,SPACEBAR,,
html-keyboard-response,681,51326,null,"MONGOOSE",null,word,,, 'MONGOOSE',
html-keyboard-response,682,51333,null,"FOLDER<img id = ""stim"" ><div class = green_square id = ""topsquare"" ></div><img id = ""stim"" ><div class = green_square  id = ""bottomsquare"" ></div>",null,word_square,1,SPACEBAR,,
html-keyboard-response,683,51349,null,"FOLDER",null,word,,, 'FOLDER',
html-keyboard-response,684,51355,null,"WRENCH<img id = ""stim"" ><div class = red_square id = ""topsquare"" ></div><img id = ""stim"" ><div class = red_square  id = ""bottomsquare"" ></div>",null,word_square,0,SPACEBAR,,
html-keyboard-response,685,51372,null,"WRENCH",null,word,,, 'WRENCH',
html-keyboard-response,686,51379,null,"RIBBON<img id = ""stim"" ><div class = red_square id = ""topsquare"" ></div><img id = ""stim"" ><div class = red_square  id = ""bottomsquare"" ></div>",null,word_square,0,SPACEBAR,,
html-keyboard-response,687,51395,null,"RIBBON",null,word,,, 'RIBBON',
survey-text,688,51818,420.37999990861863,"",,,,,,{"Q0":"2"}
survey-text,689,52876,1054.9050000263378,"",,,,,,{"Q0":"2"}
html-keyboard-response,690,53168,291.0300000803545,"<div style=""font-size:48px;"">Press any key to begin list 17 of 24 </div>",50,,,,,
html-keyboard-response,691,53696,null,"<div style=""font-size:60px;"">+</div>",null,,,,,
html-keyboard-response,692,53702,null,"HOUSE<img id = ""stim"" ><div class = red_square id = ""topsquare"" ></div><img id = ""stim"" ><div class = red_square  id = ""bottomsquare"" ></div>",null,word_square,0,SPACEBAR,,
html-keyboard-response,693,53718,null,"HOUSE",null,word,,, 'HOUSE',
html-keyboard-response,694,53725,null,"PENCIL<img id = ""stim"" ><div class = red_square id = ""topsquare"" ></div><img id = ""stim"" ><div class = red_square  id = ""bottomsquare"" ></div>",null,word_square,0,SPACEBAR,,
html-keyboard-response,695,53741,null,"PENCIL",null,word,,, 'PENCIL',
html-keyboard-response,696,53747,null,"KEEPER<img id = ""stim"" ><div class = green_square id = ""topsquare"" ></div><img id = ""stim"" ><div class = green_square  id = ""bottomsquare"" ></div>",null,word_square,1,SPACEBAR,,
html-keyboard-response,697,53764,null,"KEEPER",null,word,,, 'KEEPER',
html-keyboard-response,698,53770,null,"THIEF<img id = ""stim"" ><div class = red_square id = ""topsquare"" ></div><img id = ""stim"" ><div class = red_square  id = ""bottomsquare"" ></div>",null,word_square,0,SPACEBAR,,
html-keyboard-response,699,53787,null,"THIEF",null,word,,, 'THIEF',
html-keyboard-response,700,53793,null,"MOTHER<img id = ""stim"" ><div class = red_square id = ""topsquare"" ></div><img id = ""stim"" ><div class = red_square  id = ""bottomsquare"" ></div>",null,word_square,0,SPACEBAR,,
html-keyboard-response,701,53812,null,"MOTHER",null,word,,, 'MOTHER',
html-keyboard-response,702,53819,null,"SOFTBALL<img id = ""stim"" ><div class = green_square id = ""topsquare"" ></div><img id = ""stim"" ><div class = green_square  id = ""bottomsquare"" ></div>",null,word_square,1,SPACEBAR,,
html-keyboard-response,703,53835,null,"SOFTBALL",null,word,,, 'SOFTBALL',
html-keyboard-response,704,53842,null,"FEATHER<img id = ""stim"" ><div class = red_square id = ""topsquare"" ></div><img id = ""stim"" ><div class = red_square  id = ""bottomsquare"" ></div>",null,word_square,0,SPACEBAR,,
html-keyboard-response,705,53858,null,"FEATHER",null,word,,, 'FEATHER',
html-keyboard-response,706,53864,null,"BLUEJAY<img id = ""stim"" ><div class = green_square id = ""topsquare"" ></div><img id = ""stim"" ><div class = green_square  id = ""bottomsquare"" ></div>",null,word_square,1,SPACEBAR,,
html-keyboard-response,707,53881,null,"BLUEJAY",null,word,,, 'BLUEJAY',
html-keyboard-response,708,53887,null,"ANKLE<img id = ""stim"" ><div class = red_square id = ""topsquare"" ></div><img id = ""stim"" ><div class = red_square  id = ""bottomsquare"" ></div>",null,word_square,0,SPACEBAR,,
html-keyboard-response,709,53904,null,"ANKLE",null,word,,, 'ANKLE',
