trial_type,trial_index,time_elapsed,rt,stimulus,key_press,test_part,task,targ_cond,correctKeyCode,correct,word,value,response
pavlovia,0,940,,"",,,,,,,,,
external-html,1,44178,43039.700000023004,"",,,,,,,,,
html-keyboard-response,2,46631,2448.834999988321,"Welcome to the experiment. Press any key to begin.",77,,,,,,,,
html-keyboard-response,3,54783,8150.284999981523,"<p>You will see a list of words and colored squares in the following task.<p><p>Press the spacebar whenever you see a red square.<p><p>Do not press a key if the square is green<p><p>Press the spacebar to continue.</p>",77,,,,,,,,
html-keyboard-response,4,62845,7559.71000000136,"<p>Please try to remember as many of the words as you can, and try to think about the meaning of each word as it appears.<p><p>After the detection and encoding task you will be asked to solve some math problems for 24 seconds.<p> Please solve as many problems as you can in the time given. <p>",32,,,,,,,,
html-keyboard-response,5,74020,10673.154999996768,"After solving the math problems, you will be asked to type in as many words <p>from the previous list as you can remember for 75 seconds.<p> If you finish recalling before the 75 seconds are up,<p> just sit tight and try to think of any more words you could have missed. <p><p>We will begin with a brief practice session<p>Press the spacebar to begin the practice.</p>",32,,,,,,,,
html-keyboard-response,6,76523,null,"<div style=""font-size:60px;"">+</div>",null,,,,,,,,
html-keyboard-response,7,77027,null,"HAPPY<img id = ""stim"" ><div class = green_square id = ""topsquare"" ></div><img id = ""stim"" ><div class = green_square  id = ""bottomsquare"" ></div>",null,word_square,prac_response,0,none,true,,,
html-keyboard-response,8,78531,null,"HAPPY",null,word,,,,,HAPPY,,
html-keyboard-response,9,79037,480.47500001848675,"COLD<img id = ""stim"" ><div class = red_square id = ""topsquare"" ></div><img id = ""stim"" ><div class = red_square  id = ""bottomsquare"" ></div>",32,word_square,prac_response,1,Space,true,,,
html-keyboard-response,10,80540,null,"COLD",null,word,,,,,COLD,,
html-keyboard-response,11,81045,null,"HEAVY<img id = ""stim"" ><div class = red_square id = ""topsquare"" ></div><img id = ""stim"" ><div class = red_square  id = ""bottomsquare"" ></div>",null,word_square,prac_response,1,Space,false,,,
html-keyboard-response,12,82549,null,"HEAVY",null,word,,,,,HEAVY,,
html-keyboard-response,13,83054,null,"FUNNY<img id = ""stim"" ><div class = green_square id = ""topsquare"" ></div><img id = ""stim"" ><div class = green_square  id = ""bottomsquare"" ></div>",null,word_square,prac_response,0,none,true,,,
html-keyboard-response,14,84558,null,"FUNNY",null,word,,,,,FUNNY,,
html-keyboard-response,15,85062,340.5499999935273,"SCARY<img id = ""stim"" ><div class = red_square id = ""topsquare"" ></div><img id = ""stim"" ><div class = red_square  id = ""bottomsquare"" ></div>",32,word_square,prac_response,1,Space,true,,,
html-keyboard-response,16,86566,null,"SCARY",null,word,,,,,SCARY,,
html-keyboard-response,17,87071,null,"PEACEFUL<img id = ""stim"" ><div class = red_square id = ""topsquare"" ></div><img id = ""stim"" ><div class = red_square  id = ""bottomsquare"" ></div>",null,word_square,prac_response,1,Space,false,,,
html-keyboard-response,18,88574,null,"PEACEFUL",null,word,,,,,PEACEFUL,,
html-keyboard-response,19,89079,null,"LITTLE<img id = ""stim"" ><div class = green_square id = ""topsquare"" ></div><img id = ""stim"" ><div class = green_square  id = ""bottomsquare"" ></div>",null,word_square,prac_response,0,none,true,,,
html-keyboard-response,20,90582,null,"LITTLE",null,word,,,,,LITTLE,,
html-keyboard-response,21,91088,null,"TIRED<img id = ""stim"" ><div class = green_square id = ""topsquare"" ></div><img id = ""stim"" ><div class = green_square  id = ""bottomsquare"" ></div>",null,word_square,prac_response,0,none,true,,,
html-keyboard-response,22,92591,null,"TIRED",null,word,,,,,TIRED,,
html-keyboard-response,23,93096,null,"ENTERTAINING<img id = ""stim"" ><div class = green_square id = ""topsquare"" ></div><img id = ""stim"" ><div class = green_square  id = ""bottomsquare"" ></div>",null,word_square,prac_response,0,none,true,,,
html-keyboard-response,24,94599,null,"ENTERTAINING",null,word,,,,,ENTERTAINING,,
html-keyboard-response,25,95105,null,"GRATEFUL<img id = ""stim"" ><div class = red_square id = ""topsquare"" ></div><img id = ""stim"" ><div class = red_square  id = ""bottomsquare"" ></div>",null,word_square,prac_response,1,Space,false,,,
html-keyboard-response,26,96608,null,"GRATEFUL",null,word,,,,,GRATEFUL,,
html-keyboard-response,27,97113,null,"LOUD<img id = ""stim"" ><div class = green_square id = ""topsquare"" ></div><img id = ""stim"" ><div class = green_square  id = ""bottomsquare"" ></div>",null,word_square,prac_response,0,none,true,,,
html-keyboard-response,28,98616,null,"LOUD",null,word,,,,,LOUD,,
html-keyboard-response,29,99122,null,"SMART<img id = ""stim"" ><div class = red_square id = ""topsquare"" ></div><img id = ""stim"" ><div class = red_square  id = ""bottomsquare"" ></div>",null,word_square,prac_response,1,Space,false,,,
html-keyboard-response,30,100625,null,"SMART",null,word,,,,,SMART,,
html-keyboard-response,31,101130,null,"SMOOTH<img id = ""stim"" ><div class = red_square id = ""topsquare"" ></div><img id = ""stim"" ><div class = red_square  id = ""bottomsquare"" ></div>",null,word_square,prac_response,1,Space,false,,,
html-keyboard-response,32,102634,null,"SMOOTH",null,word,,,,,SMOOTH,,
html-keyboard-response,33,103140,null,"DISHONEST<img id = ""stim"" ><div class = green_square id = ""topsquare"" ></div><img id = ""stim"" ><div class = green_square  id = ""bottomsquare"" ></div>",null,word_square,prac_response,0,none,true,,,
html-keyboard-response,34,104642,null,"DISHONEST",null,word,,,,,DISHONEST,,
html-keyboard-response,35,105147,null,"WEALTHY<img id = ""stim"" ><div class = red_square id = ""topsquare"" ></div><img id = ""stim"" ><div class = red_square  id = ""bottomsquare"" ></div>",null,word_square,prac_response,1,Space,false,,,
html-keyboard-response,36,106650,null,"WEALTHY",null,word,,,,,WEALTHY,,
html-keyboard-response,37,107155,null,"BEAUTIFUL<img id = ""stim"" ><div class = green_square id = ""topsquare"" ></div><img id = ""stim"" ><div class = green_square  id = ""bottomsquare"" ></div>",null,word_square,prac_response,0,none,true,,,
html-keyboard-response,38,108659,null,"BEAUTIFUL",null,word,,,,,BEAUTIFUL,,
html-keyboard-response,39,109164,322.3950000246987,"DREARY<img id = ""stim"" ><div class = green_square id = ""topsquare"" ></div><img id = ""stim"" ><div class = green_square  id = ""bottomsquare"" ></div>",32,word_square,prac_response,0,none,true,,,
html-keyboard-response,40,110667,null,"DREARY",null,word,,,,,DREARY,,
html-keyboard-response,41,111173,null,"PLAYFUL<img id = ""stim"" ><div class = red_square id = ""topsquare"" ></div><img id = ""stim"" ><div class = red_square  id = ""bottomsquare"" ></div>",null,word_square,prac_response,1,Space,false,,,
html-keyboard-response,42,112676,null,"PLAYFUL",null,word,,,,,PLAYFUL,,
html-keyboard-response,43,118626,5946.874999994179,"<p> Uh oh. You responded correctly on 61% of the red squares.</p>
                  <p>We need you keep your accuracy above 80%</p>
                  <p>We're going to try once more to make sure you understand the task. press any key to continue.</p>",32,,,,,,,,
html-keyboard-response,44,123127,4499.559999996563,"<p>You will see a list of words and colored squares in the following task.<p><p>Press the spacebar whenever you see a red square.<p><p>Do not press a key if the square is green<p><p>Press the spacebar to continue.</p>",32,,,,,,,,
html-keyboard-response,45,125633,null,"<div style=""font-size:60px;"">+</div>",null,,,,,,,,
html-keyboard-response,46,126138,null,"HAPPY<img id = ""stim"" ><div class = green_square id = ""topsquare"" ></div><img id = ""stim"" ><div class = green_square  id = ""bottomsquare"" ></div>",null,word_square,response,0,none,true,,,
html-keyboard-response,47,127640,null,"HAPPY",null,word,,,,,HAPPY,,
html-keyboard-response,48,128103,460.5349999910686,"COLD<img id = ""stim"" ><div class = red_square id = ""topsquare"" ></div><img id = ""stim"" ><div class = red_square  id = ""bottomsquare"" ></div>",32,word_square,response,1,Space,true,,,
html-keyboard-response,49,129609,null,"COLD",null,word,,,,,COLD,,
html-keyboard-response,50,130116,null,"HEAVY<img id = ""stim"" ><div class = red_square id = ""topsquare"" ></div><img id = ""stim"" ><div class = red_square  id = ""bottomsquare"" ></div>",null,word_square,response,1,Space,false,,,
html-keyboard-response,51,131617,null,"HEAVY",null,word,,,,,HEAVY,,
html-keyboard-response,52,132122,null,"FUNNY<img id = ""stim"" ><div class = green_square id = ""topsquare"" ></div><img id = ""stim"" ><div class = green_square  id = ""bottomsquare"" ></div>",null,word_square,response,0,none,true,,,
html-keyboard-response,53,133626,null,"FUNNY",null,word,,,,,FUNNY,,
html-keyboard-response,54,134051,423.55499998666346,"SCARY<img id = ""stim"" ><div class = red_square id = ""topsquare"" ></div><img id = ""stim"" ><div class = red_square  id = ""bottomsquare"" ></div>",32,word_square,response,1,Space,true,,,
html-keyboard-response,55,135553,null,"SCARY",null,word,,,,,SCARY,,
html-keyboard-response,56,136058,null,"PEACEFUL<img id = ""stim"" ><div class = red_square id = ""topsquare"" ></div><img id = ""stim"" ><div class = red_square  id = ""bottomsquare"" ></div>",null,word_square,response,1,Space,false,,,
html-keyboard-response,57,137562,null,"PEACEFUL",null,word,,,,,PEACEFUL,,
html-keyboard-response,58,138067,null,"LITTLE<img id = ""stim"" ><div class = green_square id = ""topsquare"" ></div><img id = ""stim"" ><div class = green_square  id = ""bottomsquare"" ></div>",null,word_square,response,0,none,true,,,
html-keyboard-response,59,139572,null,"LITTLE",null,word,,,,,LITTLE,,
html-keyboard-response,60,140075,null,"TIRED<img id = ""stim"" ><div class = green_square id = ""topsquare"" ></div><img id = ""stim"" ><div class = green_square  id = ""bottomsquare"" ></div>",null,word_square,response,0,none,true,,,
html-keyboard-response,61,141579,null,"TIRED",null,word,,,,,TIRED,,
html-keyboard-response,62,142084,null,"ENTERTAINING<img id = ""stim"" ><div class = green_square id = ""topsquare"" ></div><img id = ""stim"" ><div class = green_square  id = ""bottomsquare"" ></div>",null,word_square,response,0,none,true,,,
html-keyboard-response,63,143587,null,"ENTERTAINING",null,word,,,,,ENTERTAINING,,
html-keyboard-response,64,143954,364.8550000216346,"GRATEFUL<img id = ""stim"" ><div class = red_square id = ""topsquare"" ></div><img id = ""stim"" ><div class = red_square  id = ""bottomsquare"" ></div>",32,word_square,response,1,Space,true,,,
html-keyboard-response,65,145456,null,"GRATEFUL",null,word,,,,,GRATEFUL,,
html-keyboard-response,66,145963,null,"LOUD<img id = ""stim"" ><div class = green_square id = ""topsquare"" ></div><img id = ""stim"" ><div class = green_square  id = ""bottomsquare"" ></div>",null,word_square,response,0,none,true,,,
html-keyboard-response,67,147470,null,"LOUD",null,word,,,,,LOUD,,
html-keyboard-response,68,147840,368.01499998546205,"SMART<img id = ""stim"" ><div class = red_square id = ""topsquare"" ></div><img id = ""stim"" ><div class = red_square  id = ""bottomsquare"" ></div>",32,word_square,response,1,Space,true,,,
html-keyboard-response,69,149346,null,"SMART",null,word,,,,,SMART,,
html-keyboard-response,70,149777,429.26999999326654,"SMOOTH<img id = ""stim"" ><div class = red_square id = ""topsquare"" ></div><img id = ""stim"" ><div class = red_square  id = ""bottomsquare"" ></div>",32,word_square,response,1,Space,true,,,
html-keyboard-response,71,151278,null,"SMOOTH",null,word,,,,,SMOOTH,,
html-keyboard-response,72,151784,null,"DISHONEST<img id = ""stim"" ><div class = green_square id = ""topsquare"" ></div><img id = ""stim"" ><div class = green_square  id = ""bottomsquare"" ></div>",null,word_square,response,0,none,true,,,
html-keyboard-response,73,153287,null,"DISHONEST",null,word,,,,,DISHONEST,,
html-keyboard-response,74,153638,349.4850000133738,"WEALTHY<img id = ""stim"" ><div class = red_square id = ""topsquare"" ></div><img id = ""stim"" ><div class = red_square  id = ""bottomsquare"" ></div>",32,word_square,response,1,Space,true,,,
html-keyboard-response,75,155145,null,"WEALTHY",null,word,,,,,WEALTHY,,
html-keyboard-response,76,155650,null,"BEAUTIFUL<img id = ""stim"" ><div class = green_square id = ""topsquare"" ></div><img id = ""stim"" ><div class = green_square  id = ""bottomsquare"" ></div>",null,word_square,response,0,none,true,,,
html-keyboard-response,77,157153,null,"BEAUTIFUL",null,word,,,,,BEAUTIFUL,,
html-keyboard-response,78,157658,null,"DREARY<img id = ""stim"" ><div class = green_square id = ""topsquare"" ></div><img id = ""stim"" ><div class = green_square  id = ""bottomsquare"" ></div>",null,word_square,response,0,none,true,,,
html-keyboard-response,79,159162,null,"DREARY",null,word,,,,,DREARY,,
html-keyboard-response,80,159581,415.40999998687766,"PLAYFUL<img id = ""stim"" ><div class = red_square id = ""topsquare"" ></div><img id = ""stim"" ><div class = red_square  id = ""bottomsquare"" ></div>",32,word_square,response,1,Space,true,,,
html-keyboard-response,81,161083,null,"PLAYFUL",null,word,,,,,PLAYFUL,,
html-keyboard-response,82,165699,4613.214999990305,"<p> Good job! You responded correctly to 89% of the red squares.</p>
                  <p>Be sure to keep your accuracy above 80%</p>
                  <p>Press any key to begin the math and recall sections. Thank you!</p>",32,,,,,,,,
call-function,83,165700,,"",,,,,,,,,
html-keyboard-response,84,165804,null,"",null,,,,,,,,
math-period,85,171592,10935.03499997314,"",,,,,,,,,2
html-keyboard-response,86,171696,null,"",null,,,,,,,,
math-period,87,174924,5550.370000011753,"",,,,,,,,,2
html-keyboard-response,88,175027,null,"",null,,,,,,,,
math-period,89,176675,3142.3950000025798,"",,,,,,,,,4
html-keyboard-response,90,176777,null,"",null,,,,,,,,
math-period,91,178223,2713.824999984354,"",,,,,,,,,1
html-keyboard-response,92,178327,null,"",null,,,,,,,,
math-period,93,180515,4195.12499999837,"",,,,,,,,,1
html-keyboard-response,94,180618,null,"",null,,,,,,,,
math-period,95,182397,3427.484999963781,"",,,,,,,,,2
html-keyboard-response,96,182501,null,"",null,,,,,,,,
math-period,97,184395,3648.4950000303797,"",,,,,,,,,4
html-keyboard-response,98,184500,null,"",null,,,,,,,,
math-period,99,189048,8782.454999978654,"",,,,,,,,,0
html-keyboard-response,100,189152,null,"",null,,,,,,,,
math-period,101,189701,null,"",,,,,,,,,
html-keyboard-response,102,190705,null,"Recall Period!",null,,,,,,,,
call-function,103,190707,,"",,,,,,,,,
html-keyboard-response,104,190813,null,"",null,,,,,,,,
recall-period,105,195652,28989.090000017313,"",,,,,,,,,dreary
html-keyboard-response,106,195755,null,"",null,,,,,,,,
recall-period,107,197408,7982.770000147866,"",,,,,,,,,beautiful
html-keyboard-response,108,197512,null,"",null,,,,,,,,
recall-period,109,198754,5254.590000084136,"",,,,,,,,,smooth
html-keyboard-response,110,198858,null,"",null,,,,,,,,
recall-period,111,200092,5413.264999951934,"",,,,,,,,,wealthy
html-keyboard-response,112,200195,null,"",null,,,,,,,,
recall-period,113,213665,128412.105000054,"",,,,,,,,,beautiful
html-keyboard-response,114,213768,null,"",null,,,,,,,,
recall-period,115,265711,null,"",,,,,,,,,
html-keyboard-response,116,266215,null,"Time's Up!",null,,,,,,,,
html-keyboard-response,117,275779,9563.020000001416,"<p>We will now begin the experiment!<p><p>Please try to remember all words from each list.<p><p>Press the spacebar whenever you see a red square.<p><p><p><p>Press the spacebar to begin.</p>",32,,,,,,,,
html-keyboard-response,118,277407,1126.0550000006333,"<div style=""font-size:48px;"">Press any key to begin list 1 of 24 </div>",32,,,,,,,,
html-keyboard-response,119,279915,null,"<div style=""font-size:60px;"">+</div>",null,,,,,,,,
html-keyboard-response,120,280420,null,"REINDEER<img id = ""stim"" ><div class = green_square id = ""topsquare"" ></div><img id = ""stim"" ><div class = green_square  id = ""bottomsquare"" ></div>",null,word_square,response,0,none,true,,,
html-keyboard-response,121,281922,null,"REINDEER",null,word,,,,, 'REINDEER',,
html-keyboard-response,122,282428,null,"SATURN<img id = ""stim"" ><div class = green_square id = ""topsquare"" ></div><img id = ""stim"" ><div class = green_square  id = ""bottomsquare"" ></div>",null,word_square,response,0,none,true,,,
html-keyboard-response,123,283931,null,"SATURN",null,word,,,,, 'SATURN',,
html-keyboard-response,124,284437,null,"GRILL<img id = ""stim"" ><div class = red_square id = ""topsquare"" ></div><img id = ""stim"" ><div class = red_square  id = ""bottomsquare"" ></div>",null,word_square,response,1,Space,false,,,
html-keyboard-response,125,285940,null,"GRILL",null,word,,,,, 'GRILL',,
html-keyboard-response,126,286446,null,"FLESH<img id = ""stim"" ><div class = red_square id = ""topsquare"" ></div><img id = ""stim"" ><div class = red_square  id = ""bottomsquare"" ></div>",null,word_square,response,1,Space,false,,,
html-keyboard-response,127,287949,null,"FLESH",null,word,,,,, 'FLESH',,
html-keyboard-response,128,288454,null,"FACE<img id = ""stim"" ><div class = green_square id = ""topsquare"" ></div><img id = ""stim"" ><div class = green_square  id = ""bottomsquare"" ></div>",null,word_square,response,0,none,true,,,
html-keyboard-response,129,289957,null,"FACE",null,word,,,,, 'FACE',,
html-keyboard-response,130,290462,null,"BODY<img id = ""stim"" ><div class = red_square id = ""topsquare"" ></div><img id = ""stim"" ><div class = red_square  id = ""bottomsquare"" ></div>",null,word_square,response,1,Space,false,,,
html-keyboard-response,131,291967,null,"BODY",null,word,,,,, 'BODY',,
html-keyboard-response,132,292471,null,"HORSE<img id = ""stim"" ><div class = red_square id = ""topsquare"" ></div><img id = ""stim"" ><div class = red_square  id = ""bottomsquare"" ></div>",null,word_square,response,1,Space,false,,,
html-keyboard-response,133,293974,null,"HORSE",null,word,,,,, 'HORSE',,
html-keyboard-response,134,294479,null,"DOCK<img id = ""stim"" ><div class = green_square id = ""topsquare"" ></div><img id = ""stim"" ><div class = green_square  id = ""bottomsquare"" ></div>",null,word_square,response,0,none,true,,,
html-keyboard-response,135,295983,null,"DOCK",null,word,,,,, 'DOCK',,
html-keyboard-response,136,296488,null,"TYPIST<img id = ""stim"" ><div class = green_square id = ""topsquare"" ></div><img id = ""stim"" ><div class = green_square  id = ""bottomsquare"" ></div>",null,word_square,response,0,none,true,,,
html-keyboard-response,137,297991,null,"TYPIST",null,word,,,,, 'TYPIST',,
html-keyboard-response,138,298420,426.8349999911152,"OFFICE<img id = ""stim"" ><div class = red_square id = ""topsquare"" ></div><img id = ""stim"" ><div class = red_square  id = ""bottomsquare"" ></div>",32,word_square,response,1,Space,true,,,
html-keyboard-response,139,299924,null,"OFFICE",null,word,,,,, 'OFFICE',,
html-keyboard-response,140,300429,null,"BLOUSE<img id = ""stim"" ><div class = green_square id = ""topsquare"" ></div><img id = ""stim"" ><div class = green_square  id = ""bottomsquare"" ></div>",null,word_square,response,0,none,true,,,
html-keyboard-response,141,301933,null,"BLOUSE",null,word,,,,, 'BLOUSE',,
html-keyboard-response,142,302437,null,"DENIM<img id = ""stim"" ><div class = green_square id = ""topsquare"" ></div><img id = ""stim"" ><div class = green_square  id = ""bottomsquare"" ></div>",null,word_square,response,0,none,true,,,
html-keyboard-response,143,303941,null,"DENIM",null,word,,,,, 'DENIM',,
html-keyboard-response,144,304421,478.0049999826588,"KETCHUP<img id = ""stim"" ><div class = red_square id = ""topsquare"" ></div><img id = ""stim"" ><div class = red_square  id = ""bottomsquare"" ></div>",32,word_square,response,1,Space,true,,,
html-keyboard-response,145,305927,null,"KETCHUP",null,word,,,,, 'KETCHUP',,
html-keyboard-response,146,306432,null,"VALVE<img id = ""stim"" ><div class = green_square id = ""topsquare"" ></div><img id = ""stim"" ><div class = green_square  id = ""bottomsquare"" ></div>",null,word_square,response,0,none,true,,,
html-keyboard-response,147,307935,null,"VALVE",null,word,,,,, 'VALVE',,
html-keyboard-response,148,308431,494.55000000307336,"SOCKET<img id = ""stim"" ><div class = red_square id = ""topsquare"" ></div><img id = ""stim"" ><div class = red_square  id = ""bottomsquare"" ></div>",32,word_square,response,1,Space,true,,,
html-keyboard-response,149,309938,null,"SOCKET",null,word,,,,, 'SOCKET',,
html-keyboard-response,150,310443,null,"NOVEL<img id = ""stim"" ><div class = red_square id = ""topsquare"" ></div><img id = ""stim"" ><div class = red_square  id = ""bottomsquare"" ></div>",null,word_square,response,1,Space,false,,,
html-keyboard-response,151,311946,null,"NOVEL",null,word,,,,, 'NOVEL',,
html-keyboard-response,152,312451,null,"LEMON<img id = ""stim"" ><div class = green_square id = ""topsquare"" ></div><img id = ""stim"" ><div class = green_square  id = ""bottomsquare"" ></div>",null,word_square,response,0,none,true,,,
html-keyboard-response,153,313955,null,"LEMON",null,word,,,,, 'LEMON',,
html-keyboard-response,154,314460,null,"PIGMENT<img id = ""stim"" ><div class = red_square id = ""topsquare"" ></div><img id = ""stim"" ><div class = red_square  id = ""bottomsquare"" ></div>",null,word_square,response,1,Space,false,,,
html-keyboard-response,155,315963,null,"PIGMENT",null,word,,,,, 'PIGMENT',,
call-function,156,315965,,"",,,,,,,,,
html-keyboard-response,157,316068,null,"",null,,,,,,,,
math-period,158,319819,7001.845000020694,"",,,,,,,,,3
html-keyboard-response,159,319925,null,"",null,,,,,,,,
math-period,160,321933,3809.5800000301097,"",,,,,,,,,3
html-keyboard-response,161,322036,null,"",null,,,,,,,,
math-period,162,323817,3418.340000003809,"",,,,,,,,,3
html-keyboard-response,163,323922,null,"",null,,,,,,,,
math-period,164,325135,2253.8149999745656,"",,,,,,,,,2
html-keyboard-response,165,325238,null,"",null,,,,,,,,
math-period,166,326210,1762.380000000121,"",,,,,,,,,2
html-keyboard-response,167,326313,null,"",null,,,,,,,,
math-period,168,328551,4297.285000036936,"",,,,,,,,,1
html-keyboard-response,169,328655,null,"",null,,,,,,,,
math-period,170,330927,4165.3799999912735,"",,,,,,,,,2
html-keyboard-response,171,331030,null,"",null,,,,,,,,
math-period,172,333077,3827.97999997274,"",,,,,,,,,2
html-keyboard-response,173,333181,null,"",null,,,,,,,,
math-period,174,334786,3025.084999972023,"",,,,,,,,,4
html-keyboard-response,175,334893,null,"",null,,,,,,,,
math-period,176,336256,2544.019999972079,"",,,,,,,,,6
html-keyboard-response,177,336362,null,"",null,,,,,,,,
math-period,178,337344,1873.6100000096485,"",,,,,,,,,6
html-keyboard-response,179,337448,null,"",null,,,,,,,,
math-period,180,339127,3235.590000025695,"",,,,,,,,,5
html-keyboard-response,181,339231,null,"",null,,,,,,,,
math-period,182,339967,null,"",,,,,,,,,
html-keyboard-response,183,340969,null,"Recall Period!",null,,,,,,,,
call-function,184,340971,,"",,,,,,,,,
html-keyboard-response,185,341075,null,"",null,,,,,,,,
recall-period,186,344884,23822.270000062417,"",,,,,,,,,ketchup
html-keyboard-response,187,344987,null,"",null,,,,,,,,
recall-period,188,346078,5031.110000010813,"",,,,,,,,,pigment
html-keyboard-response,189,346181,null,"",null,,,,,,,,
recall-period,190,347905,9697.395000053803,"",,,,,,,,,reindeer
html-keyboard-response,191,348009,null,"",null,,,,,,,,
recall-period,192,348903,3328.0000000668224,"",,,,,,,,,valve
html-keyboard-response,193,349004,null,"",null,,,,,,,,
recall-period,194,372213,158627.25000004866,"",,,,,,,,,saturn
html-keyboard-response,195,372317,null,"",null,,,,,,,,
recall-period,196,416737,null,"",,,,,,,,,
html-keyboard-response,197,417816,null,"Time's Up!",null,,,,,,,,
html-keyboard-response,198,426103,8286.129999993136,"<p> Uh oh. You responded correctly on 78% of the red squares.</p>
                  <p>We need you keep your accuracy above 80%</p>
                  <p>Press any key to continue the experiment. Thank you!</p>",32,,,,,,,,
html-keyboard-response,199,427145,1040.1800000108778,"<div style=""font-size:48px;"">Press any key to begin list 2 of 24 </div>",32,,,,,,,,
html-keyboard-response,200,429651,null,"<div style=""font-size:60px;"">+</div>",null,,,,,,,,
html-keyboard-response,201,430157,null,"BUNNY<img id = ""stim"" ><div class = green_square id = ""topsquare"" ></div><img id = ""stim"" ><div class = green_square  id = ""bottomsquare"" ></div>",null,word_square,response,0,none,true,,,
html-keyboard-response,202,431660,null,"BUNNY",null,word,,,,, 'BUNNY',,
html-keyboard-response,203,432166,null,"CABBAGE<img id = ""stim"" ><div class = green_square id = ""topsquare"" ></div><img id = ""stim"" ><div class = green_square  id = ""bottomsquare"" ></div>",null,word_square,response,0,none,true,,,
html-keyboard-response,204,433669,null,"CABBAGE",null,word,,,,, 'CABBAGE',,
html-keyboard-response,205,434174,null,"SKIRT<img id = ""stim"" ><div class = red_square id = ""topsquare"" ></div><img id = ""stim"" ><div class = red_square  id = ""bottomsquare"" ></div>",null,word_square,response,1,Space,false,,,
html-keyboard-response,206,435678,null,"SKIRT",null,word,,,,, 'SKIRT',,
html-keyboard-response,207,436183,null,"BLOSSOM<img id = ""stim"" ><div class = red_square id = ""topsquare"" ></div><img id = ""stim"" ><div class = red_square  id = ""bottomsquare"" ></div>",null,word_square,response,1,Space,false,,,
html-keyboard-response,208,437686,null,"BLOSSOM",null,word,,,,, 'BLOSSOM',,
html-keyboard-response,209,438191,null,"FLIPPER<img id = ""stim"" ><div class = green_square id = ""topsquare"" ></div><img id = ""stim"" ><div class = green_square  id = ""bottomsquare"" ></div>",null,word_square,response,0,none,true,,,
html-keyboard-response,210,439695,null,"FLIPPER",null,word,,,,, 'FLIPPER',,
html-keyboard-response,211,440200,null,"DUST<img id = ""stim"" ><div class = red_square id = ""topsquare"" ></div><img id = ""stim"" ><div class = red_square  id = ""bottomsquare"" ></div>",null,word_square,response,1,Space,false,,,
html-keyboard-response,212,441703,null,"DUST",null,word,,,,, 'DUST',,
html-keyboard-response,213,442208,null,"GARLIC<img id = ""stim"" ><div class = red_square id = ""topsquare"" ></div><img id = ""stim"" ><div class = red_square  id = ""bottomsquare"" ></div>",null,word_square,response,1,Space,false,,,
html-keyboard-response,214,443712,null,"GARLIC",null,word,,,,, 'GARLIC',,
html-keyboard-response,215,444217,null,"SALT<img id = ""stim"" ><div class = green_square id = ""topsquare"" ></div><img id = ""stim"" ><div class = green_square  id = ""bottomsquare"" ></div>",null,word_square,response,0,none,true,,,
html-keyboard-response,216,445720,null,"SALT",null,word,,,,, 'SALT',,
html-keyboard-response,217,446225,null,"DESK<img id = ""stim"" ><div class = green_square id = ""topsquare"" ></div><img id = ""stim"" ><div class = green_square  id = ""bottomsquare"" ></div>",null,word_square,response,0,none,true,,,
html-keyboard-response,218,447729,null,"DESK",null,word,,,,, 'DESK',,
html-keyboard-response,219,448225,494.5000000006985,"SHRUB<img id = ""stim"" ><div class = red_square id = ""topsquare"" ></div><img id = ""stim"" ><div class = red_square  id = ""bottomsquare"" ></div>",32,word_square,response,1,Space,true,,,
html-keyboard-response,220,449731,null,"SHRUB",null,word,,,,, 'SHRUB',,
html-keyboard-response,221,450236,null,"SNAKE<img id = ""stim"" ><div class = green_square id = ""topsquare"" ></div><img id = ""stim"" ><div class = green_square  id = ""bottomsquare"" ></div>",null,word_square,response,0,none,true,,,
html-keyboard-response,222,451740,null,"SNAKE",null,word,,,,, 'SNAKE',,
html-keyboard-response,223,452245,null,"APRON<img id = ""stim"" ><div class = green_square id = ""topsquare"" ></div><img id = ""stim"" ><div class = green_square  id = ""bottomsquare"" ></div>",null,word_square,response,0,none,true,,,
html-keyboard-response,224,453748,null,"APRON",null,word,,,,, 'APRON',,
html-keyboard-response,225,454254,null,"LEOPARD<img id = ""stim"" ><div class = red_square id = ""topsquare"" ></div><img id = ""stim"" ><div class = red_square  id = ""bottomsquare"" ></div>",null,word_square,response,1,Space,false,,,
html-keyboard-response,226,455757,null,"LEOPARD",null,word,,,,, 'LEOPARD',,
html-keyboard-response,227,456262,null,"PANTHER<img id = ""stim"" ><div class = green_square id = ""topsquare"" ></div><img id = ""stim"" ><div class = green_square  id = ""bottomsquare"" ></div>",null,word_square,response,0,none,true,,,
html-keyboard-response,228,457765,null,"PANTHER",null,word,,,,, 'PANTHER',,
html-keyboard-response,229,458140,373.2099999906495,"PONY<img id = ""stim"" ><div class = red_square id = ""topsquare"" ></div><img id = ""stim"" ><div class = red_square  id = ""bottomsquare"" ></div>",32,word_square,response,1,Space,true,,,
html-keyboard-response,230,459646,null,"PONY",null,word,,,,, 'PONY',,
html-keyboard-response,231,460153,null,"LUNCH<img id = ""stim"" ><div class = red_square id = ""topsquare"" ></div><img id = ""stim"" ><div class = red_square  id = ""bottomsquare"" ></div>",null,word_square,response,1,Space,false,,,
html-keyboard-response,232,461655,null,"LUNCH",null,word,,,,, 'LUNCH',,
html-keyboard-response,233,462160,null,"MAMMAL<img id = ""stim"" ><div class = green_square id = ""topsquare"" ></div><img id = ""stim"" ><div class = green_square  id = ""bottomsquare"" ></div>",null,word_square,response,0,none,true,,,
html-keyboard-response,234,463663,null,"MAMMAL",null,word,,,,, 'MAMMAL',,
html-keyboard-response,235,464143,477.61499998159707,"NEPHEW<img id = ""stim"" ><div class = red_square id = ""topsquare"" ></div><img id = ""stim"" ><div class = red_square  id = ""bottomsquare"" ></div>",32,word_square,response,1,Space,true,,,
html-keyboard-response,236,465648,null,"NEPHEW",null,word,,,,, 'NEPHEW',,
call-function,237,465650,,"",,,,,,,,,
html-keyboard-response,238,465753,null,"",null,,,,,,,,
math-period,239,467389,3035.4799999913666,"",,,,,,,,,2
html-keyboard-response,240,467495,null,"",null,,,,,,,,
math-period,241,469597,6351.5149999875575,"",,,,,,,,,6
html-keyboard-response,242,469701,null,"",null,,,,,,,,
math-period,243,470740,1947.8600000438746,"",,,,,,,,,3
html-keyboard-response,244,470843,null,"",null,,,,,,,,
math-period,245,472874,3904.255000030389,"",,,,,,,,,2
html-keyboard-response,246,472978,null,"",null,,,,,,,,
math-period,247,474488,2817.1450000081677,"",,,,,,,,,4
html-keyboard-response,248,474594,null,"",null,,,,,,,,
math-period,249,475799,2298.255000030622,"",,,,,,,,,5
html-keyboard-response,250,475902,null,"",null,,,,,,,,
math-period,251,477619,3000.9699999936856,"",,,,,,,,,5
html-keyboard-response,252,477722,null,"",null,,,,,,,,
math-period,253,479531,3463.0699999979697,"",,,,,,,,,3
html-keyboard-response,254,479638,null,"",null,,,,,,,,
math-period,255,480776,2137.304999982007,"",,,,,,,,,5
html-keyboard-response,256,480880,null,"",null,,,,,,,,
math-period,257,481891,1958.0199999618344,"",,,,,,,,,3
html-keyboard-response,258,481994,null,"",null,,,,,,,,
math-period,259,483546,3039.7349999984726,"",,,,,,,,,4
html-keyboard-response,260,483649,null,"",null,,,,,,,,
math-period,261,484973,2544.029999990016,"",,,,,,,,,2
html-keyboard-response,262,485076,null,"",null,,,,,,,,
math-period,263,486833,3442.4200000066776,"",,,,,,,,,1
html-keyboard-response,264,486936,null,"",null,,,,,,,,
math-period,265,488410,2853.4100000106264,"",,,,,,,,,4
html-keyboard-response,266,488514,null,"",null,,,,,,,,
math-period,267,489652,null,"",,,,,,,,,
html-keyboard-response,268,490654,null,"Recall Period!",null,,,,,,,,
call-function,269,490655,,"",,,,,,,,,
html-keyboard-response,270,490760,null,"",null,,,,,,,,
recall-period,271,493284,10055.515000072774,"",,,,,,,,,pony
html-keyboard-response,272,493387,null,"",null,,,,,,,,
recall-period,273,494654,5138.42000006116,"",,,,,,,,,apron
html-keyboard-response,274,494758,null,"",null,,,,,,,,
recall-period,275,497605,17382.87999999011,"",,,,,,,,,shrub
html-keyboard-response,276,497708,null,"",null,,,,,,,,
recall-period,277,533830,250010.61000005575,"",,,,,,,,,nephew
html-keyboard-response,278,533937,null,"",null,,,,,,,,
recall-period,279,566922,null,"",,,,,,,,,
html-keyboard-response,280,567611,null,"Time's Up!",null,,,,,,,,
html-keyboard-response,281,582885,15272.209999995539,"<p> Uh oh. You responded correctly on 74% of the red squares.</p>
                  <p>We need you keep your accuracy above 80%</p>
                  <p>Press any key to continue the experiment. Thank you!</p>",32,,,,,,,,
html-keyboard-response,282,583905,1018.3649999962654,"<div style=""font-size:48px;"">Press any key to begin list 3 of 24 </div>",32,,,,,,,,
html-keyboard-response,283,586408,null,"<div style=""font-size:60px;"">+</div>",null,,,,,,,,
html-keyboard-response,284,586913,null,"HAMMER<img id = ""stim"" ><div class = red_square id = ""topsquare"" ></div><img id = ""stim"" ><div class = red_square  id = ""bottomsquare"" ></div>",null,word_square,response,1,Space,false,,,
html-keyboard-response,285,588416,null,"HAMMER",null,word,,,,, 'HAMMER',,
html-keyboard-response,286,588922,null,"SHIRT<img id = ""stim"" ><div class = red_square id = ""topsquare"" ></div><img id = ""stim"" ><div class = red_square  id = ""bottomsquare"" ></div>",null,word_square,response,1,Space,false,,,
html-keyboard-response,287,590424,null,"SHIRT",null,word,,,,, 'SHIRT',,
html-keyboard-response,288,590930,null,"SIBLING<img id = ""stim"" ><div class = green_square id = ""topsquare"" ></div><img id = ""stim"" ><div class = green_square  id = ""bottomsquare"" ></div>",null,word_square,response,0,none,true,,,
html-keyboard-response,289,592433,null,"SIBLING",null,word,,,,, 'SIBLING',,
html-keyboard-response,290,592938,null,"WORKER<img id = ""stim"" ><div class = green_square id = ""topsquare"" ></div><img id = ""stim"" ><div class = green_square  id = ""bottomsquare"" ></div>",null,word_square,response,0,none,true,,,
html-keyboard-response,291,594442,null,"WORKER",null,word,,,,, 'WORKER',,
html-keyboard-response,292,594947,null,"FLUTE<img id = ""stim"" ><div class = red_square id = ""topsquare"" ></div><img id = ""stim"" ><div class = red_square  id = ""bottomsquare"" ></div>",null,word_square,response,1,Space,false,,,
html-keyboard-response,293,596450,null,"FLUTE",null,word,,,,, 'FLUTE',,
html-keyboard-response,294,596955,null,"FLAG<img id = ""stim"" ><div class = green_square id = ""topsquare"" ></div><img id = ""stim"" ><div class = green_square  id = ""bottomsquare"" ></div>",null,word_square,response,0,none,true,,,
html-keyboard-response,295,598458,null,"FLAG",null,word,,,,, 'FLAG',,
html-keyboard-response,296,598960,499.9249999818858,"CHICKEN<img id = ""stim"" ><div class = green_square id = ""topsquare"" ></div><img id = ""stim"" ><div class = green_square  id = ""bottomsquare"" ></div>",32,word_square,response,0,none,false,,,
html-keyboard-response,297,600467,null,"CHICKEN",null,word,,,,, 'CHICKEN',,
html-keyboard-response,298,600972,null,"SAND<img id = ""stim"" ><div class = red_square id = ""topsquare"" ></div><img id = ""stim"" ><div class = red_square  id = ""bottomsquare"" ></div>",null,word_square,response,1,Space,false,,,
html-keyboard-response,299,602475,null,"SAND",null,word,,,,, 'SAND',,
html-keyboard-response,300,602981,null,"SICKLE<img id = ""stim"" ><div class = red_square id = ""topsquare"" ></div><img id = ""stim"" ><div class = red_square  id = ""bottomsquare"" ></div>",null,word_square,response,1,Space,false,,,
html-keyboard-response,301,604484,null,"SICKLE",null,word,,,,, 'SICKLE',,
html-keyboard-response,302,604989,null,"MAGNET<img id = ""stim"" ><div class = green_square id = ""topsquare"" ></div><img id = ""stim"" ><div class = green_square  id = ""bottomsquare"" ></div>",null,word_square,response,0,none,true,,,
html-keyboard-response,303,606492,null,"MAGNET",null,word,,,,, 'MAGNET',,
html-keyboard-response,304,606997,null,"CUPBOARD<img id = ""stim"" ><div class = red_square id = ""topsquare"" ></div><img id = ""stim"" ><div class = red_square  id = ""bottomsquare"" ></div>",null,word_square,response,1,Space,false,,,
html-keyboard-response,305,608504,null,"CUPBOARD",null,word,,,,, 'CUPBOARD',,
html-keyboard-response,306,609006,null,"CRIB<img id = ""stim"" ><div class = red_square id = ""topsquare"" ></div><img id = ""stim"" ><div class = red_square  id = ""bottomsquare"" ></div>",null,word_square,response,1,Space,false,,,
html-keyboard-response,307,610509,null,"CRIB",null,word,,,,, 'CRIB',,
html-keyboard-response,308,610679,167.4500000081025,"DAD<img id = ""stim"" ><div class = green_square id = ""topsquare"" ></div><img id = ""stim"" ><div class = green_square  id = ""bottomsquare"" ></div>",32,word_square,response,0,none,false,,,
html-keyboard-response,309,612181,null,"DAD",null,word,,,,, 'DAD',,
html-keyboard-response,310,612686,null,"EGYPT<img id = ""stim"" ><div class = red_square id = ""topsquare"" ></div><img id = ""stim"" ><div class = red_square  id = ""bottomsquare"" ></div>",null,word_square,response,1,Space,false,,,
html-keyboard-response,311,614190,null,"EGYPT",null,word,,,,, 'EGYPT',,
html-keyboard-response,312,614695,null,"TEMPLE<img id = ""stim"" ><div class = green_square id = ""topsquare"" ></div><img id = ""stim"" ><div class = green_square  id = ""bottomsquare"" ></div>",null,word_square,response,0,none,true,,,
html-keyboard-response,313,616198,null,"TEMPLE",null,word,,,,, 'TEMPLE',,
html-keyboard-response,314,616703,null,"CARRIAGE<img id = ""stim"" ><div class = green_square id = ""topsquare"" ></div><img id = ""stim"" ><div class = green_square  id = ""bottomsquare"" ></div>",null,word_square,response,0,none,true,,,
html-keyboard-response,315,618207,null,"CARRIAGE",null,word,,,,, 'CARRIAGE',,
html-keyboard-response,316,618712,null,"MUFFIN<img id = ""stim"" ><div class = red_square id = ""topsquare"" ></div><img id = ""stim"" ><div class = red_square  id = ""bottomsquare"" ></div>",null,word_square,response,1,Space,false,,,
html-keyboard-response,317,620215,null,"MUFFIN",null,word,,,,, 'MUFFIN',,
html-keyboard-response,318,620721,null,"TOASTER<img id = ""stim"" ><div class = green_square id = ""topsquare"" ></div><img id = ""stim"" ><div class = green_square  id = ""bottomsquare"" ></div>",null,word_square,response,0,none,true,,,
html-keyboard-response,319,622224,null,"TOASTER",null,word,,,,, 'TOASTER',,
call-function,320,622225,,"",,,,,,,,,
html-keyboard-response,321,622328,null,"",null,,,,,,,,
math-period,322,624149,3427.510000037728,"",,,,,,,,,2
html-keyboard-response,323,624253,null,"",null,,,,,,,,
math-period,324,626044,3402.0200000086334,"",,,,,,,,,2
html-keyboard-response,325,626149,null,"",null,,,,,,,,
math-period,326,627164,1917.7599999820814,"",,,,,,,,,4
html-keyboard-response,327,627268,null,"",null,,,,,,,,
math-period,328,628826,2862.1149999962654,"",,,,,,,,,2
html-keyboard-response,329,628928,null,"",null,,,,,,,,
math-period,330,630278,2536.965000006603,"",,,,,,,,,4
html-keyboard-response,331,630386,null,"",null,,,,,,,,
math-period,332,632246,3569.290000014007,"",,,,,,,,,2
html-keyboard-response,333,632349,null,"",null,,,,,,,,
math-period,334,633417,1928.7299999850802,"",,,,,,,,,2
html-keyboard-response,335,633520,null,"",null,,,,,,,,
math-period,336,634135,1066.164999967441,"",,,,,,,,,2
html-keyboard-response,337,634239,null,"",null,,,,,,,,
math-period,338,635251,1923.9799999631941,"",,,,,,,,,3
html-keyboard-response,339,635354,null,"",null,,,,,,,,
math-period,340,638325,5885.805000027176,"",,,,,,,,,2
html-keyboard-response,341,638427,null,"",null,,,,,,,,
math-period,342,639439,1865.4500000120606,"",,,,,,,,,4
html-keyboard-response,343,639542,null,"",null,,,,,,,,
math-period,344,642714,6159.329999994952,"",,,,,,,,,3
html-keyboard-response,345,642819,null,"",null,,,,,,,,
math-period,346,643917,2066.5099999750964,"",,,,,,,,,3
html-keyboard-response,347,644021,null,"",null,,,,,,,,
math-period,348,645178,2152.1199999842793,"",,,,,,,,,4
html-keyboard-response,349,645282,null,"",null,,,,,,,,
math-period,350,646227,null,"",,,,,,,,,
html-keyboard-response,351,647229,null,"Recall Period!",null,,,,,,,,
call-function,352,647231,,"",,,,,,,,,
html-keyboard-response,353,647336,null,"",null,,,,,,,,
recall-period,354,649858,14703.290000063134,"",,,,,,,,,sickle
html-keyboard-response,355,649961,null,"",null,,,,,,,,
recall-period,356,652194,12595.525000040652,"",,,,,,,,,muffin
html-keyboard-response,357,652297,null,"",null,,,,,,,,
recall-period,358,653259,3985.410000081174,"",,,,,,,,,sibling
html-keyboard-response,359,653362,null,"",null,,,,,,,,
recall-period,360,654198,3739.6850000077393,"",,,,,,,,,toaster
html-keyboard-response,361,654300,null,"",null,,,,,,,,
recall-period,362,663688,45388.41000007233,"",,,,,,,,,crib
html-keyboard-response,363,663792,null,"",null,,,,,,,,
recall-period,364,664913,6072.085000021616,"",,,,,,,,,cupboard
html-keyboard-response,365,665017,null,"",null,,,,,,,,
recall-period,366,680261,102102.24000009475,"",,,,,,,,,magnet
html-keyboard-response,367,680365,null,"",null,,,,,,,,
recall-period,368,722609,null,"",,,,,,,,,
html-keyboard-response,369,723651,null,"Time's Up!",null,,,,,,,,
html-keyboard-response,370,738104,14451.499999995576,"<p> Uh oh. You responded correctly on 65% of the red squares.</p>
                  <p>We need you keep your accuracy above 80%</p>
                  <p>Press any key to continue the experiment. Thank you!</p>",32,,,,,,,,
html-keyboard-response,371,739172,1066.8149999983143,"<div style=""font-size:48px;"">Press any key to begin list 4 of 24 </div>",32,,,,,,,,
html-keyboard-response,372,741677,null,"<div style=""font-size:60px;"">+</div>",null,,,,,,,,
html-keyboard-response,373,742134,455.4750000243075,"SLUG<img id = ""stim"" ><div class = red_square id = ""topsquare"" ></div><img id = ""stim"" ><div class = red_square  id = ""bottomsquare"" ></div>",32,word_square,response,1,Space,true,,,
html-keyboard-response,374,743639,null,"SLUG",null,word,,,,, 'SLUG',,
html-keyboard-response,375,744144,null,"LIZARD<img id = ""stim"" ><div class = red_square id = ""topsquare"" ></div><img id = ""stim"" ><div class = red_square  id = ""bottomsquare"" ></div>",null,word_square,response,1,Space,false,,,
html-keyboard-response,376,745647,null,"LIZARD",null,word,,,,, 'LIZARD',,
html-keyboard-response,377,746152,null,"BUREAU<img id = ""stim"" ><div class = green_square id = ""topsquare"" ></div><img id = ""stim"" ><div class = green_square  id = ""bottomsquare"" ></div>",null,word_square,response,0,none,true,,,
html-keyboard-response,378,747659,null,"BUREAU",null,word,,,,, 'BUREAU',,
html-keyboard-response,379,748161,null,"COMET<img id = ""stim"" ><div class = green_square id = ""topsquare"" ></div><img id = ""stim"" ><div class = green_square  id = ""bottomsquare"" ></div>",null,word_square,response,0,none,true,,,
html-keyboard-response,380,749664,null,"COMET",null,word,,,,, 'COMET',,
html-keyboard-response,381,750169,null,"SILK<img id = ""stim"" ><div class = red_square id = ""topsquare"" ></div><img id = ""stim"" ><div class = red_square  id = ""bottomsquare"" ></div>",null,word_square,response,1,Space,false,,,
html-keyboard-response,382,751673,null,"SILK",null,word,,,,, 'SILK',,
html-keyboard-response,383,752178,null,"BIBLE<img id = ""stim"" ><div class = green_square id = ""topsquare"" ></div><img id = ""stim"" ><div class = green_square  id = ""bottomsquare"" ></div>",null,word_square,response,0,none,true,,,
html-keyboard-response,384,753681,null,"BIBLE",null,word,,,,, 'BIBLE',,
html-keyboard-response,385,754186,null,"SCARF<img id = ""stim"" ><div class = green_square id = ""topsquare"" ></div><img id = ""stim"" ><div class = green_square  id = ""bottomsquare"" ></div>",null,word_square,response,0,none,true,,,
html-keyboard-response,386,755689,null,"SCARF",null,word,,,,, 'SCARF',,
html-keyboard-response,387,756183,491.8650000181515,"CIGAR<img id = ""stim"" ><div class = red_square id = ""topsquare"" ></div><img id = ""stim"" ><div class = red_square  id = ""bottomsquare"" ></div>",32,word_square,response,1,Space,true,,,
html-keyboard-response,388,757687,null,"CIGAR",null,word,,,,, 'CIGAR',,
html-keyboard-response,389,758161,472.50000000349246,"CAMEL<img id = ""stim"" ><div class = red_square id = ""topsquare"" ></div><img id = ""stim"" ><div class = red_square  id = ""bottomsquare"" ></div>",32,word_square,response,1,Space,true,,,
html-keyboard-response,390,759666,null,"CAMEL",null,word,,,,, 'CAMEL',,
html-keyboard-response,391,760171,null,"SAPPHIRE<img id = ""stim"" ><div class = green_square id = ""topsquare"" ></div><img id = ""stim"" ><div class = green_square  id = ""bottomsquare"" ></div>",null,word_square,response,0,none,true,,,
html-keyboard-response,392,761675,null,"SAPPHIRE",null,word,,,,, 'SAPPHIRE',,
html-keyboard-response,393,762180,null,"TRIGGER<img id = ""stim"" ><div class = red_square id = ""topsquare"" ></div><img id = ""stim"" ><div class = red_square  id = ""bottomsquare"" ></div>",null,word_square,response,1,Space,false,,,
html-keyboard-response,394,763683,null,"TRIGGER",null,word,,,,, 'TRIGGER',,
html-keyboard-response,395,764188,null,"CAPTAIN<img id = ""stim"" ><div class = red_square id = ""topsquare"" ></div><img id = ""stim"" ><div class = red_square  id = ""bottomsquare"" ></div>",null,word_square,response,1,Space,false,,,
html-keyboard-response,396,765692,null,"CAPTAIN",null,word,,,,, 'CAPTAIN',,
html-keyboard-response,397,766197,null,"CAPTIVE<img id = ""stim"" ><div class = green_square id = ""topsquare"" ></div><img id = ""stim"" ><div class = green_square  id = ""bottomsquare"" ></div>",null,word_square,response,0,none,true,,,
html-keyboard-response,398,767700,null,"CAPTIVE",null,word,,,,, 'CAPTIVE',,
html-keyboard-response,399,768205,null,"INSECT<img id = ""stim"" ><div class = red_square id = ""topsquare"" ></div><img id = ""stim"" ><div class = red_square  id = ""bottomsquare"" ></div>",null,word_square,response,1,Space,false,,,
html-keyboard-response,400,769709,null,"INSECT",null,word,,,,, 'INSECT',,
html-keyboard-response,401,770214,null,"FRAME<img id = ""stim"" ><div class = green_square id = ""topsquare"" ></div><img id = ""stim"" ><div class = green_square  id = ""bottomsquare"" ></div>",null,word_square,response,0,none,true,,,
html-keyboard-response,402,771717,null,"FRAME",null,word,,,,, 'FRAME',,
html-keyboard-response,403,772222,null,"CAPE<img id = ""stim"" ><div class = green_square id = ""topsquare"" ></div><img id = ""stim"" ><div class = green_square  id = ""bottomsquare"" ></div>",null,word_square,response,0,none,true,,,
html-keyboard-response,404,773725,null,"CAPE",null,word,,,,, 'CAPE',,
html-keyboard-response,405,774231,null,"WARDROBE<img id = ""stim"" ><div class = red_square id = ""topsquare"" ></div><img id = ""stim"" ><div class = red_square  id = ""bottomsquare"" ></div>",null,word_square,response,1,Space,false,,,
html-keyboard-response,406,775734,null,"WARDROBE",null,word,,,,, 'WARDROBE',,
html-keyboard-response,407,776239,null,"PLAID<img id = ""stim"" ><div class = green_square id = ""topsquare"" ></div><img id = ""stim"" ><div class = green_square  id = ""bottomsquare"" ></div>",null,word_square,response,0,none,true,,,
html-keyboard-response,408,777743,null,"PLAID",null,word,,,,, 'PLAID',,
call-function,409,777744,,"",,,,,,,,,
html-keyboard-response,410,777847,null,"",null,,,,,,,,
math-period,411,780338,4787.144999980228,"",,,,,,,,,5
html-keyboard-response,412,780441,null,"",null,,,,,,,,
math-period,413,782063,3071.109999989858,"",,,,,,,,,2
html-keyboard-response,414,782166,null,"",null,,,,,,,,
math-period,415,784347,4231.970000022557,"",,,,,,,,,2
html-keyboard-response,416,784451,null,"",null,,,,,,,,
math-period,417,787341,9949.819999950705,"",,,,,,,,,3
html-keyboard-response,418,787445,null,"",null,,,,,,,,
math-period,419,789245,3376.585000019986,"",,,,,,,,,2
html-keyboard-response,420,789349,null,"",null,,,,,,,,
math-period,421,791396,3838.3949999988545,"",,,,,,,,,2
html-keyboard-response,422,791499,null,"",null,,,,,,,,
math-period,423,792456,1808.0599999811966,"",,,,,,,,,3
html-keyboard-response,424,792560,null,"",null,,,,,,,,
math-period,425,796480,7518.030000006547,"",,,,,,,,,1
html-keyboard-response,426,796585,null,"",null,,,,,,,,
math-period,427,800544,6081.384999968577,"",,,,,,,,,5
html-keyboard-response,428,800647,null,"",null,,,,,,,,
math-period,429,801746,1078.2400000025518,"",,,,,,,,,5
html-keyboard-response,430,802748,null,"Recall Period!",null,,,,,,,,
call-function,431,802750,,"",,,,,,,,,
html-keyboard-response,432,802855,null,"",null,,,,,,,,
recall-period,433,807987,39881.49499995052,"",,,,,,,,,wardrobe
html-keyboard-response,434,808089,null,"",null,,,,,,,,
recall-period,435,809796,9506.404999934603,"",,,,,,,,,captive
html-keyboard-response,436,809902,null,"",null,,,,,,,,
recall-period,437,810902,4057.710000051884,"",,,,,,,,,captain
html-keyboard-response,438,811004,null,"",null,,,,,,,,
recall-period,439,812649,7759.725000039907,"",,,,,,,,,cigar
html-keyboard-response,440,812753,null,"",null,,,,,,,,
recall-period,441,815136,11913.50500009139,"",,,,,,,,,slug
html-keyboard-response,442,815240,null,"",null,,,,,,,,
recall-period,443,816395,5175.115000049118,"",,,,,,,,,lizard
html-keyboard-response,444,816499,null,"",null,,,,,,,,
recall-period,445,877750,null,"",,,,,,,,,
html-keyboard-response,446,878689,null,"Time's Up!",null,,,,,,,,
html-keyboard-response,447,914091,35401.35499997996,"<p> Uh oh. You responded correctly on 66% of the red squares.</p>
                  <p>We need you keep your accuracy above 80%</p>
                  <p>Press any key to continue the experiment. Thank you!</p>",32,,,,,,,,
html-keyboard-response,448,915192,1099.1350000258535,"<div style=""font-size:48px;"">Press any key to begin list 5 of 24 </div>",32,,,,,,,,
html-keyboard-response,449,917699,null,"<div style=""font-size:60px;"">+</div>",null,,,,,,,,
html-keyboard-response,450,918204,null,"TRANSPLANT<img id = ""stim"" ><div class = red_square id = ""topsquare"" ></div><img id = ""stim"" ><div class = red_square  id = ""bottomsquare"" ></div>",null,word_square,response,1,Space,false,,,
html-keyboard-response,451,919707,null,"TRANSPLANT",null,word,,,,, 'TRANSPLANT',,
html-keyboard-response,452,920212,null,"FRIEND<img id = ""stim"" ><div class = green_square id = ""topsquare"" ></div><img id = ""stim"" ><div class = green_square  id = ""bottomsquare"" ></div>",null,word_square,response,0,none,true,,,
html-keyboard-response,453,921716,null,"FRIEND",null,word,,,,, 'FRIEND',,
html-keyboard-response,454,922221,null,"SNAIL<img id = ""stim"" ><div class = green_square id = ""topsquare"" ></div><img id = ""stim"" ><div class = green_square  id = ""bottomsquare"" ></div>",null,word_square,response,0,none,true,,,
html-keyboard-response,455,923724,null,"SNAIL",null,word,,,,, 'SNAIL',,
html-keyboard-response,456,924229,null,"TURTLE<img id = ""stim"" ><div class = red_square id = ""topsquare"" ></div><img id = ""stim"" ><div class = red_square  id = ""bottomsquare"" ></div>",null,word_square,response,1,Space,false,,,
html-keyboard-response,457,925733,null,"TURTLE",null,word,,,,, 'TURTLE',,
html-keyboard-response,458,926238,null,"CLOUD<img id = ""stim"" ><div class = green_square id = ""topsquare"" ></div><img id = ""stim"" ><div class = green_square  id = ""bottomsquare"" ></div>",null,word_square,response,0,none,true,,,
html-keyboard-response,459,927741,null,"CLOUD",null,word,,,,, 'CLOUD',,
html-keyboard-response,460,928246,null,"SMOG<img id = ""stim"" ><div class = red_square id = ""topsquare"" ></div><img id = ""stim"" ><div class = red_square  id = ""bottomsquare"" ></div>",null,word_square,response,1,Space,false,,,
html-keyboard-response,461,929750,null,"SMOG",null,word,,,,, 'SMOG',,
html-keyboard-response,462,930255,null,"FIST<img id = ""stim"" ><div class = green_square id = ""topsquare"" ></div><img id = ""stim"" ><div class = green_square  id = ""bottomsquare"" ></div>",null,word_square,response,0,none,true,,,
html-keyboard-response,463,931758,null,"FIST",null,word,,,,, 'FIST',,
html-keyboard-response,464,932263,null,"JOKER<img id = ""stim"" ><div class = red_square id = ""topsquare"" ></div><img id = ""stim"" ><div class = red_square  id = ""bottomsquare"" ></div>",null,word_square,response,1,Space,false,,,
html-keyboard-response,465,933766,null,"JOKER",null,word,,,,, 'JOKER',,
html-keyboard-response,466,934190,421.2249999982305,"CLIMBER<img id = ""stim"" ><div class = red_square id = ""topsquare"" ></div><img id = ""stim"" ><div class = red_square  id = ""bottomsquare"" ></div>",32,word_square,response,1,Space,true,,,
html-keyboard-response,467,935694,null,"CLIMBER",null,word,,,,, 'CLIMBER',,
html-keyboard-response,468,936199,null,"ORGAN<img id = ""stim"" ><div class = green_square id = ""topsquare"" ></div><img id = ""stim"" ><div class = green_square  id = ""bottomsquare"" ></div>",null,word_square,response,0,none,true,,,
html-keyboard-response,469,937702,null,"ORGAN",null,word,,,,, 'ORGAN',,
html-keyboard-response,470,938207,null,"BATHTUB<img id = ""stim"" ><div class = red_square id = ""topsquare"" ></div><img id = ""stim"" ><div class = red_square  id = ""bottomsquare"" ></div>",null,word_square,response,1,Space,false,,,
html-keyboard-response,471,939711,null,"BATHTUB",null,word,,,,, 'BATHTUB',,
html-keyboard-response,472,940216,null,"TWISTER<img id = ""stim"" ><div class = green_square id = ""topsquare"" ></div><img id = ""stim"" ><div class = green_square  id = ""bottomsquare"" ></div>",null,word_square,response,0,none,true,,,
html-keyboard-response,473,941719,null,"TWISTER",null,word,,,,, 'TWISTER',,
html-keyboard-response,474,942224,null,"BRACES<img id = ""stim"" ><div class = green_square id = ""topsquare"" ></div><img id = ""stim"" ><div class = green_square  id = ""bottomsquare"" ></div>",null,word_square,response,0,none,true,,,
html-keyboard-response,475,943728,null,"BRACES",null,word,,,,, 'BRACES',,
html-keyboard-response,476,944227,497.13500001234934,"TURKEY<img id = ""stim"" ><div class = red_square id = ""topsquare"" ></div><img id = ""stim"" ><div class = red_square  id = ""bottomsquare"" ></div>",32,word_square,response,1,Space,true,,,
html-keyboard-response,477,945730,null,"TURKEY",null,word,,,,, 'TURKEY',,
html-keyboard-response,478,946210,477.71999999531545,"PERCH<img id = ""stim"" ><div class = red_square id = ""topsquare"" ></div><img id = ""stim"" ><div class = red_square  id = ""bottomsquare"" ></div>",32,word_square,response,1,Space,true,,,
html-keyboard-response,479,947716,null,"PERCH",null,word,,,,, 'PERCH',,
html-keyboard-response,480,948221,null,"CLIFF<img id = ""stim"" ><div class = green_square id = ""topsquare"" ></div><img id = ""stim"" ><div class = green_square  id = ""bottomsquare"" ></div>",null,word_square,response,0,none,true,,,
html-keyboard-response,481,949724,null,"CLIFF",null,word,,,,, 'CLIFF',,
html-keyboard-response,482,950229,null,"PLUMBER<img id = ""stim"" ><div class = green_square id = ""topsquare"" ></div><img id = ""stim"" ><div class = green_square  id = ""bottomsquare"" ></div>",null,word_square,response,0,none,true,,,
html-keyboard-response,483,951732,null,"PLUMBER",null,word,,,,, 'PLUMBER',,
html-keyboard-response,484,952238,null,"GIFT<img id = ""stim"" ><div class = red_square id = ""topsquare"" ></div><img id = ""stim"" ><div class = red_square  id = ""bottomsquare"" ></div>",null,word_square,response,1,Space,false,,,
html-keyboard-response,485,953741,null,"GIFT",null,word,,,,, 'GIFT',,
call-function,486,953742,,"",,,,,,,,,
html-keyboard-response,487,953846,null,"",null,,,,,,,,
math-period,488,957835,7863.5749999957625,"",,,,,,,,,4
html-keyboard-response,489,957939,null,"",null,,,,,,,,
math-period,490,959150,2301.190000027418,"",,,,,,,,,4
html-keyboard-response,491,959256,null,"",null,,,,,,,,
math-period,492,960721,4726.819999981672,"",,,,,,,,,3
html-keyboard-response,493,960824,null,"",null,,,,,,,,
math-period,494,964773,7713.179999962449,"",,,,,,,,,1
html-keyboard-response,495,964877,null,"",null,,,,,,,,
math-period,496,966365,2841.3650000293273,"",,,,,,,,,4
html-keyboard-response,497,966469,null,"",null,,,,,,,,
math-period,498,968705,4323.7800000060815,"",,,,,,,,,4
html-keyboard-response,499,968811,null,"",null,,,,,,,,
math-period,500,971635,5399.539999983972,"",,,,,,,,,4
html-keyboard-response,501,971739,null,"",null,,,,,,,,
math-period,502,972775,1948.2199999911245,"",,,,,,,,,3
html-keyboard-response,503,972880,null,"",null,,,,,,,,
math-period,504,975032,4137.729999987641,"",,,,,,,,,1
html-keyboard-response,505,975135,null,"",null,,,,,,,,
math-period,506,976312,2220.549999998184,"",,,,,,,,,3
html-keyboard-response,507,976416,null,"",null,,,,,,,,
math-period,508,977533,2117.545000015525,"",,,,,,,,,3
html-keyboard-response,509,977637,null,"",null,,,,,,,,
math-period,510,977745,null,"",,,,,,,,,
html-keyboard-response,511,978747,null,"Recall Period!",null,,,,,,,,
call-function,512,978749,,"",,,,,,,,,
html-keyboard-response,513,978853,null,"",null,,,,,,,,
recall-period,514,980911,11608.359999925597,"",,,,,,,,,plumber
html-keyboard-response,515,981014,null,"",null,,,,,,,,
recall-period,516,982283,4857.524999941234,"",,,,,,,,,turtle
html-keyboard-response,517,982386,null,"",null,,,,,,,,
recall-period,518,983386,3824.810000049183,"",,,,,,,,,gift
html-keyboard-response,519,983488,null,"",null,,,,,,,,
recall-period,520,992451,51186.134999938076,"",,,,,,,,,snail
html-keyboard-response,521,992555,null,"",null,,,,,,,,
recall-period,522,1005848,119888.9649999328,"",,,,,,,,,transpant
html-keyboard-response,523,1005951,null,"",null,,,,,,,,
recall-period,524,1006868,3516.3350000220817,"",,,,,,,,,friend
html-keyboard-response,525,1006971,null,"",null,,,,,,,,
recall-period,526,1011645,26812.03500003903,"",,,,,,,,,cloud
html-keyboard-response,527,1011747,null,"",null,,,,,,,,
recall-period,528,1013593,7652.035000035539,"",,,,,,,,,smog
html-keyboard-response,529,1013700,null,"",null,,,,,,,,
recall-period,530,1016172,10653.844999906141,"",,,,,,,,,fist
html-keyboard-response,531,1016277,null,"",null,,,,,,,,
recall-period,532,1018081,8414.624999975786,"",,,,,,,,,joker
html-keyboard-response,533,1018184,null,"",null,,,,,,,,
recall-period,534,1022241,22033.474999974715,"",,,,,,,,,organ
html-keyboard-response,535,1022345,null,"",null,,,,,,,,
recall-period,536,1026064,14472.80000007595,"",,,,,,,,,bathtub
html-keyboard-response,537,1026167,null,"",null,,,,,,,,
recall-period,538,1029976,23146.220000024186,"",,,,,,,,,turkey
html-keyboard-response,539,1030080,null,"",null,,,,,,,,
recall-period,540,1053750,null,"",,,,,,,,,
html-keyboard-response,541,1054253,null,"Time's Up!",null,,,,,,,,
html-keyboard-response,542,1060232,5976.729999994859,"<p> Uh oh. You responded correctly on 66% of the red squares.</p>
                  <p>We need you keep your accuracy above 80%</p>
                  <p>Press any key to continue the experiment. Thank you!</p>",32,,,,,,,,
html-keyboard-response,543,1062111,1877.0950000034645,"<div style=""font-size:48px;"">Press any key to begin list 6 of 24 </div>",32,,,,,,,,
html-keyboard-response,544,1064615,null,"<div style=""font-size:60px;"">+</div>",null,,,,,,,,
html-keyboard-response,545,1065120,null,"YACHT<img id = ""stim"" ><div class = red_square id = ""topsquare"" ></div><img id = ""stim"" ><div class = red_square  id = ""bottomsquare"" ></div>",null,word_square,response,1,Space,false,,,
html-keyboard-response,546,1066623,null,"YACHT",null,word,,,,, 'YACHT',,
html-keyboard-response,547,1067128,null,"VIKING<img id = ""stim"" ><div class = green_square id = ""topsquare"" ></div><img id = ""stim"" ><div class = green_square  id = ""bottomsquare"" ></div>",null,word_square,response,0,none,true,,,
html-keyboard-response,548,1068632,null,"VIKING",null,word,,,,, 'VIKING',,
html-keyboard-response,549,1069137,null,"LAKE<img id = ""stim"" ><div class = green_square id = ""topsquare"" ></div><img id = ""stim"" ><div class = green_square  id = ""bottomsquare"" ></div>",null,word_square,response,0,none,true,,,
html-keyboard-response,550,1070640,null,"LAKE",null,word,,,,, 'LAKE',,
html-keyboard-response,551,1070945,303.45999999553896,"HAMPER<img id = ""stim"" ><div class = red_square id = ""topsquare"" ></div><img id = ""stim"" ><div class = red_square  id = ""bottomsquare"" ></div>",32,word_square,response,1,Space,true,,,
html-keyboard-response,552,1072451,null,"HAMPER",null,word,,,,, 'HAMPER',,
html-keyboard-response,553,1072956,null,"ALMOND<img id = ""stim"" ><div class = green_square id = ""topsquare"" ></div><img id = ""stim"" ><div class = green_square  id = ""bottomsquare"" ></div>",null,word_square,response,0,none,true,,,
html-keyboard-response,554,1074460,null,"ALMOND",null,word,,,,, 'ALMOND',,
html-keyboard-response,555,1074951,489.32500000228174,"LION<img id = ""stim"" ><div class = red_square id = ""topsquare"" ></div><img id = ""stim"" ><div class = red_square  id = ""bottomsquare"" ></div>",32,word_square,response,1,Space,true,,,
html-keyboard-response,556,1076457,null,"LION",null,word,,,,, 'LION',,
html-keyboard-response,557,1076962,null,"CREATURE<img id = ""stim"" ><div class = green_square id = ""topsquare"" ></div><img id = ""stim"" ><div class = green_square  id = ""bottomsquare"" ></div>",null,word_square,response,0,none,true,,,
html-keyboard-response,558,1078465,null,"CREATURE",null,word,,,,, 'CREATURE',,
html-keyboard-response,559,1078970,null,"SWATTER<img id = ""stim"" ><div class = red_square id = ""topsquare"" ></div><img id = ""stim"" ><div class = red_square  id = ""bottomsquare"" ></div>",null,word_square,response,1,Space,false,,,
html-keyboard-response,560,1080474,null,"SWATTER",null,word,,,,, 'SWATTER',,
html-keyboard-response,561,1080979,null,"GLOVE<img id = ""stim"" ><div class = red_square id = ""topsquare"" ></div><img id = ""stim"" ><div class = red_square  id = ""bottomsquare"" ></div>",null,word_square,response,1,Space,false,,,
html-keyboard-response,562,1082482,null,"GLOVE",null,word,,,,, 'GLOVE',,
html-keyboard-response,563,1082987,null,"DIAMOND<img id = ""stim"" ><div class = green_square id = ""topsquare"" ></div><img id = ""stim"" ><div class = green_square  id = ""bottomsquare"" ></div>",null,word_square,response,0,none,true,,,
html-keyboard-response,564,1084491,null,"DIAMOND",null,word,,,,, 'DIAMOND',,
html-keyboard-response,565,1084867,374.5249999919906,"HUMAN<img id = ""stim"" ><div class = red_square id = ""topsquare"" ></div><img id = ""stim"" ><div class = red_square  id = ""bottomsquare"" ></div>",32,word_square,response,1,Space,true,,,
html-keyboard-response,566,1086371,null,"HUMAN",null,word,,,,, 'HUMAN',,
html-keyboard-response,567,1086876,null,"MAILMAN<img id = ""stim"" ><div class = green_square id = ""topsquare"" ></div><img id = ""stim"" ><div class = green_square  id = ""bottomsquare"" ></div>",null,word_square,response,0,none,true,,,
html-keyboard-response,568,1088380,null,"MAILMAN",null,word,,,,, 'MAILMAN',,
html-keyboard-response,569,1088885,null,"VENUS<img id = ""stim"" ><div class = green_square id = ""topsquare"" ></div><img id = ""stim"" ><div class = green_square  id = ""bottomsquare"" ></div>",null,word_square,response,0,none,true,,,
html-keyboard-response,570,1090388,null,"VENUS",null,word,,,,, 'VENUS',,
html-keyboard-response,571,1090893,null,"MACHINE<img id = ""stim"" ><div class = red_square id = ""topsquare"" ></div><img id = ""stim"" ><div class = red_square  id = ""bottomsquare"" ></div>",null,word_square,response,1,Space,false,,,
html-keyboard-response,572,1092397,null,"MACHINE",null,word,,,,, 'MACHINE',,
html-keyboard-response,573,1092902,null,"XEROX<img id = ""stim"" ><div class = red_square id = ""topsquare"" ></div><img id = ""stim"" ><div class = red_square  id = ""bottomsquare"" ></div>",null,word_square,response,1,Space,false,,,
html-keyboard-response,574,1094406,null,"XEROX",null,word,,,,, 'XEROX',,
html-keyboard-response,575,1094910,null,"BROOK<img id = ""stim"" ><div class = green_square id = ""topsquare"" ></div><img id = ""stim"" ><div class = green_square  id = ""bottomsquare"" ></div>",null,word_square,response,0,none,true,,,
html-keyboard-response,576,1096414,null,"BROOK",null,word,,,,, 'BROOK',,
html-keyboard-response,577,1096919,null,"SERPENT<img id = ""stim"" ><div class = green_square id = ""topsquare"" ></div><img id = ""stim"" ><div class = green_square  id = ""bottomsquare"" ></div>",null,word_square,response,0,none,true,,,
html-keyboard-response,578,1098423,null,"SERPENT",null,word,,,,, 'SERPENT',,
html-keyboard-response,579,1098927,null,"DOUGHNUT<img id = ""stim"" ><div class = red_square id = ""topsquare"" ></div><img id = ""stim"" ><div class = red_square  id = ""bottomsquare"" ></div>",null,word_square,response,1,Space,false,,,
html-keyboard-response,580,1100431,null,"DOUGHNUT",null,word,,,,, 'DOUGHNUT',,
call-function,581,1100434,,"",,,,,,,,,
html-keyboard-response,582,1100535,null,"",null,,,,,,,,
math-period,583,1102138,2806.3449999899603,"",,,,,,,,,3
html-keyboard-response,584,1102241,null,"",null,,,,,,,,
math-period,585,1104215,3688.735000003362,"",,,,,,,,,0
html-keyboard-response,586,1104319,null,"",null,,,,,,,,
math-period,587,1105302,1874.515000032261,"",,,,,,,,,4
html-keyboard-response,588,1105405,null,"",null,,,,,,,,
math-period,589,1106766,2645.649999991292,"",,,,,,,,,2
html-keyboard-response,590,1106868,null,"",null,,,,,,,,
math-period,591,1108009,2169.125000014901,"",,,,,,,,,6
html-keyboard-response,592,1108112,null,"",null,,,,,,,,
math-period,593,1110256,4119.695000001229,"",,,,,,,,,4
html-keyboard-response,594,1110363,null,"",null,,,,,,,,
math-period,595,1114380,7845.999999990454,"",,,,,,,,,4
html-keyboard-response,596,1114484,null,"",null,,,,,,,,
math-period,597,1116600,3784.9200000055134,"",,,,,,,,,4
html-keyboard-response,598,1116704,null,"",null,,,,,,,,
math-period,599,1118029,2493.879999994533,"",,,,,,,,,5
html-keyboard-response,600,1118136,null,"",null,,,,,,,,
math-period,601,1119289,2178.1100000080187,"",,,,,,,,,6
html-keyboard-response,602,1119395,null,"",null,,,,,,,,
math-period,603,1120531,2132.8299999877345,"",,,,,,,,,5
html-keyboard-response,604,1120634,null,"",null,,,,,,,,
math-period,605,1122729,3845.8299999765586,"",,,,,,,,,1
html-keyboard-response,606,1122831,null,"",null,,,,,,,,
math-period,607,1123978,2193.710000021383,"",,,,,,,,,4
html-keyboard-response,608,1124082,null,"",null,,,,,,,,
math-period,609,1124435,null,"",,,,,,,,,
html-keyboard-response,610,1125439,null,"Recall Period!",null,,,,,,,,
call-function,611,1125440,,"",,,,,,,,,
html-keyboard-response,612,1125543,null,"",null,,,,,,,,
recall-period,613,1127195,8905.760000023292,"",,,,,,,,,serpent
html-keyboard-response,614,1127299,null,"",null,,,,,,,,
recall-period,615,1128427,4062.4449999886565,"",,,,,,,,,lion
html-keyboard-response,616,1128532,null,"",null,,,,,,,,
recall-period,617,1129624,4576.385000022128,"",,,,,,,,,mailman
html-keyboard-response,618,1129728,null,"",null,,,,,,,,
recall-period,619,1130769,4297.764999995707,"",,,,,,,,,human
html-keyboard-response,620,1130873,null,"",null,,,,,,,,
recall-period,621,1138024,60516.42000002903,"",,,,,,,,,creature
html-keyboard-response,622,1138127,null,"",null,,,,,,,,
recall-period,623,1200444,null,"",,,,,,,,,
html-keyboard-response,624,1200948,null,"Time's Up!",null,,,,,,,,
html-keyboard-response,625,1208767,7816.78500000271,"<p> Uh oh. You responded correctly on 66% of the red squares.</p>
                  <p>We need you keep your accuracy above 80%</p>
                  <p>Press any key to continue the experiment. Thank you!</p>",32,,,,,,,,
html-keyboard-response,626,1238186,29416.915000008885,"<div style=""font-size:48px;"">Press any key to begin list 7 of 24 </div>",32,,,,,,,,
html-keyboard-response,627,1240689,null,"<div style=""font-size:60px;"">+</div>",null,,,,,,,,
html-keyboard-response,628,1241194,null,"SANDWICH<img id = ""stim"" ><div class = green_square id = ""topsquare"" ></div><img id = ""stim"" ><div class = green_square  id = ""bottomsquare"" ></div>",null,word_square,response,0,none,true,,,
html-keyboard-response,629,1242697,null,"SANDWICH",null,word,,,,, 'SANDWICH',,
html-keyboard-response,630,1243202,null,"BANQUET<img id = ""stim"" ><div class = red_square id = ""topsquare"" ></div><img id = ""stim"" ><div class = red_square  id = ""bottomsquare"" ></div>",null,word_square,response,1,Space,false,,,
html-keyboard-response,631,1244706,null,"BANQUET",null,word,,,,, 'BANQUET',,
html-keyboard-response,632,1245211,null,"BOTTLE<img id = ""stim"" ><div class = red_square id = ""topsquare"" ></div><img id = ""stim"" ><div class = red_square  id = ""bottomsquare"" ></div>",null,word_square,response,1,Space,false,,,
html-keyboard-response,633,1246714,null,"BOTTLE",null,word,,,,, 'BOTTLE',,
html-keyboard-response,634,1247219,null,"FOUNTAIN<img id = ""stim"" ><div class = green_square id = ""topsquare"" ></div><img id = ""stim"" ><div class = green_square  id = ""bottomsquare"" ></div>",null,word_square,response,0,none,true,,,
html-keyboard-response,635,1248723,null,"FOUNTAIN",null,word,,,,, 'FOUNTAIN',,
html-keyboard-response,636,1249228,null,"PASTA<img id = ""stim"" ><div class = red_square id = ""topsquare"" ></div><img id = ""stim"" ><div class = red_square  id = ""bottomsquare"" ></div>",null,word_square,response,1,Space,false,,,
html-keyboard-response,637,1250731,null,"PASTA",null,word,,,,, 'PASTA',,
html-keyboard-response,638,1251236,null,"SAUSAGE<img id = ""stim"" ><div class = green_square id = ""topsquare"" ></div><img id = ""stim"" ><div class = green_square  id = ""bottomsquare"" ></div>",null,word_square,response,0,none,true,,,
html-keyboard-response,639,1252740,null,"SAUSAGE",null,word,,,,, 'SAUSAGE',,
html-keyboard-response,640,1253245,null,"UMPIRE<img id = ""stim"" ><div class = red_square id = ""topsquare"" ></div><img id = ""stim"" ><div class = red_square  id = ""bottomsquare"" ></div>",null,word_square,response,1,Space,false,,,
html-keyboard-response,641,1254748,null,"UMPIRE",null,word,,,,, 'UMPIRE',,
html-keyboard-response,642,1255253,null,"HERO<img id = ""stim"" ><div class = green_square id = ""topsquare"" ></div><img id = ""stim"" ><div class = green_square  id = ""bottomsquare"" ></div>",null,word_square,response,0,none,true,,,
html-keyboard-response,643,1256757,null,"HERO",null,word,,,,, 'HERO',,
html-keyboard-response,644,1257262,null,"CHARCOAL<img id = ""stim"" ><div class = green_square id = ""topsquare"" ></div><img id = ""stim"" ><div class = green_square  id = ""bottomsquare"" ></div>",null,word_square,response,0,none,true,,,
html-keyboard-response,645,1258768,null,"CHARCOAL",null,word,,,,, 'CHARCOAL',,
html-keyboard-response,646,1259270,null,"HONEY<img id = ""stim"" ><div class = red_square id = ""topsquare"" ></div><img id = ""stim"" ><div class = red_square  id = ""bottomsquare"" ></div>",null,word_square,response,1,Space,false,,,
html-keyboard-response,647,1260774,null,"HONEY",null,word,,,,, 'HONEY',,
html-keyboard-response,648,1261279,null,"SKILLET<img id = ""stim"" ><div class = green_square id = ""topsquare"" ></div><img id = ""stim"" ><div class = green_square  id = ""bottomsquare"" ></div>",null,word_square,response,0,none,true,,,
html-keyboard-response,649,1262782,null,"SKILLET",null,word,,,,, 'SKILLET',,
html-keyboard-response,650,1263287,null,"IDOL<img id = ""stim"" ><div class = red_square id = ""topsquare"" ></div><img id = ""stim"" ><div class = red_square  id = ""bottomsquare"" ></div>",null,word_square,response,1,Space,false,,,
html-keyboard-response,651,1264791,null,"IDOL",null,word,,,,, 'IDOL',,
html-keyboard-response,652,1265296,null,"PRIEST<img id = ""stim"" ><div class = red_square id = ""topsquare"" ></div><img id = ""stim"" ><div class = red_square  id = ""bottomsquare"" ></div>",null,word_square,response,1,Space,false,,,
html-keyboard-response,653,1266799,null,"PRIEST",null,word,,,,, 'PRIEST',,
html-keyboard-response,654,1267304,null,"COOKBOOK<img id = ""stim"" ><div class = green_square id = ""topsquare"" ></div><img id = ""stim"" ><div class = green_square  id = ""bottomsquare"" ></div>",null,word_square,response,0,none,true,,,
html-keyboard-response,655,1268807,null,"COOKBOOK",null,word,,,,, 'COOKBOOK',,
html-keyboard-response,656,1269313,null,"BINDER<img id = ""stim"" ><div class = green_square id = ""topsquare"" ></div><img id = ""stim"" ><div class = green_square  id = ""bottomsquare"" ></div>",null,word_square,response,0,none,true,,,
html-keyboard-response,657,1270816,null,"BINDER",null,word,,,,, 'BINDER',,
html-keyboard-response,658,1271321,null,"JOURNAL<img id = ""stim"" ><div class = red_square id = ""topsquare"" ></div><img id = ""stim"" ><div class = red_square  id = ""bottomsquare"" ></div>",null,word_square,response,1,Space,false,,,
html-keyboard-response,659,1272825,null,"JOURNAL",null,word,,,,, 'JOURNAL',,
html-keyboard-response,660,1273330,null,"DRILL<img id = ""stim"" ><div class = red_square id = ""topsquare"" ></div><img id = ""stim"" ><div class = red_square  id = ""bottomsquare"" ></div>",null,word_square,response,1,Space,false,,,
html-keyboard-response,661,1274833,null,"DRILL",null,word,,,,, 'DRILL',,
html-keyboard-response,662,1275338,null,"BARLEY<img id = ""stim"" ><div class = green_square id = ""topsquare"" ></div><img id = ""stim"" ><div class = green_square  id = ""bottomsquare"" ></div>",null,word_square,response,0,none,true,,,
html-keyboard-response,663,1276841,null,"BARLEY",null,word,,,,, 'BARLEY',,
call-function,664,1276843,,"",,,,,,,,,
html-keyboard-response,665,1276946,null,"",null,,,,,,,,
math-period,666,1280642,5452.030000014929,"",,,,,,,,,1
html-keyboard-response,667,1280745,null,"",null,,,,,,,,
math-period,668,1282272,2833.5950000036974,"",,,,,,,,,4
html-keyboard-response,669,1282376,null,"",null,,,,,,,,
math-period,670,1283331,1788.8850000454113,"",,,,,,,,,3
html-keyboard-response,671,1283436,null,"",null,,,,,,,,
math-period,672,1284699,2314.94000001112,"",,,,,,,,,4
html-keyboard-response,673,1284802,null,"",null,,,,,,,,
math-period,674,1285913,2108.815000014147,"",,,,,,,,,5
html-keyboard-response,675,1286019,null,"",null,,,,,,,,
math-period,676,1287055,1981.98000001139,"",,,,,,,,,3
html-keyboard-response,677,1287158,null,"",null,,,,,,,,
math-period,678,1289624,4593.215000000782,"",,,,,,,,,1
html-keyboard-response,679,1289728,null,"",null,,,,,,,,
math-period,680,1291706,3774.0950000297744,"",,,,,,,,,4
html-keyboard-response,681,1291812,null,"",null,,,,,,,,
math-period,682,1294032,3837.7349999791477,"",,,,,,,,,1
html-keyboard-response,683,1294136,null,"",null,,,,,,,,
math-period,684,1295764,3048.0549999920186,"",,,,,,,,,5
html-keyboard-response,685,1295867,null,"",null,,,,,,,,
math-period,686,1297957,4048.0899999965914,"",,,,,,,,,2
html-keyboard-response,687,1298062,null,"",null,,,,,,,,
math-period,688,1300279,4328.819999966072,"",,,,,,,,,4
html-keyboard-response,689,1300382,null,"",null,,,,,,,,
math-period,690,1300845,null,"",,,,,,,,,
html-keyboard-response,691,1301847,null,"Recall Period!",null,,,,,,,,
call-function,692,1301849,,"",,,,,,,,,
html-keyboard-response,693,1301953,null,"",null,,,,,,,,
recall-period,694,1305373,32368.13999977312,"",,,,,,,,,journal
html-keyboard-response,695,1305477,null,"",null,,,,,,,,
recall-period,696,1308812,30099.13500008406,"",,,,,,,,,binder
html-keyboard-response,697,1308915,null,"",null,,,,,,,,
recall-period,698,1310276,6570.7549999060575,"",,,,,,,,,sausage
html-keyboard-response,699,1310382,null,"",null,,,,,,,,
recall-period,700,1316373,28456.98999997694,"",,,,,,,,,hero
html-keyboard-response,701,1316477,null,"",null,,,,,,,,
recall-period,702,1376941,null,"",,,,,,,,,
html-keyboard-response,703,1377444,null,"Time's Up!",null,,,,,,,,
html-keyboard-response,704,1379332,1885.1450000074692,"<p> Uh oh. You responded correctly on 64% of the red squares.</p>
                  <p>We need you keep your accuracy above 80%</p>
                  <p>Press any key to continue the experiment. Thank you!</p>",32,,,,,,,,
html-keyboard-response,705,1380620,1286.9699999864679,"<div style=""font-size:48px;"">Press any key to begin list 8 of 24 </div>",32,,,,,,,,
html-keyboard-response,706,1383123,null,"<div style=""font-size:60px;"">+</div>",null,,,,,,,,
html-keyboard-response,707,1383628,null,"TREAT<img id = ""stim"" ><div class = green_square id = ""topsquare"" ></div><img id = ""stim"" ><div class = green_square  id = ""bottomsquare"" ></div>",null,word_square,response,0,none,true,,,
html-keyboard-response,708,1385132,null,"TREAT",null,word,,,,, 'TREAT',,
html-keyboard-response,709,1385637,null,"SLACKS<img id = ""stim"" ><div class = red_square id = ""topsquare"" ></div><img id = ""stim"" ><div class = red_square  id = ""bottomsquare"" ></div>",null,word_square,response,1,Space,false,,,
html-keyboard-response,710,1387140,null,"SLACKS",null,word,,,,, 'SLACKS',,
html-keyboard-response,711,1387160,17.81499999924563,"APPLE<img id = ""stim"" ><div class = red_square id = ""topsquare"" ></div><img id = ""stim"" ><div class = red_square  id = ""bottomsquare"" ></div>",32,word_square,response,1,Space,true,,,
html-keyboard-response,712,1388667,null,"APPLE",null,word,,,,, 'APPLE',,
html-keyboard-response,713,1389172,null,"CONVENT<img id = ""stim"" ><div class = green_square id = ""topsquare"" ></div><img id = ""stim"" ><div class = green_square  id = ""bottomsquare"" ></div>",null,word_square,response,0,none,true,,,
html-keyboard-response,714,1390677,null,"CONVENT",null,word,,,,, 'CONVENT',,
html-keyboard-response,715,1391180,null,"TRENCH<img id = ""stim"" ><div class = red_square id = ""topsquare"" ></div><img id = ""stim"" ><div class = red_square  id = ""bottomsquare"" ></div>",null,word_square,response,1,Space,false,,,
html-keyboard-response,716,1392684,null,"TRENCH",null,word,,,,, 'TRENCH',,
html-keyboard-response,717,1393189,null,"BOUILLON<img id = ""stim"" ><div class = green_square id = ""topsquare"" ></div><img id = ""stim"" ><div class = green_square  id = ""bottomsquare"" ></div>",null,word_square,response,0,none,true,,,
html-keyboard-response,718,1394692,null,"BOUILLON",null,word,,,,, 'BOUILLON',,
html-keyboard-response,719,1395197,null,"BATHROOM<img id = ""stim"" ><div class = red_square id = ""topsquare"" ></div><img id = ""stim"" ><div class = red_square  id = ""bottomsquare"" ></div>",null,word_square,response,1,Space,false,,,
html-keyboard-response,720,1396701,null,"BATHROOM",null,word,,,,, 'BATHROOM',,
html-keyboard-response,721,1397206,null,"REBEL<img id = ""stim"" ><div class = green_square id = ""topsquare"" ></div><img id = ""stim"" ><div class = green_square  id = ""bottomsquare"" ></div>",null,word_square,response,0,none,true,,,
html-keyboard-response,722,1398709,null,"REBEL",null,word,,,,, 'REBEL',,
html-keyboard-response,723,1399214,null,"LAPEL<img id = ""stim"" ><div class = green_square id = ""topsquare"" ></div><img id = ""stim"" ><div class = green_square  id = ""bottomsquare"" ></div>",null,word_square,response,0,none,true,,,
html-keyboard-response,724,1400718,null,"LAPEL",null,word,,,,, 'LAPEL',,
html-keyboard-response,725,1401121,401.05999997467734,"FARMER<img id = ""stim"" ><div class = red_square id = ""topsquare"" ></div><img id = ""stim"" ><div class = red_square  id = ""bottomsquare"" ></div>",32,word_square,response,1,Space,true,,,
html-keyboard-response,726,1402628,null,"FARMER",null,word,,,,, 'FARMER',,
html-keyboard-response,727,1403133,null,"CANDY<img id = ""stim"" ><div class = green_square id = ""topsquare"" ></div><img id = ""stim"" ><div class = green_square  id = ""bottomsquare"" ></div>",null,word_square,response,0,none,true,,,
html-keyboard-response,728,1404636,null,"CANDY",null,word,,,,, 'CANDY',,
html-keyboard-response,729,1405141,null,"RAISIN<img id = ""stim"" ><div class = red_square id = ""topsquare"" ></div><img id = ""stim"" ><div class = red_square  id = ""bottomsquare"" ></div>",null,word_square,response,1,Space,false,,,
html-keyboard-response,730,1406645,null,"RAISIN",null,word,,,,, 'RAISIN',,
html-keyboard-response,731,1407150,null,"COTTAGE<img id = ""stim"" ><div class = red_square id = ""topsquare"" ></div><img id = ""stim"" ><div class = red_square  id = ""bottomsquare"" ></div>",null,word_square,response,1,Space,false,,,
html-keyboard-response,732,1408653,null,"COTTAGE",null,word,,,,, 'COTTAGE',,
html-keyboard-response,733,1409158,null,"DORM<img id = ""stim"" ><div class = green_square id = ""topsquare"" ></div><img id = ""stim"" ><div class = green_square  id = ""bottomsquare"" ></div>",null,word_square,response,0,none,true,,,
html-keyboard-response,734,1410662,null,"DORM",null,word,,,,, 'DORM',,
html-keyboard-response,735,1411167,null,"CARTON<img id = ""stim"" ><div class = green_square id = ""topsquare"" ></div><img id = ""stim"" ><div class = green_square  id = ""bottomsquare"" ></div>",null,word_square,response,0,none,true,,,
html-keyboard-response,736,1412670,null,"CARTON",null,word,,,,, 'CARTON',,
html-keyboard-response,737,1413175,null,"BUG<img id = ""stim"" ><div class = red_square id = ""topsquare"" ></div><img id = ""stim"" ><div class = red_square  id = ""bottomsquare"" ></div>",null,word_square,response,1,Space,false,,,
html-keyboard-response,738,1414679,null,"BUG",null,word,,,,, 'BUG',,
html-keyboard-response,739,1415184,null,"TERMITE<img id = ""stim"" ><div class = red_square id = ""topsquare"" ></div><img id = ""stim"" ><div class = red_square  id = ""bottomsquare"" ></div>",null,word_square,response,1,Space,false,,,
html-keyboard-response,740,1416687,null,"TERMITE",null,word,,,,, 'TERMITE',,
html-keyboard-response,741,1417192,null,"CREVICE<img id = ""stim"" ><div class = green_square id = ""topsquare"" ></div><img id = ""stim"" ><div class = green_square  id = ""bottomsquare"" ></div>",null,word_square,response,0,none,true,,,
html-keyboard-response,742,1418696,null,"CREVICE",null,word,,,,, 'CREVICE',,
call-function,743,1418697,,"",,,,,,,,,
html-keyboard-response,744,1418800,null,"",null,,,,,,,,
math-period,745,1421203,4277.980000013486,"",,,,,,,,,1
html-keyboard-response,746,1421307,null,"",null,,,,,,,,
math-period,747,1422574,2397.564999992028,"",,,,,,,,,4
html-keyboard-response,748,1422677,null,"",null,,,,,,,,
math-period,749,1423492,1525.774999987334,"",,,,,,,,,2
html-keyboard-response,750,1423595,null,"",null,,,,,,,,
math-period,751,1427429,3831.689999991795,"",,,,,,,,,
html-keyboard-response,752,1427532,null,"",null,,,,,,,,
math-period,753,1432508,9832.71000001696,"",,,,,,,,,1
html-keyboard-response,754,1432612,null,"",null,,,,,,,,
math-period,755,1433820,2347.2600000095554,"",,,,,,,,,1
html-keyboard-response,756,1433924,null,"",null,,,,,,,,
math-period,757,1435201,2459.2200000188313,"",,,,,,,,,4
html-keyboard-response,758,1435303,null,"",null,,,,,,,,
math-period,759,1436394,2073.709999996936,"",,,,,,,,,4
html-keyboard-response,760,1436499,null,"",null,,,,,,,,
math-period,761,1439793,6368.084999965504,"",,,,,,,,,1
html-keyboard-response,762,1439897,null,"",null,,,,,,,,
math-period,763,1441574,3241.9499999959953,"",,,,,,,,,1
html-keyboard-response,764,1441677,null,"",null,,,,,,,,
math-period,765,1442699,null,"",,,,,,,,,
html-keyboard-response,766,1443702,null,"Recall Period!",null,,,,,,,,
call-function,767,1443703,,"",,,,,,,,,
html-keyboard-response,768,1443808,null,"",null,,,,,,,,
recall-period,769,1446087,13514.219999895431,"",,,,,,,,,farmer
html-keyboard-response,770,1446193,null,"",null,,,,,,,,
recall-period,771,1447498,5574.695000046631,"",,,,,,,,,crevice
html-keyboard-response,772,1447602,null,"",null,,,,,,,,
recall-period,773,1452771,28678.87500009965,"",,,,,,,,,candy
html-keyboard-response,774,1452874,null,"",null,,,,,,,,
recall-period,775,1518704,null,"",,,,,,,,,
html-keyboard-response,776,1519208,null,"Time's Up!",null,,,,,,,,
html-keyboard-response,777,1522942,3732.495000003837,"<p> Uh oh. You responded correctly on 64% of the red squares.</p>
                  <p>We need you keep your accuracy above 80%</p>
                  <p>Press any key to continue the experiment. Thank you!</p>",32,,,,,,,,
html-keyboard-response,778,1524526,1582.5150000164285,"<div style=""font-size:48px;"">Press any key to begin list 9 of 24 </div>",32,,,,,,,,
html-keyboard-response,779,1527032,null,"<div style=""font-size:60px;"">+</div>",null,,,,,,,,
html-keyboard-response,780,1527537,null,"OCEAN<img id = ""stim"" ><div class = green_square id = ""topsquare"" ></div><img id = ""stim"" ><div class = green_square  id = ""bottomsquare"" ></div>",null,word_square,response,0,none,true,,,
html-keyboard-response,781,1529043,null,"OCEAN",null,word,,,,, 'OCEAN',,
html-keyboard-response,782,1529546,null,"FRAGRANCE<img id = ""stim"" ><div class = green_square id = ""topsquare"" ></div><img id = ""stim"" ><div class = green_square  id = ""bottomsquare"" ></div>",null,word_square,response,0,none,true,,,
html-keyboard-response,783,1531049,null,"FRAGRANCE",null,word,,,,, 'FRAGRANCE',,
html-keyboard-response,784,1531554,null,"CRYSTAL<img id = ""stim"" ><div class = red_square id = ""topsquare"" ></div><img id = ""stim"" ><div class = red_square  id = ""bottomsquare"" ></div>",null,word_square,response,1,Space,false,,,
html-keyboard-response,785,1533058,null,"CRYSTAL",null,word,,,,, 'CRYSTAL',,
html-keyboard-response,786,1533563,null,"PEACH<img id = ""stim"" ><div class = green_square id = ""topsquare"" ></div><img id = ""stim"" ><div class = green_square  id = ""bottomsquare"" ></div>",null,word_square,response,0,none,true,,,
html-keyboard-response,787,1535066,null,"PEACH",null,word,,,,, 'PEACH',,
html-keyboard-response,788,1535571,null,"TRIBE<img id = ""stim"" ><div class = green_square id = ""topsquare"" ></div><img id = ""stim"" ><div class = green_square  id = ""bottomsquare"" ></div>",null,word_square,response,0,none,true,,,
html-keyboard-response,789,1537075,null,"TRIBE",null,word,,,,, 'TRIBE',,
html-keyboard-response,790,1537580,null,"CYCLONE<img id = ""stim"" ><div class = red_square id = ""topsquare"" ></div><img id = ""stim"" ><div class = red_square  id = ""bottomsquare"" ></div>",null,word_square,response,1,Space,false,,,
html-keyboard-response,791,1539083,null,"CYCLONE",null,word,,,,, 'CYCLONE',,
html-keyboard-response,792,1539588,null,"SAILOR<img id = ""stim"" ><div class = green_square id = ""topsquare"" ></div><img id = ""stim"" ><div class = green_square  id = ""bottomsquare"" ></div>",null,word_square,response,0,none,true,,,
html-keyboard-response,793,1541092,null,"SAILOR",null,word,,,,, 'SAILOR',,
html-keyboard-response,794,1541597,null,"PISTON<img id = ""stim"" ><div class = red_square id = ""topsquare"" ></div><img id = ""stim"" ><div class = red_square  id = ""bottomsquare"" ></div>",null,word_square,response,1,Space,false,,,
html-keyboard-response,795,1543100,null,"PISTON",null,word,,,,, 'PISTON',,
html-keyboard-response,796,1543605,null,"PUDDLE<img id = ""stim"" ><div class = green_square id = ""topsquare"" ></div><img id = ""stim"" ><div class = green_square  id = ""bottomsquare"" ></div>",null,word_square,response,0,none,true,,,
html-keyboard-response,797,1545109,null,"PUDDLE",null,word,,,,, 'PUDDLE',,
html-keyboard-response,798,1545614,null,"CITRUS<img id = ""stim"" ><div class = red_square id = ""topsquare"" ></div><img id = ""stim"" ><div class = red_square  id = ""bottomsquare"" ></div>",null,word_square,response,1,Space,false,,,
html-keyboard-response,799,1547117,null,"CITRUS",null,word,,,,, 'CITRUS',,
html-keyboard-response,800,1547622,null,"BADGE<img id = ""stim"" ><div class = green_square id = ""topsquare"" ></div><img id = ""stim"" ><div class = green_square  id = ""bottomsquare"" ></div>",null,word_square,response,0,none,true,,,
html-keyboard-response,801,1549126,null,"BADGE",null,word,,,,, 'BADGE',,
html-keyboard-response,802,1549631,null,"SHERIFF<img id = ""stim"" ><div class = green_square id = ""topsquare"" ></div><img id = ""stim"" ><div class = green_square  id = ""bottomsquare"" ></div>",null,word_square,response,0,none,true,,,
html-keyboard-response,803,1551134,null,"SHERIFF",null,word,,,,, 'SHERIFF',,
html-keyboard-response,804,1551639,null,"PATROL<img id = ""stim"" ><div class = red_square id = ""topsquare"" ></div><img id = ""stim"" ><div class = red_square  id = ""bottomsquare"" ></div>",null,word_square,response,1,Space,false,,,
html-keyboard-response,805,1553143,null,"PATROL",null,word,,,,, 'PATROL',,
html-keyboard-response,806,1553648,null,"SCRIBBLE<img id = ""stim"" ><div class = green_square id = ""topsquare"" ></div><img id = ""stim"" ><div class = green_square  id = ""bottomsquare"" ></div>",null,word_square,response,0,none,true,,,
html-keyboard-response,807,1555151,null,"SCRIBBLE",null,word,,,,, 'SCRIBBLE',,
html-keyboard-response,808,1555656,null,"PARTY<img id = ""stim"" ><div class = red_square id = ""topsquare"" ></div><img id = ""stim"" ><div class = red_square  id = ""bottomsquare"" ></div>",null,word_square,response,1,Space,false,,,
html-keyboard-response,809,1557160,null,"PARTY",null,word,,,,, 'PARTY',,
html-keyboard-response,810,1557665,null,"BRUNETTE<img id = ""stim"" ><div class = red_square id = ""topsquare"" ></div><img id = ""stim"" ><div class = red_square  id = ""bottomsquare"" ></div>",null,word_square,response,1,Space,false,,,
html-keyboard-response,811,1559168,null,"BRUNETTE",null,word,,,,, 'BRUNETTE',,
html-keyboard-response,812,1559673,null,"GLOBE<img id = ""stim"" ><div class = red_square id = ""topsquare"" ></div><img id = ""stim"" ><div class = red_square  id = ""bottomsquare"" ></div>",null,word_square,response,1,Space,false,,,
html-keyboard-response,813,1561177,null,"GLOBE",null,word,,,,, 'GLOBE',,
html-keyboard-response,814,1561665,485.7450000126846,"GROUND<img id = ""stim"" ><div class = red_square id = ""topsquare"" ></div><img id = ""stim"" ><div class = red_square  id = ""bottomsquare"" ></div>",32,word_square,response,1,Space,true,,,
html-keyboard-response,815,1563168,null,"GROUND",null,word,,,,, 'GROUND',,
call-function,816,1563170,,"",,,,,,,,,
html-keyboard-response,817,1563274,null,"",null,,,,,,,,
math-period,818,1567685,8736.150000040652,"",,,,,,,,,1
html-keyboard-response,819,1567788,null,"",null,,,,,,,,
math-period,820,1570123,4496.489999990445,"",,,,,,,,,2
html-keyboard-response,821,1570226,null,"",null,,,,,,,,
math-period,822,1572465,4220.789999992121,"",,,,,,,,,5
html-keyboard-response,823,1572568,null,"",null,,,,,,,,
math-period,824,1574130,2968.5849999950733,"",,,,,,,,,4
html-keyboard-response,825,1574233,null,"",null,,,,,,,,
math-period,826,1575322,2050.7199999992736,"",,,,,,,,,3
html-keyboard-response,827,1575427,null,"",null,,,,,,,,
math-period,828,1577930,4882.065000012517,"",,,,,,,,,1
html-keyboard-response,829,1578034,null,"",null,,,,,,,,
math-period,830,1580100,3941.159999987576,"",,,,,,,,,1
html-keyboard-response,831,1580204,null,"",null,,,,,,,,
math-period,832,1581560,2577.304999984335,"",,,,,,,,,5
html-keyboard-response,833,1581664,null,"",null,,,,,,,,
math-period,834,1585186,9520.659999980126,"",,,,,,,,,1
html-keyboard-response,835,1585290,null,"",null,,,,,,,,
math-period,836,1587171,1733.974999981001,"",,,,,,,,,5
html-keyboard-response,837,1588174,null,"Recall Period!",null,,,,,,,,
call-function,838,1588175,,"",,,,,,,,,
html-keyboard-response,839,1588281,null,"",null,,,,,,,,
recall-period,840,1591364,15604.01500001899,"",,,,,,,,,party
html-keyboard-response,841,1591466,null,"",null,,,,,,,,
recall-period,842,1594018,16704.230000032112,"",,,,,,,,,sheriff
html-keyboard-response,843,1594122,null,"",null,,,,,,,,
recall-period,844,1663860,null,"",,,,,,,,,
html-keyboard-response,845,1664834,null,"Time's Up!",null,,,,,,,,
html-keyboard-response,846,1710609,45773.06999999564,"<p> Uh oh. You responded correctly on 63% of the red squares.</p>
                  <p>We need you keep your accuracy above 80%</p>
                  <p>Press any key to continue the experiment. Thank you!</p>",32,,,,,,,,
html-keyboard-response,847,1723054,12444.054999999935,"<div style=""font-size:48px;"">Press any key to begin list 10 of 24 </div>",32,,,,,,,,
html-keyboard-response,848,1725559,null,"<div style=""font-size:60px;"">+</div>",null,,,,,,,,
html-keyboard-response,849,1726065,null,"ISLAND<img id = ""stim"" ><div class = green_square id = ""topsquare"" ></div><img id = ""stim"" ><div class = green_square  id = ""bottomsquare"" ></div>",null,word_square,response,0,none,true,,,
html-keyboard-response,850,1727567,null,"ISLAND",null,word,,,,, 'ISLAND',,
html-keyboard-response,851,1728073,null,"RUBY<img id = ""stim"" ><div class = green_square id = ""topsquare"" ></div><img id = ""stim"" ><div class = green_square  id = ""bottomsquare"" ></div>",null,word_square,response,0,none,true,,,
html-keyboard-response,852,1729577,null,"RUBY",null,word,,,,, 'RUBY',,
html-keyboard-response,853,1730082,null,"SWIMMER<img id = ""stim"" ><div class = red_square id = ""topsquare"" ></div><img id = ""stim"" ><div class = red_square  id = ""bottomsquare"" ></div>",null,word_square,response,1,Space,false,,,
html-keyboard-response,854,1731585,null,"SWIMMER",null,word,,,,, 'SWIMMER',,
html-keyboard-response,855,1732090,null,"CORAL<img id = ""stim"" ><div class = green_square id = ""topsquare"" ></div><img id = ""stim"" ><div class = green_square  id = ""bottomsquare"" ></div>",null,word_square,response,0,none,true,,,
html-keyboard-response,856,1733594,null,"CORAL",null,word,,,,, 'CORAL',,
html-keyboard-response,857,1734099,null,"MISTER<img id = ""stim"" ><div class = green_square id = ""topsquare"" ></div><img id = ""stim"" ><div class = green_square  id = ""bottomsquare"" ></div>",null,word_square,response,0,none,true,,,
html-keyboard-response,858,1735602,null,"MISTER",null,word,,,,, 'MISTER',,
html-keyboard-response,859,1736046,441.9249999918975,"HEDGE<img id = ""stim"" ><div class = red_square id = ""topsquare"" ></div><img id = ""stim"" ><div class = red_square  id = ""bottomsquare"" ></div>",32,word_square,response,1,Space,true,,,
html-keyboard-response,860,1737553,null,"HEDGE",null,word,,,,, 'HEDGE',,
html-keyboard-response,861,1738058,null,"BISCUIT<img id = ""stim"" ><div class = green_square id = ""topsquare"" ></div><img id = ""stim"" ><div class = green_square  id = ""bottomsquare"" ></div>",null,word_square,response,0,none,true,,,
html-keyboard-response,862,1739561,null,"BISCUIT",null,word,,,,, 'BISCUIT',,
html-keyboard-response,863,1740066,null,"RAFT<img id = ""stim"" ><div class = red_square id = ""topsquare"" ></div><img id = ""stim"" ><div class = red_square  id = ""bottomsquare"" ></div>",null,word_square,response,1,Space,false,,,
html-keyboard-response,864,1741570,null,"RAFT",null,word,,,,, 'RAFT',,
html-keyboard-response,865,1742075,null,"RIBBON<img id = ""stim"" ><div class = green_square id = ""topsquare"" ></div><img id = ""stim"" ><div class = green_square  id = ""bottomsquare"" ></div>",null,word_square,response,0,none,true,,,
html-keyboard-response,866,1743578,null,"RIBBON",null,word,,,,, 'RIBBON',,
html-keyboard-response,867,1743999,418.90000001876615,"STICKER<img id = ""stim"" ><div class = red_square id = ""topsquare"" ></div><img id = ""stim"" ><div class = red_square  id = ""bottomsquare"" ></div>",32,word_square,response,1,Space,true,,,
html-keyboard-response,868,1745505,null,"STICKER",null,word,,,,, 'STICKER',,
html-keyboard-response,869,1746010,null,"PEOPLE<img id = ""stim"" ><div class = green_square id = ""topsquare"" ></div><img id = ""stim"" ><div class = green_square  id = ""bottomsquare"" ></div>",null,word_square,response,0,none,true,,,
html-keyboard-response,870,1747514,null,"PEOPLE",null,word,,,,, 'PEOPLE',,
html-keyboard-response,871,1747976,459.79500000248663,"STATUE<img id = ""stim"" ><div class = green_square id = ""topsquare"" ></div><img id = ""stim"" ><div class = green_square  id = ""bottomsquare"" ></div>",32,word_square,response,0,none,false,,,
html-keyboard-response,872,1749482,null,"STATUE",null,word,,,,, 'STATUE',,
html-keyboard-response,873,1749988,null,"MUMMY<img id = ""stim"" ><div class = red_square id = ""topsquare"" ></div><img id = ""stim"" ><div class = red_square  id = ""bottomsquare"" ></div>",null,word_square,response,1,Space,false,,,
html-keyboard-response,874,1751490,null,"MUMMY",null,word,,,,, 'MUMMY',,
html-keyboard-response,875,1751995,null,"PRINCESS<img id = ""stim"" ><div class = green_square id = ""topsquare"" ></div><img id = ""stim"" ><div class = green_square  id = ""bottomsquare"" ></div>",null,word_square,response,0,none,true,,,
html-keyboard-response,876,1753499,null,"PRINCESS",null,word,,,,, 'PRINCESS',,
html-keyboard-response,877,1754004,null,"BAKER<img id = ""stim"" ><div class = red_square id = ""topsquare"" ></div><img id = ""stim"" ><div class = red_square  id = ""bottomsquare"" ></div>",null,word_square,response,1,Space,false,,,
html-keyboard-response,878,1755507,null,"BAKER",null,word,,,,, 'BAKER',,
html-keyboard-response,879,1755953,443.57999999192543,"SNOB<img id = ""stim"" ><div class = red_square id = ""topsquare"" ></div><img id = ""stim"" ><div class = red_square  id = ""bottomsquare"" ></div>",32,word_square,response,1,Space,true,,,
html-keyboard-response,880,1757458,null,"SNOB",null,word,,,,, 'SNOB',,
html-keyboard-response,881,1757963,null,"SCAPEGOAT<img id = ""stim"" ><div class = red_square id = ""topsquare"" ></div><img id = ""stim"" ><div class = red_square  id = ""bottomsquare"" ></div>",null,word_square,response,1,Space,false,,,
html-keyboard-response,882,1759466,null,"SCAPEGOAT",null,word,,,,, 'SCAPEGOAT',,
html-keyboard-response,883,1759971,null,"DRIVER<img id = ""stim"" ><div class = red_square id = ""topsquare"" ></div><img id = ""stim"" ><div class = red_square  id = ""bottomsquare"" ></div>",null,word_square,response,1,Space,false,,,
html-keyboard-response,884,1761474,null,"DRIVER",null,word,,,,, 'DRIVER',,
call-function,885,1761475,,"",,,,,,,,,
html-keyboard-response,886,1761579,null,"",null,,,,,,,,
math-period,887,1763628,3754.70500002848,"",,,,,,,,,3
html-keyboard-response,888,1763732,null,"",null,,,,,,,,
math-period,889,1765555,3498.9350000105333,"",,,,,,,,,2
html-keyboard-response,890,1765659,null,"",null,,,,,,,,
math-period,891,1767265,3054.8100000305567,"",,,,,,,,,1
html-keyboard-response,892,1767369,null,"",null,,,,,,,,
math-period,893,1769038,3107.529999979306,"",,,,,,,,,2
html-keyboard-response,894,1769143,null,"",null,,,,,,,,
math-period,895,1774156,9898.400000005495,"",,,,,,,,,2
html-keyboard-response,896,1774262,null,"",null,,,,,,,,
math-period,897,1775496,2350.449999998091,"",,,,,,,,,3
html-keyboard-response,898,1775602,null,"",null,,,,,,,,
math-period,899,1777362,3356.004999979632,"",,,,,,,,,4
html-keyboard-response,900,1777467,null,"",null,,,,,,,,
math-period,901,1780146,5199.1800000250805,"",,,,,,,,,4
html-keyboard-response,902,1780250,null,"",null,,,,,,,,
math-period,903,1781538,2334.080000029644,"",,,,,,,,,3
html-keyboard-response,904,1781640,null,"",null,,,,,,,,
math-period,905,1782762,2119.334999995772,"",,,,,,,,,3
html-keyboard-response,906,1782865,null,"",null,,,,,,,,
math-period,907,1784374,2897.945000004256,"",,,,,,,,,5
html-keyboard-response,908,1784480,null,"",null,,,,,,,,
math-period,909,1785478,null,"",,,,,,,,,
html-keyboard-response,910,1786481,null,"Recall Period!",null,,,,,,,,
call-function,911,1786483,,"",,,,,,,,,
html-keyboard-response,912,1786586,null,"",null,,,,,,,,
recall-period,913,1788770,14615.805000124965,"",,,,,,,,,scapegoat
html-keyboard-response,914,1788873,null,"",null,,,,,,,,
recall-period,915,1790190,4245.900000008987,"",,,,,,,,,mummy
html-keyboard-response,916,1790294,null,"",null,,,,,,,,
recall-period,917,1792308,9800.49500009045,"",,,,,,,,,princess
html-keyboard-response,918,1792412,null,"",null,,,,,,,,
recall-period,919,1861487,null,"",,,,,,,,,
html-keyboard-response,920,1861994,null,"Time's Up!",null,,,,,,,,
html-keyboard-response,921,1863861,1864.065000001574,"<p> Uh oh. You responded correctly on 63% of the red squares.</p>
                  <p>We need you keep your accuracy above 80%</p>
                  <p>Press any key to continue the experiment. Thank you!</p>",32,,,,,,,,
