trial_type,trial_index,time_elapsed,rt,stimulus,key_press,test_part,task,targ_cond,correctKeyCode,correct,word,value,response
pavlovia,0,967,,"",,,,,,,,,
external-html,1,4030,2870.370000018738,"",,,,,,,,,
html-keyboard-response,2,89581,85548.90499997418,"Welcome to the experiment. Press any key to begin.",68,,,,,,,,
html-keyboard-response,3,100180,10598.390000057407,"<p>You will see a list of words and colored squares in the following task.<p><p>Press the spacebar whenever you see a red square.<p><p>Do not press a key if the square is green<p><p>Press the spacebar to continue.</p>",32,,,,,,,,
html-keyboard-response,4,110107,9424.794999998994,"<p>Please try to remember as many of the words as you can, and try to think about the meaning of each word as it appears.<p><p>After the detection and encoding task you will be asked to solve some math problems for 24 seconds.<p> Please solve as many problems as you can in the time given. <p>",32,,,,,,,,
html-keyboard-response,5,126372,15763.335000025108,"After solving the math problems, you will be asked to type in as many words <p>from the previous list as you can remember for 75 seconds.<p> If you finish recalling before the 75 seconds are up,<p> just sit tight and try to think of any more words you could have missed. <p><p>We will begin with a brief practice session<p>Press the spacebar to begin the practice.</p>",32,,,,,,,,
html-keyboard-response,6,128877,null,"<div style=""font-size:60px;"">+</div>",null,,,,,,,,
html-keyboard-response,7,129379,null,"HAPPY<img id = ""stim"" ><div class = green_square id = ""topsquare"" ></div><img id = ""stim"" ><div class = green_square  id = ""bottomsquare"" ></div>",null,word_square,prac_response,0,none,true,,,
html-keyboard-response,8,130881,null,"HAPPY",null,word,,,,,HAPPY,,
html-keyboard-response,9,131382,null,"COLD<img id = ""stim"" ><div class = red_square id = ""topsquare"" ></div><img id = ""stim"" ><div class = red_square  id = ""bottomsquare"" ></div>",null,word_square,prac_response,1,Space,false,,,
html-keyboard-response,10,132884,null,"COLD",null,word,,,,,COLD,,
html-keyboard-response,11,133385,494.92999992799014,"HEAVY<img id = ""stim"" ><div class = red_square id = ""topsquare"" ></div><img id = ""stim"" ><div class = red_square  id = ""bottomsquare"" ></div>",32,word_square,prac_response,1,Space,true,,,
html-keyboard-response,12,134887,null,"HEAVY",null,word,,,,,HEAVY,,
html-keyboard-response,13,135388,null,"FUNNY<img id = ""stim"" ><div class = green_square id = ""topsquare"" ></div><img id = ""stim"" ><div class = green_square  id = ""bottomsquare"" ></div>",null,word_square,prac_response,0,none,true,,,
html-keyboard-response,14,136891,null,"FUNNY",null,word,,,,,FUNNY,,
html-keyboard-response,15,137392,null,"SCARY<img id = ""stim"" ><div class = red_square id = ""topsquare"" ></div><img id = ""stim"" ><div class = red_square  id = ""bottomsquare"" ></div>",null,word_square,prac_response,1,Space,false,,,
html-keyboard-response,16,138894,null,"SCARY",null,word,,,,,SCARY,,
html-keyboard-response,17,139397,null,"PEACEFUL<img id = ""stim"" ><div class = red_square id = ""topsquare"" ></div><img id = ""stim"" ><div class = red_square  id = ""bottomsquare"" ></div>",null,word_square,prac_response,1,Space,false,,,
html-keyboard-response,18,140899,null,"PEACEFUL",null,word,,,,,PEACEFUL,,
html-keyboard-response,19,141401,463.6349999345839,"LITTLE<img id = ""stim"" ><div class = green_square id = ""topsquare"" ></div><img id = ""stim"" ><div class = green_square  id = ""bottomsquare"" ></div>",32,word_square,prac_response,0,none,true,,,
html-keyboard-response,20,142902,null,"LITTLE",null,word,,,,,LITTLE,,
html-keyboard-response,21,143404,null,"TIRED<img id = ""stim"" ><div class = green_square id = ""topsquare"" ></div><img id = ""stim"" ><div class = green_square  id = ""bottomsquare"" ></div>",null,word_square,prac_response,0,none,true,,,
html-keyboard-response,22,144905,null,"TIRED",null,word,,,,,TIRED,,
html-keyboard-response,23,145407,null,"ENTERTAINING<img id = ""stim"" ><div class = green_square id = ""topsquare"" ></div><img id = ""stim"" ><div class = green_square  id = ""bottomsquare"" ></div>",null,word_square,prac_response,0,none,true,,,
html-keyboard-response,24,146909,null,"ENTERTAINING",null,word,,,,,ENTERTAINING,,
html-keyboard-response,25,147412,397.4650000454858,"GRATEFUL<img id = ""stim"" ><div class = red_square id = ""topsquare"" ></div><img id = ""stim"" ><div class = red_square  id = ""bottomsquare"" ></div>",32,word_square,prac_response,1,Space,true,,,
html-keyboard-response,26,148914,null,"GRATEFUL",null,word,,,,,GRATEFUL,,
html-keyboard-response,27,149415,null,"LOUD<img id = ""stim"" ><div class = green_square id = ""topsquare"" ></div><img id = ""stim"" ><div class = green_square  id = ""bottomsquare"" ></div>",null,word_square,prac_response,0,none,true,,,
html-keyboard-response,28,150917,null,"LOUD",null,word,,,,,LOUD,,
html-keyboard-response,29,151419,461.7250000592321,"SMART<img id = ""stim"" ><div class = red_square id = ""topsquare"" ></div><img id = ""stim"" ><div class = red_square  id = ""bottomsquare"" ></div>",32,word_square,prac_response,1,Space,true,,,
html-keyboard-response,30,152921,null,"SMART",null,word,,,,,SMART,,
html-keyboard-response,31,153422,497.32500000391155,"SMOOTH<img id = ""stim"" ><div class = red_square id = ""topsquare"" ></div><img id = ""stim"" ><div class = red_square  id = ""bottomsquare"" ></div>",32,word_square,prac_response,1,Space,true,,,
html-keyboard-response,32,154924,null,"SMOOTH",null,word,,,,,SMOOTH,,
html-keyboard-response,33,155426,null,"DISHONEST<img id = ""stim"" ><div class = green_square id = ""topsquare"" ></div><img id = ""stim"" ><div class = green_square  id = ""bottomsquare"" ></div>",null,word_square,prac_response,0,none,true,,,
html-keyboard-response,34,156927,null,"DISHONEST",null,word,,,,,DISHONEST,,
html-keyboard-response,35,157428,null,"WEALTHY<img id = ""stim"" ><div class = red_square id = ""topsquare"" ></div><img id = ""stim"" ><div class = red_square  id = ""bottomsquare"" ></div>",null,word_square,prac_response,1,Space,false,,,
html-keyboard-response,36,158930,null,"WEALTHY",null,word,,,,,WEALTHY,,
html-keyboard-response,37,159431,null,"BEAUTIFUL<img id = ""stim"" ><div class = green_square id = ""topsquare"" ></div><img id = ""stim"" ><div class = green_square  id = ""bottomsquare"" ></div>",null,word_square,prac_response,0,none,true,,,
html-keyboard-response,38,160934,null,"BEAUTIFUL",null,word,,,,,BEAUTIFUL,,
html-keyboard-response,39,161435,null,"DREARY<img id = ""stim"" ><div class = green_square id = ""topsquare"" ></div><img id = ""stim"" ><div class = green_square  id = ""bottomsquare"" ></div>",null,word_square,prac_response,0,none,true,,,
html-keyboard-response,40,162937,null,"DREARY",null,word,,,,,DREARY,,
html-keyboard-response,41,163439,450.3099999856204,"PLAYFUL<img id = ""stim"" ><div class = red_square id = ""topsquare"" ></div><img id = ""stim"" ><div class = red_square  id = ""bottomsquare"" ></div>",32,word_square,prac_response,1,Space,true,,,
html-keyboard-response,42,164940,null,"PLAYFUL",null,word,,,,,PLAYFUL,,
html-keyboard-response,43,171460,6518.2049999712035,"<p> Uh oh. You responded correctly on 78% of the red squares.</p>
                  <p>We need you keep your accuracy above 80%</p>
                  <p>We're going to try once more to make sure you understand the task. press any key to continue.</p>",32,,,,,,,,
html-keyboard-response,44,175108,3647.370000020601,"<p>You will see a list of words and colored squares in the following task.<p><p>Press the spacebar whenever you see a red square.<p><p>Do not press a key if the square is green<p><p>Press the spacebar to continue.</p>",32,,,,,,,,
html-keyboard-response,45,177609,null,"<div style=""font-size:60px;"">+</div>",null,,,,,,,,
html-keyboard-response,46,178110,null,"HAPPY<img id = ""stim"" ><div class = green_square id = ""topsquare"" ></div><img id = ""stim"" ><div class = green_square  id = ""bottomsquare"" ></div>",null,word_square,response,0,none,true,,,
html-keyboard-response,47,179612,null,"HAPPY",null,word,,,,,HAPPY,,
html-keyboard-response,48,180113,null,"COLD<img id = ""stim"" ><div class = red_square id = ""topsquare"" ></div><img id = ""stim"" ><div class = red_square  id = ""bottomsquare"" ></div>",null,word_square,response,1,Space,false,,,
html-keyboard-response,49,181615,null,"COLD",null,word,,,,,COLD,,
html-keyboard-response,50,182036,419.93500001262873,"HEAVY<img id = ""stim"" ><div class = red_square id = ""topsquare"" ></div><img id = ""stim"" ><div class = red_square  id = ""bottomsquare"" ></div>",32,word_square,response,1,Space,true,,,
html-keyboard-response,51,183537,null,"HEAVY",null,word,,,,,HEAVY,,
html-keyboard-response,52,184038,null,"FUNNY<img id = ""stim"" ><div class = green_square id = ""topsquare"" ></div><img id = ""stim"" ><div class = green_square  id = ""bottomsquare"" ></div>",null,word_square,response,0,none,true,,,
html-keyboard-response,53,185539,null,"FUNNY",null,word,,,,,FUNNY,,
html-keyboard-response,54,185852,312.4850000021979,"SCARY<img id = ""stim"" ><div class = red_square id = ""topsquare"" ></div><img id = ""stim"" ><div class = red_square  id = ""bottomsquare"" ></div>",32,word_square,response,1,Space,true,,,
html-keyboard-response,55,187354,null,"SCARY",null,word,,,,,SCARY,,
html-keyboard-response,56,187700,344.42500001750886,"PEACEFUL<img id = ""stim"" ><div class = red_square id = ""topsquare"" ></div><img id = ""stim"" ><div class = red_square  id = ""bottomsquare"" ></div>",32,word_square,response,1,Space,true,,,
html-keyboard-response,57,189201,null,"PEACEFUL",null,word,,,,,PEACEFUL,,
html-keyboard-response,58,189703,null,"LITTLE<img id = ""stim"" ><div class = green_square id = ""topsquare"" ></div><img id = ""stim"" ><div class = green_square  id = ""bottomsquare"" ></div>",null,word_square,response,0,none,true,,,
html-keyboard-response,59,191205,null,"LITTLE",null,word,,,,,LITTLE,,
html-keyboard-response,60,191707,null,"TIRED<img id = ""stim"" ><div class = green_square id = ""topsquare"" ></div><img id = ""stim"" ><div class = green_square  id = ""bottomsquare"" ></div>",null,word_square,response,0,none,true,,,
html-keyboard-response,61,193208,null,"TIRED",null,word,,,,,TIRED,,
html-keyboard-response,62,193709,null,"ENTERTAINING<img id = ""stim"" ><div class = green_square id = ""topsquare"" ></div><img id = ""stim"" ><div class = green_square  id = ""bottomsquare"" ></div>",null,word_square,response,0,none,true,,,
html-keyboard-response,63,195212,null,"ENTERTAINING",null,word,,,,,ENTERTAINING,,
html-keyboard-response,64,195532,319.00999997742474,"GRATEFUL<img id = ""stim"" ><div class = red_square id = ""topsquare"" ></div><img id = ""stim"" ><div class = red_square  id = ""bottomsquare"" ></div>",32,word_square,response,1,Space,true,,,
html-keyboard-response,65,197034,null,"GRATEFUL",null,word,,,,,GRATEFUL,,
html-keyboard-response,66,197535,null,"LOUD<img id = ""stim"" ><div class = green_square id = ""topsquare"" ></div><img id = ""stim"" ><div class = green_square  id = ""bottomsquare"" ></div>",null,word_square,response,0,none,true,,,
html-keyboard-response,67,199036,null,"LOUD",null,word,,,,,LOUD,,
html-keyboard-response,68,199340,302.93499992694706,"SMART<img id = ""stim"" ><div class = red_square id = ""topsquare"" ></div><img id = ""stim"" ><div class = red_square  id = ""bottomsquare"" ></div>",32,word_square,response,1,Space,true,,,
html-keyboard-response,69,200841,null,"SMART",null,word,,,,,SMART,,
html-keyboard-response,70,201157,314.4699999829754,"SMOOTH<img id = ""stim"" ><div class = red_square id = ""topsquare"" ></div><img id = ""stim"" ><div class = red_square  id = ""bottomsquare"" ></div>",32,word_square,response,1,Space,true,,,
html-keyboard-response,71,202658,null,"SMOOTH",null,word,,,,,SMOOTH,,
html-keyboard-response,72,203160,null,"DISHONEST<img id = ""stim"" ><div class = green_square id = ""topsquare"" ></div><img id = ""stim"" ><div class = green_square  id = ""bottomsquare"" ></div>",null,word_square,response,0,none,true,,,
html-keyboard-response,73,204662,null,"DISHONEST",null,word,,,,,DISHONEST,,
html-keyboard-response,74,204932,268.99499993305653,"WEALTHY<img id = ""stim"" ><div class = red_square id = ""topsquare"" ></div><img id = ""stim"" ><div class = red_square  id = ""bottomsquare"" ></div>",32,word_square,response,1,Space,true,,,
html-keyboard-response,75,206433,null,"WEALTHY",null,word,,,,,WEALTHY,,
html-keyboard-response,76,206934,null,"BEAUTIFUL<img id = ""stim"" ><div class = green_square id = ""topsquare"" ></div><img id = ""stim"" ><div class = green_square  id = ""bottomsquare"" ></div>",null,word_square,response,0,none,true,,,
html-keyboard-response,77,208436,null,"BEAUTIFUL",null,word,,,,,BEAUTIFUL,,
html-keyboard-response,78,208938,null,"DREARY<img id = ""stim"" ><div class = green_square id = ""topsquare"" ></div><img id = ""stim"" ><div class = green_square  id = ""bottomsquare"" ></div>",null,word_square,response,0,none,true,,,
html-keyboard-response,79,210440,null,"DREARY",null,word,,,,,DREARY,,
html-keyboard-response,80,210708,266.57500001601875,"PLAYFUL<img id = ""stim"" ><div class = red_square id = ""topsquare"" ></div><img id = ""stim"" ><div class = red_square  id = ""bottomsquare"" ></div>",32,word_square,response,1,Space,true,,,
html-keyboard-response,81,212210,null,"PLAYFUL",null,word,,,,,PLAYFUL,,
html-keyboard-response,82,219916,7705.439999932423,"<p> Good job! You responded correctly to 94% of the red squares.</p>
                  <p>Be sure to keep your accuracy above 80%</p>
                  <p>Press any key to begin the math and recall sections. Thank you!</p>",32,,,,,,,,
call-function,83,219917,,"",,,,,,,,,
html-keyboard-response,84,220018,null,"",null,,,,,,,,
math-period,85,228860,104566.70999934431,"",,,,,,,,,3
html-keyboard-response,86,228962,null,"",null,,,,,,,,
math-period,87,230540,3050.029999925755,"",,,,,,,,,2
html-keyboard-response,88,230642,null,"",null,,,,,,,,
math-period,89,232556,3737.830000114627,"",,,,,,,,,4
html-keyboard-response,90,232657,null,"",null,,,,,,,,
math-period,91,234676,3947.4799998570234,"",,,,,,,,,4
html-keyboard-response,92,234778,null,"",null,,,,,,,,
math-period,93,235724,1785.0749999051914,"",,,,,,,,,2
html-keyboard-response,94,235825,null,"",null,,,,,,,,
math-period,95,237236,2699.4549998780712,"",,,,,,,,,1
html-keyboard-response,96,237338,null,"",null,,,,,,,,
math-period,97,239516,4258.479999843985,"",,,,,,,,,3
html-keyboard-response,98,239618,null,"",null,,,,,,,,
math-period,99,242364,5050.419999985024,"",,,,,,,,,3
html-keyboard-response,100,242465,null,"",null,,,,,,,,
math-period,101,243388,1707.1050000377,"",,,,,,,,,3
html-keyboard-response,102,243488,null,"",null,,,,,,,,
math-period,103,243919,null,"",,,,,,,,,
html-keyboard-response,104,244921,null,"Recall Period!",null,,,,,,,,
call-function,105,244921,,"",,,,,,,,,
html-keyboard-response,106,245022,null,"",null,,,,,,,,
recall-period,107,248396,18229.804999777116,"",,,,,,,,,happy
html-keyboard-response,108,248497,null,"",null,,,,,,,,
recall-period,109,249228,2319.3149998551235,"",,,,,,,,,cold
html-keyboard-response,110,249330,null,"",null,,,,,,,,
recall-period,111,270836,814552.6400026865,"",,,,,,,,,honest
html-keyboard-response,112,270937,null,"",null,,,,,,,,
recall-period,113,277421,41312.904999940656,"",,,,,,,,,beautiful
html-keyboard-response,114,277523,null,"",null,,,,,,,,
recall-period,115,319922,34868.58000000939,"",,,,,,,,,
html-keyboard-response,116,320424,null,"Time's Up!",null,,,,,,,,
html-keyboard-response,117,324957,4532.174999942072,"<p>We will now begin the experiment!<p><p>Please try to remember all words from each list.<p><p>Press the spacebar whenever you see a red square.<p><p><p><p>Press the spacebar to begin.</p>",32,,,,,,,,
html-keyboard-response,118,328916,3458.1649999599904,"<div style=""font-size:48px;"">Press any key to begin list 1 of 24 </div>",32,,,,,,,,
html-keyboard-response,119,331418,null,"<div style=""font-size:60px;"">+</div>",null,,,,,,,,
html-keyboard-response,120,331921,null,"ATLAS<img id = ""stim"" ><div class = green_square id = ""topsquare"" ></div><img id = ""stim"" ><div class = green_square  id = ""bottomsquare"" ></div>",null,word_square,response,0,none,true,,,
html-keyboard-response,121,333422,null,"ATLAS",null,word,,,,, 'ATLAS',,
html-keyboard-response,122,333756,332.51500001642853,"ATHLETE<img id = ""stim"" ><div class = red_square id = ""topsquare"" ></div><img id = ""stim"" ><div class = red_square  id = ""bottomsquare"" ></div>",32,word_square,response,1,Space,true,,,
html-keyboard-response,123,335258,null,"ATHLETE",null,word,,,,, 'ATHLETE',,
html-keyboard-response,124,335760,null,"SWITCH<img id = ""stim"" ><div class = green_square id = ""topsquare"" ></div><img id = ""stim"" ><div class = green_square  id = ""bottomsquare"" ></div>",null,word_square,response,0,none,true,,,
html-keyboard-response,125,337260,null,"SWITCH",null,word,,,,, 'SWITCH',,
html-keyboard-response,126,337762,null,"PORPOISE<img id = ""stim"" ><div class = green_square id = ""topsquare"" ></div><img id = ""stim"" ><div class = green_square  id = ""bottomsquare"" ></div>",null,word_square,response,0,none,true,,,
html-keyboard-response,127,339263,null,"PORPOISE",null,word,,,,, 'PORPOISE',,
html-keyboard-response,128,339644,379.8999999416992,"TULIP<img id = ""stim"" ><div class = red_square id = ""topsquare"" ></div><img id = ""stim"" ><div class = red_square  id = ""bottomsquare"" ></div>",32,word_square,response,1,Space,true,,,
html-keyboard-response,129,341145,null,"TULIP",null,word,,,,, 'TULIP',,
html-keyboard-response,130,341647,null,"LUNCH<img id = ""stim"" ><div class = red_square id = ""topsquare"" ></div><img id = ""stim"" ><div class = red_square  id = ""bottomsquare"" ></div>",null,word_square,response,1,Space,false,,,
html-keyboard-response,131,343149,null,"LUNCH",null,word,,,,, 'LUNCH',,
html-keyboard-response,132,343650,null,"WORLD<img id = ""stim"" ><div class = green_square id = ""topsquare"" ></div><img id = ""stim"" ><div class = green_square  id = ""bottomsquare"" ></div>",null,word_square,response,0,none,true,,,
html-keyboard-response,133,345152,null,"WORLD",null,word,,,,, 'WORLD',,
html-keyboard-response,134,345654,null,"STREAM<img id = ""stim"" ><div class = green_square id = ""topsquare"" ></div><img id = ""stim"" ><div class = green_square  id = ""bottomsquare"" ></div>",null,word_square,response,0,none,true,,,
html-keyboard-response,135,347156,null,"STREAM",null,word,,,,, 'STREAM',,
html-keyboard-response,136,347420,263.00999999511987,"SWAMP<img id = ""stim"" ><div class = red_square id = ""topsquare"" ></div><img id = ""stim"" ><div class = red_square  id = ""bottomsquare"" ></div>",32,word_square,response,1,Space,true,,,
html-keyboard-response,137,348923,null,"SWAMP",null,word,,,,, 'SWAMP',,
html-keyboard-response,138,349423,null,"SUITCASE<img id = ""stim"" ><div class = green_square id = ""topsquare"" ></div><img id = ""stim"" ><div class = green_square  id = ""bottomsquare"" ></div>",null,word_square,response,0,none,true,,,
html-keyboard-response,139,350925,null,"SUITCASE",null,word,,,,, 'SUITCASE',,
html-keyboard-response,140,351236,310.08500000461936,"MATCH<img id = ""stim"" ><div class = red_square id = ""topsquare"" ></div><img id = ""stim"" ><div class = red_square  id = ""bottomsquare"" ></div>",32,word_square,response,1,Space,true,,,
html-keyboard-response,141,352737,null,"MATCH",null,word,,,,, 'MATCH',,
html-keyboard-response,142,353240,null,"SKETCH<img id = ""stim"" ><div class = green_square id = ""topsquare"" ></div><img id = ""stim"" ><div class = green_square  id = ""bottomsquare"" ></div>",null,word_square,response,0,none,true,,,
html-keyboard-response,143,354741,null,"SKETCH",null,word,,,,, 'SKETCH',,
html-keyboard-response,144,355028,285.9399999724701,"PICTURE<img id = ""stim"" ><div class = red_square id = ""topsquare"" ></div><img id = ""stim"" ><div class = red_square  id = ""bottomsquare"" ></div>",32,word_square,response,1,Space,true,,,
html-keyboard-response,145,356529,null,"PICTURE",null,word,,,,, 'PICTURE',,
html-keyboard-response,146,356900,369.48500003200024,"INSECT<img id = ""stim"" ><div class = red_square id = ""topsquare"" ></div><img id = ""stim"" ><div class = red_square  id = ""bottomsquare"" ></div>",32,word_square,response,1,Space,true,,,
html-keyboard-response,147,358401,null,"INSECT",null,word,,,,, 'INSECT',,
html-keyboard-response,148,358700,298.39500004891306,"MISSILE<img id = ""stim"" ><div class = red_square id = ""topsquare"" ></div><img id = ""stim"" ><div class = red_square  id = ""bottomsquare"" ></div>",32,word_square,response,1,Space,true,,,
html-keyboard-response,149,360202,null,"MISSILE",null,word,,,,, 'MISSILE',,
html-keyboard-response,150,360703,null,"DOCK<img id = ""stim"" ><div class = green_square id = ""topsquare"" ></div><img id = ""stim"" ><div class = green_square  id = ""bottomsquare"" ></div>",null,word_square,response,0,none,true,,,
html-keyboard-response,151,362205,null,"DOCK",null,word,,,,, 'DOCK',,
html-keyboard-response,152,362707,null,"KNAPSACK<img id = ""stim"" ><div class = green_square id = ""topsquare"" ></div><img id = ""stim"" ><div class = green_square  id = ""bottomsquare"" ></div>",null,word_square,response,0,none,true,,,
html-keyboard-response,153,364208,null,"KNAPSACK",null,word,,,,, 'KNAPSACK',,
html-keyboard-response,154,364556,346.80000005755574,"VICTOR<img id = ""stim"" ><div class = red_square id = ""topsquare"" ></div><img id = ""stim"" ><div class = red_square  id = ""bottomsquare"" ></div>",32,word_square,response,1,Space,true,,,
html-keyboard-response,155,366058,null,"VICTOR",null,word,,,,, 'VICTOR',,
call-function,156,366058,,"",,,,,,,,,
html-keyboard-response,157,366159,null,"",null,,,,,,,,
math-period,158,368876,4031.4450000878423,"",,,,,,,,,3
html-keyboard-response,159,368977,null,"",null,,,,,,,,
math-period,160,370508,2915.9249999793246,"",,,,,,,,,3
html-keyboard-response,161,370610,null,"",null,,,,,,,,
math-period,162,373244,5105.525000020862,"",,,,,,,,,3
html-keyboard-response,163,373346,null,"",null,,,,,,,,
math-period,164,375492,4178.0949998646975,"",,,,,,,,,3
html-keyboard-response,165,375593,null,"",null,,,,,,,,
math-period,166,377172,3075.4300000844523,"",,,,,,,,,3
html-keyboard-response,167,377273,null,"",null,,,,,,,,
math-period,168,379364,3843.694999930449,"",,,,,,,,,4
html-keyboard-response,169,379466,null,"",null,,,,,,,,
math-period,170,380692,2313.594999955967,"",,,,,,,,,4
html-keyboard-response,171,380794,null,"",null,,,,,,,,
math-period,172,381724,1737.8250000765547,"",,,,,,,,,3
html-keyboard-response,173,381826,null,"",null,,,,,,,,
math-period,174,382724,1681.8000000203028,"",,,,,,,,,2
html-keyboard-response,175,382825,null,"",null,,,,,,,,
math-period,176,385116,7126.605000114068,"",,,,,,,,,4
html-keyboard-response,177,385218,null,"",null,,,,,,,,
math-period,178,387948,5313.859999994747,"",,,,,,,,,3
html-keyboard-response,179,388049,null,"",null,,,,,,,,
math-period,180,389468,2715.3350001899526,"",,,,,,,,,3
html-keyboard-response,181,389569,null,"",null,,,,,,,,
math-period,182,390060,null,"",,,,,,,,,
html-keyboard-response,183,391062,null,"Recall Period!",null,,,,,,,,
call-function,184,391062,,"",,,,,,,,,
html-keyboard-response,185,391164,null,"",null,,,,,,,,
recall-period,186,393748,2582.9300000332296,"",,,,,,,,,
html-keyboard-response,187,393850,null,"",null,,,,,,,,
recall-period,188,395540,6162.224999861792,"",,,,,,,,,lunch
html-keyboard-response,189,395643,null,"",null,,,,,,,,
recall-period,190,397636,8684.809999773279,"",,,,,,,,,napsack
html-keyboard-response,191,397739,null,"",null,,,,,,,,
recall-period,192,466064,null,"",,,,,,,,,
html-keyboard-response,193,466565,null,"Time's Up!",null,,,,,,,,
html-keyboard-response,194,470629,4062.649999978021,"<p> Good job! You responded correctly to 94% of the red squares.</p>
                  <p>Be sure to keep your accuracy above 80%</p>
                  <p>Press any key to continue the experiment. Thank you!</p>",13,,,,,,,,
html-keyboard-response,195,473245,2614.9549999972805,"<div style=""font-size:48px;"">Press any key to begin list 2 of 24 </div>",13,,,,,,,,
html-keyboard-response,196,475747,null,"<div style=""font-size:60px;"">+</div>",null,,,,,,,,
html-keyboard-response,197,476249,null,"JOKER<img id = ""stim"" ><div class = green_square id = ""topsquare"" ></div><img id = ""stim"" ><div class = green_square  id = ""bottomsquare"" ></div>",null,word_square,response,0,none,true,,,
html-keyboard-response,198,477751,null,"JOKER",null,word,,,,, 'JOKER',,
html-keyboard-response,199,478254,null,"CRYSTAL<img id = ""stim"" ><div class = red_square id = ""topsquare"" ></div><img id = ""stim"" ><div class = red_square  id = ""bottomsquare"" ></div>",null,word_square,response,1,Space,false,,,
html-keyboard-response,200,479755,null,"CRYSTAL",null,word,,,,, 'CRYSTAL',,
html-keyboard-response,201,480257,null,"FOLDER<img id = ""stim"" ><div class = green_square id = ""topsquare"" ></div><img id = ""stim"" ><div class = green_square  id = ""bottomsquare"" ></div>",null,word_square,response,0,none,true,,,
html-keyboard-response,202,481759,null,"FOLDER",null,word,,,,, 'FOLDER',,
html-keyboard-response,203,482261,null,"CLIMBER<img id = ""stim"" ><div class = green_square id = ""topsquare"" ></div><img id = ""stim"" ><div class = green_square  id = ""bottomsquare"" ></div>",null,word_square,response,0,none,true,,,
html-keyboard-response,204,483762,null,"CLIMBER",null,word,,,,, 'CLIMBER',,
html-keyboard-response,205,484093,329.51999991200864,"THRONE<img id = ""stim"" ><div class = red_square id = ""topsquare"" ></div><img id = ""stim"" ><div class = red_square  id = ""bottomsquare"" ></div>",32,word_square,response,1,Space,true,,,
html-keyboard-response,206,485594,null,"THRONE",null,word,,,,, 'THRONE',,
html-keyboard-response,207,486096,null,"PEACH<img id = ""stim"" ><div class = red_square id = ""topsquare"" ></div><img id = ""stim"" ><div class = red_square  id = ""bottomsquare"" ></div>",null,word_square,response,1,Space,false,,,
html-keyboard-response,208,487597,null,"PEACH",null,word,,,,, 'PEACH',,
html-keyboard-response,209,488099,null,"RESORT<img id = ""stim"" ><div class = green_square id = ""topsquare"" ></div><img id = ""stim"" ><div class = green_square  id = ""bottomsquare"" ></div>",null,word_square,response,0,none,true,,,
html-keyboard-response,210,489601,null,"RESORT",null,word,,,,, 'RESORT',,
html-keyboard-response,211,490103,null,"CHEMIST<img id = ""stim"" ><div class = green_square id = ""topsquare"" ></div><img id = ""stim"" ><div class = green_square  id = ""bottomsquare"" ></div>",null,word_square,response,0,none,true,,,
html-keyboard-response,212,491604,null,"CHEMIST",null,word,,,,, 'CHEMIST',,
html-keyboard-response,213,491901,295.2100000111386,"BEAKER<img id = ""stim"" ><div class = red_square id = ""topsquare"" ></div><img id = ""stim"" ><div class = red_square  id = ""bottomsquare"" ></div>",32,word_square,response,1,Space,true,,,
html-keyboard-response,214,493402,null,"BEAKER",null,word,,,,, 'BEAKER',,
html-keyboard-response,215,493903,null,"POLICE<img id = ""stim"" ><div class = green_square id = ""topsquare"" ></div><img id = ""stim"" ><div class = green_square  id = ""bottomsquare"" ></div>",null,word_square,response,0,none,true,,,
html-keyboard-response,216,495404,null,"POLICE",null,word,,,,, 'POLICE',,
html-keyboard-response,217,495685,279.61000008508563,"HORSE<img id = ""stim"" ><div class = red_square id = ""topsquare"" ></div><img id = ""stim"" ><div class = red_square  id = ""bottomsquare"" ></div>",32,word_square,response,1,Space,true,,,
html-keyboard-response,218,497187,null,"HORSE",null,word,,,,, 'HORSE',,
html-keyboard-response,219,497689,null,"DWARF<img id = ""stim"" ><div class = green_square id = ""topsquare"" ></div><img id = ""stim"" ><div class = green_square  id = ""bottomsquare"" ></div>",null,word_square,response,0,none,true,,,
html-keyboard-response,220,499192,null,"DWARF",null,word,,,,, 'DWARF',,
html-keyboard-response,221,499477,283.64999999757856,"CHECKERS<img id = ""stim"" ><div class = red_square id = ""topsquare"" ></div><img id = ""stim"" ><div class = red_square  id = ""bottomsquare"" ></div>",32,word_square,response,1,Space,true,,,
html-keyboard-response,222,500979,null,"CHECKERS",null,word,,,,, 'CHECKERS',,
html-keyboard-response,223,501481,null,"GHETTO<img id = ""stim"" ><div class = red_square id = ""topsquare"" ></div><img id = ""stim"" ><div class = red_square  id = ""bottomsquare"" ></div>",null,word_square,response,1,Space,false,,,
html-keyboard-response,224,502983,null,"GHETTO",null,word,,,,, 'GHETTO',,
html-keyboard-response,225,503484,null,"BLUEJAY<img id = ""stim"" ><div class = red_square id = ""topsquare"" ></div><img id = ""stim"" ><div class = red_square  id = ""bottomsquare"" ></div>",null,word_square,response,1,Space,false,,,
html-keyboard-response,226,504986,null,"BLUEJAY",null,word,,,,, 'BLUEJAY',,
html-keyboard-response,227,505488,null,"FLASK<img id = ""stim"" ><div class = green_square id = ""topsquare"" ></div><img id = ""stim"" ><div class = green_square  id = ""bottomsquare"" ></div>",null,word_square,response,0,none,true,,,
html-keyboard-response,228,506989,null,"FLASK",null,word,,,,, 'FLASK',,
html-keyboard-response,229,507491,null,"SUMMIT<img id = ""stim"" ><div class = green_square id = ""topsquare"" ></div><img id = ""stim"" ><div class = green_square  id = ""bottomsquare"" ></div>",null,word_square,response,0,none,true,,,
html-keyboard-response,230,508993,null,"SUMMIT",null,word,,,,, 'SUMMIT',,
html-keyboard-response,231,509325,331.0550000751391,"BADGE<img id = ""stim"" ><div class = red_square id = ""topsquare"" ></div><img id = ""stim"" ><div class = red_square  id = ""bottomsquare"" ></div>",32,word_square,response,1,Space,true,,,
html-keyboard-response,232,510827,null,"BADGE",null,word,,,,, 'BADGE',,
call-function,233,510827,,"",,,,,,,,,
html-keyboard-response,234,510929,null,"",null,,,,,,,,
math-period,235,513117,3750.090000103228,"",,,,,,,,,4
html-keyboard-response,236,513219,null,"",null,,,,,,,,
math-period,237,514565,2481.67500004638,"",,,,,,,,,5
html-keyboard-response,238,514666,null,"",null,,,,,,,,
math-period,239,515789,2019.4599999813363,"",,,,,,,,,3
html-keyboard-response,240,515890,null,"",null,,,,,,,,
math-period,241,516493,1098.6200000625104,"",,,,,,,,,3
html-keyboard-response,242,516595,null,"",null,,,,,,,,
math-period,243,519101,3682.589999982156,"",,,,,,,,,3
html-keyboard-response,244,519203,null,"",null,,,,,,,,
math-period,245,520709,2913.499999907799,"",,,,,,,,,3
html-keyboard-response,246,520810,null,"",null,,,,,,,,
math-period,247,521773,1810.9649998368695,"",,,,,,,,,3
html-keyboard-response,248,521874,null,"",null,,,,,,,,
math-period,249,522949,1827.2699998924509,"",,,,,,,,,4
html-keyboard-response,250,523051,null,"",null,,,,,,,,
math-period,251,524669,3081.794999889098,"",,,,,,,,,2
html-keyboard-response,252,524770,null,"",null,,,,,,,,
math-period,253,527045,4138.655000017025,"",,,,,,,,,5
html-keyboard-response,254,527146,null,"",null,,,,,,,,
math-period,255,529317,4195.134999928996,"",,,,,,,,,3
html-keyboard-response,256,529418,null,"",null,,,,,,,,
math-period,257,531365,3779.64000008069,"",,,,,,,,,6
html-keyboard-response,258,531466,null,"",null,,,,,,,,
math-period,259,532821,2532.0899999933317,"",,,,,,,,,3
html-keyboard-response,260,532922,null,"",null,,,,,,,,
math-period,261,534829,3628.0600000172853,"",,,,,,,,,6
html-keyboard-response,262,535830,null,"Recall Period!",null,,,,,,,,
call-function,263,535830,,"",,,,,,,,,
html-keyboard-response,264,535932,null,"",null,,,,,,,,
recall-period,265,539101,17209.729999653064,"",,,,,,,,,beaker
html-keyboard-response,266,539202,null,"",null,,,,,,,,
recall-period,267,541037,6300.0750003848225,"",,,,,,,,,chemist
html-keyboard-response,268,541138,null,"",null,,,,,,,,
recall-period,269,542829,7962.330000009388,"",,,,,,,,,badge
html-keyboard-response,270,542931,null,"",null,,,,,,,,
recall-period,271,546141,17099.055000348017,"",,,,,,,,,resort
html-keyboard-response,272,546242,null,"",null,,,,,,,,
recall-period,273,550901,37349.309999961406,"",,,,,,,,,policeman
html-keyboard-response,274,551003,null,"",null,,,,,,,,
recall-period,275,556565,32941.39999977779,"",,,,,,,,,throne
html-keyboard-response,276,556666,null,"",null,,,,,,,,
recall-period,277,610831,null,"",,,,,,,,,
html-keyboard-response,278,611334,null,"Time's Up!",null,,,,,,,,
html-keyboard-response,279,614005,2669.7250000433996,"<p> Good job! You responded correctly to 89% of the red squares.</p>
                  <p>Be sure to keep your accuracy above 80%</p>
                  <p>Press any key to continue the experiment. Thank you!</p>",32,,,,,,,,
html-keyboard-response,280,615789,1783.0149999354035,"<div style=""font-size:48px;"">Press any key to begin list 3 of 24 </div>",32,,,,,,,,
html-keyboard-response,281,618292,null,"<div style=""font-size:60px;"">+</div>",null,,,,,,,,
html-keyboard-response,282,618685,392.04499998595566,"PUMPKIN<img id = ""stim"" ><div class = red_square id = ""topsquare"" ></div><img id = ""stim"" ><div class = red_square  id = ""bottomsquare"" ></div>",32,word_square,response,1,Space,true,,,
html-keyboard-response,283,620187,null,"PUMPKIN",null,word,,,,, 'PUMPKIN',,
html-keyboard-response,284,620689,null,"MAILBOX<img id = ""stim"" ><div class = green_square id = ""topsquare"" ></div><img id = ""stim"" ><div class = green_square  id = ""bottomsquare"" ></div>",null,word_square,response,0,none,true,,,
html-keyboard-response,285,622192,null,"MAILBOX",null,word,,,,, 'MAILBOX',,
html-keyboard-response,286,622509,316.1449999315664,"TRANSPLANT<img id = ""stim"" ><div class = red_square id = ""topsquare"" ></div><img id = ""stim"" ><div class = red_square  id = ""bottomsquare"" ></div>",32,word_square,response,1,Space,true,,,
html-keyboard-response,287,624010,null,"TRANSPLANT",null,word,,,,, 'TRANSPLANT',,
html-keyboard-response,288,624421,409.59499997552484,"DRAWING<img id = ""stim"" ><div class = red_square id = ""topsquare"" ></div><img id = ""stim"" ><div class = red_square  id = ""bottomsquare"" ></div>",32,word_square,response,1,Space,true,,,
html-keyboard-response,289,625923,null,"DRAWING",null,word,,,,, 'DRAWING',,
html-keyboard-response,290,626424,null,"FLOWER<img id = ""stim"" ><div class = green_square id = ""topsquare"" ></div><img id = ""stim"" ><div class = green_square  id = ""bottomsquare"" ></div>",null,word_square,response,0,none,true,,,
html-keyboard-response,291,627926,null,"FLOWER",null,word,,,,, 'FLOWER',,
html-keyboard-response,292,628428,null,"LAVA<img id = ""stim"" ><div class = green_square id = ""topsquare"" ></div><img id = ""stim"" ><div class = green_square  id = ""bottomsquare"" ></div>",null,word_square,response,0,none,true,,,
html-keyboard-response,293,629931,null,"LAVA",null,word,,,,, 'LAVA',,
html-keyboard-response,294,630229,297.2249999875203,"ISLAND<img id = ""stim"" ><div class = red_square id = ""topsquare"" ></div><img id = ""stim"" ><div class = red_square  id = ""bottomsquare"" ></div>",32,word_square,response,1,Space,true,,,
html-keyboard-response,295,631731,null,"ISLAND",null,word,,,,, 'ISLAND',,
html-keyboard-response,296,632173,441.11499993596226,"FIGHTER<img id = ""stim"" ><div class = red_square id = ""topsquare"" ></div><img id = ""stim"" ><div class = red_square  id = ""bottomsquare"" ></div>",32,word_square,response,1,Space,true,,,
html-keyboard-response,297,633674,null,"FIGHTER",null,word,,,,, 'FIGHTER',,
html-keyboard-response,298,634177,null,"VICTIM<img id = ""stim"" ><div class = green_square id = ""topsquare"" ></div><img id = ""stim"" ><div class = green_square  id = ""bottomsquare"" ></div>",null,word_square,response,0,none,true,,,
html-keyboard-response,299,635678,null,"VICTIM",null,word,,,,, 'VICTIM',,
html-keyboard-response,300,635964,285.7800000347197,"FREEZER<img id = ""stim"" ><div class = red_square id = ""topsquare"" ></div><img id = ""stim"" ><div class = red_square  id = ""bottomsquare"" ></div>",32,word_square,response,1,Space,true,,,
html-keyboard-response,301,637466,null,"FREEZER",null,word,,,,, 'FREEZER',,
html-keyboard-response,302,637969,null,"CABLE<img id = ""stim"" ><div class = green_square id = ""topsquare"" ></div><img id = ""stim"" ><div class = green_square  id = ""bottomsquare"" ></div>",null,word_square,response,0,none,true,,,
html-keyboard-response,303,639470,null,"CABLE",null,word,,,,, 'CABLE',,
html-keyboard-response,304,639828,356.95000004488975,"SENATE<img id = ""stim"" ><div class = red_square id = ""topsquare"" ></div><img id = ""stim"" ><div class = red_square  id = ""bottomsquare"" ></div>",32,word_square,response,1,Space,true,,,
html-keyboard-response,305,641329,null,"SENATE",null,word,,,,, 'SENATE',,
html-keyboard-response,306,641830,null,"LIVER<img id = ""stim"" ><div class = green_square id = ""topsquare"" ></div><img id = ""stim"" ><div class = green_square  id = ""bottomsquare"" ></div>",null,word_square,response,0,none,true,,,
html-keyboard-response,307,643332,null,"LIVER",null,word,,,,, 'LIVER',,
html-keyboard-response,308,643833,null,"CABBAGE<img id = ""stim"" ><div class = green_square id = ""topsquare"" ></div><img id = ""stim"" ><div class = green_square  id = ""bottomsquare"" ></div>",null,word_square,response,0,none,true,,,
html-keyboard-response,309,645334,null,"CABBAGE",null,word,,,,, 'CABBAGE',,
html-keyboard-response,310,645836,null,"LETTUCE<img id = ""stim"" ><div class = green_square id = ""topsquare"" ></div><img id = ""stim"" ><div class = green_square  id = ""bottomsquare"" ></div>",null,word_square,response,0,none,true,,,
html-keyboard-response,311,647337,null,"LETTUCE",null,word,,,,, 'LETTUCE',,
html-keyboard-response,312,647765,427.0900000119582,"CONVICT<img id = ""stim"" ><div class = red_square id = ""topsquare"" ></div><img id = ""stim"" ><div class = red_square  id = ""bottomsquare"" ></div>",32,word_square,response,1,Space,true,,,
html-keyboard-response,313,649266,null,"CONVICT",null,word,,,,, 'CONVICT',,
html-keyboard-response,314,649620,353.13000006135553,"TRUMPET<img id = ""stim"" ><div class = red_square id = ""topsquare"" ></div><img id = ""stim"" ><div class = red_square  id = ""bottomsquare"" ></div>",32,word_square,response,1,Space,true,,,
html-keyboard-response,315,651122,null,"TRUMPET",null,word,,,,, 'TRUMPET',,
html-keyboard-response,316,651623,null,"BOTTLE<img id = ""stim"" ><div class = green_square id = ""topsquare"" ></div><img id = ""stim"" ><div class = green_square  id = ""bottomsquare"" ></div>",null,word_square,response,0,none,true,,,
html-keyboard-response,317,653125,null,"BOTTLE",null,word,,,,, 'BOTTLE',,
call-function,318,653125,,"",,,,,,,,,
html-keyboard-response,319,653226,null,"",null,,,,,,,,
math-period,320,655836,4299.255000078119,"",,,,,,,,,5
html-keyboard-response,321,655938,null,"",null,,,,,,,,
math-period,322,656924,1777.9649998992682,"",,,,,,,,,5
html-keyboard-response,323,657026,null,"",null,,,,,,,,
math-period,324,658436,2506.8750000791624,"",,,,,,,,,4
html-keyboard-response,325,658538,null,"",null,,,,,,,,
math-period,326,659748,2274.9099999200553,"",,,,,,,,,2
html-keyboard-response,327,659850,null,"",null,,,,,,,,
math-period,328,662852,9829.689999925904,"",,,,,,,,,2
html-keyboard-response,329,662954,null,"",null,,,,,,,,
math-period,330,664716,3409.884999971837,"",,,,,,,,,5
html-keyboard-response,331,664818,null,"",null,,,,,,,,
math-period,332,666468,3099.4650000939146,"",,,,,,,,,3
html-keyboard-response,333,666570,null,"",null,,,,,,,,
math-period,334,668221,3034.5799998613074,"",,,,,,,,,4
html-keyboard-response,335,668322,null,"",null,,,,,,,,
math-period,336,669228,1714.5750001072884,"",,,,,,,,,4
html-keyboard-response,337,669329,null,"",null,,,,,,,,
math-period,338,670332,1923.9199999719858,"",,,,,,,,,4
html-keyboard-response,339,670434,null,"",null,,,,,,,,
math-period,340,671348,1755.2949999226257,"",,,,,,,,,3
html-keyboard-response,341,671451,null,"",null,,,,,,,,
math-period,342,672900,2832.9199999570847,"",,,,,,,,,6
html-keyboard-response,343,673002,null,"",null,,,,,,,,
math-period,344,674788,3193.9250001451,"",,,,,,,,,6
html-keyboard-response,345,674891,null,"",null,,,,,,,,
math-period,346,675748,1593.0949999019504,"",,,,,,,,,2
html-keyboard-response,347,675850,null,"",null,,,,,,,,
math-period,348,677127,null,"",,,,,,,,,
html-keyboard-response,349,678129,null,"Recall Period!",null,,,,,,,,
call-function,350,678130,,"",,,,,,,,,
html-keyboard-response,351,678231,null,"",null,,,,,,,,
recall-period,352,679061,828.4799999091774,"",,,,,,,,,
html-keyboard-response,353,679162,null,"",null,,,,,,,,
recall-period,354,681684,13378.39500035625,"",,,,,,,,,trumpet
html-keyboard-response,355,681786,null,"",null,,,,,,,,
recall-period,356,682853,4767.349999747239,"",,,,,,,,,bottle
html-keyboard-response,357,682954,null,"",null,,,,,,,,
recall-period,358,683900,3599.5999997248873,"",,,,,,,,,island
html-keyboard-response,359,684002,null,"",null,,,,,,,,
recall-period,360,688132,21591.745000099763,"",,,,,,,,,senate
html-keyboard-response,361,688233,null,"",null,,,,,,,,
recall-period,362,691132,14541.085000266321,"",,,,,,,,,lava
html-keyboard-response,363,691234,null,"",null,,,,,,,,
recall-period,364,695204,25609.020000323653,"",,,,,,,,,pumpkin
html-keyboard-response,365,695307,null,"",null,,,,,,,,
recall-period,366,696877,8120.335000217892,"",,,,,,,,,mailbox
html-keyboard-response,367,696978,null,"",null,,,,,,,,
recall-period,368,703621,43500.69500005338,"",,,,,,,,,cabbage
html-keyboard-response,369,703722,null,"",null,,,,,,,,
recall-period,370,705829,12098.320000106469,"",,,,,,,,,lettuce
html-keyboard-response,371,705930,null,"",null,,,,,,,,
recall-period,372,753130,null,"",,,,,,,,,
html-keyboard-response,373,753632,null,"Time's Up!",null,,,,,,,,
html-keyboard-response,374,756548,2916.0450000781566,"<p> Good job! You responded correctly to 92% of the red squares.</p>
                  <p>Be sure to keep your accuracy above 80%</p>
                  <p>Press any key to continue the experiment. Thank you!</p>",32,,,,,,,,
html-keyboard-response,375,758356,1807.0600000210106,"<div style=""font-size:48px;"">Press any key to begin list 4 of 24 </div>",32,,,,,,,,
html-keyboard-response,376,760858,null,"<div style=""font-size:60px;"">+</div>",null,,,,,,,,
html-keyboard-response,377,761236,377.5600000517443,"CHEST<img id = ""stim"" ><div class = red_square id = ""topsquare"" ></div><img id = ""stim"" ><div class = red_square  id = ""bottomsquare"" ></div>",32,word_square,response,1,Space,true,,,
html-keyboard-response,378,762738,null,"CHEST",null,word,,,,, 'CHEST',,
html-keyboard-response,379,763240,null,"TROPHY<img id = ""stim"" ><div class = green_square id = ""topsquare"" ></div><img id = ""stim"" ><div class = green_square  id = ""bottomsquare"" ></div>",null,word_square,response,0,none,true,,,
html-keyboard-response,380,764741,null,"TROPHY",null,word,,,,, 'TROPHY',,
html-keyboard-response,381,765060,317.78500007931143,"MASK<img id = ""stim"" ><div class = red_square id = ""topsquare"" ></div><img id = ""stim"" ><div class = red_square  id = ""bottomsquare"" ></div>",32,word_square,response,1,Space,true,,,
html-keyboard-response,382,766562,null,"MASK",null,word,,,,, 'MASK',,
html-keyboard-response,383,766884,321.2099999655038,"FOREHEAD<img id = ""stim"" ><div class = red_square id = ""topsquare"" ></div><img id = ""stim"" ><div class = red_square  id = ""bottomsquare"" ></div>",32,word_square,response,1,Space,true,,,
html-keyboard-response,384,768386,null,"FOREHEAD",null,word,,,,, 'FOREHEAD',,
html-keyboard-response,385,768888,null,"MUSHROOM<img id = ""stim"" ><div class = green_square id = ""topsquare"" ></div><img id = ""stim"" ><div class = green_square  id = ""bottomsquare"" ></div>",null,word_square,response,0,none,true,,,
html-keyboard-response,386,770389,null,"MUSHROOM",null,word,,,,, 'MUSHROOM',,
html-keyboard-response,387,770891,null,"CRITIC<img id = ""stim"" ><div class = green_square id = ""topsquare"" ></div><img id = ""stim"" ><div class = green_square  id = ""bottomsquare"" ></div>",null,word_square,response,0,none,true,,,
html-keyboard-response,388,772393,null,"CRITIC",null,word,,,,, 'CRITIC',,
html-keyboard-response,389,772700,306.3949999632314,"BACKBONE<img id = ""stim"" ><div class = red_square id = ""topsquare"" ></div><img id = ""stim"" ><div class = red_square  id = ""bottomsquare"" ></div>",32,word_square,response,1,Space,true,,,
html-keyboard-response,390,774201,null,"BACKBONE",null,word,,,,, 'BACKBONE',,
html-keyboard-response,391,774524,322.15999998152256,"MISTER<img id = ""stim"" ><div class = red_square id = ""topsquare"" ></div><img id = ""stim"" ><div class = red_square  id = ""bottomsquare"" ></div>",32,word_square,response,1,Space,true,,,
html-keyboard-response,392,776026,null,"MISTER",null,word,,,,, 'MISTER',,
html-keyboard-response,393,776528,null,"BUGLE<img id = ""stim"" ><div class = green_square id = ""topsquare"" ></div><img id = ""stim"" ><div class = green_square  id = ""bottomsquare"" ></div>",null,word_square,response,0,none,true,,,
html-keyboard-response,394,778029,null,"BUGLE",null,word,,,,, 'BUGLE',,
html-keyboard-response,395,778340,310.64499996136874,"SNORKEL<img id = ""stim"" ><div class = red_square id = ""topsquare"" ></div><img id = ""stim"" ><div class = red_square  id = ""bottomsquare"" ></div>",32,word_square,response,1,Space,true,,,
html-keyboard-response,396,779842,null,"SNORKEL",null,word,,,,, 'SNORKEL',,
html-keyboard-response,397,780344,null,"FILM<img id = ""stim"" ><div class = green_square id = ""topsquare"" ></div><img id = ""stim"" ><div class = green_square  id = ""bottomsquare"" ></div>",null,word_square,response,0,none,true,,,
html-keyboard-response,398,781846,null,"FILM",null,word,,,,, 'FILM',,
html-keyboard-response,399,782157,309.804999968037,"COD<img id = ""stim"" ><div class = red_square id = ""topsquare"" ></div><img id = ""stim"" ><div class = red_square  id = ""bottomsquare"" ></div>",32,word_square,response,1,Space,true,,,
html-keyboard-response,400,783660,null,"COD",null,word,,,,, 'COD',,
html-keyboard-response,401,784162,null,"COFFIN<img id = ""stim"" ><div class = green_square id = ""topsquare"" ></div><img id = ""stim"" ><div class = green_square  id = ""bottomsquare"" ></div>",null,word_square,response,0,none,true,,,
html-keyboard-response,402,785664,null,"COFFIN",null,word,,,,, 'COFFIN',,
html-keyboard-response,403,785948,283.3100000862032,"MOTHER<img id = ""stim"" ><div class = green_square id = ""topsquare"" ></div><img id = ""stim"" ><div class = green_square  id = ""bottomsquare"" ></div>",32,word_square,response,0,none,false,,,
html-keyboard-response,404,787449,null,"MOTHER",null,word,,,,, 'MOTHER',,
html-keyboard-response,405,787951,null,"JUGGLER<img id = ""stim"" ><div class = green_square id = ""topsquare"" ></div><img id = ""stim"" ><div class = green_square  id = ""bottomsquare"" ></div>",null,word_square,response,0,none,true,,,
html-keyboard-response,406,789452,null,"JUGGLER",null,word,,,,, 'JUGGLER',,
html-keyboard-response,407,789764,311.26500002574176,"GYMNAST<img id = ""stim"" ><div class = red_square id = ""topsquare"" ></div><img id = ""stim"" ><div class = red_square  id = ""bottomsquare"" ></div>",32,word_square,response,1,Space,true,,,
html-keyboard-response,408,791267,null,"GYMNAST",null,word,,,,, 'GYMNAST',,
html-keyboard-response,409,791628,359.94999995455146,"FLAG<img id = ""stim"" ><div class = red_square id = ""topsquare"" ></div><img id = ""stim"" ><div class = red_square  id = ""bottomsquare"" ></div>",32,word_square,response,1,Space,true,,,
html-keyboard-response,410,793129,null,"FLAG",null,word,,,,, 'FLAG',,
html-keyboard-response,411,793631,null,"COUNTRY<img id = ""stim"" ><div class = green_square id = ""topsquare"" ></div><img id = ""stim"" ><div class = green_square  id = ""bottomsquare"" ></div>",null,word_square,response,0,none,true,,,
html-keyboard-response,412,795133,null,"COUNTRY",null,word,,,,, 'COUNTRY',,
call-function,413,795133,,"",,,,,,,,,
html-keyboard-response,414,795235,null,"",null,,,,,,,,
math-period,415,797156,3031.760000041686,"",,,,,,,,,2
html-keyboard-response,416,797258,null,"",null,,,,,,,,
math-period,417,798036,1394.7649999754503,"",,,,,,,,,3
html-keyboard-response,418,798138,null,"",null,,,,,,,,
math-period,419,799308,2202.389999991283,"",,,,,,,,,3
html-keyboard-response,420,799409,null,"",null,,,,,,,,
math-period,421,801180,3387.9200000083074,"",,,,,,,,,1
html-keyboard-response,422,801283,null,"",null,,,,,,,,
math-period,423,802428,2073.07500008028,"",,,,,,,,,4
html-keyboard-response,424,802530,null,"",null,,,,,,,,
math-period,425,803676,2155.0549999810755,"",,,,,,,,,3
html-keyboard-response,426,803777,null,"",null,,,,,,,,
math-period,427,805036,2268.314999877475,"",,,,,,,,,4
html-keyboard-response,428,805138,null,"",null,,,,,,,,
math-period,429,807420,4322.949999943376,"",,,,,,,,,0
html-keyboard-response,430,807522,null,"",null,,,,,,,,
math-period,431,809556,3970.445000100881,"",,,,,,,,,0
html-keyboard-response,432,809658,null,"",null,,,,,,,,
math-period,433,811372,3338.285000063479,"",,,,,,,,,2
html-keyboard-response,434,811475,null,"",null,,,,,,,,
math-period,435,812332,1529.1449999203905,"",,,,,,,,,3
html-keyboard-response,436,812434,null,"",null,,,,,,,,
math-period,437,813540,2089.6050001028925,"",,,,,,,,,3
html-keyboard-response,438,813642,null,"",null,,,,,,,,
math-period,439,815348,3291.279999888502,"",,,,,,,,,6
html-keyboard-response,440,815449,null,"",null,,,,,,,,
math-period,441,816772,2564.290000125766,"",,,,,,,,,5
html-keyboard-response,442,816873,null,"",null,,,,,,,,
math-period,443,817692,1523.8999999128282,"",,,,,,,,,3
html-keyboard-response,444,817793,null,"",null,,,,,,,,
math-period,445,818988,2323.624999844469,"",,,,,,,,,5
html-keyboard-response,446,819089,null,"",null,,,,,,,,
math-period,447,819135,null,"",,,,,,,,,
html-keyboard-response,448,820137,null,"Recall Period!",null,,,,,,,,
call-function,449,820137,,"",,,,,,,,,
html-keyboard-response,450,820239,null,"",null,,,,,,,,
recall-period,451,824660,24323.00999981817,"",,,,,,,,,chest
html-keyboard-response,452,824762,null,"",null,,,,,,,,
recall-period,453,827092,10842.434999649413,"",,,,,,,,,coffin
html-keyboard-response,454,827194,null,"",null,,,,,,,,
recall-period,455,848828,340278.09500170406,"",,,,,,,,,coffin
html-keyboard-response,456,848931,null,"",null,,,,,,,,
recall-period,457,866460,129435.05000008736,"",,,,,,,,,juggler
html-keyboard-response,458,866562,null,"",null,,,,,,,,
recall-period,459,875484,73310.96999964211,"",,,,,,,,,coimic
html-keyboard-response,460,875586,null,"",null,,,,,,,,
recall-period,461,878045,12493.929999764077,"",,,,,,,,,comic
html-keyboard-response,462,878147,null,"",null,,,,,,,,
recall-period,463,885029,38566.530000185594,"",,,,,,,,,clown
html-keyboard-response,464,885131,null,"",null,,,,,,,,
recall-period,465,895138,37340.55000008084,"",,,,,,,,,trop
html-keyboard-response,466,895640,null,"Time's Up!",null,,,,,,,,
html-keyboard-response,467,896837,1195.9650000790134,"<p> Good job! You responded correctly to 92% of the red squares.</p>
                  <p>Be sure to keep your accuracy above 80%</p>
                  <p>Press any key to continue the experiment. Thank you!</p>",32,,,,,,,,
html-keyboard-response,468,898781,1943.1949999416247,"<div style=""font-size:48px;"">Press any key to begin list 5 of 24 </div>",32,,,,,,,,
html-keyboard-response,469,901283,null,"<div style=""font-size:60px;"">+</div>",null,,,,,,,,
html-keyboard-response,470,901685,400.7399999536574,"PITCHFORK<img id = ""stim"" ><div class = red_square id = ""topsquare"" ></div><img id = ""stim"" ><div class = red_square  id = ""bottomsquare"" ></div>",32,word_square,response,1,Space,true,,,
html-keyboard-response,471,903186,null,"PITCHFORK",null,word,,,,, 'PITCHFORK',,
html-keyboard-response,472,903689,null,"STOVE<img id = ""stim"" ><div class = green_square id = ""topsquare"" ></div><img id = ""stim"" ><div class = green_square  id = ""bottomsquare"" ></div>",null,word_square,response,0,none,true,,,
html-keyboard-response,473,905190,null,"STOVE",null,word,,,,, 'STOVE',,
html-keyboard-response,474,905692,null,"BANQUET<img id = ""stim"" ><div class = green_square id = ""topsquare"" ></div><img id = ""stim"" ><div class = green_square  id = ""bottomsquare"" ></div>",null,word_square,response,0,none,true,,,
html-keyboard-response,475,907193,null,"BANQUET",null,word,,,,, 'BANQUET',,
html-keyboard-response,476,907533,338.8650000561029,"TOOTHPASTE<img id = ""stim"" ><div class = red_square id = ""topsquare"" ></div><img id = ""stim"" ><div class = red_square  id = ""bottomsquare"" ></div>",32,word_square,response,1,Space,true,,,
html-keyboard-response,477,909035,null,"TOOTHPASTE",null,word,,,,, 'TOOTHPASTE',,
html-keyboard-response,478,909373,336.93999995011836,"PILOT<img id = ""stim"" ><div class = red_square id = ""topsquare"" ></div><img id = ""stim"" ><div class = red_square  id = ""bottomsquare"" ></div>",32,word_square,response,1,Space,true,,,
html-keyboard-response,479,910875,null,"PILOT",null,word,,,,, 'PILOT',,
html-keyboard-response,480,911301,425.05000007804483,"STRANGER<img id = ""stim"" ><div class = red_square id = ""topsquare"" ></div><img id = ""stim"" ><div class = red_square  id = ""bottomsquare"" ></div>",32,word_square,response,1,Space,true,,,
html-keyboard-response,481,912803,null,"STRANGER",null,word,,,,, 'STRANGER',,
html-keyboard-response,482,913305,null,"BUREAU<img id = ""stim"" ><div class = green_square id = ""topsquare"" ></div><img id = ""stim"" ><div class = green_square  id = ""bottomsquare"" ></div>",null,word_square,response,0,none,true,,,
html-keyboard-response,483,914808,null,"BUREAU",null,word,,,,, 'BUREAU',,
html-keyboard-response,484,915310,null,"JOINT<img id = ""stim"" ><div class = green_square id = ""topsquare"" ></div><img id = ""stim"" ><div class = green_square  id = ""bottomsquare"" ></div>",null,word_square,response,0,none,true,,,
html-keyboard-response,485,916811,null,"JOINT",null,word,,,,, 'JOINT',,
html-keyboard-response,486,917125,312.8250000299886,"LOBSTER<img id = ""stim"" ><div class = red_square id = ""topsquare"" ></div><img id = ""stim"" ><div class = red_square  id = ""bottomsquare"" ></div>",32,word_square,response,1,Space,true,,,
html-keyboard-response,487,918627,null,"LOBSTER",null,word,,,,, 'LOBSTER',,
html-keyboard-response,488,919128,null,"TREASURE<img id = ""stim"" ><div class = green_square id = ""topsquare"" ></div><img id = ""stim"" ><div class = green_square  id = ""bottomsquare"" ></div>",null,word_square,response,0,none,true,,,
html-keyboard-response,489,920630,null,"TREASURE",null,word,,,,, 'TREASURE',,
html-keyboard-response,490,920965,334.7300000023097,"AIRPORT<img id = ""stim"" ><div class = red_square id = ""topsquare"" ></div><img id = ""stim"" ><div class = red_square  id = ""bottomsquare"" ></div>",32,word_square,response,1,Space,true,,,
html-keyboard-response,491,922467,null,"AIRPORT",null,word,,,,, 'AIRPORT',,
html-keyboard-response,492,922969,null,"PLAYGROUND<img id = ""stim"" ><div class = green_square id = ""topsquare"" ></div><img id = ""stim"" ><div class = green_square  id = ""bottomsquare"" ></div>",null,word_square,response,0,none,true,,,
html-keyboard-response,493,924471,null,"PLAYGROUND",null,word,,,,, 'PLAYGROUND',,
html-keyboard-response,494,924973,null,"SLIDE<img id = ""stim"" ><div class = green_square id = ""topsquare"" ></div><img id = ""stim"" ><div class = green_square  id = ""bottomsquare"" ></div>",null,word_square,response,0,none,true,,,
html-keyboard-response,495,926475,null,"SLIDE",null,word,,,,, 'SLIDE',,
html-keyboard-response,496,926829,353.26500004157424,"HAWK<img id = ""stim"" ><div class = red_square id = ""topsquare"" ></div><img id = ""stim"" ><div class = red_square  id = ""bottomsquare"" ></div>",32,word_square,response,1,Space,true,,,
html-keyboard-response,497,928331,null,"HAWK",null,word,,,,, 'HAWK',,
html-keyboard-response,498,928833,null,"OFFICE<img id = ""stim"" ><div class = green_square id = ""topsquare"" ></div><img id = ""stim"" ><div class = green_square  id = ""bottomsquare"" ></div>",null,word_square,response,0,none,true,,,
html-keyboard-response,499,930334,null,"OFFICE",null,word,,,,, 'OFFICE',,
html-keyboard-response,500,930645,310.0749999284744,"STONE<img id = ""stim"" ><div class = red_square id = ""topsquare"" ></div><img id = ""stim"" ><div class = red_square  id = ""bottomsquare"" ></div>",32,word_square,response,1,Space,true,,,
html-keyboard-response,501,932147,null,"STONE",null,word,,,,, 'STONE',,
html-keyboard-response,502,932649,null,"SHRIMP<img id = ""stim"" ><div class = green_square id = ""topsquare"" ></div><img id = ""stim"" ><div class = green_square  id = ""bottomsquare"" ></div>",null,word_square,response,0,none,true,,,
html-keyboard-response,503,934151,null,"SHRIMP",null,word,,,,, 'SHRIMP',,
html-keyboard-response,504,934565,413.55500009376556,"TURTLE<img id = ""stim"" ><div class = red_square id = ""topsquare"" ></div><img id = ""stim"" ><div class = red_square  id = ""bottomsquare"" ></div>",32,word_square,response,1,Space,true,,,
html-keyboard-response,505,936068,null,"TURTLE",null,word,,,,, 'TURTLE',,
call-function,506,936068,,"",,,,,,,,,
html-keyboard-response,507,936170,null,"",null,,,,,,,,
math-period,508,937981,2883.455000119284,"",,,,,,,,,4
html-keyboard-response,509,938083,null,"",null,,,,,,,,
math-period,510,940269,3786.030000075698,"",,,,,,,,,2
html-keyboard-response,511,940371,null,"",null,,,,,,,,
math-period,512,942749,4586.740000057034,"",,,,,,,,,0
html-keyboard-response,513,942851,null,"",null,,,,,,,,
math-period,514,943733,1675.20999989938,"",,,,,,,,,3
html-keyboard-response,515,943835,null,"",null,,,,,,,,
math-period,516,945333,2873.575000092387,"",,,,,,,,,2
html-keyboard-response,517,945434,null,"",null,,,,,,,,
math-period,518,946381,1812.1549999341369,"",,,,,,,,,3
html-keyboard-response,519,946483,null,"",null,,,,,,,,
math-period,520,947565,2050.169999944046,"",,,,,,,,,4
html-keyboard-response,521,947666,null,"",null,,,,,,,,
math-period,522,948837,2235.340000013821,"",,,,,,,,,4
html-keyboard-response,523,948938,null,"",null,,,,,,,,
math-period,524,951037,4091.254999861121,"",,,,,,,,,1
html-keyboard-response,525,951139,null,"",null,,,,,,,,
math-period,526,953157,3914.9449999677017,"",,,,,,,,,2
html-keyboard-response,527,953259,null,"",null,,,,,,,,
math-period,528,955013,3153.3000000054017,"",,,,,,,,,6
html-keyboard-response,529,955115,null,"",null,,,,,,,,
math-period,530,956245,2177.265000063926,"",,,,,,,,,6
html-keyboard-response,531,956346,null,"",null,,,,,,,,
math-period,532,958389,3875.029999879189,"",,,,,,,,,2
html-keyboard-response,533,958490,null,"",null,,,,,,,,
math-period,534,959541,2011.1699999542907,"",,,,,,,,,2
html-keyboard-response,535,959643,null,"",null,,,,,,,,
math-period,536,960070,null,"",,,,,,,,,
html-keyboard-response,537,961072,null,"Recall Period!",null,,,,,,,,
call-function,538,961072,,"",,,,,,,,,
html-keyboard-response,539,961174,null,"",null,,,,,,,,
recall-period,540,963205,2029.560000053607,"",,,,,,,,,
html-keyboard-response,541,963308,null,"",null,,,,,,,,
recall-period,542,965093,10722.375000244938,"",,,,,,,,,stone
html-keyboard-response,543,965195,null,"",null,,,,,,,,
recall-period,544,967869,11200.024999678135,"",,,,,,,,,shrimp
html-keyboard-response,545,967970,null,"",null,,,,,,,,
recall-period,546,969269,5427.074999897741,"",,,,,,,,,turtle
html-keyboard-response,547,969372,null,"",null,,,,,,,,
recall-period,548,970781,6611.235000193119,"",,,,,,,,,lobster
html-keyboard-response,549,970882,null,"",null,,,,,,,,
recall-period,550,972549,10431.754999794066,"",,,,,,,,,playground
html-keyboard-response,551,972650,null,"",null,,,,,,,,
recall-period,552,973893,5462.779999710619,"",,,,,,,,,airport
html-keyboard-response,553,973994,null,"",null,,,,,,,,
recall-period,554,975989,9800.835000234656,"",,,,,,,,,slide
html-keyboard-response,555,976091,null,"",null,,,,,,,,
recall-period,556,981197,48018.2850001147,"",,,,,,,,,treasure
html-keyboard-response,557,981298,null,"",null,,,,,,,,
recall-period,558,996029,80520.74499987066,"",,,,,,,,,pilot
html-keyboard-response,559,996131,null,"",null,,,,,,,,
recall-period,560,1001325,42660.67499993369,"",,,,,,,,,toothpaste
html-keyboard-response,561,1001427,null,"",null,,,,,,,,
recall-period,562,1009341,71186.08500051778,"",,,,,,,,,airplane
html-keyboard-response,563,1009443,null,"",null,,,,,,,,
recall-period,564,1036073,null,"",,,,,,,,,
html-keyboard-response,565,1036576,null,"Time's Up!",null,,,,,,,,
html-keyboard-response,566,1039437,2859.775000018999,"<p> Good job! You responded correctly to 94% of the red squares.</p>
                  <p>Be sure to keep your accuracy above 80%</p>
                  <p>Press any key to continue the experiment. Thank you!</p>",32,,,,,,,,
html-keyboard-response,567,1042717,3279.06999993138,"<div style=""font-size:48px;"">Press any key to begin list 6 of 24 </div>",70,,,,,,,,
html-keyboard-response,568,1045219,null,"<div style=""font-size:60px;"">+</div>",null,,,,,,,,
html-keyboard-response,569,1045720,null,"FEAST<img id = ""stim"" ><div class = red_square id = ""topsquare"" ></div><img id = ""stim"" ><div class = red_square  id = ""bottomsquare"" ></div>",null,word_square,response,1,Space,false,,,
html-keyboard-response,570,1047223,null,"FEAST",null,word,,,,, 'FEAST',,
html-keyboard-response,571,1047724,null,"MOTOR<img id = ""stim"" ><div class = green_square id = ""topsquare"" ></div><img id = ""stim"" ><div class = green_square  id = ""bottomsquare"" ></div>",null,word_square,response,0,none,true,,,
html-keyboard-response,572,1049226,null,"MOTOR",null,word,,,,, 'MOTOR',,
html-keyboard-response,573,1049728,null,"PISTON<img id = ""stim"" ><div class = green_square id = ""topsquare"" ></div><img id = ""stim"" ><div class = green_square  id = ""bottomsquare"" ></div>",null,word_square,response,0,none,true,,,
html-keyboard-response,574,1051229,null,"PISTON",null,word,,,,, 'PISTON',,
html-keyboard-response,575,1051557,326.9850000506267,"DAD<img id = ""stim"" ><div class = red_square id = ""topsquare"" ></div><img id = ""stim"" ><div class = red_square  id = ""bottomsquare"" ></div>",32,word_square,response,1,Space,true,,,
html-keyboard-response,576,1053059,null,"DAD",null,word,,,,, 'DAD',,
html-keyboard-response,577,1053429,369.1549999639392,"GROUND<img id = ""stim"" ><div class = red_square id = ""topsquare"" ></div><img id = ""stim"" ><div class = red_square  id = ""bottomsquare"" ></div>",32,word_square,response,1,Space,true,,,
html-keyboard-response,578,1054931,null,"GROUND",null,word,,,,, 'GROUND',,
html-keyboard-response,579,1055357,425.12999998871237,"BOYFRIEND<img id = ""stim"" ><div class = red_square id = ""topsquare"" ></div><img id = ""stim"" ><div class = red_square  id = ""bottomsquare"" ></div>",32,word_square,response,1,Space,true,,,
html-keyboard-response,580,1056859,null,"BOYFRIEND",null,word,,,,, 'BOYFRIEND',,
html-keyboard-response,581,1057360,null,"DESSERT<img id = ""stim"" ><div class = green_square id = ""topsquare"" ></div><img id = ""stim"" ><div class = green_square  id = ""bottomsquare"" ></div>",null,word_square,response,0,none,true,,,
html-keyboard-response,582,1058862,null,"DESSERT",null,word,,,,, 'DESSERT',,
html-keyboard-response,583,1059364,null,"STAKE<img id = ""stim"" ><div class = green_square id = ""topsquare"" ></div><img id = ""stim"" ><div class = green_square  id = ""bottomsquare"" ></div>",null,word_square,response,0,none,true,,,
html-keyboard-response,584,1060866,null,"STAKE",null,word,,,,, 'STAKE',,
html-keyboard-response,585,1061212,345.88999999687076,"LUMBER<img id = ""stim"" ><div class = red_square id = ""topsquare"" ></div><img id = ""stim"" ><div class = red_square  id = ""bottomsquare"" ></div>",32,word_square,response,1,Space,true,,,
html-keyboard-response,586,1062715,null,"LUMBER",null,word,,,,, 'LUMBER',,
html-keyboard-response,587,1063217,null,"SEAFOOD<img id = ""stim"" ><div class = green_square id = ""topsquare"" ></div><img id = ""stim"" ><div class = green_square  id = ""bottomsquare"" ></div>",null,word_square,response,0,none,true,,,
html-keyboard-response,588,1064719,null,"SEAFOOD",null,word,,,,, 'SEAFOOD',,
html-keyboard-response,589,1065117,397.06999994814396,"SCHOOL<img id = ""stim"" ><div class = red_square id = ""topsquare"" ></div><img id = ""stim"" ><div class = red_square  id = ""bottomsquare"" ></div>",32,word_square,response,1,Space,true,,,
html-keyboard-response,590,1066618,null,"SCHOOL",null,word,,,,, 'SCHOOL',,
html-keyboard-response,591,1067120,null,"BANJO<img id = ""stim"" ><div class = green_square id = ""topsquare"" ></div><img id = ""stim"" ><div class = green_square  id = ""bottomsquare"" ></div>",null,word_square,response,0,none,true,,,
html-keyboard-response,592,1068623,null,"BANJO",null,word,,,,, 'BANJO',,
html-keyboard-response,593,1069126,null,"COLONEL<img id = ""stim"" ><div class = green_square id = ""topsquare"" ></div><img id = ""stim"" ><div class = green_square  id = ""bottomsquare"" ></div>",null,word_square,response,0,none,true,,,
html-keyboard-response,594,1070627,null,"COLONEL",null,word,,,,, 'COLONEL',,
html-keyboard-response,595,1071128,null,"GUARD<img id = ""stim"" ><div class = red_square id = ""topsquare"" ></div><img id = ""stim"" ><div class = red_square  id = ""bottomsquare"" ></div>",null,word_square,response,1,Space,false,,,
html-keyboard-response,596,1072630,null,"GUARD",null,word,,,,, 'GUARD',,
html-keyboard-response,597,1073133,null,"COLLEGE<img id = ""stim"" ><div class = green_square id = ""topsquare"" ></div><img id = ""stim"" ><div class = green_square  id = ""bottomsquare"" ></div>",null,word_square,response,0,none,true,,,
html-keyboard-response,598,1074636,null,"COLLEGE",null,word,,,,, 'COLLEGE',,
html-keyboard-response,599,1075020,383.67999996989965,"PARTNER<img id = ""stim"" ><div class = red_square id = ""topsquare"" ></div><img id = ""stim"" ><div class = red_square  id = ""bottomsquare"" ></div>",32,word_square,response,1,Space,true,,,
html-keyboard-response,600,1076522,null,"PARTNER",null,word,,,,, 'PARTNER',,
html-keyboard-response,601,1077025,null,"GLOBE<img id = ""stim"" ><div class = green_square id = ""topsquare"" ></div><img id = ""stim"" ><div class = green_square  id = ""bottomsquare"" ></div>",null,word_square,response,0,none,true,,,
html-keyboard-response,602,1078527,null,"GLOBE",null,word,,,,, 'GLOBE',,
html-keyboard-response,603,1079028,null,"FATHER<img id = ""stim"" ><div class = red_square id = ""topsquare"" ></div><img id = ""stim"" ><div class = red_square  id = ""bottomsquare"" ></div>",null,word_square,response,1,Space,false,,,
html-keyboard-response,604,1080531,null,"FATHER",null,word,,,,, 'FATHER',,
call-function,605,1080532,,"",,,,,,,,,
html-keyboard-response,606,1080633,null,"",null,,,,,,,,
math-period,607,1082701,3085.5450000381097,"",,,,,,,,,4
html-keyboard-response,608,1082803,null,"",null,,,,,,,,
math-period,609,1083700,1578.0150000937283,"",,,,,,,,,4
html-keyboard-response,610,1083802,null,"",null,,,,,,,,
math-period,611,1085244,2666.3699998753145,"",,,,,,,,,4
html-keyboard-response,612,1085347,null,"",null,,,,,,,,
math-period,613,1086700,2544.4050000514835,"",,,,,,,,,3
html-keyboard-response,614,1086802,null,"",null,,,,,,,,
math-period,615,1088316,2947.139999945648,"",,,,,,,,,6
html-keyboard-response,616,1088418,null,"",null,,,,,,,,
math-period,617,1089308,1715.2749998494983,"",,,,,,,,,3
html-keyboard-response,618,1089410,null,"",null,,,,,,,,
math-period,619,1091333,6031.450000125915,"",,,,,,,,,4
html-keyboard-response,620,1091434,null,"",null,,,,,,,,
math-period,621,1093324,3659.1150000458583,"",,,,,,,,,0
html-keyboard-response,622,1093426,null,"",null,,,,,,,,
math-period,623,1094197,1427.0099999848753,"",,,,,,,,,3
html-keyboard-response,624,1094299,null,"",null,,,,,,,,
math-period,625,1095716,2441.5550000267103,"",,,,,,,,,4
html-keyboard-response,626,1095818,null,"",null,,,,,,,,
math-period,627,1098124,4483.75000001397,"",,,,,,,,,0
html-keyboard-response,628,1098227,null,"",null,,,,,,,,
math-period,629,1100053,3345.590000040829,"",,,,,,,,,6
html-keyboard-response,630,1100155,null,"",null,,,,,,,,
math-period,631,1101212,1761.494999867864,"",,,,,,,,,5
html-keyboard-response,632,1101314,null,"",null,,,,,,,,
math-period,633,1103221,3275.0349999405444,"",,,,,,,,,2
html-keyboard-response,634,1103322,null,"",null,,,,,,,,
math-period,635,1104532,null,"",,,,,,,,,
html-keyboard-response,636,1105533,null,"Recall Period!",null,,,,,,,,
call-function,637,1105534,,"",,,,,,,,,
html-keyboard-response,638,1105635,null,"",null,,,,,,,,
recall-period,639,1107212,7747.60999972932,"",,,,,,,,,father
html-keyboard-response,640,1107314,null,"",null,,,,,,,,
recall-period,641,1108068,1910.719999927096,"",,,,,,,,,dad
html-keyboard-response,642,1108171,null,"",null,,,,,,,,
recall-period,643,1109429,3940.785000217147,"",,,,,,,,,school
html-keyboard-response,644,1109530,null,"",null,,,,,,,,
recall-period,645,1110580,3608.9699999429286,"",,,,,,,,,globe
html-keyboard-response,646,1110683,null,"",null,,,,,,,,
recall-period,647,1116477,53605.86000024341,"",,,,,,,,,guard
html-keyboard-response,648,1116578,null,"",null,,,,,,,,
recall-period,649,1126581,66445.75000042096,"",,,,,,,,,ground
html-keyboard-response,650,1126683,null,"",null,,,,,,,,
recall-period,651,1180535,null,"",,,,,,,,,
html-keyboard-response,652,1181037,null,"Time's Up!",null,,,,,,,,
html-keyboard-response,653,1182853,1815.4199999989942,"<p> Good job! You responded correctly to 92% of the red squares.</p>
                  <p>Be sure to keep your accuracy above 80%</p>
                  <p>Press any key to continue the experiment. Thank you!</p>",32,,,,,,,,
html-keyboard-response,654,1186421,3567.075000028126,"<div style=""font-size:48px;"">Press any key to begin list 7 of 24 </div>",32,,,,,,,,
html-keyboard-response,655,1188924,null,"<div style=""font-size:60px;"">+</div>",null,,,,,,,,
html-keyboard-response,656,1189426,null,"HATCHET<img id = ""stim"" ><div class = green_square id = ""topsquare"" ></div><img id = ""stim"" ><div class = green_square  id = ""bottomsquare"" ></div>",null,word_square,response,0,none,true,,,
html-keyboard-response,657,1190928,null,"HATCHET",null,word,,,,, 'HATCHET',,
html-keyboard-response,658,1191301,372.1449999138713,"SCALPEL<img id = ""stim"" ><div class = red_square id = ""topsquare"" ></div><img id = ""stim"" ><div class = red_square  id = ""bottomsquare"" ></div>",32,word_square,response,1,Space,true,,,
html-keyboard-response,659,1192804,null,"SCALPEL",null,word,,,,, 'SCALPEL',,
html-keyboard-response,660,1193109,304.55000000074506,"HEADBAND<img id = ""stim"" ><div class = red_square id = ""topsquare"" ></div><img id = ""stim"" ><div class = red_square  id = ""bottomsquare"" ></div>",32,word_square,response,1,Space,true,,,
html-keyboard-response,661,1194611,null,"HEADBAND",null,word,,,,, 'HEADBAND',,
html-keyboard-response,662,1195113,null,"CHILD<img id = ""stim"" ><div class = green_square id = ""topsquare"" ></div><img id = ""stim"" ><div class = green_square  id = ""bottomsquare"" ></div>",null,word_square,response,0,none,true,,,
html-keyboard-response,663,1196616,null,"CHILD",null,word,,,,, 'CHILD',,
html-keyboard-response,664,1197118,null,"OZONE<img id = ""stim"" ><div class = green_square id = ""topsquare"" ></div><img id = ""stim"" ><div class = green_square  id = ""bottomsquare"" ></div>",null,word_square,response,0,none,true,,,
html-keyboard-response,665,1198620,null,"OZONE",null,word,,,,, 'OZONE',,
html-keyboard-response,666,1199121,null,"NIGHTGOWN<img id = ""stim"" ><div class = green_square id = ""topsquare"" ></div><img id = ""stim"" ><div class = green_square  id = ""bottomsquare"" ></div>",null,word_square,response,0,none,true,,,
html-keyboard-response,667,1200623,null,"NIGHTGOWN",null,word,,,,, 'NIGHTGOWN',,
html-keyboard-response,668,1200981,357.2050000075251,"PLAID<img id = ""stim"" ><div class = red_square id = ""topsquare"" ></div><img id = ""stim"" ><div class = red_square  id = ""bottomsquare"" ></div>",32,word_square,response,1,Space,true,,,
html-keyboard-response,669,1202482,null,"PLAID",null,word,,,,, 'PLAID',,
html-keyboard-response,670,1202984,null,"SKUNK<img id = ""stim"" ><div class = red_square id = ""topsquare"" ></div><img id = ""stim"" ><div class = red_square  id = ""bottomsquare"" ></div>",null,word_square,response,1,Space,false,,,
html-keyboard-response,671,1204486,null,"SKUNK",null,word,,,,, 'SKUNK',,
html-keyboard-response,672,1204988,null,"RAZOR<img id = ""stim"" ><div class = green_square id = ""topsquare"" ></div><img id = ""stim"" ><div class = green_square  id = ""bottomsquare"" ></div>",null,word_square,response,0,none,true,,,
html-keyboard-response,673,1206489,null,"RAZOR",null,word,,,,, 'RAZOR',,
html-keyboard-response,674,1206846,355.26999994181097,"SQUIRREL<img id = ""stim"" ><div class = red_square id = ""topsquare"" ></div><img id = ""stim"" ><div class = red_square  id = ""bottomsquare"" ></div>",32,word_square,response,1,Space,true,,,
html-keyboard-response,675,1208347,null,"SQUIRREL",null,word,,,,, 'SQUIRREL',,
html-keyboard-response,676,1208848,null,"FRIES<img id = ""stim"" ><div class = green_square id = ""topsquare"" ></div><img id = ""stim"" ><div class = green_square  id = ""bottomsquare"" ></div>",null,word_square,response,0,none,true,,,
html-keyboard-response,677,1210350,null,"FRIES",null,word,,,,, 'FRIES',,
html-keyboard-response,678,1210821,469.855000032112,"SERPENT<img id = ""stim"" ><div class = red_square id = ""topsquare"" ></div><img id = ""stim"" ><div class = red_square  id = ""bottomsquare"" ></div>",32,word_square,response,1,Space,true,,,
html-keyboard-response,679,1212323,null,"SERPENT",null,word,,,,, 'SERPENT',,
html-keyboard-response,680,1212661,336.54500008560717,"PARCEL<img id = ""stim"" ><div class = red_square id = ""topsquare"" ></div><img id = ""stim"" ><div class = red_square  id = ""bottomsquare"" ></div>",32,word_square,response,1,Space,true,,,
html-keyboard-response,681,1214162,null,"PARCEL",null,word,,,,, 'PARCEL',,
html-keyboard-response,682,1214665,null,"WASP<img id = ""stim"" ><div class = green_square id = ""topsquare"" ></div><img id = ""stim"" ><div class = green_square  id = ""bottomsquare"" ></div>",null,word_square,response,0,none,true,,,
html-keyboard-response,683,1216168,null,"WASP",null,word,,,,, 'WASP',,
html-keyboard-response,684,1216461,292.4099999945611,"HORNET<img id = ""stim"" ><div class = red_square id = ""topsquare"" ></div><img id = ""stim"" ><div class = red_square  id = ""bottomsquare"" ></div>",32,word_square,response,1,Space,true,,,
html-keyboard-response,685,1217963,null,"HORNET",null,word,,,,, 'HORNET',,
html-keyboard-response,686,1218465,null,"MILK<img id = ""stim"" ><div class = green_square id = ""topsquare"" ></div><img id = ""stim"" ><div class = green_square  id = ""bottomsquare"" ></div>",null,word_square,response,0,none,true,,,
html-keyboard-response,687,1219966,null,"MILK",null,word,,,,, 'MILK',,
html-keyboard-response,688,1220293,326.0749999899417,"PARROT<img id = ""stim"" ><div class = red_square id = ""topsquare"" ></div><img id = ""stim"" ><div class = red_square  id = ""bottomsquare"" ></div>",32,word_square,response,1,Space,true,,,
html-keyboard-response,689,1221795,null,"PARROT",null,word,,,,, 'PARROT',,
html-keyboard-response,690,1222296,null,"HEEL<img id = ""stim"" ><div class = green_square id = ""topsquare"" ></div><img id = ""stim"" ><div class = green_square  id = ""bottomsquare"" ></div>",null,word_square,response,0,none,true,,,
html-keyboard-response,691,1223799,null,"HEEL",null,word,,,,, 'HEEL',,
call-function,692,1223799,,"",,,,,,,,,
html-keyboard-response,693,1223901,null,"",null,,,,,,,,
math-period,694,1226741,5014.790000044741,"",,,,,,,,,4
html-keyboard-response,695,1226843,null,"",null,,,,,,,,
math-period,696,1227677,1459.1649998910725,"",,,,,,,,,4
html-keyboard-response,697,1227778,null,"",null,,,,,,,,
math-period,698,1228613,1531.3000000314787,"",,,,,,,,,2
html-keyboard-response,699,1228715,null,"",null,,,,,,,,
math-period,700,1229973,2130.929999984801,"",,,,,,,,,4
html-keyboard-response,701,1230075,null,"",null,,,,,,,,
math-period,702,1231901,3098.6750001320615,"",,,,,,,,,1
html-keyboard-response,703,1232002,null,"",null,,,,,,,,
math-period,704,1233757,3075.6149999797344,"",,,,,,,,,4
html-keyboard-response,705,1233859,null,"",null,,,,,,,,
math-period,706,1234933,1866.7150000110269,"",,,,,,,,,3
html-keyboard-response,707,1235035,null,"",null,,,,,,,,
math-period,708,1236966,5702.920000068843,"",,,,,,,,,5
html-keyboard-response,709,1237067,null,"",null,,,,,,,,
math-period,710,1239333,4217.680000001565,"",,,,,,,,,3
html-keyboard-response,711,1239435,null,"",null,,,,,,,,
math-period,712,1241213,3458.060000091791,"",,,,,,,,,3
html-keyboard-response,713,1241315,null,"",null,,,,,,,,
math-period,714,1242205,1659.6349999308586,"",,,,,,,,,3
html-keyboard-response,715,1242307,null,"",null,,,,,,,,
math-period,716,1244853,4778.990000020713,"",,,,,,,,,1
html-keyboard-response,717,1244954,null,"",null,,,,,,,,
math-period,718,1246421,2700.469999923371,"",,,,,,,,,4
html-keyboard-response,719,1246522,null,"",null,,,,,,,,
math-period,720,1247800,null,"",,,,,,,,,
html-keyboard-response,721,1248802,null,"Recall Period!",null,,,,,,,,
call-function,722,1248802,,"",,,,,,,,,
html-keyboard-response,723,1248904,null,"",null,,,,,,,,
recall-period,724,1250645,5741.474999929778,"",,,,,,,,,heel
html-keyboard-response,725,1250747,null,"",null,,,,,,,,
recall-period,726,1254366,13344.225000124425,"",,,,,,,,,wasp
html-keyboard-response,727,1254467,null,"",null,,,,,,,,
recall-period,728,1257597,20713.064999552444,"",,,,,,,,,hornet
html-keyboard-response,729,1257701,null,"",null,,,,,,,,
recall-period,730,1259797,7949.924999848008,"",,,,,,,,,milk
html-keyboard-response,731,1259899,null,"",null,,,,,,,,
recall-period,732,1323803,null,"",,,,,,,,,
html-keyboard-response,733,1324304,null,"Time's Up!",null,,,,,,,,
html-keyboard-response,734,1333638,9332.234999979846,"<p> Good job! You responded correctly to 92% of the red squares.</p>
                  <p>Be sure to keep your accuracy above 80%</p>
                  <p>Press any key to continue the experiment. Thank you!</p>",32,,,,,,,,
html-keyboard-response,735,1338517,4878.540000063367,"<div style=""font-size:48px;"">Press any key to begin list 8 of 24 </div>",32,,,,,,,,
html-keyboard-response,736,1341021,null,"<div style=""font-size:60px;"">+</div>",null,,,,,,,,
html-keyboard-response,737,1341524,null,"RUBY<img id = ""stim"" ><div class = green_square id = ""topsquare"" ></div><img id = ""stim"" ><div class = green_square  id = ""bottomsquare"" ></div>",null,word_square,response,0,none,true,,,
html-keyboard-response,738,1343027,null,"RUBY",null,word,,,,, 'RUBY',,
html-keyboard-response,739,1343341,313.54999996256083,"SHAMPOO<img id = ""stim"" ><div class = red_square id = ""topsquare"" ></div><img id = ""stim"" ><div class = red_square  id = ""bottomsquare"" ></div>",32,word_square,response,1,Space,true,,,
html-keyboard-response,740,1344843,null,"SHAMPOO",null,word,,,,, 'SHAMPOO',,
html-keyboard-response,741,1345166,322.03999999910593,"AGENT<img id = ""stim"" ><div class = red_square id = ""topsquare"" ></div><img id = ""stim"" ><div class = red_square  id = ""bottomsquare"" ></div>",32,word_square,response,1,Space,true,,,
html-keyboard-response,742,1346668,null,"AGENT",null,word,,,,, 'AGENT',,
html-keyboard-response,743,1347170,null,"WAX<img id = ""stim"" ><div class = green_square id = ""topsquare"" ></div><img id = ""stim"" ><div class = green_square  id = ""bottomsquare"" ></div>",null,word_square,response,0,none,true,,,
html-keyboard-response,744,1348672,null,"WAX",null,word,,,,, 'WAX',,
html-keyboard-response,745,1349173,null,"PORK<img id = ""stim"" ><div class = green_square id = ""topsquare"" ></div><img id = ""stim"" ><div class = green_square  id = ""bottomsquare"" ></div>",null,word_square,response,0,none,true,,,
html-keyboard-response,746,1350675,null,"PORK",null,word,,,,, 'PORK',,
html-keyboard-response,747,1351176,null,"BUCKET<img id = ""stim"" ><div class = green_square id = ""topsquare"" ></div><img id = ""stim"" ><div class = green_square  id = ""bottomsquare"" ></div>",null,word_square,response,0,none,true,,,
html-keyboard-response,748,1352679,null,"BUCKET",null,word,,,,, 'BUCKET',,
html-keyboard-response,749,1352982,301.0350000113249,"SHERIFF<img id = ""stim"" ><div class = red_square id = ""topsquare"" ></div><img id = ""stim"" ><div class = red_square  id = ""bottomsquare"" ></div>",32,word_square,response,1,Space,true,,,
html-keyboard-response,750,1354483,null,"SHERIFF",null,word,,,,, 'SHERIFF',,
html-keyboard-response,751,1354985,null,"PAPER<img id = ""stim"" ><div class = red_square id = ""topsquare"" ></div><img id = ""stim"" ><div class = red_square  id = ""bottomsquare"" ></div>",null,word_square,response,1,Space,false,,,
html-keyboard-response,752,1356486,null,"PAPER",null,word,,,,, 'PAPER',,
html-keyboard-response,753,1356987,null,"CONTRACT<img id = ""stim"" ><div class = green_square id = ""topsquare"" ></div><img id = ""stim"" ><div class = green_square  id = ""bottomsquare"" ></div>",null,word_square,response,0,none,true,,,
html-keyboard-response,754,1358488,null,"CONTRACT",null,word,,,,, 'CONTRACT',,
html-keyboard-response,755,1358861,371.56999995931983,"LAGOON<img id = ""stim"" ><div class = red_square id = ""topsquare"" ></div><img id = ""stim"" ><div class = red_square  id = ""bottomsquare"" ></div>",32,word_square,response,1,Space,true,,,
html-keyboard-response,756,1360362,null,"LAGOON",null,word,,,,, 'LAGOON',,
html-keyboard-response,757,1360865,null,"NOVEL<img id = ""stim"" ><div class = green_square id = ""topsquare"" ></div><img id = ""stim"" ><div class = green_square  id = ""bottomsquare"" ></div>",null,word_square,response,0,none,true,,,
html-keyboard-response,758,1362366,null,"NOVEL",null,word,,,,, 'NOVEL',,
html-keyboard-response,759,1362645,277.66999998129904,"POET<img id = ""stim"" ><div class = red_square id = ""topsquare"" ></div><img id = ""stim"" ><div class = red_square  id = ""bottomsquare"" ></div>",32,word_square,response,1,Space,true,,,
html-keyboard-response,760,1364147,null,"POET",null,word,,,,, 'POET',,
html-keyboard-response,761,1364573,424.80999999679625,"CASTLE<img id = ""stim"" ><div class = red_square id = ""topsquare"" ></div><img id = ""stim"" ><div class = red_square  id = ""bottomsquare"" ></div>",32,word_square,response,1,Space,true,,,
html-keyboard-response,762,1366074,null,"CASTLE",null,word,,,,, 'CASTLE',,
html-keyboard-response,763,1366577,null,"HAMPER<img id = ""stim"" ><div class = green_square id = ""topsquare"" ></div><img id = ""stim"" ><div class = green_square  id = ""bottomsquare"" ></div>",null,word_square,response,0,none,true,,,
html-keyboard-response,764,1368079,null,"HAMPER",null,word,,,,, 'HAMPER',,
html-keyboard-response,765,1368389,307.8700000187382,"BELLY<img id = ""stim"" ><div class = red_square id = ""topsquare"" ></div><img id = ""stim"" ><div class = red_square  id = ""bottomsquare"" ></div>",32,word_square,response,1,Space,true,,,
html-keyboard-response,766,1369891,null,"BELLY",null,word,,,,, 'BELLY',,
html-keyboard-response,767,1370392,null,"STOMACH<img id = ""stim"" ><div class = green_square id = ""topsquare"" ></div><img id = ""stim"" ><div class = green_square  id = ""bottomsquare"" ></div>",null,word_square,response,0,none,true,,,
html-keyboard-response,768,1371893,null,"STOMACH",null,word,,,,, 'STOMACH',,
html-keyboard-response,769,1372277,382.5049999868497,"BATHROOM<img id = ""stim"" ><div class = red_square id = ""topsquare"" ></div><img id = ""stim"" ><div class = red_square  id = ""bottomsquare"" ></div>",32,word_square,response,1,Space,true,,,
html-keyboard-response,770,1373779,null,"BATHROOM",null,word,,,,, 'BATHROOM',,
html-keyboard-response,771,1374281,null,"BOULDER<img id = ""stim"" ><div class = green_square id = ""topsquare"" ></div><img id = ""stim"" ><div class = green_square  id = ""bottomsquare"" ></div>",null,word_square,response,0,none,true,,,
html-keyboard-response,772,1375783,null,"BOULDER",null,word,,,,, 'BOULDER',,
call-function,773,1375784,,"",,,,,,,,,
html-keyboard-response,774,1375886,null,"",null,,,,,,,,
math-period,775,1378277,4436.175000038929,"",,,,,,,,,2
html-keyboard-response,776,1378378,null,"",null,,,,,,,,
math-period,777,1380477,3978.9600000949576,"",,,,,,,,,6
html-keyboard-response,778,1380578,null,"",null,,,,,,,,
math-period,779,1382381,3466.9700000667945,"",,,,,,,,,0
html-keyboard-response,780,1382483,null,"",null,,,,,,,,
math-period,781,1383333,1594.6199998725206,"",,,,,,,,,3
html-keyboard-response,782,1383435,null,"",null,,,,,,,,
math-period,783,1384765,2578.3900000387803,"",,,,,,,,,5
html-keyboard-response,784,1384867,null,"",null,,,,,,,,
math-period,785,1387045,4234.209999907762,"",,,,,,,,,2
html-keyboard-response,786,1387146,null,"",null,,,,,,,,
math-period,787,1389173,3954.989999998361,"",,,,,,,,,0
html-keyboard-response,788,1389275,null,"",null,,,,,,,,
math-period,789,1391629,4626.465000095777,"",,,,,,,,,4
html-keyboard-response,790,1391731,null,"",null,,,,,,,,
math-period,791,1392749,1938.4799998952076,"",,,,,,,,,2
html-keyboard-response,792,1392851,null,"",null,,,,,,,,
math-period,793,1394357,2905.0849999766797,"",,,,,,,,,4
html-keyboard-response,794,1394459,null,"",null,,,,,,,,
math-period,795,1396029,3049.580000108108,"",,,,,,,,,0
html-keyboard-response,796,1396130,null,"",null,,,,,,,,
math-period,797,1396933,1522.9650000110269,"",,,,,,,,,3
html-keyboard-response,798,1397035,null,"",null,,,,,,,,
math-period,799,1398725,3074.129999964498,"",,,,,,,,,4
html-keyboard-response,800,1398826,null,"",null,,,,,,,,
math-period,801,1399785,null,"",,,,,,,,,
html-keyboard-response,802,1400786,null,"Recall Period!",null,,,,,,,,
call-function,803,1400787,,"",,,,,,,,,
html-keyboard-response,804,1400889,null,"",null,,,,,,,,
recall-period,805,1403013,9183.235000236891,"",,,,,,,,,castle
html-keyboard-response,806,1403115,null,"",null,,,,,,,,
recall-period,807,1404269,3740.584999904968,"",,,,,,,,,belly
html-keyboard-response,808,1404371,null,"",null,,,,,,,,
recall-period,809,1406525,9740.629999781959,"",,,,,,,,,stomach
html-keyboard-response,810,1406627,null,"",null,,,,,,,,
recall-period,811,1409117,17403.970000101253,"",,,,,,,,,bathroom
html-keyboard-response,812,1409219,null,"",null,,,,,,,,
recall-period,813,1412933,11386.40000007581,"",,,,,,,,,lagoon
html-keyboard-response,814,1413035,null,"",null,,,,,,,,
recall-period,815,1416061,20899.65999976266,"",,,,,,,,,boulder
html-keyboard-response,816,1416163,null,"",null,,,,,,,,
recall-period,817,1429789,116256.28999993205,"",,,,,,,,,parrot
html-keyboard-response,818,1429891,null,"",null,,,,,,,,
recall-period,819,1440989,91183.22499969508,"",,,,,,,,,bucket
html-keyboard-response,820,1441092,null,"",null,,,,,,,,
recall-period,821,1475788,null,"",,,,,,,,,
html-keyboard-response,822,1476290,null,"Time's Up!",null,,,,,,,,
html-keyboard-response,823,1479509,3218.609999981709,"<p> Good job! You responded correctly to 93% of the red squares.</p>
                  <p>Be sure to keep your accuracy above 80%</p>
                  <p>Press any key to continue the experiment. Thank you!</p>",32,,,,,,,,
html-keyboard-response,824,1480557,1047.1449999604374,"<div style=""font-size:48px;"">Press any key to begin list 9 of 24 </div>",32,,,,,,,,
html-keyboard-response,825,1483060,null,"<div style=""font-size:60px;"">+</div>",null,,,,,,,,
html-keyboard-response,826,1483562,null,"SKATE<img id = ""stim"" ><div class = green_square id = ""topsquare"" ></div><img id = ""stim"" ><div class = green_square  id = ""bottomsquare"" ></div>",null,word_square,response,0,none,true,,,
html-keyboard-response,827,1485063,null,"SKATE",null,word,,,,, 'SKATE',,
html-keyboard-response,828,1485453,388.47000000532717,"BUTLER<img id = ""stim"" ><div class = green_square id = ""topsquare"" ></div><img id = ""stim"" ><div class = green_square  id = ""bottomsquare"" ></div>",32,word_square,response,0,none,false,,,
html-keyboard-response,829,1486955,null,"BUTLER",null,word,,,,, 'BUTLER',,
html-keyboard-response,830,1487365,409.0149999829009,"LEG<img id = ""stim"" ><div class = red_square id = ""topsquare"" ></div><img id = ""stim"" ><div class = red_square  id = ""bottomsquare"" ></div>",32,word_square,response,1,Space,true,,,
html-keyboard-response,831,1488867,null,"LEG",null,word,,,,, 'LEG',,
html-keyboard-response,832,1489189,321.6750000137836,"DAUGHTER<img id = ""stim"" ><div class = red_square id = ""topsquare"" ></div><img id = ""stim"" ><div class = red_square  id = ""bottomsquare"" ></div>",32,word_square,response,1,Space,true,,,
html-keyboard-response,833,1490691,null,"DAUGHTER",null,word,,,,, 'DAUGHTER',,
html-keyboard-response,834,1491194,null,"BRANCH<img id = ""stim"" ><div class = green_square id = ""topsquare"" ></div><img id = ""stim"" ><div class = green_square  id = ""bottomsquare"" ></div>",null,word_square,response,0,none,true,,,
html-keyboard-response,835,1492695,null,"BRANCH",null,word,,,,, 'BRANCH',,
html-keyboard-response,836,1492949,253.03500005975366,"BOX<img id = ""stim"" ><div class = red_square id = ""topsquare"" ></div><img id = ""stim"" ><div class = red_square  id = ""bottomsquare"" ></div>",32,word_square,response,1,Space,true,,,
html-keyboard-response,837,1494451,null,"BOX",null,word,,,,, 'BOX',,
html-keyboard-response,838,1494953,null,"PREACHER<img id = ""stim"" ><div class = green_square id = ""topsquare"" ></div><img id = ""stim"" ><div class = green_square  id = ""bottomsquare"" ></div>",null,word_square,response,0,none,true,,,
html-keyboard-response,839,1496454,null,"PREACHER",null,word,,,,, 'PREACHER',,
html-keyboard-response,840,1496813,357.9150000587106,"WRIST<img id = ""stim"" ><div class = red_square id = ""topsquare"" ></div><img id = ""stim"" ><div class = red_square  id = ""bottomsquare"" ></div>",32,word_square,response,1,Space,true,,,
html-keyboard-response,841,1498315,null,"WRIST",null,word,,,,, 'WRIST',,
html-keyboard-response,842,1498613,297.76500002481043,"WHISTLE<img id = ""stim"" ><div class = red_square id = ""topsquare"" ></div><img id = ""stim"" ><div class = red_square  id = ""bottomsquare"" ></div>",32,word_square,response,1,Space,true,,,
html-keyboard-response,843,1500115,null,"WHISTLE",null,word,,,,, 'WHISTLE',,
html-keyboard-response,844,1500617,null,"MOTEL<img id = ""stim"" ><div class = green_square id = ""topsquare"" ></div><img id = ""stim"" ><div class = green_square  id = ""bottomsquare"" ></div>",null,word_square,response,0,none,true,,,
html-keyboard-response,845,1502119,null,"MOTEL",null,word,,,,, 'MOTEL',,
html-keyboard-response,846,1502620,null,"TOURIST<img id = ""stim"" ><div class = green_square id = ""topsquare"" ></div><img id = ""stim"" ><div class = green_square  id = ""bottomsquare"" ></div>",null,word_square,response,0,none,true,,,
html-keyboard-response,847,1504122,null,"TOURIST",null,word,,,,, 'TOURIST',,
html-keyboard-response,848,1504485,362.20999993383884,"CABOOSE<img id = ""stim"" ><div class = red_square id = ""topsquare"" ></div><img id = ""stim"" ><div class = red_square  id = ""bottomsquare"" ></div>",32,word_square,response,1,Space,true,,,
html-keyboard-response,849,1505987,null,"CABOOSE",null,word,,,,, 'CABOOSE',,
html-keyboard-response,850,1506488,null,"CROOK<img id = ""stim"" ><div class = green_square id = ""topsquare"" ></div><img id = ""stim"" ><div class = green_square  id = ""bottomsquare"" ></div>",null,word_square,response,0,none,true,,,
html-keyboard-response,851,1507989,null,"CROOK",null,word,,,,, 'CROOK',,
html-keyboard-response,852,1508490,null,"SAPPHIRE<img id = ""stim"" ><div class = green_square id = ""topsquare"" ></div><img id = ""stim"" ><div class = green_square  id = ""bottomsquare"" ></div>",null,word_square,response,0,none,true,,,
html-keyboard-response,853,1509992,null,"SAPPHIRE",null,word,,,,, 'SAPPHIRE',,
html-keyboard-response,854,1510413,420.25500000454485,"TUBA<img id = ""stim"" ><div class = red_square id = ""topsquare"" ></div><img id = ""stim"" ><div class = red_square  id = ""bottomsquare"" ></div>",32,word_square,response,1,Space,true,,,
html-keyboard-response,855,1511914,null,"TUBA",null,word,,,,, 'TUBA',,
html-keyboard-response,856,1512416,null,"CANVAS<img id = ""stim"" ><div class = green_square id = ""topsquare"" ></div><img id = ""stim"" ><div class = green_square  id = ""bottomsquare"" ></div>",null,word_square,response,0,none,true,,,
html-keyboard-response,857,1513917,null,"CANVAS",null,word,,,,, 'CANVAS',,
html-keyboard-response,858,1514277,359.0900000417605,"SLACKS<img id = ""stim"" ><div class = red_square id = ""topsquare"" ></div><img id = ""stim"" ><div class = red_square  id = ""bottomsquare"" ></div>",32,word_square,response,1,Space,true,,,
html-keyboard-response,859,1515779,null,"SLACKS",null,word,,,,, 'SLACKS',,
html-keyboard-response,860,1516206,425.4499999806285,"FRIEND<img id = ""stim"" ><div class = red_square id = ""topsquare"" ></div><img id = ""stim"" ><div class = red_square  id = ""bottomsquare"" ></div>",32,word_square,response,1,Space,true,,,
html-keyboard-response,861,1517707,null,"FRIEND",null,word,,,,, 'FRIEND',,
call-function,862,1517707,,"",,,,,,,,,
html-keyboard-response,863,1517809,null,"",null,,,,,,,,
math-period,864,1520437,4902.035000151955,"",,,,,,,,,4
html-keyboard-response,865,1520540,null,"",null,,,,,,,,
math-period,866,1521973,2673.164999927394,"",,,,,,,,,3
html-keyboard-response,867,1522075,null,"",null,,,,,,,,
math-period,868,1523117,1963.0150001030415,"",,,,,,,,,3
html-keyboard-response,869,1523219,null,"",null,,,,,,,,
math-period,870,1524085,1610.4449999984354,"",,,,,,,,,3
html-keyboard-response,871,1524187,null,"",null,,,,,,,,
math-period,872,1525373,2274.3849999969825,"",,,,,,,,,2
html-keyboard-response,873,1525476,null,"",null,,,,,,,,
math-period,874,1528965,5857.504999963567,"",,,,,,,,,1
html-keyboard-response,875,1529067,null,"",null,,,,,,,,
math-period,876,1530845,3450.5300000309944,"",,,,,,,,,2
html-keyboard-response,877,1530948,null,"",null,,,,,,,,
math-period,878,1532821,3624.859999981709,"",,,,,,,,,2
html-keyboard-response,879,1532924,null,"",null,,,,,,,,
math-period,880,1534237,2521.2550000287592,"",,,,,,,,,4
html-keyboard-response,881,1534339,null,"",null,,,,,,,,
math-period,882,1536453,4114.355000085197,"",,,,,,,,,2
html-keyboard-response,883,1536555,null,"",null,,,,,,,,
math-period,884,1537829,2402.044999995269,"",,,,,,,,,4
html-keyboard-response,885,1537931,null,"",null,,,,,,,,
math-period,886,1540310,4075.374999898486,"",,,,,,,,,2
html-keyboard-response,887,1540412,null,"",null,,,,,,,,
math-period,888,1541709,1184.5850000390783,"",,,,,,,,,4
html-keyboard-response,889,1542711,null,"Recall Period!",null,,,,,,,,
call-function,890,1542711,,"",,,,,,,,,
html-keyboard-response,891,1542813,null,"",null,,,,,,,,
recall-period,892,1544550,6988.970000180416,"",,,,,,,,,slacks
html-keyboard-response,893,1544652,null,"",null,,,,,,,,
recall-period,894,1546765,9793.599999626167,"",,,,,,,,,friend
html-keyboard-response,895,1546866,null,"",null,,,,,,,,
recall-period,896,1549221,9692.08499963861,"",,,,,,,,,hotel
html-keyboard-response,897,1549323,null,"",null,,,,,,,,
recall-period,898,1552149,9080.780000193045,"",,,,,,,,,motel
html-keyboard-response,899,1552252,null,"",null,,,,,,,,
recall-period,900,1558453,21605.695000034757,"",,,,,,,,,saphire
html-keyboard-response,901,1558555,null,"",null,,,,,,,,
recall-period,902,1577350,149524.4799995562,"",,,,,,,,,crook
html-keyboard-response,903,1577452,null,"",null,,,,,,,,
recall-period,904,1617713,null,"",,,,,,,,,
html-keyboard-response,905,1618215,null,"Time's Up!",null,,,,,,,,
html-keyboard-response,906,1635158,16940.98000007216,"<p> Good job! You responded correctly to 93% of the red squares.</p>
                  <p>Be sure to keep your accuracy above 80%</p>
                  <p>Press any key to continue the experiment. Thank you!</p>",32,,,,,,,,
html-keyboard-response,907,1637294,2134.790000040084,"<div style=""font-size:48px;"">Press any key to begin list 10 of 24 </div>",32,,,,,,,,
html-keyboard-response,908,1639796,null,"<div style=""font-size:60px;"">+</div>",null,,,,,,,,
html-keyboard-response,909,1640299,null,"TROUSERS<img id = ""stim"" ><div class = green_square id = ""topsquare"" ></div><img id = ""stim"" ><div class = green_square  id = ""bottomsquare"" ></div>",null,word_square,response,0,none,true,,,
html-keyboard-response,910,1641801,null,"TROUSERS",null,word,,,,, 'TROUSERS',,
html-keyboard-response,911,1642302,null,"RACKET<img id = ""stim"" ><div class = green_square id = ""topsquare"" ></div><img id = ""stim"" ><div class = green_square  id = ""bottomsquare"" ></div>",null,word_square,response,0,none,true,,,
html-keyboard-response,912,1643805,null,"RACKET",null,word,,,,, 'RACKET',,
html-keyboard-response,913,1644213,407.8849999932572,"JAPAN<img id = ""stim"" ><div class = red_square id = ""topsquare"" ></div><img id = ""stim"" ><div class = red_square  id = ""bottomsquare"" ></div>",32,word_square,response,1,Space,true,,,
html-keyboard-response,914,1645714,null,"JAPAN",null,word,,,,, 'JAPAN',,
html-keyboard-response,915,1646216,null,"LAPEL<img id = ""stim"" ><div class = red_square id = ""topsquare"" ></div><img id = ""stim"" ><div class = red_square  id = ""bottomsquare"" ></div>",null,word_square,response,1,Space,false,,,
html-keyboard-response,916,1647717,null,"LAPEL",null,word,,,,, 'LAPEL',,
html-keyboard-response,917,1648218,null,"FROG<img id = ""stim"" ><div class = green_square id = ""topsquare"" ></div><img id = ""stim"" ><div class = green_square  id = ""bottomsquare"" ></div>",null,word_square,response,0,none,true,,,
html-keyboard-response,918,1649719,null,"FROG",null,word,,,,, 'FROG',,
html-keyboard-response,919,1650046,325.26499999221414,"PAVEMENT<img id = ""stim"" ><div class = red_square id = ""topsquare"" ></div><img id = ""stim"" ><div class = red_square  id = ""bottomsquare"" ></div>",32,word_square,response,1,Space,true,,,
html-keyboard-response,920,1651547,null,"PAVEMENT",null,word,,,,, 'PAVEMENT',,
html-keyboard-response,921,1652048,null,"FIST<img id = ""stim"" ><div class = green_square id = ""topsquare"" ></div><img id = ""stim"" ><div class = green_square  id = ""bottomsquare"" ></div>",null,word_square,response,0,none,true,,,
html-keyboard-response,922,1653550,null,"FIST",null,word,,,,, 'FIST',,
html-keyboard-response,923,1653894,342.31500001624227,"ASIA<img id = ""stim"" ><div class = red_square id = ""topsquare"" ></div><img id = ""stim"" ><div class = red_square  id = ""bottomsquare"" ></div>",32,word_square,response,1,Space,true,,,
html-keyboard-response,924,1655395,null,"ASIA",null,word,,,,, 'ASIA',,
html-keyboard-response,925,1655898,null,"DUSTPAN<img id = ""stim"" ><div class = red_square id = ""topsquare"" ></div><img id = ""stim"" ><div class = red_square  id = ""bottomsquare"" ></div>",null,word_square,response,1,Space,false,,,
html-keyboard-response,926,1657399,null,"DUSTPAN",null,word,,,,, 'DUSTPAN',,
html-keyboard-response,927,1657901,null,"MOP<img id = ""stim"" ><div class = green_square id = ""topsquare"" ></div><img id = ""stim"" ><div class = green_square  id = ""bottomsquare"" ></div>",null,word_square,response,0,none,true,,,
html-keyboard-response,928,1659403,null,"MOP",null,word,,,,, 'MOP',,
html-keyboard-response,929,1659904,null,"THIMBLE<img id = ""stim"" ><div class = green_square id = ""topsquare"" ></div><img id = ""stim"" ><div class = green_square  id = ""bottomsquare"" ></div>",null,word_square,response,0,none,true,,,
html-keyboard-response,930,1661406,null,"THIMBLE",null,word,,,,, 'THIMBLE',,
html-keyboard-response,931,1661853,446.63999998010695,"PLASTER<img id = ""stim"" ><div class = red_square id = ""topsquare"" ></div><img id = ""stim"" ><div class = red_square  id = ""bottomsquare"" ></div>",32,word_square,response,1,Space,true,,,
html-keyboard-response,932,1663354,null,"PLASTER",null,word,,,,, 'PLASTER',,
