trial_type,trial_index,time_elapsed,rt,stimulus,key_press,test_part,task,targ_cond,correctKeyCode,correct,word,value,response
pavlovia,0,673,,"",,,,,,,,,
external-html,1,2926,2241.0499999969034,"",,,,,,,,,
html-keyboard-response,2,4522,1589.2350000067381,"Welcome to the experiment. Press any key to begin.",32,,,,,,,,
html-keyboard-response,3,12306,7782.03499999654,"<p>You will see a list of words and colored squares in the following task.<p><p>Press the spacebar whenever you see a GREEN square.<p><p>Do not press a key if the square is RED<p><p>Press the spacebar to continue.</p>",32,,,,,,,,
html-keyboard-response,4,25352,12542.410000009113,"<p>Please try to remember as many of the words as you can, and try to think about the meaning of each word as it appears.<p><p>After the detection and encoding task you will be asked to solve some math problems for 24 seconds.<p> Please solve as many problems as you can in the time given. <p>",32,,,,,,,,
html-keyboard-response,5,33214,7359.030000006896,"After solving the math problems, you will be asked to type in as many words <p>from the previous list as you can remember for 75 seconds.<p> If you finish recalling before the 75 seconds are up,<p> just sit tight and try to think of any more words you could have missed. <p><p>We will begin with a brief practice session<p>Press the spacebar to begin the practice.</p>",32,,,,,,,,
html-keyboard-response,6,35722,null,"<div style=""font-size:60px;"">+</div>",null,,,,,,,,
html-keyboard-response,7,36227,null,"HAPPY<img id = ""stim"" ><div class = red_square id = ""topsquare"" ></div><img id = ""stim"" ><div class = red_square  id = ""bottomsquare"" ></div>",null,word_square,prac_response,0,none,true,,,
html-keyboard-response,8,37730,null,"HAPPY",null,word,,,,,HAPPY,,
html-keyboard-response,9,38236,null,"COLD<img id = ""stim"" ><div class = green_square id = ""topsquare"" ></div><img id = ""stim"" ><div class = green_square  id = ""bottomsquare"" ></div>",null,word_square,prac_response,1,Space,false,,,
html-keyboard-response,10,39738,null,"COLD",null,word,,,,,COLD,,
html-keyboard-response,11,40244,null,"HEAVY<img id = ""stim"" ><div class = green_square id = ""topsquare"" ></div><img id = ""stim"" ><div class = green_square  id = ""bottomsquare"" ></div>",null,word_square,prac_response,1,Space,false,,,
html-keyboard-response,12,41749,null,"HEAVY",null,word,,,,,HEAVY,,
html-keyboard-response,13,42253,null,"FUNNY<img id = ""stim"" ><div class = red_square id = ""topsquare"" ></div><img id = ""stim"" ><div class = red_square  id = ""bottomsquare"" ></div>",null,word_square,prac_response,0,none,true,,,
html-keyboard-response,14,43757,null,"FUNNY",null,word,,,,,FUNNY,,
html-keyboard-response,15,44261,null,"SCARY<img id = ""stim"" ><div class = green_square id = ""topsquare"" ></div><img id = ""stim"" ><div class = green_square  id = ""bottomsquare"" ></div>",null,word_square,prac_response,1,Space,false,,,
html-keyboard-response,16,45765,null,"SCARY",null,word,,,,,SCARY,,
html-keyboard-response,17,46270,null,"PEACEFUL<img id = ""stim"" ><div class = green_square id = ""topsquare"" ></div><img id = ""stim"" ><div class = green_square  id = ""bottomsquare"" ></div>",null,word_square,prac_response,1,Space,false,,,
html-keyboard-response,18,47774,null,"PEACEFUL",null,word,,,,,PEACEFUL,,
html-keyboard-response,19,48279,null,"LITTLE<img id = ""stim"" ><div class = red_square id = ""topsquare"" ></div><img id = ""stim"" ><div class = red_square  id = ""bottomsquare"" ></div>",null,word_square,prac_response,0,none,true,,,
html-keyboard-response,20,49782,null,"LITTLE",null,word,,,,,LITTLE,,
html-keyboard-response,21,50287,null,"TIRED<img id = ""stim"" ><div class = red_square id = ""topsquare"" ></div><img id = ""stim"" ><div class = red_square  id = ""bottomsquare"" ></div>",null,word_square,prac_response,0,none,true,,,
html-keyboard-response,22,51791,null,"TIRED",null,word,,,,,TIRED,,
html-keyboard-response,23,52296,null,"ENTERTAINING<img id = ""stim"" ><div class = red_square id = ""topsquare"" ></div><img id = ""stim"" ><div class = red_square  id = ""bottomsquare"" ></div>",null,word_square,prac_response,0,none,true,,,
html-keyboard-response,24,53798,null,"ENTERTAINING",null,word,,,,,ENTERTAINING,,
html-keyboard-response,25,54304,null,"GRATEFUL<img id = ""stim"" ><div class = green_square id = ""topsquare"" ></div><img id = ""stim"" ><div class = green_square  id = ""bottomsquare"" ></div>",null,word_square,prac_response,1,Space,false,,,
html-keyboard-response,26,55808,null,"GRATEFUL",null,word,,,,,GRATEFUL,,
html-keyboard-response,27,56313,null,"LOUD<img id = ""stim"" ><div class = red_square id = ""topsquare"" ></div><img id = ""stim"" ><div class = red_square  id = ""bottomsquare"" ></div>",null,word_square,prac_response,0,none,true,,,
html-keyboard-response,28,57817,null,"LOUD",null,word,,,,,LOUD,,
html-keyboard-response,29,58321,null,"SMART<img id = ""stim"" ><div class = green_square id = ""topsquare"" ></div><img id = ""stim"" ><div class = green_square  id = ""bottomsquare"" ></div>",null,word_square,prac_response,1,Space,false,,,
html-keyboard-response,30,59826,null,"SMART",null,word,,,,,SMART,,
html-keyboard-response,31,60330,null,"SMOOTH<img id = ""stim"" ><div class = green_square id = ""topsquare"" ></div><img id = ""stim"" ><div class = green_square  id = ""bottomsquare"" ></div>",null,word_square,prac_response,1,Space,false,,,
html-keyboard-response,32,61834,null,"SMOOTH",null,word,,,,,SMOOTH,,
html-keyboard-response,33,62338,null,"DISHONEST<img id = ""stim"" ><div class = red_square id = ""topsquare"" ></div><img id = ""stim"" ><div class = red_square  id = ""bottomsquare"" ></div>",null,word_square,prac_response,0,none,true,,,
html-keyboard-response,34,63842,null,"DISHONEST",null,word,,,,,DISHONEST,,
html-keyboard-response,35,64346,null,"WEALTHY<img id = ""stim"" ><div class = green_square id = ""topsquare"" ></div><img id = ""stim"" ><div class = green_square  id = ""bottomsquare"" ></div>",null,word_square,prac_response,1,Space,false,,,
html-keyboard-response,36,65851,null,"WEALTHY",null,word,,,,,WEALTHY,,
html-keyboard-response,37,66356,null,"BEAUTIFUL<img id = ""stim"" ><div class = red_square id = ""topsquare"" ></div><img id = ""stim"" ><div class = red_square  id = ""bottomsquare"" ></div>",null,word_square,prac_response,0,none,true,,,
html-keyboard-response,38,67860,null,"BEAUTIFUL",null,word,,,,,BEAUTIFUL,,
html-keyboard-response,39,68364,null,"DREARY<img id = ""stim"" ><div class = red_square id = ""topsquare"" ></div><img id = ""stim"" ><div class = red_square  id = ""bottomsquare"" ></div>",null,word_square,prac_response,0,none,true,,,
html-keyboard-response,40,69868,null,"DREARY",null,word,,,,,DREARY,,
html-keyboard-response,41,70373,null,"PLAYFUL<img id = ""stim"" ><div class = green_square id = ""topsquare"" ></div><img id = ""stim"" ><div class = green_square  id = ""bottomsquare"" ></div>",null,word_square,prac_response,1,Space,false,,,
html-keyboard-response,42,71876,null,"PLAYFUL",null,word,,,,,PLAYFUL,,
html-keyboard-response,43,77499,5618.53500000143,"<p> Uh oh. You responded correctly on 50% of the GREEN squares.</p>
                  <p>We need you keep your accuracy above 80%</p>
                  <p>We're going to try once more to make sure you understand the task. press any key to continue.</p>",32,,,,,,,,
html-keyboard-response,44,81004,3502.535000006901,"<p>You will see a list of words and colored squares in the following task.<p><p>Press the spacebar whenever you see a GREEN square.<p><p>Do not press a key if the square is RED<p><p>Press the spacebar to continue.</p>",32,,,,,,,,
html-keyboard-response,45,83510,null,"<div style=""font-size:60px;"">+</div>",null,,,,,,,,
html-keyboard-response,46,84015,null,"HAPPY<img id = ""stim"" ><div class = red_square id = ""topsquare"" ></div><img id = ""stim"" ><div class = red_square  id = ""bottomsquare"" ></div>",null,word_square,response,0,none,true,,,
html-keyboard-response,47,85517,null,"HAPPY",null,word,,,,,HAPPY,,
html-keyboard-response,48,85887,368.02999999781605,"COLD<img id = ""stim"" ><div class = green_square id = ""topsquare"" ></div><img id = ""stim"" ><div class = green_square  id = ""bottomsquare"" ></div>",32,word_square,response,1,Space,true,,,
html-keyboard-response,49,87393,null,"COLD",null,word,,,,,COLD,,
html-keyboard-response,50,87862,466.00499999476597,"HEAVY<img id = ""stim"" ><div class = green_square id = ""topsquare"" ></div><img id = ""stim"" ><div class = green_square  id = ""bottomsquare"" ></div>",32,word_square,response,1,Space,true,,,
html-keyboard-response,51,89367,null,"HEAVY",null,word,,,,,HEAVY,,
html-keyboard-response,52,89872,null,"FUNNY<img id = ""stim"" ><div class = red_square id = ""topsquare"" ></div><img id = ""stim"" ><div class = red_square  id = ""bottomsquare"" ></div>",null,word_square,response,0,none,true,,,
html-keyboard-response,53,91376,null,"FUNNY",null,word,,,,,FUNNY,,
html-keyboard-response,54,91714,335.5699999956414,"SCARY<img id = ""stim"" ><div class = green_square id = ""topsquare"" ></div><img id = ""stim"" ><div class = green_square  id = ""bottomsquare"" ></div>",32,word_square,response,1,Space,true,,,
html-keyboard-response,55,93216,null,"SCARY",null,word,,,,,SCARY,,
html-keyboard-response,56,93652,433.97500000719447,"PEACEFUL<img id = ""stim"" ><div class = green_square id = ""topsquare"" ></div><img id = ""stim"" ><div class = green_square  id = ""bottomsquare"" ></div>",32,word_square,response,1,Space,true,,,
html-keyboard-response,57,95155,null,"PEACEFUL",null,word,,,,,PEACEFUL,,
html-keyboard-response,58,95660,null,"LITTLE<img id = ""stim"" ><div class = red_square id = ""topsquare"" ></div><img id = ""stim"" ><div class = red_square  id = ""bottomsquare"" ></div>",null,word_square,response,0,none,true,,,
html-keyboard-response,59,97164,null,"LITTLE",null,word,,,,,LITTLE,,
html-keyboard-response,60,97669,null,"TIRED<img id = ""stim"" ><div class = red_square id = ""topsquare"" ></div><img id = ""stim"" ><div class = red_square  id = ""bottomsquare"" ></div>",null,word_square,response,0,none,true,,,
html-keyboard-response,61,99172,null,"TIRED",null,word,,,,,TIRED,,
html-keyboard-response,62,99677,null,"ENTERTAINING<img id = ""stim"" ><div class = red_square id = ""topsquare"" ></div><img id = ""stim"" ><div class = red_square  id = ""bottomsquare"" ></div>",null,word_square,response,0,none,true,,,
html-keyboard-response,63,101181,null,"ENTERTAINING",null,word,,,,,ENTERTAINING,,
html-keyboard-response,64,101581,398.18499999819323,"GRATEFUL<img id = ""stim"" ><div class = green_square id = ""topsquare"" ></div><img id = ""stim"" ><div class = green_square  id = ""bottomsquare"" ></div>",32,word_square,response,1,Space,true,,,
html-keyboard-response,65,103085,null,"GRATEFUL",null,word,,,,,GRATEFUL,,
html-keyboard-response,66,103590,null,"LOUD<img id = ""stim"" ><div class = red_square id = ""topsquare"" ></div><img id = ""stim"" ><div class = red_square  id = ""bottomsquare"" ></div>",null,word_square,response,0,none,true,,,
html-keyboard-response,67,105093,null,"LOUD",null,word,,,,,LOUD,,
html-keyboard-response,68,105377,281.7899999936344,"SMART<img id = ""stim"" ><div class = green_square id = ""topsquare"" ></div><img id = ""stim"" ><div class = green_square  id = ""bottomsquare"" ></div>",32,word_square,response,1,Space,true,,,
html-keyboard-response,69,106881,null,"SMART",null,word,,,,,SMART,,
html-keyboard-response,70,107361,476.7649999994319,"SMOOTH<img id = ""stim"" ><div class = green_square id = ""topsquare"" ></div><img id = ""stim"" ><div class = green_square  id = ""bottomsquare"" ></div>",32,word_square,response,1,Space,true,,,
html-keyboard-response,71,108867,null,"SMOOTH",null,word,,,,,SMOOTH,,
html-keyboard-response,72,109371,null,"DISHONEST<img id = ""stim"" ><div class = red_square id = ""topsquare"" ></div><img id = ""stim"" ><div class = red_square  id = ""bottomsquare"" ></div>",null,word_square,response,0,none,true,,,
html-keyboard-response,73,110875,null,"DISHONEST",null,word,,,,,DISHONEST,,
html-keyboard-response,74,111261,383.3850000082748,"WEALTHY<img id = ""stim"" ><div class = green_square id = ""topsquare"" ></div><img id = ""stim"" ><div class = green_square  id = ""bottomsquare"" ></div>",32,word_square,response,1,Space,true,,,
html-keyboard-response,75,112768,null,"WEALTHY",null,word,,,,,WEALTHY,,
html-keyboard-response,76,113273,null,"BEAUTIFUL<img id = ""stim"" ><div class = red_square id = ""topsquare"" ></div><img id = ""stim"" ><div class = red_square  id = ""bottomsquare"" ></div>",null,word_square,response,0,none,true,,,
html-keyboard-response,77,114776,null,"BEAUTIFUL",null,word,,,,,BEAUTIFUL,,
html-keyboard-response,78,115282,null,"DREARY<img id = ""stim"" ><div class = red_square id = ""topsquare"" ></div><img id = ""stim"" ><div class = red_square  id = ""bottomsquare"" ></div>",null,word_square,response,0,none,true,,,
html-keyboard-response,79,116785,null,"DREARY",null,word,,,,,DREARY,,
html-keyboard-response,80,117159,369.4799999939278,"PLAYFUL<img id = ""stim"" ><div class = green_square id = ""topsquare"" ></div><img id = ""stim"" ><div class = green_square  id = ""bottomsquare"" ></div>",32,word_square,response,1,Space,true,,,
html-keyboard-response,81,118666,null,"PLAYFUL",null,word,,,,,PLAYFUL,,
html-keyboard-response,82,121844,3175.889999998617,"<p> Good job! You responded correctly to 100% of the GREEN squares.</p>
                  <p>Be sure to keep your accuracy above 80%</p>
                  <p>Press any key to begin the math and recall sections. Thank you!</p>",32,,,,,,,,
call-function,83,121847,,"",,,,,,,,,
html-keyboard-response,84,121952,null,"",null,,,,,,,,
math-period,85,126910,8472.314999991795,"",,,,,,,,,4
html-keyboard-response,86,127017,null,"",null,,,,,,,,
math-period,87,128960,3715.9299999912037,"",,,,,,,,,1
html-keyboard-response,88,129063,null,"",null,,,,,,,,
math-period,89,130579,2911.225000018021,"",,,,,,,,,3
html-keyboard-response,90,130683,null,"",null,,,,,,,,
math-period,91,133133,4820.8100000047125,"",,,,,,,,,3
html-keyboard-response,92,133237,null,"",null,,,,,,,,
math-period,93,134359,2155.8400000212714,"",,,,,,,,,3
html-keyboard-response,94,134461,null,"",null,,,,,,,,
math-period,95,135716,2424.9349999881815,"",,,,,,,,,4
html-keyboard-response,96,135819,null,"",null,,,,,,,,
math-period,97,138552,5431.595000001835,"",,,,,,,,,3
html-keyboard-response,98,138654,null,"",null,,,,,,,,
math-period,99,140746,4133.804999990389,"",,,,,,,,,3
html-keyboard-response,100,140853,null,"",null,,,,,,,,
math-period,101,142880,3955.645000009099,"",,,,,,,,,0
html-keyboard-response,102,142983,null,"",null,,,,,,,,
math-period,103,144575,3112.3200000147335,"",,,,,,,,,3
html-keyboard-response,104,144678,null,"",null,,,,,,,,
math-period,105,145851,null,"",,,,,,,,,
html-keyboard-response,106,146856,null,"Recall Period!",null,,,,,,,,
call-function,107,146857,,"",,,,,,,,,
html-keyboard-response,108,146960,null,"",null,,,,,,,,
recall-period,109,151904,25819.715000034194,"",,,,,,,,,happy
html-keyboard-response,110,152011,null,"",null,,,,,,,,
recall-period,111,153132,4657.744999960414,"",,,,,,,,,funny
html-keyboard-response,112,153235,null,"",null,,,,,,,,
recall-period,113,154449,3917.6799999841023,"",,,,,,,,,scary
html-keyboard-response,114,154552,null,"",null,,,,,,,,
recall-period,115,156365,12200.329999948735,"",,,,,,,,,entertaining
html-keyboard-response,116,156469,null,"",null,,,,,,,,
recall-period,117,158101,11066.554999997607,"",,,,,,,,,dishonest
html-keyboard-response,118,158205,null,"",null,,,,,,,,
recall-period,119,160627,17632.599999953527,"",,,,,,,,,beautiful
html-keyboard-response,120,160730,null,"",null,,,,,,,,
recall-period,121,161792,3899.4300000631483,"",,,,,,,,,smooth
html-keyboard-response,122,161896,null,"",null,,,,,,,,
recall-period,123,164146,10074.594999969122,"",,,,,,,,,cold
html-keyboard-response,124,164250,null,"",null,,,,,,,,
recall-period,125,167161,15488.534999996773,"",,,,,,,,,funny
html-keyboard-response,126,167267,null,"",null,,,,,,,,
recall-period,127,177651,103561.59499993373,"",,,,,,,,,thoughtful
html-keyboard-response,128,177756,null,"",null,,,,,,,,
recall-period,129,186071,47046.45499998878,"",,,,,,,,,smart
html-keyboard-response,130,186174,null,"",null,,,,,,,,
recall-period,131,194198,34973.050000015064,"",,,,,,,,,loud
html-keyboard-response,132,194301,null,"",null,,,,,,,,
recall-period,133,221862,null,"",,,,,,,,,
html-keyboard-response,134,222369,null,"Time's Up!",null,,,,,,,,
html-keyboard-response,135,226432,4061.409999994794,"<p>We will now begin the experiment!<p><p>Please try to remember all words from each list.<p><p>Press the spacebar whenever you see a GREEN square.<p><p><p><p>Press the spacebar to begin.</p>",32,,,,,,,,
html-keyboard-response,136,229794,2857.8100000013364,"<div style=""font-size:48px;"">Press any key to begin list 1 of 24 </div>",32,,,,,,,,
html-keyboard-response,137,232302,null,"<div style=""font-size:60px;"">+</div>",null,,,,,,,,
html-keyboard-response,138,232807,null,"SIBLING<img id = ""stim"" ><div class = red_square id = ""topsquare"" ></div><img id = ""stim"" ><div class = red_square  id = ""bottomsquare"" ></div>",null,word_square,response,0,none,true,,,
html-keyboard-response,139,234309,null,"SIBLING",null,word,,,,, 'SIBLING',,
html-keyboard-response,140,234815,null,"SISTER<img id = ""stim"" ><div class = green_square id = ""topsquare"" ></div><img id = ""stim"" ><div class = green_square  id = ""bottomsquare"" ></div>",null,word_square,response,1,Space,false,,,
html-keyboard-response,141,236317,null,"SISTER",null,word,,,,, 'SISTER',,
html-keyboard-response,142,236748,428.7299999996321,"MONKEY<img id = ""stim"" ><div class = green_square id = ""topsquare"" ></div><img id = ""stim"" ><div class = green_square  id = ""bottomsquare"" ></div>",32,word_square,response,1,Space,true,,,
html-keyboard-response,143,238252,null,"MONKEY",null,word,,,,, 'MONKEY',,
html-keyboard-response,144,238757,null,"OX<img id = ""stim"" ><div class = red_square id = ""topsquare"" ></div><img id = ""stim"" ><div class = red_square  id = ""bottomsquare"" ></div>",null,word_square,response,0,none,true,,,
html-keyboard-response,145,240260,null,"OX",null,word,,,,, 'OX',,
html-keyboard-response,146,240766,null,"LEMON<img id = ""stim"" ><div class = red_square id = ""topsquare"" ></div><img id = ""stim"" ><div class = red_square  id = ""bottomsquare"" ></div>",null,word_square,response,0,none,true,,,
html-keyboard-response,147,242273,null,"LEMON",null,word,,,,, 'LEMON',,
html-keyboard-response,148,242644,368.6349999916274,"PORTRAIT<img id = ""stim"" ><div class = green_square id = ""topsquare"" ></div><img id = ""stim"" ><div class = green_square  id = ""bottomsquare"" ></div>",32,word_square,response,1,Space,true,,,
html-keyboard-response,149,244150,null,"PORTRAIT",null,word,,,,, 'PORTRAIT',,
html-keyboard-response,150,244655,null,"BLENDER<img id = ""stim"" ><div class = red_square id = ""topsquare"" ></div><img id = ""stim"" ><div class = red_square  id = ""bottomsquare"" ></div>",null,word_square,response,0,none,true,,,
html-keyboard-response,151,246158,null,"BLENDER",null,word,,,,, 'BLENDER',,
html-keyboard-response,152,246537,376.60000000323635,"PATROL<img id = ""stim"" ><div class = green_square id = ""topsquare"" ></div><img id = ""stim"" ><div class = green_square  id = ""bottomsquare"" ></div>",32,word_square,response,1,Space,true,,,
html-keyboard-response,153,248039,null,"PATROL",null,word,,,,, 'PATROL',,
html-keyboard-response,154,248440,398.6799999984214,"CONCRETE<img id = ""stim"" ><div class = green_square id = ""topsquare"" ></div><img id = ""stim"" ><div class = green_square  id = ""bottomsquare"" ></div>",32,word_square,response,1,Space,true,,,
html-keyboard-response,155,249944,null,"CONCRETE",null,word,,,,, 'CONCRETE',,
html-keyboard-response,156,250449,null,"PLIERS<img id = ""stim"" ><div class = red_square id = ""topsquare"" ></div><img id = ""stim"" ><div class = red_square  id = ""bottomsquare"" ></div>",null,word_square,response,0,none,true,,,
html-keyboard-response,157,251952,null,"PLIERS",null,word,,,,, 'PLIERS',,
html-keyboard-response,158,252457,null,"BANK<img id = ""stim"" ><div class = red_square id = ""topsquare"" ></div><img id = ""stim"" ><div class = red_square  id = ""bottomsquare"" ></div>",null,word_square,response,0,none,true,,,
html-keyboard-response,159,253961,null,"BANK",null,word,,,,, 'BANK',,
html-keyboard-response,160,254466,null,"ROBBER<img id = ""stim"" ><div class = green_square id = ""topsquare"" ></div><img id = ""stim"" ><div class = green_square  id = ""bottomsquare"" ></div>",null,word_square,response,1,Space,false,,,
html-keyboard-response,161,255969,null,"ROBBER",null,word,,,,, 'ROBBER',,
html-keyboard-response,162,256474,null,"RECORD<img id = ""stim"" ><div class = red_square id = ""topsquare"" ></div><img id = ""stim"" ><div class = red_square  id = ""bottomsquare"" ></div>",null,word_square,response,0,none,true,,,
html-keyboard-response,163,257978,null,"RECORD",null,word,,,,, 'RECORD',,
html-keyboard-response,164,258483,null,"WRENCH<img id = ""stim"" ><div class = red_square id = ""topsquare"" ></div><img id = ""stim"" ><div class = red_square  id = ""bottomsquare"" ></div>",null,word_square,response,0,none,true,,,
html-keyboard-response,165,259986,null,"WRENCH",null,word,,,,, 'WRENCH',,
html-keyboard-response,166,260491,null,"FOX<img id = ""stim"" ><div class = green_square id = ""topsquare"" ></div><img id = ""stim"" ><div class = green_square  id = ""bottomsquare"" ></div>",null,word_square,response,1,Space,false,,,
html-keyboard-response,167,261995,null,"FOX",null,word,,,,, 'FOX',,
html-keyboard-response,168,262500,null,"MAJOR<img id = ""stim"" ><div class = red_square id = ""topsquare"" ></div><img id = ""stim"" ><div class = red_square  id = ""bottomsquare"" ></div>",null,word_square,response,0,none,true,,,
html-keyboard-response,169,264003,null,"MAJOR",null,word,,,,, 'MAJOR',,
html-keyboard-response,170,264303,297.4800000083633,"PLASTER<img id = ""stim"" ><div class = green_square id = ""topsquare"" ></div><img id = ""stim"" ><div class = green_square  id = ""bottomsquare"" ></div>",32,word_square,response,1,Space,true,,,
html-keyboard-response,171,265809,null,"PLASTER",null,word,,,,, 'PLASTER',,
html-keyboard-response,172,266268,456.85499999672174,"CHISEL<img id = ""stim"" ><div class = green_square id = ""topsquare"" ></div><img id = ""stim"" ><div class = green_square  id = ""bottomsquare"" ></div>",32,word_square,response,1,Space,true,,,
html-keyboard-response,173,267771,null,"CHISEL",null,word,,,,, 'CHISEL',,
call-function,174,267772,,"",,,,,,,,,
html-keyboard-response,175,267875,null,"",null,,,,,,,,
math-period,176,271305,6704.114999985904,"",,,,,,,,,2
html-keyboard-response,177,271411,null,"",null,,,,,,,,
math-period,178,273405,3903.9949999860255,"",,,,,,,,,4
html-keyboard-response,179,273512,null,"",null,,,,,,,,
math-period,180,274567,1997.0250000042142,"",,,,,,,,,2
html-keyboard-response,181,274673,null,"",null,,,,,,,,
math-period,182,275716,1982.9000000027008,"",,,,,,,,,4
html-keyboard-response,183,275822,null,"",null,,,,,,,,
math-period,184,278740,10055.104999992182,"",,,,,,,,,2
html-keyboard-response,185,278847,null,"",null,,,,,,,,
math-period,186,279898,2016.234999988228,"",,,,,,,,,2
html-keyboard-response,187,280002,null,"",null,,,,,,,,
math-period,188,281144,2204.6749999863096,"",,,,,,,,,3
html-keyboard-response,189,281250,null,"",null,,,,,,,,
math-period,190,284268,5950.5150000040885,"",,,,,,,,,2
html-keyboard-response,191,284374,null,"",null,,,,,,,,
math-period,192,285541,2222.554999985732,"",,,,,,,,,3
html-keyboard-response,193,285646,null,"",null,,,,,,,,
math-period,194,288376,9068.085000020801,"",,,,,,,,,2
html-keyboard-response,195,288478,null,"",null,,,,,,,,
math-period,196,289656,2268.3100000140257,"",,,,,,,,,4
html-keyboard-response,197,289760,null,"",null,,,,,,,,
math-period,198,291776,4862.494999993942,"",,,,,,,,,5
html-keyboard-response,199,292779,null,"Recall Period!",null,,,,,,,,
call-function,200,292780,,"",,,,,,,,,
html-keyboard-response,201,292885,null,"",null,,,,,,,,
recall-period,202,295520,11158.470000038506,"",,,,,,,,,chisel
html-keyboard-response,203,295624,null,"",null,,,,,,,,
recall-period,204,296982,4120.000000009895,"",,,,,,,,,fox 
html-keyboard-response,205,297087,null,"",null,,,,,,,,
recall-period,206,298141,4144.4050000282,"",,,,,,,,,major
html-keyboard-response,207,298245,null,"",null,,,,,,,,
recall-period,208,302059,23396.014999976614,"",,,,,,,,,wrench
html-keyboard-response,209,302163,null,"",null,,,,,,,,
recall-period,210,308775,52940.565000026254,"",,,,,,,,,concrete
html-keyboard-response,211,308879,null,"",null,,,,,,,,
recall-period,212,367788,null,"",,,,,,,,,
html-keyboard-response,213,368293,null,"Time's Up!",null,,,,,,,,
html-keyboard-response,214,408015,39718.29999999318,"<p> Good job! You responded correctly to 92% of the GREEN squares.</p>
                  <p>Be sure to keep your accuracy above 80%</p>
                  <p>Press any key to continue the experiment. Thank you!</p>",32,,,,,,,,
html-keyboard-response,215,409074,1057.3849999927916,"<div style=""font-size:48px;"">Press any key to begin list 2 of 24 </div>",32,,,,,,,,
html-keyboard-response,216,411582,null,"<div style=""font-size:60px;"">+</div>",null,,,,,,,,
html-keyboard-response,217,412087,null,"RULER<img id = ""stim"" ><div class = red_square id = ""topsquare"" ></div><img id = ""stim"" ><div class = red_square  id = ""bottomsquare"" ></div>",null,word_square,response,0,none,true,,,
html-keyboard-response,218,413589,null,"RULER",null,word,,,,, 'RULER',,
html-keyboard-response,219,414096,null,"TROPHY<img id = ""stim"" ><div class = green_square id = ""topsquare"" ></div><img id = ""stim"" ><div class = green_square  id = ""bottomsquare"" ></div>",null,word_square,response,1,Space,false,,,
html-keyboard-response,220,415597,null,"TROPHY",null,word,,,,, 'TROPHY',,
html-keyboard-response,221,416002,401.8999999971129,"TORTOISE<img id = ""stim"" ><div class = green_square id = ""topsquare"" ></div><img id = ""stim"" ><div class = green_square  id = ""bottomsquare"" ></div>",32,word_square,response,1,Space,true,,,
html-keyboard-response,222,417508,null,"TORTOISE",null,word,,,,, 'TORTOISE',,
html-keyboard-response,223,418014,null,"MARBLE<img id = ""stim"" ><div class = red_square id = ""topsquare"" ></div><img id = ""stim"" ><div class = red_square  id = ""bottomsquare"" ></div>",null,word_square,response,0,none,true,,,
html-keyboard-response,224,419518,null,"MARBLE",null,word,,,,, 'MARBLE',,
html-keyboard-response,225,420023,null,"TEACHER<img id = ""stim"" ><div class = red_square id = ""topsquare"" ></div><img id = ""stim"" ><div class = red_square  id = ""bottomsquare"" ></div>",null,word_square,response,0,none,true,,,
html-keyboard-response,226,421526,null,"TEACHER",null,word,,,,, 'TEACHER',,
html-keyboard-response,227,422031,null,"STUDENT<img id = ""stim"" ><div class = green_square id = ""topsquare"" ></div><img id = ""stim"" ><div class = green_square  id = ""bottomsquare"" ></div>",null,word_square,response,1,Space,false,,,
html-keyboard-response,228,423535,null,"STUDENT",null,word,,,,, 'STUDENT',,
html-keyboard-response,229,424040,null,"DONOR<img id = ""stim"" ><div class = red_square id = ""topsquare"" ></div><img id = ""stim"" ><div class = red_square  id = ""bottomsquare"" ></div>",null,word_square,response,0,none,true,,,
html-keyboard-response,230,425544,null,"DONOR",null,word,,,,, 'DONOR',,
html-keyboard-response,231,426048,null,"BOTTLE<img id = ""stim"" ><div class = green_square id = ""topsquare"" ></div><img id = ""stim"" ><div class = green_square  id = ""bottomsquare"" ></div>",null,word_square,response,1,Space,false,,,
html-keyboard-response,232,427552,null,"BOTTLE",null,word,,,,, 'BOTTLE',,
html-keyboard-response,233,428057,null,"MESSAGE<img id = ""stim"" ><div class = green_square id = ""topsquare"" ></div><img id = ""stim"" ><div class = green_square  id = ""bottomsquare"" ></div>",null,word_square,response,1,Space,false,,,
html-keyboard-response,234,429561,null,"MESSAGE",null,word,,,,, 'MESSAGE',,
html-keyboard-response,235,430066,null,"WALNUT<img id = ""stim"" ><div class = red_square id = ""topsquare"" ></div><img id = ""stim"" ><div class = red_square  id = ""bottomsquare"" ></div>",null,word_square,response,0,none,true,,,
html-keyboard-response,236,431569,null,"WALNUT",null,word,,,,, 'WALNUT',,
html-keyboard-response,237,432074,null,"CURTAIN<img id = ""stim"" ><div class = red_square id = ""topsquare"" ></div><img id = ""stim"" ><div class = red_square  id = ""bottomsquare"" ></div>",null,word_square,response,0,none,true,,,
html-keyboard-response,238,433578,null,"CURTAIN",null,word,,,,, 'CURTAIN',,
html-keyboard-response,239,433980,399.85499999602325,"GLASS<img id = ""stim"" ><div class = green_square id = ""topsquare"" ></div><img id = ""stim"" ><div class = green_square  id = ""bottomsquare"" ></div>",32,word_square,response,1,Space,true,,,
html-keyboard-response,240,435488,null,"GLASS",null,word,,,,, 'GLASS',,
html-keyboard-response,241,435993,null,"TURTLE<img id = ""stim"" ><div class = red_square id = ""topsquare"" ></div><img id = ""stim"" ><div class = red_square  id = ""bottomsquare"" ></div>",null,word_square,response,0,none,true,,,
html-keyboard-response,242,437496,null,"TURTLE",null,word,,,,, 'TURTLE',,
html-keyboard-response,243,438001,null,"TYPIST<img id = ""stim"" ><div class = red_square id = ""topsquare"" ></div><img id = ""stim"" ><div class = red_square  id = ""bottomsquare"" ></div>",null,word_square,response,0,none,true,,,
html-keyboard-response,244,439505,null,"TYPIST",null,word,,,,, 'TYPIST',,
html-keyboard-response,245,440010,null,"NEUTRON<img id = ""stim"" ><div class = green_square id = ""topsquare"" ></div><img id = ""stim"" ><div class = green_square  id = ""bottomsquare"" ></div>",null,word_square,response,1,Space,false,,,
html-keyboard-response,246,441513,null,"NEUTRON",null,word,,,,, 'NEUTRON',,
html-keyboard-response,247,442018,null,"DRUG<img id = ""stim"" ><div class = red_square id = ""topsquare"" ></div><img id = ""stim"" ><div class = red_square  id = ""bottomsquare"" ></div>",null,word_square,response,0,none,true,,,
html-keyboard-response,248,443522,null,"DRUG",null,word,,,,, 'DRUG',,
html-keyboard-response,249,443987,463.0500000057509,"KIDNEY<img id = ""stim"" ><div class = green_square id = ""topsquare"" ></div><img id = ""stim"" ><div class = green_square  id = ""bottomsquare"" ></div>",32,word_square,response,1,Space,true,,,
html-keyboard-response,250,445490,null,"KIDNEY",null,word,,,,, 'KIDNEY',,
html-keyboard-response,251,445996,null,"SKATE<img id = ""stim"" ><div class = green_square id = ""topsquare"" ></div><img id = ""stim"" ><div class = green_square  id = ""bottomsquare"" ></div>",null,word_square,response,1,Space,false,,,
html-keyboard-response,252,447498,null,"SKATE",null,word,,,,, 'SKATE',,
call-function,253,447500,,"",,,,,,,,,
html-keyboard-response,254,447603,null,"",null,,,,,,,,
math-period,255,449756,3586.1900000163587,"",,,,,,,,,2
html-keyboard-response,256,449861,null,"",null,,,,,,,,
math-period,257,452463,5022.470000010799,"",,,,,,,,,1
html-keyboard-response,258,452566,null,"",null,,,,,,,,
math-period,259,455678,6148.8700000045355,"",,,,,,,,,3
html-keyboard-response,260,455782,null,"",null,,,,,,,,
math-period,261,457277,2891.1450000159675,"",,,,,,,,,2
html-keyboard-response,262,457382,null,"",null,,,,,,,,
math-period,263,459120,3348.9150000095833,"",,,,,,,,,1
html-keyboard-response,264,459225,null,"",null,,,,,,,,
math-period,265,460441,2315.3350000065984,"",,,,,,,,,4
html-keyboard-response,266,460548,null,"",null,,,,,,,,
math-period,267,462403,3629.235000014887,"",,,,,,,,,5
html-keyboard-response,268,462505,null,"",null,,,,,,,,
math-period,269,464749,4384.1450000036275,"",,,,,,,,,0
html-keyboard-response,270,464856,null,"",null,,,,,,,,
math-period,271,466091,2416.42999999749,"",,,,,,,,,5
html-keyboard-response,272,466197,null,"",null,,,,,,,,
math-period,273,467274,2083.24999998149,"",,,,,,,,,3
html-keyboard-response,274,467376,null,"",null,,,,,,,,
math-period,275,469155,3512.2450000053504,"",,,,,,,,,3
html-keyboard-response,276,469257,null,"",null,,,,,,,,
math-period,277,470957,3193.075000002864,"",,,,,,,,,0
html-keyboard-response,278,471061,null,"",null,,,,,,,,
math-period,279,471503,null,"",,,,,,,,,
html-keyboard-response,280,472507,null,"Recall Period!",null,,,,,,,,
call-function,281,472508,,"",,,,,,,,,
html-keyboard-response,282,472611,null,"",null,,,,,,,,
recall-period,283,474676,12101.780000055442,"",,,,,,,,,student
html-keyboard-response,284,474778,null,"",null,,,,,,,,
recall-period,285,475981,6133.059999963734,"",,,,,,,,,teacher
html-keyboard-response,286,476083,null,"",null,,,,,,,,
recall-period,287,478902,18633.18000000436,"",,,,,,,,,turtle
html-keyboard-response,288,479009,null,"",null,,,,,,,,
recall-period,289,485526,36574.91499997559,"",,,,,,,,,donor
html-keyboard-response,290,485632,null,"",null,,,,,,,,
recall-period,291,487518,7719.224999949802,"",,,,,,,,,kidney
html-keyboard-response,292,487622,null,"",null,,,,,,,,
recall-period,293,488735,2894.080000012764,"",,,,,,,,,drug
html-keyboard-response,294,488839,null,"",null,,,,,,,,
recall-period,295,547512,54738.77999999968,"",,,,,,,,, 
html-keyboard-response,296,548014,null,"Time's Up!",null,,,,,,,,
html-keyboard-response,297,553127,5109.949999998207,"<p> Good job! You responded correctly to 83% of the GREEN squares.</p>
                  <p>Be sure to keep your accuracy above 80%</p>
                  <p>Press any key to continue the experiment. Thank you!</p>",32,,,,,,,,
html-keyboard-response,298,554294,1165.3049999877112,"<div style=""font-size:48px;"">Press any key to begin list 3 of 24 </div>",32,,,,,,,,
html-keyboard-response,299,556798,null,"<div style=""font-size:60px;"">+</div>",null,,,,,,,,
html-keyboard-response,300,557175,374.38499998825137,"BRICK<img id = ""stim"" ><div class = green_square id = ""topsquare"" ></div><img id = ""stim"" ><div class = green_square  id = ""bottomsquare"" ></div>",32,word_square,response,1,Space,true,,,
html-keyboard-response,301,558679,null,"BRICK",null,word,,,,, 'BRICK',,
html-keyboard-response,302,559184,null,"BEAST<img id = ""stim"" ><div class = red_square id = ""topsquare"" ></div><img id = ""stim"" ><div class = red_square  id = ""bottomsquare"" ></div>",null,word_square,response,0,none,true,,,
html-keyboard-response,303,560687,null,"BEAST",null,word,,,,, 'BEAST',,
html-keyboard-response,304,561192,null,"PUDDLE<img id = ""stim"" ><div class = red_square id = ""topsquare"" ></div><img id = ""stim"" ><div class = red_square  id = ""bottomsquare"" ></div>",null,word_square,response,0,none,true,,,
html-keyboard-response,305,562696,null,"PUDDLE",null,word,,,,, 'PUDDLE',,
html-keyboard-response,306,563153,455.1950000022771,"LAGOON<img id = ""stim"" ><div class = green_square id = ""topsquare"" ></div><img id = ""stim"" ><div class = green_square  id = ""bottomsquare"" ></div>",32,word_square,response,1,Space,true,,,
html-keyboard-response,307,564658,null,"LAGOON",null,word,,,,, 'LAGOON',,
html-keyboard-response,308,565059,398.3850000076927,"PORPOISE<img id = ""stim"" ><div class = green_square id = ""topsquare"" ></div><img id = ""stim"" ><div class = green_square  id = ""bottomsquare"" ></div>",32,word_square,response,1,Space,true,,,
html-keyboard-response,309,566562,null,"PORPOISE",null,word,,,,, 'PORPOISE',,
html-keyboard-response,310,567067,null,"KEEPER<img id = ""stim"" ><div class = red_square id = ""topsquare"" ></div><img id = ""stim"" ><div class = red_square  id = ""bottomsquare"" ></div>",null,word_square,response,0,none,true,,,
html-keyboard-response,311,568571,null,"KEEPER",null,word,,,,, 'KEEPER',,
html-keyboard-response,312,568891,317.97000000369735,"NOVEL<img id = ""stim"" ><div class = green_square id = ""topsquare"" ></div><img id = ""stim"" ><div class = green_square  id = ""bottomsquare"" ></div>",32,word_square,response,1,Space,true,,,
html-keyboard-response,313,570393,null,"NOVEL",null,word,,,,, 'NOVEL',,
html-keyboard-response,314,570898,null,"HERO<img id = ""stim"" ><div class = red_square id = ""topsquare"" ></div><img id = ""stim"" ><div class = red_square  id = ""bottomsquare"" ></div>",null,word_square,response,0,none,true,,,
html-keyboard-response,315,572402,null,"HERO",null,word,,,,, 'HERO',,
html-keyboard-response,316,572907,null,"JUGGLER<img id = ""stim"" ><div class = red_square id = ""topsquare"" ></div><img id = ""stim"" ><div class = red_square  id = ""bottomsquare"" ></div>",null,word_square,response,0,none,true,,,
html-keyboard-response,317,574411,null,"JUGGLER",null,word,,,,, 'JUGGLER',,
html-keyboard-response,318,574806,393.1250000023283,"TOURIST<img id = ""stim"" ><div class = green_square id = ""topsquare"" ></div><img id = ""stim"" ><div class = green_square  id = ""bottomsquare"" ></div>",32,word_square,response,1,Space,true,,,
html-keyboard-response,319,576309,null,"TOURIST",null,word,,,,, 'TOURIST',,
html-keyboard-response,320,576686,374.2649999912828,"POND<img id = ""stim"" ><div class = green_square id = ""topsquare"" ></div><img id = ""stim"" ><div class = green_square  id = ""bottomsquare"" ></div>",32,word_square,response,1,Space,true,,,
html-keyboard-response,321,578190,null,"POND",null,word,,,,, 'POND',,
html-keyboard-response,322,578695,null,"FILM<img id = ""stim"" ><div class = red_square id = ""topsquare"" ></div><img id = ""stim"" ><div class = red_square  id = ""bottomsquare"" ></div>",null,word_square,response,0,none,true,,,
html-keyboard-response,323,580198,null,"FILM",null,word,,,,, 'FILM',,
html-keyboard-response,324,580560,359.30999999982305,"BEEF<img id = ""stim"" ><div class = green_square id = ""topsquare"" ></div><img id = ""stim"" ><div class = green_square  id = ""bottomsquare"" ></div>",32,word_square,response,1,Space,true,,,
html-keyboard-response,325,582067,null,"BEEF",null,word,,,,, 'BEEF',,
html-keyboard-response,326,582507,438.03000000480097,"JOKER<img id = ""stim"" ><div class = green_square id = ""topsquare"" ></div><img id = ""stim"" ><div class = green_square  id = ""bottomsquare"" ></div>",32,word_square,response,1,Space,true,,,
html-keyboard-response,327,584012,null,"JOKER",null,word,,,,, 'JOKER',,
html-keyboard-response,328,584517,null,"LIST<img id = ""stim"" ><div class = red_square id = ""topsquare"" ></div><img id = ""stim"" ><div class = red_square  id = ""bottomsquare"" ></div>",null,word_square,response,0,none,true,,,
html-keyboard-response,329,586021,null,"LIST",null,word,,,,, 'LIST',,
html-keyboard-response,330,586417,393.2550000026822,"CREVICE<img id = ""stim"" ><div class = green_square id = ""topsquare"" ></div><img id = ""stim"" ><div class = green_square  id = ""bottomsquare"" ></div>",32,word_square,response,1,Space,true,,,
html-keyboard-response,331,587919,null,"CREVICE",null,word,,,,, 'CREVICE',,
html-keyboard-response,332,588308,386.739999987185,"LUGGAGE<img id = ""stim"" ><div class = red_square id = ""topsquare"" ></div><img id = ""stim"" ><div class = red_square  id = ""bottomsquare"" ></div>",32,word_square,response,0,none,false,,,
html-keyboard-response,333,589812,null,"LUGGAGE",null,word,,,,, 'LUGGAGE',,
html-keyboard-response,334,590316,null,"YARD<img id = ""stim"" ><div class = red_square id = ""topsquare"" ></div><img id = ""stim"" ><div class = red_square  id = ""bottomsquare"" ></div>",null,word_square,response,0,none,true,,,
html-keyboard-response,335,591821,null,"YARD",null,word,,,,, 'YARD',,
call-function,336,591822,,"",,,,,,,,,
html-keyboard-response,337,591925,null,"",null,,,,,,,,
math-period,338,593690,3382.7600000076927,"",,,,,,,,,3
html-keyboard-response,339,593794,null,"",null,,,,,,,,
math-period,340,595053,2442.5199999823235,"",,,,,,,,,5
html-keyboard-response,341,595158,null,"",null,,,,,,,,
math-period,342,596204,2009.6399999893038,"",,,,,,,,,4
html-keyboard-response,343,596307,null,"",null,,,,,,,,
math-period,344,597703,2711.7400000133784,"",,,,,,,,,1
html-keyboard-response,345,597805,null,"",null,,,,,,,,
math-period,346,598855,2033.0299999914132,"",,,,,,,,,3
html-keyboard-response,347,598958,null,"",null,,,,,,,,
math-period,348,600246,2495.7699999940814,"",,,,,,,,,2
html-keyboard-response,349,600349,null,"",null,,,,,,,,
math-period,350,602121,3434.929999988526,"",,,,,,,,,0
html-keyboard-response,351,602228,null,"",null,,,,,,,,
math-period,352,603344,2174.4500000058906,"",,,,,,,,,4
html-keyboard-response,353,603448,null,"",null,,,,,,,,
math-period,354,604505,2049.60499999288,"",,,,,,,,,3
html-keyboard-response,355,604610,null,"",null,,,,,,,,
math-period,356,605994,2687.7149999781977,"",,,,,,,,,5
html-keyboard-response,357,606097,null,"",null,,,,,,,,
math-period,358,608386,4508.954999997513,"",,,,,,,,,1
html-keyboard-response,359,608493,null,"",null,,,,,,,,
math-period,360,610140,3208.825000008801,"",,,,,,,,,2
html-keyboard-response,361,610246,null,"",null,,,,,,,,
math-period,362,613656,6591.785000011441,"",,,,,,,,,0
html-keyboard-response,363,613759,null,"",null,,,,,,,,
math-period,364,615824,null,"",,,,,,,,,
html-keyboard-response,365,616829,null,"Recall Period!",null,,,,,,,,
call-function,366,616830,,"",,,,,,,,,
html-keyboard-response,367,616933,null,"",null,,,,,,,,
recall-period,368,619373,11502.069999958621,"",,,,,,,,,crevice
html-keyboard-response,369,619476,null,"",null,,,,,,,,
recall-period,370,620702,4473.579999961657,"",,,,,,,,,beef
html-keyboard-response,371,620805,null,"",null,,,,,,,,
recall-period,372,623284,10897.89499998733,"",,,,,,,,,lagoon
html-keyboard-response,373,623389,null,"",null,,,,,,,,
recall-period,374,632982,52626.32499997562,"",,,,,,,,,beast
html-keyboard-response,375,633084,null,"",null,,,,,,,,
recall-period,376,644966,88920.8400000498,"",,,,,,,,,tourist
html-keyboard-response,377,645071,null,"",null,,,,,,,,
recall-period,378,691837,null,"",,,,,,,,,
html-keyboard-response,379,692342,null,"Time's Up!",null,,,,,,,,
html-keyboard-response,380,693385,1040.4600000038045,"<p> Good job! You responded correctly to 86% of the GREEN squares.</p>
                  <p>Be sure to keep your accuracy above 80%</p>
                  <p>Press any key to continue the experiment. Thank you!</p>",32,,,,,,,,
html-keyboard-response,381,695110,1722.6649999938672,"<div style=""font-size:48px;"">Press any key to begin list 4 of 24 </div>",32,,,,,,,,
html-keyboard-response,382,697613,null,"<div style=""font-size:60px;"">+</div>",null,,,,,,,,
html-keyboard-response,383,698118,null,"BURGLAR<img id = ""stim"" ><div class = green_square id = ""topsquare"" ></div><img id = ""stim"" ><div class = green_square  id = ""bottomsquare"" ></div>",null,word_square,response,1,Space,false,,,
html-keyboard-response,384,699621,null,"BURGLAR",null,word,,,,, 'BURGLAR',,
html-keyboard-response,385,700127,null,"ONION<img id = ""stim"" ><div class = red_square id = ""topsquare"" ></div><img id = ""stim"" ><div class = red_square  id = ""bottomsquare"" ></div>",null,word_square,response,0,none,true,,,
html-keyboard-response,386,701631,null,"ONION",null,word,,,,, 'ONION',,
html-keyboard-response,387,702135,null,"PRIEST<img id = ""stim"" ><div class = red_square id = ""topsquare"" ></div><img id = ""stim"" ><div class = red_square  id = ""bottomsquare"" ></div>",null,word_square,response,0,none,true,,,
html-keyboard-response,388,703639,null,"PRIEST",null,word,,,,, 'PRIEST',,
html-keyboard-response,389,704083,441.2199999933364,"TART<img id = ""stim"" ><div class = green_square id = ""topsquare"" ></div><img id = ""stim"" ><div class = green_square  id = ""bottomsquare"" ></div>",32,word_square,response,1,Space,true,,,
html-keyboard-response,390,705589,null,"TART",null,word,,,,, 'TART',,
html-keyboard-response,391,706031,439.61500001023524,"PASTRY<img id = ""stim"" ><div class = green_square id = ""topsquare"" ></div><img id = ""stim"" ><div class = green_square  id = ""bottomsquare"" ></div>",32,word_square,response,1,Space,true,,,
html-keyboard-response,392,707539,null,"PASTRY",null,word,,,,, 'PASTRY',,
html-keyboard-response,393,708045,null,"SERPENT<img id = ""stim"" ><div class = red_square id = ""topsquare"" ></div><img id = ""stim"" ><div class = red_square  id = ""bottomsquare"" ></div>",null,word_square,response,0,none,true,,,
html-keyboard-response,394,709549,null,"SERPENT",null,word,,,,, 'SERPENT',,
html-keyboard-response,395,709921,370.3349999996135,"ISLAND<img id = ""stim"" ><div class = green_square id = ""topsquare"" ></div><img id = ""stim"" ><div class = green_square  id = ""bottomsquare"" ></div>",32,word_square,response,1,Space,true,,,
html-keyboard-response,396,711424,null,"ISLAND",null,word,,,,, 'ISLAND',,
html-keyboard-response,397,711929,null,"RESORT<img id = ""stim"" ><div class = red_square id = ""topsquare"" ></div><img id = ""stim"" ><div class = red_square  id = ""bottomsquare"" ></div>",null,word_square,response,0,none,true,,,
html-keyboard-response,398,713432,null,"RESORT",null,word,,,,, 'RESORT',,
html-keyboard-response,399,713937,null,"DIME<img id = ""stim"" ><div class = red_square id = ""topsquare"" ></div><img id = ""stim"" ><div class = red_square  id = ""bottomsquare"" ></div>",null,word_square,response,0,none,true,,,
html-keyboard-response,400,715441,null,"DIME",null,word,,,,, 'DIME',,
html-keyboard-response,401,715768,324.95000000926666,"BANDIT<img id = ""stim"" ><div class = green_square id = ""topsquare"" ></div><img id = ""stim"" ><div class = green_square  id = ""bottomsquare"" ></div>",32,word_square,response,1,Space,true,,,
html-keyboard-response,402,717271,null,"BANDIT",null,word,,,,, 'BANDIT',,
html-keyboard-response,403,717653,379.335000005085,"MAILMAN<img id = ""stim"" ><div class = green_square id = ""topsquare"" ></div><img id = ""stim"" ><div class = green_square  id = ""bottomsquare"" ></div>",32,word_square,response,1,Space,true,,,
html-keyboard-response,404,719156,null,"MAILMAN",null,word,,,,, 'MAILMAN',,
html-keyboard-response,405,719663,null,"BUNNY<img id = ""stim"" ><div class = red_square id = ""topsquare"" ></div><img id = ""stim"" ><div class = red_square  id = ""bottomsquare"" ></div>",null,word_square,response,0,none,true,,,
html-keyboard-response,406,721165,null,"BUNNY",null,word,,,,, 'BUNNY',,
html-keyboard-response,407,721528,360.354999997071,"BUTLER<img id = ""stim"" ><div class = green_square id = ""topsquare"" ></div><img id = ""stim"" ><div class = green_square  id = ""bottomsquare"" ></div>",32,word_square,response,1,Space,true,,,
html-keyboard-response,408,723034,null,"BUTLER",null,word,,,,, 'BUTLER',,
html-keyboard-response,409,723380,343.9199999993434,"DUNGEON<img id = ""stim"" ><div class = green_square id = ""topsquare"" ></div><img id = ""stim"" ><div class = green_square  id = ""bottomsquare"" ></div>",32,word_square,response,1,Space,true,,,
html-keyboard-response,410,724886,null,"DUNGEON",null,word,,,,, 'DUNGEON',,
html-keyboard-response,411,725391,null,"COD<img id = ""stim"" ><div class = red_square id = ""topsquare"" ></div><img id = ""stim"" ><div class = red_square  id = ""bottomsquare"" ></div>",null,word_square,response,0,none,true,,,
html-keyboard-response,412,726894,null,"COD",null,word,,,,, 'COD',,
html-keyboard-response,413,727263,366.00999999791384,"MAMMAL<img id = ""stim"" ><div class = green_square id = ""topsquare"" ></div><img id = ""stim"" ><div class = green_square  id = ""bottomsquare"" ></div>",32,word_square,response,1,Space,true,,,
html-keyboard-response,414,728769,null,"MAMMAL",null,word,,,,, 'MAMMAL',,
html-keyboard-response,415,729275,null,"DOLPHIN<img id = ""stim"" ><div class = red_square id = ""topsquare"" ></div><img id = ""stim"" ><div class = red_square  id = ""bottomsquare"" ></div>",null,word_square,response,0,none,true,,,
html-keyboard-response,416,730778,null,"DOLPHIN",null,word,,,,, 'DOLPHIN',,
html-keyboard-response,417,731283,null,"STICKER<img id = ""stim"" ><div class = red_square id = ""topsquare"" ></div><img id = ""stim"" ><div class = red_square  id = ""bottomsquare"" ></div>",null,word_square,response,0,none,true,,,
html-keyboard-response,418,732787,null,"STICKER",null,word,,,,, 'STICKER',,
call-function,419,732788,,"",,,,,,,,,
html-keyboard-response,420,732891,null,"",null,,,,,,,,
math-period,421,735556,5143.144999994547,"",,,,,,,,,4
html-keyboard-response,422,735660,null,"",null,,,,,,,,
math-period,423,737296,3117.390000013984,"",,,,,,,,,4
html-keyboard-response,424,737402,null,"",null,,,,,,,,
math-period,425,739633,4354.219999993802,"",,,,,,,,,2
html-keyboard-response,426,739735,null,"",null,,,,,,,,
math-period,427,741834,4084.9149999849033,"",,,,,,,,,4
html-keyboard-response,428,741941,null,"",null,,,,,,,,
math-period,429,743806,3642.2099999908824,"",,,,,,,,,4
html-keyboard-response,430,743909,null,"",null,,,,,,,,
math-period,431,747153,6400.784999990719,"",,,,,,,,,3
html-keyboard-response,432,747259,null,"",null,,,,,,,,
math-period,433,748818,3007.4750000057975,"",,,,,,,,,1
html-keyboard-response,434,748925,null,"",null,,,,,,,,
math-period,435,750321,2648.010000018985,"",,,,,,,,,4
html-keyboard-response,436,750424,null,"",null,,,,,,,,
math-period,437,752700,4435.2449999860255,"",,,,,,,,,5
html-keyboard-response,438,752803,null,"",null,,,,,,,,
math-period,439,754039,2385.389999995823,"",,,,,,,,,4
html-keyboard-response,440,754143,null,"",null,,,,,,,,
math-period,441,755226,2069.534999987809,"",,,,,,,,,2
html-keyboard-response,442,755328,null,"",null,,,,,,,,
math-period,443,756793,null,"",,,,,,,,,
html-keyboard-response,444,757795,null,"Recall Period!",null,,,,,,,,
call-function,445,757797,,"",,,,,,,,,
html-keyboard-response,446,757900,null,"",null,,,,,,,,
recall-period,447,760435,2532.649999993737,"",,,,,,,,,
html-keyboard-response,448,760539,null,"",null,,,,,,,,
recall-period,449,764753,21947.959999975865,"",,,,,,,,,bunny
html-keyboard-response,450,764856,null,"",null,,,,,,,,
recall-period,451,773520,94756.07000001764,"",,,,,,,,,brick
html-keyboard-response,452,773624,null,"",null,,,,,,,,
recall-period,453,832804,null,"",,,,,,,,,
html-keyboard-response,454,833309,null,"Time's Up!",null,,,,,,,,
html-keyboard-response,455,835452,2140.5649999942398,"<p> Good job! You responded correctly to 88% of the GREEN squares.</p>
                  <p>Be sure to keep your accuracy above 80%</p>
                  <p>Press any key to continue the experiment. Thank you!</p>",32,,,,,,,,
html-keyboard-response,456,836650,1195.384999999078,"<div style=""font-size:48px;"">Press any key to begin list 5 of 24 </div>",32,,,,,,,,
html-keyboard-response,457,839154,null,"<div style=""font-size:60px;"">+</div>",null,,,,,,,,
html-keyboard-response,458,839660,null,"FRUIT<img id = ""stim"" ><div class = red_square id = ""topsquare"" ></div><img id = ""stim"" ><div class = red_square  id = ""bottomsquare"" ></div>",null,word_square,response,0,none,true,,,
html-keyboard-response,459,841163,null,"FRUIT",null,word,,,,, 'FRUIT',,
html-keyboard-response,460,841604,437.2250000014901,"SHRUB<img id = ""stim"" ><div class = green_square id = ""topsquare"" ></div><img id = ""stim"" ><div class = green_square  id = ""bottomsquare"" ></div>",32,word_square,response,1,Space,true,,,
html-keyboard-response,461,843108,null,"SHRUB",null,word,,,,, 'SHRUB',,
html-keyboard-response,462,843613,null,"ASIA<img id = ""stim"" ><div class = red_square id = ""topsquare"" ></div><img id = ""stim"" ><div class = red_square  id = ""bottomsquare"" ></div>",null,word_square,response,0,none,true,,,
html-keyboard-response,463,845116,null,"ASIA",null,word,,,,, 'ASIA',,
html-keyboard-response,464,845389,269.6449999930337,"PLATE<img id = ""stim"" ><div class = green_square id = ""topsquare"" ></div><img id = ""stim"" ><div class = green_square  id = ""bottomsquare"" ></div>",32,word_square,response,1,Space,true,,,
html-keyboard-response,465,846893,null,"PLATE",null,word,,,,, 'PLATE',,
html-keyboard-response,466,847398,null,"ADULT<img id = ""stim"" ><div class = red_square id = ""topsquare"" ></div><img id = ""stim"" ><div class = red_square  id = ""bottomsquare"" ></div>",null,word_square,response,0,none,true,,,
html-keyboard-response,467,848901,null,"ADULT",null,word,,,,, 'ADULT',,
html-keyboard-response,468,849406,null,"HEDGE<img id = ""stim"" ><div class = red_square id = ""topsquare"" ></div><img id = ""stim"" ><div class = red_square  id = ""bottomsquare"" ></div>",null,word_square,response,0,none,true,,,
html-keyboard-response,469,850910,null,"HEDGE",null,word,,,,, 'HEDGE',,
html-keyboard-response,470,851363,450.54499999969266,"BINDER<img id = ""stim"" ><div class = green_square id = ""topsquare"" ></div><img id = ""stim"" ><div class = green_square  id = ""bottomsquare"" ></div>",32,word_square,response,1,Space,true,,,
html-keyboard-response,471,852866,null,"BINDER",null,word,,,,, 'BINDER',,
html-keyboard-response,472,853312,443.6600000044564,"PLUM<img id = ""stim"" ><div class = green_square id = ""topsquare"" ></div><img id = ""stim"" ><div class = green_square  id = ""bottomsquare"" ></div>",32,word_square,response,1,Space,true,,,
html-keyboard-response,473,854817,null,"PLUM",null,word,,,,, 'PLUM',,
html-keyboard-response,474,855322,null,"MUFFIN<img id = ""stim"" ><div class = red_square id = ""topsquare"" ></div><img id = ""stim"" ><div class = red_square  id = ""bottomsquare"" ></div>",null,word_square,response,0,none,true,,,
html-keyboard-response,475,856825,null,"MUFFIN",null,word,,,,, 'MUFFIN',,
html-keyboard-response,476,857330,null,"JEEP<img id = ""stim"" ><div class = red_square id = ""topsquare"" ></div><img id = ""stim"" ><div class = red_square  id = ""bottomsquare"" ></div>",null,word_square,response,0,none,true,,,
html-keyboard-response,477,858834,null,"JEEP",null,word,,,,, 'JEEP',,
html-keyboard-response,478,859282,446.1850000079721,"REPORT<img id = ""stim"" ><div class = green_square id = ""topsquare"" ></div><img id = ""stim"" ><div class = green_square  id = ""bottomsquare"" ></div>",32,word_square,response,1,Space,true,,,
html-keyboard-response,479,860785,null,"REPORT",null,word,,,,, 'REPORT',,
html-keyboard-response,480,861289,null,"SAND<img id = ""stim"" ><div class = green_square id = ""topsquare"" ></div><img id = ""stim"" ><div class = green_square  id = ""bottomsquare"" ></div>",null,word_square,response,1,Space,false,,,
html-keyboard-response,481,862793,null,"SAND",null,word,,,,, 'SAND',,
html-keyboard-response,482,863298,null,"GERM<img id = ""stim"" ><div class = red_square id = ""topsquare"" ></div><img id = ""stim"" ><div class = red_square  id = ""bottomsquare"" ></div>",null,word_square,response,0,none,true,,,
html-keyboard-response,483,864801,null,"GERM",null,word,,,,, 'GERM',,
html-keyboard-response,484,865307,null,"PLAZA<img id = ""stim"" ><div class = red_square id = ""topsquare"" ></div><img id = ""stim"" ><div class = red_square  id = ""bottomsquare"" ></div>",null,word_square,response,0,none,true,,,
html-keyboard-response,485,866810,null,"PLAZA",null,word,,,,, 'PLAZA',,
html-keyboard-response,486,867201,388.31999999820255,"DART<img id = ""stim"" ><div class = green_square id = ""topsquare"" ></div><img id = ""stim"" ><div class = green_square  id = ""bottomsquare"" ></div>",32,word_square,response,1,Space,true,,,
html-keyboard-response,487,868708,null,"DART",null,word,,,,, 'DART',,
html-keyboard-response,488,869213,null,"BOX<img id = ""stim"" ><div class = red_square id = ""topsquare"" ></div><img id = ""stim"" ><div class = red_square  id = ""bottomsquare"" ></div>",null,word_square,response,0,none,true,,,
html-keyboard-response,489,870717,null,"BOX",null,word,,,,, 'BOX',,
html-keyboard-response,490,871086,366.4100000023609,"BALLOON<img id = ""stim"" ><div class = green_square id = ""topsquare"" ></div><img id = ""stim"" ><div class = green_square  id = ""bottomsquare"" ></div>",32,word_square,response,1,Space,true,,,
html-keyboard-response,491,872592,null,"BALLOON",null,word,,,,, 'BALLOON',,
html-keyboard-response,492,873057,463.0150000011781,"KNUCKLE<img id = ""stim"" ><div class = green_square id = ""topsquare"" ></div><img id = ""stim"" ><div class = green_square  id = ""bottomsquare"" ></div>",32,word_square,response,1,Space,true,,,
html-keyboard-response,493,874560,null,"KNUCKLE",null,word,,,,, 'KNUCKLE',,
call-function,494,874561,,"",,,,,,,,,
html-keyboard-response,495,874665,null,"",null,,,,,,,,
math-period,496,876681,3945.5549999984214,"",,,,,,,,,2
html-keyboard-response,497,876787,null,"",null,,,,,,,,
math-period,498,878142,2639.4449999934295,"",,,,,,,,,5
html-keyboard-response,499,878246,null,"",null,,,,,,,,
math-period,500,879215,1858.2200000091689,"",,,,,,,,,3
html-keyboard-response,501,879320,null,"",null,,,,,,,,
math-period,502,881392,4063.0899999960093,"",,,,,,,,,1
html-keyboard-response,503,881497,null,"",null,,,,,,,,
math-period,504,882697,2339.0000000072177,"",,,,,,,,,5
html-keyboard-response,505,882803,null,"",null,,,,,,,,
math-period,506,884791,3883.4699999861186,"",,,,,,,,,3
html-keyboard-response,507,884893,null,"",null,,,,,,,,
math-period,508,886030,2168.9149999874644,"",,,,,,,,,4
html-keyboard-response,509,886135,null,"",null,,,,,,,,
math-period,510,887308,2258.7800000037532,"",,,,,,,,,5
html-keyboard-response,511,887412,null,"",null,,,,,,,,
math-period,512,890455,5620.379999978468,"",,,,,,,,,5
html-keyboard-response,513,890558,null,"",null,,,,,,,,
math-period,514,893192,5144.860000014887,"",,,,,,,,,5
html-keyboard-response,515,893299,null,"",null,,,,,,,,
math-period,516,897538,8208.825000008801,"",,,,,,,,,2
html-keyboard-response,517,897641,null,"",null,,,,,,,,
math-period,518,898564,null,"",,,,,,,,,
html-keyboard-response,519,899567,null,"Recall Period!",null,,,,,,,,
call-function,520,899569,,"",,,,,,,,,
html-keyboard-response,521,899673,null,"",null,,,,,,,,
recall-period,522,900910,4979.974999980186,"",,,,,,,,,fruit
html-keyboard-response,523,901014,null,"",null,,,,,,,,
recall-period,524,902528,5980.150000046706,"",,,,,,,,,muffin
html-keyboard-response,525,902634,null,"",null,,,,,,,,
recall-period,526,905194,9900.954999960959,"",,,,,,,,,plum
html-keyboard-response,527,905298,null,"",null,,,,,,,,
recall-period,528,907327,8378.344999975525,"",,,,,,,,,balloon
html-keyboard-response,529,907431,null,"",null,,,,,,,,
recall-period,530,908964,5143.484999993234,"",,,,,,,,,plaza
html-keyboard-response,531,909068,null,"",null,,,,,,,,
recall-period,532,916209,33548.58000003151,"",,,,,,,,,sand
html-keyboard-response,533,916313,null,"",null,,,,,,,,
recall-period,534,917951,7138.320000027306,"",,,,,,,,,shrub
html-keyboard-response,535,918055,null,"",null,,,,,,,,
recall-period,536,974571,null,"",,,,,,,,,
html-keyboard-response,537,975076,null,"Time's Up!",null,,,,,,,,
html-keyboard-response,538,976259,1180.7000000117114,"<p> Good job! You responded correctly to 89% of the GREEN squares.</p>
                  <p>Be sure to keep your accuracy above 80%</p>
                  <p>Press any key to continue the experiment. Thank you!</p>",32,,,,,,,,
html-keyboard-response,539,977968,1706.6950000007637,"<div style=""font-size:48px;"">Press any key to begin list 6 of 24 </div>",32,,,,,,,,
html-keyboard-response,540,980475,null,"<div style=""font-size:60px;"">+</div>",null,,,,,,,,
html-keyboard-response,541,980980,null,"BROTHER<img id = ""stim"" ><div class = red_square id = ""topsquare"" ></div><img id = ""stim"" ><div class = red_square  id = ""bottomsquare"" ></div>",null,word_square,response,0,none,true,,,
html-keyboard-response,542,982484,null,"BROTHER",null,word,,,,, 'BROTHER',,
html-keyboard-response,543,982989,null,"POPCORN<img id = ""stim"" ><div class = green_square id = ""topsquare"" ></div><img id = ""stim"" ><div class = green_square  id = ""bottomsquare"" ></div>",null,word_square,response,1,Space,false,,,
html-keyboard-response,544,984492,null,"POPCORN",null,word,,,,, 'POPCORN',,
html-keyboard-response,545,984997,null,"CROWN<img id = ""stim"" ><div class = red_square id = ""topsquare"" ></div><img id = ""stim"" ><div class = red_square  id = ""bottomsquare"" ></div>",null,word_square,response,0,none,true,,,
html-keyboard-response,546,986501,null,"CROWN",null,word,,,,, 'CROWN',,
html-keyboard-response,547,986800,296.1700000014389,"PALACE<img id = ""stim"" ><div class = green_square id = ""topsquare"" ></div><img id = ""stim"" ><div class = green_square  id = ""bottomsquare"" ></div>",32,word_square,response,1,Space,true,,,
html-keyboard-response,548,988306,null,"PALACE",null,word,,,,, 'PALACE',,
html-keyboard-response,549,988811,null,"WAX<img id = ""stim"" ><div class = red_square id = ""topsquare"" ></div><img id = ""stim"" ><div class = red_square  id = ""bottomsquare"" ></div>",null,word_square,response,0,none,true,,,
html-keyboard-response,550,990315,null,"WAX",null,word,,,,, 'WAX',,
html-keyboard-response,551,990820,null,"SCAPEGOAT<img id = ""stim"" ><div class = red_square id = ""topsquare"" ></div><img id = ""stim"" ><div class = red_square  id = ""bottomsquare"" ></div>",null,word_square,response,0,none,true,,,
html-keyboard-response,552,992323,null,"SCAPEGOAT",null,word,,,,, 'SCAPEGOAT',,
html-keyboard-response,553,992657,331.5549999970244,"COUNTRY<img id = ""stim"" ><div class = green_square id = ""topsquare"" ></div><img id = ""stim"" ><div class = green_square  id = ""bottomsquare"" ></div>",32,word_square,response,1,Space,true,,,
html-keyboard-response,554,994163,null,"COUNTRY",null,word,,,,, 'COUNTRY',,
html-keyboard-response,555,994505,339.02499999385327,"FIDDLE<img id = ""stim"" ><div class = green_square id = ""topsquare"" ></div><img id = ""stim"" ><div class = green_square  id = ""bottomsquare"" ></div>",32,word_square,response,1,Space,true,,,
html-keyboard-response,556,996009,null,"FIDDLE",null,word,,,,, 'FIDDLE',,
html-keyboard-response,557,996514,null,"PLAID<img id = ""stim"" ><div class = red_square id = ""topsquare"" ></div><img id = ""stim"" ><div class = red_square  id = ""bottomsquare"" ></div>",null,word_square,response,0,none,true,,,
html-keyboard-response,558,998018,null,"PLAID",null,word,,,,, 'PLAID',,
html-keyboard-response,559,998523,null,"PLANET<img id = ""stim"" ><div class = red_square id = ""topsquare"" ></div><img id = ""stim"" ><div class = red_square  id = ""bottomsquare"" ></div>",null,word_square,response,0,none,true,,,
html-keyboard-response,560,1000027,null,"PLANET",null,word,,,,, 'PLANET',,
html-keyboard-response,561,1000508,478.8399999961257,"WOMAN<img id = ""stim"" ><div class = green_square id = ""topsquare"" ></div><img id = ""stim"" ><div class = green_square  id = ""bottomsquare"" ></div>",32,word_square,response,1,Space,true,,,
html-keyboard-response,562,1002012,null,"WOMAN",null,word,,,,, 'WOMAN',,
html-keyboard-response,563,1002382,367.56999998760875,"WAIST<img id = ""stim"" ><div class = green_square id = ""topsquare"" ></div><img id = ""stim"" ><div class = green_square  id = ""bottomsquare"" ></div>",32,word_square,response,1,Space,true,,,
html-keyboard-response,564,1003887,null,"WAIST",null,word,,,,, 'WAIST',,
html-keyboard-response,565,1004392,null,"CONVENT<img id = ""stim"" ><div class = red_square id = ""topsquare"" ></div><img id = ""stim"" ><div class = red_square  id = ""bottomsquare"" ></div>",null,word_square,response,0,none,true,,,
html-keyboard-response,566,1005896,null,"CONVENT",null,word,,,,, 'CONVENT',,
html-keyboard-response,567,1006401,null,"HORNET<img id = ""stim"" ><div class = red_square id = ""topsquare"" ></div><img id = ""stim"" ><div class = red_square  id = ""bottomsquare"" ></div>",null,word_square,response,0,none,true,,,
html-keyboard-response,568,1007904,null,"HORNET",null,word,,,,, 'HORNET',,
html-keyboard-response,569,1008409,null,"GODDESS<img id = ""stim"" ><div class = green_square id = ""topsquare"" ></div><img id = ""stim"" ><div class = green_square  id = ""bottomsquare"" ></div>",null,word_square,response,1,Space,false,,,
html-keyboard-response,570,1009913,null,"GODDESS",null,word,,,,, 'GODDESS',,
html-keyboard-response,571,1010418,null,"CATCHER<img id = ""stim"" ><div class = red_square id = ""topsquare"" ></div><img id = ""stim"" ><div class = red_square  id = ""bottomsquare"" ></div>",null,word_square,response,0,none,true,,,
html-keyboard-response,572,1011921,null,"CATCHER",null,word,,,,, 'CATCHER',,
html-keyboard-response,573,1012345,421.7249999928754,"HOUND<img id = ""stim"" ><div class = green_square id = ""topsquare"" ></div><img id = ""stim"" ><div class = green_square  id = ""bottomsquare"" ></div>",32,word_square,response,1,Space,true,,,
html-keyboard-response,574,1013850,null,"HOUND",null,word,,,,, 'HOUND',,
html-keyboard-response,575,1014354,null,"ELK<img id = ""stim"" ><div class = green_square id = ""topsquare"" ></div><img id = ""stim"" ><div class = green_square  id = ""bottomsquare"" ></div>",null,word_square,response,1,Space,false,,,
html-keyboard-response,576,1015857,null,"ELK",null,word,,,,, 'ELK',,
call-function,577,1015859,,"",,,,,,,,,
html-keyboard-response,578,1015962,null,"",null,,,,,,,,
math-period,579,1017501,2930.275000006077,"",,,,,,,,,5
html-keyboard-response,580,1017604,null,"",null,,,,,,,,
math-period,581,1019746,4187.0100000087405,"",,,,,,,,,2
html-keyboard-response,582,1019852,null,"",null,,,,,,,,
math-period,583,1021356,2873.00999998115,"",,,,,,,,,5
html-keyboard-response,584,1021459,null,"",null,,,,,,,,
math-period,585,1022526,2037.8400000045076,"",,,,,,,,,4
html-keyboard-response,586,1022632,null,"",null,,,,,,,,
math-period,587,1023719,2086.7249999864725,"",,,,,,,,,5
html-keyboard-response,588,1023822,null,"",null,,,,,,,,
math-period,589,1024939,2110.8899999962887,"",,,,,,,,,6
html-keyboard-response,590,1025043,null,"",null,,,,,,,,
math-period,591,1027631,6717.260000004899,"",,,,,,,,,1
html-keyboard-response,592,1027734,null,"",null,,,,,,,,
math-period,593,1029443,2790.9250000084285,"",,,,,,,,,6
html-keyboard-response,594,1029547,null,"",null,,,,,,,,
math-period,595,1031350,3498.7549999932526,"",,,,,,,,,1
html-keyboard-response,596,1031456,null,"",null,,,,,,,,
math-period,597,1034007,4909.709999992629,"",,,,,,,,,2
html-keyboard-response,598,1034111,null,"",null,,,,,,,,
math-period,599,1035680,3043.3650000049965,"",,,,,,,,,2
html-keyboard-response,600,1035786,null,"",null,,,,,,,,
math-period,601,1037926,4120.525000005728,"",,,,,,,,,3
html-keyboard-response,602,1038029,null,"",null,,,,,,,,
math-period,603,1039861,1810.8349999965867,"",,,,,,,,,4
html-keyboard-response,604,1040866,null,"Recall Period!",null,,,,,,,,
call-function,605,1040867,,"",,,,,,,,,
html-keyboard-response,606,1040970,null,"",null,,,,,,,,
recall-period,607,1042984,9327.319999982137,"",,,,,,,,,hornet
html-keyboard-response,608,1043089,null,"",null,,,,,,,,
recall-period,609,1044317,5241.819999951986,"",,,,,,,,,goddess
html-keyboard-response,610,1044420,null,"",null,,,,,,,,
recall-period,611,1045592,4690.365000031306,"",,,,,,,,,country
html-keyboard-response,612,1045695,null,"",null,,,,,,,,
recall-period,613,1046556,2822.0750000182306,"",,,,,,,,,hound
html-keyboard-response,614,1046659,null,"",null,,,,,,,,
recall-period,615,1047297,1309.3399999925168,"",,,,,,,,,elk
html-keyboard-response,616,1047402,null,"",null,,,,,,,,
recall-period,617,1076397,185586.67500001332,"",,,,,,,,,palace
html-keyboard-response,618,1076504,null,"",null,,,,,,,,
recall-period,619,1115870,null,"",,,,,,,,,
html-keyboard-response,620,1116373,null,"Time's Up!",null,,,,,,,,
html-keyboard-response,621,1118022,1646.024999994319,"<p> Good job! You responded correctly to 88% of the GREEN squares.</p>
                  <p>Be sure to keep your accuracy above 80%</p>
                  <p>Press any key to continue the experiment. Thank you!</p>",32,,,,,,,,
html-keyboard-response,622,1118928,903.0999999959022,"<div style=""font-size:48px;"">Press any key to begin list 7 of 24 </div>",32,,,,,,,,
html-keyboard-response,623,1121435,null,"<div style=""font-size:60px;"">+</div>",null,,,,,,,,
html-keyboard-response,624,1121756,318.54500000202097,"SIDING<img id = ""stim"" ><div class = green_square id = ""topsquare"" ></div><img id = ""stim"" ><div class = green_square  id = ""bottomsquare"" ></div>",32,word_square,response,1,Space,true,,,
html-keyboard-response,625,1123258,null,"SIDING",null,word,,,,, 'SIDING',,
html-keyboard-response,626,1123764,null,"FUNGUS<img id = ""stim"" ><div class = red_square id = ""topsquare"" ></div><img id = ""stim"" ><div class = red_square  id = ""bottomsquare"" ></div>",null,word_square,response,0,none,true,,,
html-keyboard-response,627,1125267,null,"FUNGUS",null,word,,,,, 'FUNGUS',,
html-keyboard-response,628,1125639,369.4800000083633,"RADISH<img id = ""stim"" ><div class = green_square id = ""topsquare"" ></div><img id = ""stim"" ><div class = green_square  id = ""bottomsquare"" ></div>",32,word_square,response,1,Space,true,,,
html-keyboard-response,629,1127142,null,"RADISH",null,word,,,,, 'RADISH',,
html-keyboard-response,630,1127647,null,"EUROPE<img id = ""stim"" ><div class = red_square id = ""topsquare"" ></div><img id = ""stim"" ><div class = red_square  id = ""bottomsquare"" ></div>",null,word_square,response,0,none,true,,,
html-keyboard-response,631,1129151,null,"EUROPE",null,word,,,,, 'EUROPE',,
html-keyboard-response,632,1129606,453.269999998156,"LABEL<img id = ""stim"" ><div class = green_square id = ""topsquare"" ></div><img id = ""stim"" ><div class = green_square  id = ""bottomsquare"" ></div>",32,word_square,response,1,Space,true,,,
html-keyboard-response,633,1131113,null,"LABEL",null,word,,,,, 'LABEL',,
html-keyboard-response,634,1131497,381.5350000075996,"PIGEON<img id = ""stim"" ><div class = green_square id = ""topsquare"" ></div><img id = ""stim"" ><div class = green_square  id = ""bottomsquare"" ></div>",32,word_square,response,1,Space,true,,,
html-keyboard-response,635,1132999,null,"PIGEON",null,word,,,,, 'PIGEON',,
html-keyboard-response,636,1133504,null,"FRIES<img id = ""stim"" ><div class = red_square id = ""topsquare"" ></div><img id = ""stim"" ><div class = red_square  id = ""bottomsquare"" ></div>",null,word_square,response,0,none,true,,,
html-keyboard-response,637,1135011,null,"FRIES",null,word,,,,, 'FRIES',,
html-keyboard-response,638,1135516,null,"PRINCESS<img id = ""stim"" ><div class = red_square id = ""topsquare"" ></div><img id = ""stim"" ><div class = red_square  id = ""bottomsquare"" ></div>",null,word_square,response,0,none,true,,,
html-keyboard-response,639,1137022,null,"PRINCESS",null,word,,,,, 'PRINCESS',,
html-keyboard-response,640,1137527,null,"MARKER<img id = ""stim"" ><div class = green_square id = ""topsquare"" ></div><img id = ""stim"" ><div class = green_square  id = ""bottomsquare"" ></div>",null,word_square,response,1,Space,false,,,
html-keyboard-response,641,1139031,null,"MARKER",null,word,,,,, 'MARKER',,
html-keyboard-response,642,1139397,364.5550000073854,"FOUNTAIN<img id = ""stim"" ><div class = green_square id = ""topsquare"" ></div><img id = ""stim"" ><div class = green_square  id = ""bottomsquare"" ></div>",32,word_square,response,1,Space,true,,,
html-keyboard-response,643,1140900,null,"FOUNTAIN",null,word,,,,, 'FOUNTAIN',,
html-keyboard-response,644,1141405,null,"FLAG<img id = ""stim"" ><div class = red_square id = ""topsquare"" ></div><img id = ""stim"" ><div class = red_square  id = ""bottomsquare"" ></div>",null,word_square,response,0,none,true,,,
html-keyboard-response,645,1142909,null,"FLAG",null,word,,,,, 'FLAG',,
html-keyboard-response,646,1143414,null,"ORCHID<img id = ""stim"" ><div class = red_square id = ""topsquare"" ></div><img id = ""stim"" ><div class = red_square  id = ""bottomsquare"" ></div>",null,word_square,response,0,none,true,,,
html-keyboard-response,647,1144918,null,"ORCHID",null,word,,,,, 'ORCHID',,
html-keyboard-response,648,1145422,null,"FOLDER<img id = ""stim"" ><div class = green_square id = ""topsquare"" ></div><img id = ""stim"" ><div class = green_square  id = ""bottomsquare"" ></div>",null,word_square,response,1,Space,false,,,
html-keyboard-response,649,1146926,null,"FOLDER",null,word,,,,, 'FOLDER',,
html-keyboard-response,650,1147427,498.11499999510124,"CASTLE<img id = ""stim"" ><div class = green_square id = ""topsquare"" ></div><img id = ""stim"" ><div class = green_square  id = ""bottomsquare"" ></div>",32,word_square,response,1,Space,true,,,
html-keyboard-response,651,1148934,null,"CASTLE",null,word,,,,, 'CASTLE',,
html-keyboard-response,652,1149440,null,"QUEEN<img id = ""stim"" ><div class = red_square id = ""topsquare"" ></div><img id = ""stim"" ><div class = red_square  id = ""bottomsquare"" ></div>",null,word_square,response,0,none,true,,,
html-keyboard-response,653,1150943,null,"QUEEN",null,word,,,,, 'QUEEN',,
html-keyboard-response,654,1151305,360.09000000194646,"NEEDLE<img id = ""stim"" ><div class = green_square id = ""topsquare"" ></div><img id = ""stim"" ><div class = green_square  id = ""bottomsquare"" ></div>",32,word_square,response,1,Space,true,,,
html-keyboard-response,655,1152812,null,"NEEDLE",null,word,,,,, 'NEEDLE',,
html-keyboard-response,656,1153268,453.1950000091456,"NEPHEW<img id = ""stim"" ><div class = red_square id = ""topsquare"" ></div><img id = ""stim"" ><div class = red_square  id = ""bottomsquare"" ></div>",32,word_square,response,0,none,false,,,
html-keyboard-response,657,1154774,null,"NEPHEW",null,word,,,,, 'NEPHEW',,
html-keyboard-response,658,1155280,null,"ICEBERG<img id = ""stim"" ><div class = red_square id = ""topsquare"" ></div><img id = ""stim"" ><div class = red_square  id = ""bottomsquare"" ></div>",null,word_square,response,0,none,true,,,
html-keyboard-response,659,1156783,null,"ICEBERG",null,word,,,,, 'ICEBERG',,
call-function,660,1156785,,"",,,,,,,,,
html-keyboard-response,661,1156887,null,"",null,,,,,,,,
math-period,662,1158805,3720.7399999895133,"",,,,,,,,,1
html-keyboard-response,663,1158907,null,"",null,,,,,,,,
math-period,664,1159995,2067.5999999803025,"",,,,,,,,,4
html-keyboard-response,665,1160100,null,"",null,,,,,,,,
math-period,666,1161054,1790.1450000065379,"",,,,,,,,,3
html-keyboard-response,667,1161160,null,"",null,,,,,,,,
math-period,668,1161813,1185.7250000026543,"",,,,,,,,,3
html-keyboard-response,669,1161915,null,"",null,,,,,,,,
math-period,670,1165322,6617.6800000250805,"",,,,,,,,,2
html-keyboard-response,671,1165427,null,"",null,,,,,,,,
math-period,672,1167173,3309.1449999918696,"",,,,,,,,,1
html-keyboard-response,673,1167279,null,"",null,,,,,,,,
math-period,674,1168552,2340.880000017816,"",,,,,,,,,4
html-keyboard-response,675,1168654,null,"",null,,,,,,,,
math-period,676,1170728,3886.559999998659,"",,,,,,,,,2
html-keyboard-response,677,1170831,null,"",null,,,,,,,,
math-period,678,1172387,2891.9350000072736,"",,,,,,,,,1
html-keyboard-response,679,1172492,null,"",null,,,,,,,,
math-period,680,1174109,2980.115000013262,"",,,,,,,,,5
html-keyboard-response,681,1174212,null,"",null,,,,,,,,
math-period,682,1175537,2420.810000010766,"",,,,,,,,,4
html-keyboard-response,683,1175640,null,"",null,,,,,,,,
math-period,684,1176774,2104.6899999927264,"",,,,,,,,,2
html-keyboard-response,685,1176878,null,"",null,,,,,,,,
math-period,686,1178490,3016.9999999776483,"",,,,,,,,,1
html-keyboard-response,687,1178593,null,"",null,,,,,,,,
math-period,688,1179937,2516.6899999896996,"",,,,,,,,,6
html-keyboard-response,689,1180039,null,"",null,,,,,,,,
math-period,690,1180788,null,"",,,,,,,,,
html-keyboard-response,691,1181791,null,"Recall Period!",null,,,,,,,,
call-function,692,1181793,,"",,,,,,,,,
html-keyboard-response,693,1181899,null,"",null,,,,,,,,
recall-period,694,1184166,15712.960000047693,"",,,,,,,,,mountain
html-keyboard-response,695,1184270,null,"",null,,,,,,,,
recall-period,696,1185010,2099.0150000150315,"",,,,,,,,,flag
html-keyboard-response,697,1185113,null,"",null,,,,,,,,
recall-period,698,1186212,4233.845000009751,"",,,,,,,,,orchid
html-keyboard-response,699,1186315,null,"",null,,,,,,,,
recall-period,700,1187512,5165.590000033379,"",,,,,,,,,castle
html-keyboard-response,701,1187614,null,"",null,,,,,,,,
recall-period,702,1191034,20410.59000002942,"",,,,,,,,,fungus
html-keyboard-response,703,1191137,null,"",null,,,,,,,,
recall-period,704,1256799,null,"",,,,,,,,,
html-keyboard-response,705,1257305,null,"Time's Up!",null,,,,,,,,
html-keyboard-response,706,1342069,84740.11999998754,"<p> Good job! You responded correctly to 88% of the GREEN squares.</p>
                  <p>Be sure to keep your accuracy above 80%</p>
                  <p>Press any key to continue the experiment. Thank you!</p>",32,,,,,,,,
html-keyboard-response,707,1342845,772.3899999982677,"<div style=""font-size:48px;"">Press any key to begin list 8 of 24 </div>",32,,,,,,,,
html-keyboard-response,708,1345357,null,"<div style=""font-size:60px;"">+</div>",null,,,,,,,,
html-keyboard-response,709,1345865,null,"BUG<img id = ""stim"" ><div class = green_square id = ""topsquare"" ></div><img id = ""stim"" ><div class = green_square  id = ""bottomsquare"" ></div>",null,word_square,response,1,Space,false,,,
html-keyboard-response,710,1347371,null,"BUG",null,word,,,,, 'BUG',,
html-keyboard-response,711,1347875,null,"PONY<img id = ""stim"" ><div class = red_square id = ""topsquare"" ></div><img id = ""stim"" ><div class = red_square  id = ""bottomsquare"" ></div>",null,word_square,response,0,none,true,,,
html-keyboard-response,712,1349380,null,"PONY",null,word,,,,, 'PONY',,
html-keyboard-response,713,1349717,333.37000000756234,"SERGEANT<img id = ""stim"" ><div class = green_square id = ""topsquare"" ></div><img id = ""stim"" ><div class = green_square  id = ""bottomsquare"" ></div>",32,word_square,response,1,Space,true,,,
html-keyboard-response,714,1351226,null,"SERGEANT",null,word,,,,, 'SERGEANT',,
html-keyboard-response,715,1351732,null,"TRIGGER<img id = ""stim"" ><div class = red_square id = ""topsquare"" ></div><img id = ""stim"" ><div class = red_square  id = ""bottomsquare"" ></div>",null,word_square,response,0,none,true,,,
html-keyboard-response,716,1353237,null,"TRIGGER",null,word,,,,, 'TRIGGER',,
html-keyboard-response,717,1353608,367.5549999899231,"JEANS<img id = ""stim"" ><div class = green_square id = ""topsquare"" ></div><img id = ""stim"" ><div class = green_square  id = ""bottomsquare"" ></div>",32,word_square,response,1,Space,true,,,
html-keyboard-response,718,1355115,null,"JEANS",null,word,,,,, 'JEANS',,
html-keyboard-response,719,1355481,362.7999999879394,"SHORTS<img id = ""stim"" ><div class = green_square id = ""topsquare"" ></div><img id = ""stim"" ><div class = green_square  id = ""bottomsquare"" ></div>",32,word_square,response,1,Space,true,,,
html-keyboard-response,720,1356986,null,"SHORTS",null,word,,,,, 'SHORTS',,
html-keyboard-response,721,1357492,null,"PARCEL<img id = ""stim"" ><div class = red_square id = ""topsquare"" ></div><img id = ""stim"" ><div class = red_square  id = ""bottomsquare"" ></div>",null,word_square,response,0,none,true,,,
html-keyboard-response,722,1358997,null,"PARCEL",null,word,,,,, 'PARCEL',,
html-keyboard-response,723,1359502,null,"WORLD<img id = ""stim"" ><div class = red_square id = ""topsquare"" ></div><img id = ""stim"" ><div class = red_square  id = ""bottomsquare"" ></div>",null,word_square,response,0,none,true,,,
html-keyboard-response,724,1361007,null,"WORLD",null,word,,,,, 'WORLD',,
html-keyboard-response,725,1361391,380.3400000031106,"COUSIN<img id = ""stim"" ><div class = green_square id = ""topsquare"" ></div><img id = ""stim"" ><div class = green_square  id = ""bottomsquare"" ></div>",32,word_square,response,1,Space,true,,,
html-keyboard-response,726,1362896,null,"COUSIN",null,word,,,,, 'COUSIN',,
html-keyboard-response,727,1363287,387.20500000659376,"VILLAGE<img id = ""stim"" ><div class = green_square id = ""topsquare"" ></div><img id = ""stim"" ><div class = green_square  id = ""bottomsquare"" ></div>",32,word_square,response,1,Space,true,,,
html-keyboard-response,728,1364795,null,"VILLAGE",null,word,,,,, 'VILLAGE',,
html-keyboard-response,729,1365301,null,"PISTOL<img id = ""stim"" ><div class = red_square id = ""topsquare"" ></div><img id = ""stim"" ><div class = red_square  id = ""bottomsquare"" ></div>",null,word_square,response,0,none,true,,,
html-keyboard-response,730,1366805,null,"PISTOL",null,word,,,,, 'PISTOL',,
html-keyboard-response,731,1367311,null,"OYSTER<img id = ""stim"" ><div class = red_square id = ""topsquare"" ></div><img id = ""stim"" ><div class = red_square  id = ""bottomsquare"" ></div>",null,word_square,response,0,none,true,,,
html-keyboard-response,732,1368815,null,"OYSTER",null,word,,,,, 'OYSTER',,
html-keyboard-response,733,1369196,378.715000013588,"MOUNTAIN<img id = ""stim"" ><div class = green_square id = ""topsquare"" ></div><img id = ""stim"" ><div class = green_square  id = ""bottomsquare"" ></div>",32,word_square,response,1,Space,true,,,
html-keyboard-response,734,1370703,null,"MOUNTAIN",null,word,,,,, 'MOUNTAIN',,
html-keyboard-response,735,1371132,427.0600000019185,"FLESH<img id = ""stim"" ><div class = green_square id = ""topsquare"" ></div><img id = ""stim"" ><div class = green_square  id = ""bottomsquare"" ></div>",32,word_square,response,1,Space,true,,,
html-keyboard-response,736,1372637,null,"FLESH",null,word,,,,, 'FLESH',,
html-keyboard-response,737,1373142,null,"RAILROAD<img id = ""stim"" ><div class = red_square id = ""topsquare"" ></div><img id = ""stim"" ><div class = red_square  id = ""bottomsquare"" ></div>",null,word_square,response,0,none,true,,,
html-keyboard-response,738,1374646,null,"RAILROAD",null,word,,,,, 'RAILROAD',,
html-keyboard-response,739,1375044,395.8249999997206,"CRICKET<img id = ""stim"" ><div class = green_square id = ""topsquare"" ></div><img id = ""stim"" ><div class = green_square  id = ""bottomsquare"" ></div>",32,word_square,response,1,Space,true,,,
html-keyboard-response,740,1376551,null,"CRICKET",null,word,,,,, 'CRICKET',,
html-keyboard-response,741,1376810,256.38000000617467,"VELVET<img id = ""stim"" ><div class = red_square id = ""topsquare"" ></div><img id = ""stim"" ><div class = red_square  id = ""bottomsquare"" ></div>",32,word_square,response,0,none,false,,,
html-keyboard-response,742,1378316,null,"VELVET",null,word,,,,, 'VELVET',,
html-keyboard-response,743,1378821,null,"CLERK<img id = ""stim"" ><div class = red_square id = ""topsquare"" ></div><img id = ""stim"" ><div class = red_square  id = ""bottomsquare"" ></div>",null,word_square,response,0,none,true,,,
html-keyboard-response,744,1380325,null,"CLERK",null,word,,,,, 'CLERK',,
call-function,745,1380327,,"",,,,,,,,,
html-keyboard-response,746,1380430,null,"",null,,,,,,,,
math-period,747,1382180,3213.879999981029,"",,,,,,,,,6
html-keyboard-response,748,1382284,null,"",null,,,,,,,,
math-period,749,1383780,2867.9299999785144,"",,,,,,,,,1
html-keyboard-response,750,1383884,null,"",null,,,,,,,,
math-period,751,1384957,2036.0900000086986,"",,,,,,,,,4
html-keyboard-response,752,1385063,null,"",null,,,,,,,,
math-period,753,1386239,2214.689999993425,"",,,,,,,,,6
html-keyboard-response,754,1386343,null,"",null,,,,,,,,
math-period,755,1388646,4297.059999982826,"",,,,,,,,,0
html-keyboard-response,756,1388750,null,"",null,,,,,,,,
math-period,757,1390112,2322.234999999404,"",,,,,,,,,3
html-keyboard-response,758,1390215,null,"",null,,,,,,,,
math-period,759,1391664,2785.289999985369,"",,,,,,,,,5
html-keyboard-response,760,1391769,null,"",null,,,,,,,,
math-period,761,1392932,2200.1850000086706,"",,,,,,,,,4
html-keyboard-response,762,1393035,null,"",null,,,,,,,,
math-period,763,1394037,1883.5850000032224,"",,,,,,,,,3
html-keyboard-response,764,1394143,null,"",null,,,,,,,,
math-period,765,1395075,1750.669999993639,"",,,,,,,,,2
html-keyboard-response,766,1395179,null,"",null,,,,,,,,
math-period,767,1396069,1681.3550000078976,"",,,,,,,,,3
html-keyboard-response,768,1396176,null,"",null,,,,,,,,
math-period,769,1398820,7218.279999986291,"",,,,,,,,,5
html-keyboard-response,770,1398927,null,"",null,,,,,,,,
math-period,771,1400689,3323.5949999941513,"",,,,,,,,,3
html-keyboard-response,772,1400793,null,"",null,,,,,,,,
math-period,773,1402075,2442.1499999882653,"",,,,,,,,,2
html-keyboard-response,774,1402178,null,"",null,,,,,,,,
math-period,775,1403362,2251.4100000115577,"",,,,,,,,,4
html-keyboard-response,776,1403467,null,"",null,,,,,,,,
math-period,777,1404332,null,"",,,,,,,,,
html-keyboard-response,778,1405337,null,"Recall Period!",null,,,,,,,,
call-function,779,1405338,,"",,,,,,,,,
html-keyboard-response,780,1405441,null,"",null,,,,,,,,
recall-period,781,1406417,973.1200000096578,"",,,,,,,,,
html-keyboard-response,782,1406523,null,"",null,,,,,,,,
recall-period,783,1410991,25996.000000042608,"",,,,,,,,,pillage
html-keyboard-response,784,1411096,null,"",null,,,,,,,,
recall-period,785,1413665,9172.445000048028,"",,,,,,,,,pony
html-keyboard-response,786,1413770,null,"",null,,,,,,,,
recall-period,787,1414701,2149.9750000080094,"",,,,,,,,,bug
html-keyboard-response,788,1414805,null,"",null,,,,,,,,
recall-period,789,1480346,null,"",,,,,,,,,
html-keyboard-response,790,1480851,null,"Time's Up!",null,,,,,,,,
html-keyboard-response,791,1489611,8757.039999996778,"<p> Good job! You responded correctly to 88% of the GREEN squares.</p>
                  <p>Be sure to keep your accuracy above 80%</p>
                  <p>Press any key to continue the experiment. Thank you!</p>",32,,,,,,,,
html-keyboard-response,792,1490559,945.3650000067428,"<div style=""font-size:48px;"">Press any key to begin list 9 of 24 </div>",32,,,,,,,,
html-keyboard-response,793,1493065,null,"<div style=""font-size:60px;"">+</div>",null,,,,,,,,
html-keyboard-response,794,1493572,null,"COLONEL<img id = ""stim"" ><div class = red_square id = ""topsquare"" ></div><img id = ""stim"" ><div class = red_square  id = ""bottomsquare"" ></div>",null,word_square,response,0,none,true,,,
html-keyboard-response,795,1495075,null,"COLONEL",null,word,,,,, 'COLONEL',,
html-keyboard-response,796,1495578,null,"FREEZER<img id = ""stim"" ><div class = red_square id = ""topsquare"" ></div><img id = ""stim"" ><div class = red_square  id = ""bottomsquare"" ></div>",null,word_square,response,0,none,true,,,
html-keyboard-response,797,1497082,null,"FREEZER",null,word,,,,, 'FREEZER',,
html-keyboard-response,798,1497587,null,"ARM<img id = ""stim"" ><div class = green_square id = ""topsquare"" ></div><img id = ""stim"" ><div class = green_square  id = ""bottomsquare"" ></div>",null,word_square,response,1,Space,false,,,
html-keyboard-response,799,1499089,null,"ARM",null,word,,,,, 'ARM',,
html-keyboard-response,800,1499596,null,"MOTHER<img id = ""stim"" ><div class = green_square id = ""topsquare"" ></div><img id = ""stim"" ><div class = green_square  id = ""bottomsquare"" ></div>",null,word_square,response,1,Space,false,,,
html-keyboard-response,801,1501099,null,"MOTHER",null,word,,,,, 'MOTHER',,
html-keyboard-response,802,1501604,null,"SUITE<img id = ""stim"" ><div class = red_square id = ""topsquare"" ></div><img id = ""stim"" ><div class = red_square  id = ""bottomsquare"" ></div>",null,word_square,response,0,none,true,,,
html-keyboard-response,803,1503108,null,"SUITE",null,word,,,,, 'SUITE',,
html-keyboard-response,804,1503613,null,"FARMER<img id = ""stim"" ><div class = green_square id = ""topsquare"" ></div><img id = ""stim"" ><div class = green_square  id = ""bottomsquare"" ></div>",null,word_square,response,1,Space,false,,,
html-keyboard-response,805,1505117,null,"FARMER",null,word,,,,, 'FARMER',,
html-keyboard-response,806,1505623,null,"BISON<img id = ""stim"" ><div class = red_square id = ""topsquare"" ></div><img id = ""stim"" ><div class = red_square  id = ""bottomsquare"" ></div>",null,word_square,response,0,none,true,,,
html-keyboard-response,807,1507125,null,"BISON",null,word,,,,, 'BISON',,
html-keyboard-response,808,1507630,null,"RIFLE<img id = ""stim"" ><div class = green_square id = ""topsquare"" ></div><img id = ""stim"" ><div class = green_square  id = ""bottomsquare"" ></div>",null,word_square,response,1,Space,false,,,
html-keyboard-response,809,1509134,null,"RIFLE",null,word,,,,, 'RIFLE',,
html-keyboard-response,810,1509639,null,"BULLET<img id = ""stim"" ><div class = green_square id = ""topsquare"" ></div><img id = ""stim"" ><div class = green_square  id = ""bottomsquare"" ></div>",null,word_square,response,1,Space,false,,,
html-keyboard-response,811,1511143,null,"BULLET",null,word,,,,, 'BULLET',,
html-keyboard-response,812,1511647,null,"REBEL<img id = ""stim"" ><div class = red_square id = ""topsquare"" ></div><img id = ""stim"" ><div class = red_square  id = ""bottomsquare"" ></div>",null,word_square,response,0,none,true,,,
html-keyboard-response,813,1513151,null,"REBEL",null,word,,,,, 'REBEL',,
html-keyboard-response,814,1513656,null,"COLUMN<img id = ""stim"" ><div class = green_square id = ""topsquare"" ></div><img id = ""stim"" ><div class = green_square  id = ""bottomsquare"" ></div>",null,word_square,response,1,Space,false,,,
html-keyboard-response,815,1515160,null,"COLUMN",null,word,,,,, 'COLUMN',,
html-keyboard-response,816,1515664,null,"HEEL<img id = ""stim"" ><div class = green_square id = ""topsquare"" ></div><img id = ""stim"" ><div class = green_square  id = ""bottomsquare"" ></div>",null,word_square,response,1,Space,false,,,
html-keyboard-response,817,1517168,null,"HEEL",null,word,,,,, 'HEEL',,
html-keyboard-response,818,1517673,null,"MARSH<img id = ""stim"" ><div class = red_square id = ""topsquare"" ></div><img id = ""stim"" ><div class = red_square  id = ""bottomsquare"" ></div>",null,word_square,response,0,none,true,,,
html-keyboard-response,819,1519177,null,"MARSH",null,word,,,,, 'MARSH',,
html-keyboard-response,820,1519682,null,"COUCH<img id = ""stim"" ><div class = red_square id = ""topsquare"" ></div><img id = ""stim"" ><div class = red_square  id = ""bottomsquare"" ></div>",null,word_square,response,0,none,true,,,
html-keyboard-response,821,1521186,null,"COUCH",null,word,,,,, 'COUCH',,
html-keyboard-response,822,1521690,null,"LEG<img id = ""stim"" ><div class = green_square id = ""topsquare"" ></div><img id = ""stim"" ><div class = green_square  id = ""bottomsquare"" ></div>",null,word_square,response,1,Space,false,,,
html-keyboard-response,823,1523194,null,"LEG",null,word,,,,, 'LEG',,
html-keyboard-response,824,1523699,null,"TERMITE<img id = ""stim"" ><div class = red_square id = ""topsquare"" ></div><img id = ""stim"" ><div class = red_square  id = ""bottomsquare"" ></div>",null,word_square,response,0,none,true,,,
html-keyboard-response,825,1525202,null,"TERMITE",null,word,,,,, 'TERMITE',,
html-keyboard-response,826,1525707,null,"DRAGON<img id = ""stim"" ><div class = red_square id = ""topsquare"" ></div><img id = ""stim"" ><div class = red_square  id = ""bottomsquare"" ></div>",null,word_square,response,0,none,true,,,
html-keyboard-response,827,1527211,null,"DRAGON",null,word,,,,, 'DRAGON',,
html-keyboard-response,828,1527716,null,"SNOB<img id = ""stim"" ><div class = green_square id = ""topsquare"" ></div><img id = ""stim"" ><div class = green_square  id = ""bottomsquare"" ></div>",null,word_square,response,1,Space,false,,,
html-keyboard-response,829,1529220,null,"SNOB",null,word,,,,, 'SNOB',,
call-function,830,1529221,,"",,,,,,,,,
html-keyboard-response,831,1529324,null,"",null,,,,,,,,
math-period,832,1530892,3019.304999994114,"",,,,,,,,,4
html-keyboard-response,833,1530996,null,"",null,,,,,,,,
math-period,834,1533365,4629.559999986552,"",,,,,,,,,1
html-keyboard-response,835,1533469,null,"",null,,,,,,,,
math-period,836,1534492,1947.8249999959953,"",,,,,,,,,4
html-keyboard-response,837,1534595,null,"",null,,,,,,,,
math-period,838,1535834,2407.180000009481,"",,,,,,,,,3
html-keyboard-response,839,1535942,null,"",null,,,,,,,,
math-period,840,1537041,2122.899999987567,"",,,,,,,,,4
html-keyboard-response,841,1537146,null,"",null,,,,,,,,
math-period,842,1538862,3176.0899999933317,"",,,,,,,,,0
html-keyboard-response,843,1538967,null,"",null,,,,,,,,
math-period,844,1539881,1730.9200000162236,"",,,,,,,,,3
html-keyboard-response,845,1539985,null,"",null,,,,,,,,
math-period,846,1541447,2650.9050000023562,"",,,,,,,,,0
html-keyboard-response,847,1541551,null,"",null,,,,,,,,
math-period,848,1542558,1914.0100000076927,"",,,,,,,,,4
html-keyboard-response,849,1542664,null,"",null,,,,,,,,
math-period,850,1543547,1657.890000001993,"",,,,,,,,,3
html-keyboard-response,851,1543651,null,"",null,,,,,,,,
math-period,852,1544710,1997.1250000090804,"",,,,,,,,,5
html-keyboard-response,853,1544812,null,"",null,,,,,,,,
math-period,854,1545768,1819.1950000035577,"",,,,,,,,,3
html-keyboard-response,855,1545874,null,"",null,,,,,,,,
math-period,856,1547140,2439.285000000149,"",,,,,,,,,3
html-keyboard-response,857,1547243,null,"",null,,,,,,,,
math-period,858,1548072,1550.4149999904912,"",,,,,,,,,3
html-keyboard-response,859,1548179,null,"",null,,,,,,,,
math-period,860,1548997,1540.2449999966193,"",,,,,,,,,3
html-keyboard-response,861,1549101,null,"",null,,,,,,,,
math-period,862,1550518,2570.56999999634,"",,,,,,,,,0
html-keyboard-response,863,1550623,null,"",null,,,,,,,,
math-period,864,1551905,2442.854999986477,"",,,,,,,,,5
html-keyboard-response,865,1552010,null,"",null,,,,,,,,
math-period,866,1553004,1895.9450000110082,"",,,,,,,,,4
html-keyboard-response,867,1553107,null,"",null,,,,,,,,
math-period,868,1553224,null,"",,,,,,,,,
html-keyboard-response,869,1554228,null,"Recall Period!",null,,,,,,,,
call-function,870,1554229,,"",,,,,,,,,
html-keyboard-response,871,1554332,null,"",null,,,,,,,,
recall-period,872,1555930,6632.5350000117905,"",,,,,,,,,column
html-keyboard-response,873,1556033,null,"",null,,,,,,,,
recall-period,874,1556993,2850.820000036154,"",,,,,,,,,drag
html-keyboard-response,875,1557097,null,"",null,,,,,,,,
recall-period,876,1559734,15802.14499998046,"",,,,,,,,,hunter
html-keyboard-response,877,1559838,null,"",null,,,,,,,,
recall-period,878,1561641,8150.225000033854,"",,,,,,,,,queen
html-keyboard-response,879,1561745,null,"",null,,,,,,,,
recall-period,880,1629237,null,"",,,,,,,,,
html-keyboard-response,881,1629741,null,"Time's Up!",null,,,,,,,,
html-keyboard-response,882,1634401,4656.724999993574,"<p> Good job! You responded correctly to 84% of the GREEN squares.</p>
                  <p>Be sure to keep your accuracy above 80%</p>
                  <p>Press any key to continue the experiment. Thank you!</p>",32,,,,,,,,
html-keyboard-response,883,1639129,4724.695000011707,"<div style=""font-size:48px;"">Press any key to begin list 10 of 24 </div>",32,,,,,,,,
html-keyboard-response,884,1641636,null,"<div style=""font-size:60px;"">+</div>",null,,,,,,,,
html-keyboard-response,885,1642141,null,"ATTIC<img id = ""stim"" ><div class = red_square id = ""topsquare"" ></div><img id = ""stim"" ><div class = red_square  id = ""bottomsquare"" ></div>",null,word_square,response,0,none,true,,,
html-keyboard-response,886,1643644,null,"ATTIC",null,word,,,,, 'ATTIC',,
html-keyboard-response,887,1644150,null,"BENCH<img id = ""stim"" ><div class = red_square id = ""topsquare"" ></div><img id = ""stim"" ><div class = red_square  id = ""bottomsquare"" ></div>",null,word_square,response,0,none,true,,,
html-keyboard-response,888,1645652,null,"BENCH",null,word,,,,, 'BENCH',,
html-keyboard-response,889,1646159,null,"SEAFOOD<img id = ""stim"" ><div class = green_square id = ""topsquare"" ></div><img id = ""stim"" ><div class = green_square  id = ""bottomsquare"" ></div>",null,word_square,response,1,Space,false,,,
html-keyboard-response,890,1647661,null,"SEAFOOD",null,word,,,,, 'SEAFOOD',,
html-keyboard-response,891,1648110,446.62000000244007,"PIZZA<img id = ""stim"" ><div class = green_square id = ""topsquare"" ></div><img id = ""stim"" ><div class = green_square  id = ""bottomsquare"" ></div>",32,word_square,response,1,Space,true,,,
html-keyboard-response,892,1649618,null,"PIZZA",null,word,,,,, 'PIZZA',,
html-keyboard-response,893,1650123,null,"RIVER<img id = ""stim"" ><div class = red_square id = ""topsquare"" ></div><img id = ""stim"" ><div class = red_square  id = ""bottomsquare"" ></div>",null,word_square,response,0,none,true,,,
html-keyboard-response,894,1651627,null,"RIVER",null,word,,,,, 'RIVER',,
html-keyboard-response,895,1652051,421.3999999919906,"SLIDE<img id = ""stim"" ><div class = green_square id = ""topsquare"" ></div><img id = ""stim"" ><div class = green_square  id = ""bottomsquare"" ></div>",32,word_square,response,1,Space,true,,,
html-keyboard-response,896,1653554,null,"SLIDE",null,word,,,,, 'SLIDE',,
html-keyboard-response,897,1654059,null,"THREAD<img id = ""stim"" ><div class = red_square id = ""topsquare"" ></div><img id = ""stim"" ><div class = red_square  id = ""bottomsquare"" ></div>",null,word_square,response,0,none,true,,,
html-keyboard-response,898,1655563,null,"THREAD",null,word,,,,, 'THREAD',,
html-keyboard-response,899,1655947,382.6450000051409,"ORGAN<img id = ""stim"" ><div class = green_square id = ""topsquare"" ></div><img id = ""stim"" ><div class = green_square  id = ""bottomsquare"" ></div>",32,word_square,response,1,Space,true,,,
html-keyboard-response,900,1657450,null,"ORGAN",null,word,,,,, 'ORGAN',,
html-keyboard-response,901,1657846,394.3649999999907,"RAISIN<img id = ""stim"" ><div class = green_square id = ""topsquare"" ></div><img id = ""stim"" ><div class = green_square  id = ""bottomsquare"" ></div>",32,word_square,response,1,Space,true,,,
html-keyboard-response,902,1659353,null,"RAISIN",null,word,,,,, 'RAISIN',,
html-keyboard-response,903,1659858,null,"SENATE<img id = ""stim"" ><div class = red_square id = ""topsquare"" ></div><img id = ""stim"" ><div class = red_square  id = ""bottomsquare"" ></div>",null,word_square,response,0,none,true,,,
html-keyboard-response,904,1661363,null,"SENATE",null,word,,,,, 'SENATE',,
html-keyboard-response,905,1661701,335.76500001060776,"DAGGER<img id = ""stim"" ><div class = green_square id = ""topsquare"" ></div><img id = ""stim"" ><div class = green_square  id = ""bottomsquare"" ></div>",32,word_square,response,1,Space,true,,,
html-keyboard-response,906,1663208,null,"DAGGER",null,word,,,,, 'DAGGER',,
html-keyboard-response,907,1663589,378.58499999856576,"VICTOR<img id = ""stim"" ><div class = green_square id = ""topsquare"" ></div><img id = ""stim"" ><div class = green_square  id = ""bottomsquare"" ></div>",32,word_square,response,1,Space,true,,,
html-keyboard-response,908,1665096,null,"VICTOR",null,word,,,,, 'VICTOR',,
html-keyboard-response,909,1665600,null,"CHIPMUNK<img id = ""stim"" ><div class = red_square id = ""topsquare"" ></div><img id = ""stim"" ><div class = red_square  id = ""bottomsquare"" ></div>",null,word_square,response,0,none,true,,,
html-keyboard-response,910,1667106,null,"CHIPMUNK",null,word,,,,, 'CHIPMUNK',,
html-keyboard-response,911,1667608,null,"FLEET<img id = ""stim"" ><div class = red_square id = ""topsquare"" ></div><img id = ""stim"" ><div class = red_square  id = ""bottomsquare"" ></div>",null,word_square,response,0,none,true,,,
html-keyboard-response,912,1669112,null,"FLEET",null,word,,,,, 'FLEET',,
html-keyboard-response,913,1669427,313.3650000090711,"LOBBY<img id = ""stim"" ><div class = green_square id = ""topsquare"" ></div><img id = ""stim"" ><div class = green_square  id = ""bottomsquare"" ></div>",32,word_square,response,1,Space,true,,,
html-keyboard-response,914,1670935,null,"LOBBY",null,word,,,,, 'LOBBY',,
html-keyboard-response,915,1671440,null,"TOMBSTONE<img id = ""stim"" ><div class = red_square id = ""topsquare"" ></div><img id = ""stim"" ><div class = red_square  id = ""bottomsquare"" ></div>",null,word_square,response,0,none,true,,,
html-keyboard-response,916,1672943,null,"TOMBSTONE",null,word,,,,, 'TOMBSTONE',,
html-keyboard-response,917,1673448,null,"MILDEW<img id = ""stim"" ><div class = red_square id = ""topsquare"" ></div><img id = ""stim"" ><div class = red_square  id = ""bottomsquare"" ></div>",null,word_square,response,0,none,true,,,
html-keyboard-response,918,1674952,null,"MILDEW",null,word,,,,, 'MILDEW',,
html-keyboard-response,919,1675308,353.74500000011176,"SLIME<img id = ""stim"" ><div class = green_square id = ""topsquare"" ></div><img id = ""stim"" ><div class = green_square  id = ""bottomsquare"" ></div>",32,word_square,response,1,Space,true,,,
html-keyboard-response,920,1676815,null,"SLIME",null,word,,,,, 'SLIME',,
call-function,921,1676817,,"",,,,,,,,,
