trial_type,trial_index,time_elapsed,rt,stimulus,key_press,test_part,task,targ_cond,correctKeyCode,correct,word,value,response
pavlovia,0,354,,"",,,,,,,,,
external-html,1,2358,1997.1199999999953,"",,,,,,,,,
html-keyboard-response,2,4714,2353.4050000016578,"Welcome to the experiment. Press any key to begin.",76,,,,,,,,
html-keyboard-response,3,20389,15673.890000005485,"<p>You will see a list of words and colored squares in the following task.<p><p>Press the spacebar whenever you see a red square.<p><p>Do not press a key if the square is green<p><p>Press the spacebar to continue.</p>",32,,,,,,,,
html-keyboard-response,4,31604,10712.320000006002,"<p>Please try to remember as many of the words as you can, and try to think about the meaning of each word as it appears.<p><p>After the detection and encoding task you will be asked to solve some math problems for 24 seconds.<p> Please solve as many problems as you can in the time given. <p>",32,,,,,,,,
html-keyboard-response,5,42701,10594.010000000708,"After solving the math problems, you will be asked to type in as many words <p>from the previous list as you can remember for 75 seconds.<p> If you finish recalling before the 75 seconds are up,<p> just sit tight and try to think of any more words you could have missed. <p><p>We will begin with a brief practice session<p>Press the spacebar to begin the practice.</p>",32,,,,,,,,
html-keyboard-response,6,45208,null,"<div style=""font-size:60px;"">+</div>",null,,,,,,,,
html-keyboard-response,7,45714,null,"HAPPY<img id = ""stim"" ><div class = green_square id = ""topsquare"" ></div><img id = ""stim"" ><div class = green_square  id = ""bottomsquare"" ></div>",null,word_square,prac_response,0,none,true,,,
html-keyboard-response,8,47216,null,"HAPPY",null,word,,,,,HAPPY,,
html-keyboard-response,9,47719,433.29000000085216,"COLD<img id = ""stim"" ><div class = red_square id = ""topsquare"" ></div><img id = ""stim"" ><div class = red_square  id = ""bottomsquare"" ></div>",32,word_square,prac_response,1,Space,true,,,
html-keyboard-response,10,49222,null,"COLD",null,word,,,,,COLD,,
html-keyboard-response,11,49724,374.6850000025006,"HEAVY<img id = ""stim"" ><div class = red_square id = ""topsquare"" ></div><img id = ""stim"" ><div class = red_square  id = ""bottomsquare"" ></div>",32,word_square,prac_response,1,Space,true,,,
html-keyboard-response,12,51228,null,"HEAVY",null,word,,,,,HEAVY,,
html-keyboard-response,13,51731,null,"FUNNY<img id = ""stim"" ><div class = green_square id = ""topsquare"" ></div><img id = ""stim"" ><div class = green_square  id = ""bottomsquare"" ></div>",null,word_square,prac_response,0,none,true,,,
html-keyboard-response,14,53235,null,"FUNNY",null,word,,,,,FUNNY,,
html-keyboard-response,15,53741,368.11499999748776,"SCARY<img id = ""stim"" ><div class = red_square id = ""topsquare"" ></div><img id = ""stim"" ><div class = red_square  id = ""bottomsquare"" ></div>",32,word_square,prac_response,1,Space,true,,,
html-keyboard-response,16,55245,null,"SCARY",null,word,,,,,SCARY,,
html-keyboard-response,17,55749,431.31999999604886,"PEACEFUL<img id = ""stim"" ><div class = red_square id = ""topsquare"" ></div><img id = ""stim"" ><div class = red_square  id = ""bottomsquare"" ></div>",32,word_square,prac_response,1,Space,true,,,
html-keyboard-response,18,57254,null,"PEACEFUL",null,word,,,,,PEACEFUL,,
html-keyboard-response,19,57760,null,"LITTLE<img id = ""stim"" ><div class = green_square id = ""topsquare"" ></div><img id = ""stim"" ><div class = green_square  id = ""bottomsquare"" ></div>",null,word_square,prac_response,0,none,true,,,
html-keyboard-response,20,59265,null,"LITTLE",null,word,,,,,LITTLE,,
html-keyboard-response,21,59771,null,"TIRED<img id = ""stim"" ><div class = green_square id = ""topsquare"" ></div><img id = ""stim"" ><div class = green_square  id = ""bottomsquare"" ></div>",null,word_square,prac_response,0,none,true,,,
html-keyboard-response,22,61272,null,"TIRED",null,word,,,,,TIRED,,
html-keyboard-response,23,61774,null,"ENTERTAINING<img id = ""stim"" ><div class = green_square id = ""topsquare"" ></div><img id = ""stim"" ><div class = green_square  id = ""bottomsquare"" ></div>",null,word_square,prac_response,0,none,true,,,
html-keyboard-response,24,63276,null,"ENTERTAINING",null,word,,,,,ENTERTAINING,,
html-keyboard-response,25,63783,355.665000002773,"GRATEFUL<img id = ""stim"" ><div class = red_square id = ""topsquare"" ></div><img id = ""stim"" ><div class = red_square  id = ""bottomsquare"" ></div>",32,word_square,prac_response,1,Space,true,,,
html-keyboard-response,26,65285,null,"GRATEFUL",null,word,,,,,GRATEFUL,,
html-keyboard-response,27,65791,null,"LOUD<img id = ""stim"" ><div class = green_square id = ""topsquare"" ></div><img id = ""stim"" ><div class = green_square  id = ""bottomsquare"" ></div>",null,word_square,prac_response,0,none,true,,,
html-keyboard-response,28,67293,null,"LOUD",null,word,,,,,LOUD,,
html-keyboard-response,29,67795,341.3499999951455,"SMART<img id = ""stim"" ><div class = red_square id = ""topsquare"" ></div><img id = ""stim"" ><div class = red_square  id = ""bottomsquare"" ></div>",32,word_square,prac_response,1,Space,true,,,
html-keyboard-response,30,69301,null,"SMART",null,word,,,,,SMART,,
html-keyboard-response,31,69805,411.0800000053132,"SMOOTH<img id = ""stim"" ><div class = red_square id = ""topsquare"" ></div><img id = ""stim"" ><div class = red_square  id = ""bottomsquare"" ></div>",32,word_square,prac_response,1,Space,true,,,
html-keyboard-response,32,71307,null,"SMOOTH",null,word,,,,,SMOOTH,,
html-keyboard-response,33,71814,null,"DISHONEST<img id = ""stim"" ><div class = green_square id = ""topsquare"" ></div><img id = ""stim"" ><div class = green_square  id = ""bottomsquare"" ></div>",null,word_square,prac_response,0,none,true,,,
html-keyboard-response,34,73317,null,"DISHONEST",null,word,,,,,DISHONEST,,
html-keyboard-response,35,73822,326.1050000000978,"WEALTHY<img id = ""stim"" ><div class = red_square id = ""topsquare"" ></div><img id = ""stim"" ><div class = red_square  id = ""bottomsquare"" ></div>",32,word_square,prac_response,1,Space,true,,,
html-keyboard-response,36,75324,null,"WEALTHY",null,word,,,,,WEALTHY,,
html-keyboard-response,37,75831,null,"BEAUTIFUL<img id = ""stim"" ><div class = green_square id = ""topsquare"" ></div><img id = ""stim"" ><div class = green_square  id = ""bottomsquare"" ></div>",null,word_square,prac_response,0,none,true,,,
html-keyboard-response,38,77334,null,"BEAUTIFUL",null,word,,,,,BEAUTIFUL,,
html-keyboard-response,39,77837,null,"DREARY<img id = ""stim"" ><div class = green_square id = ""topsquare"" ></div><img id = ""stim"" ><div class = green_square  id = ""bottomsquare"" ></div>",null,word_square,prac_response,0,none,true,,,
html-keyboard-response,40,79344,null,"DREARY",null,word,,,,,DREARY,,
html-keyboard-response,41,79851,309.60999999661,"PLAYFUL<img id = ""stim"" ><div class = red_square id = ""topsquare"" ></div><img id = ""stim"" ><div class = red_square  id = ""bottomsquare"" ></div>",32,word_square,prac_response,1,Space,true,,,
html-keyboard-response,42,81355,null,"PLAYFUL",null,word,,,,,PLAYFUL,,
html-keyboard-response,43,85862,4504.505000004428,"<p> Good job! You responded correctly to 100% of the red squares.</p>
                  <p>Be sure to keep your accuracy above 80%</p>
                  <p>We're going to try once more to make sure you understand  the task. press any key to continue. </p>",32,,,,,,,,
html-keyboard-response,44,90059,4195.899999998801,"<p>You will see a list of words and colored squares in the following task.<p><p>Press the spacebar whenever you see a red square.<p><p>Do not press a key if the square is green<p><p>Press the spacebar to continue.</p>",32,,,,,,,,
html-keyboard-response,45,92569,null,"<div style=""font-size:60px;"">+</div>",null,,,,,,,,
html-keyboard-response,46,93073,null,"HAPPY<img id = ""stim"" ><div class = green_square id = ""topsquare"" ></div><img id = ""stim"" ><div class = green_square  id = ""bottomsquare"" ></div>",null,word_square,response,0,none,true,,,
html-keyboard-response,47,94575,null,"HAPPY",null,word,,,,,HAPPY,,
html-keyboard-response,48,94857,280.109999999695,"COLD<img id = ""stim"" ><div class = red_square id = ""topsquare"" ></div><img id = ""stim"" ><div class = red_square  id = ""bottomsquare"" ></div>",32,word_square,response,1,Space,true,,,
html-keyboard-response,49,96361,null,"COLD",null,word,,,,,COLD,,
html-keyboard-response,50,96697,335.175000000163,"HEAVY<img id = ""stim"" ><div class = red_square id = ""topsquare"" ></div><img id = ""stim"" ><div class = red_square  id = ""bottomsquare"" ></div>",32,word_square,response,1,Space,true,,,
html-keyboard-response,51,98204,null,"HEAVY",null,word,,,,,HEAVY,,
html-keyboard-response,52,98706,null,"FUNNY<img id = ""stim"" ><div class = green_square id = ""topsquare"" ></div><img id = ""stim"" ><div class = green_square  id = ""bottomsquare"" ></div>",null,word_square,response,0,none,true,,,
html-keyboard-response,53,100211,null,"FUNNY",null,word,,,,,FUNNY,,
html-keyboard-response,54,100509,296.04500000277767,"SCARY<img id = ""stim"" ><div class = red_square id = ""topsquare"" ></div><img id = ""stim"" ><div class = red_square  id = ""bottomsquare"" ></div>",32,word_square,response,1,Space,true,,,
html-keyboard-response,55,102014,null,"SCARY",null,word,,,,,SCARY,,
html-keyboard-response,56,102349,333.3450000063749,"PEACEFUL<img id = ""stim"" ><div class = red_square id = ""topsquare"" ></div><img id = ""stim"" ><div class = red_square  id = ""bottomsquare"" ></div>",32,word_square,response,1,Space,true,,,
html-keyboard-response,57,103852,null,"PEACEFUL",null,word,,,,,PEACEFUL,,
html-keyboard-response,58,104355,null,"LITTLE<img id = ""stim"" ><div class = green_square id = ""topsquare"" ></div><img id = ""stim"" ><div class = green_square  id = ""bottomsquare"" ></div>",null,word_square,response,0,none,true,,,
html-keyboard-response,59,105858,null,"LITTLE",null,word,,,,,LITTLE,,
html-keyboard-response,60,106363,null,"TIRED<img id = ""stim"" ><div class = green_square id = ""topsquare"" ></div><img id = ""stim"" ><div class = green_square  id = ""bottomsquare"" ></div>",null,word_square,response,0,none,true,,,
html-keyboard-response,61,107870,null,"TIRED",null,word,,,,,TIRED,,
html-keyboard-response,62,108373,null,"ENTERTAINING<img id = ""stim"" ><div class = green_square id = ""topsquare"" ></div><img id = ""stim"" ><div class = green_square  id = ""bottomsquare"" ></div>",null,word_square,response,0,none,true,,,
html-keyboard-response,63,109880,null,"ENTERTAINING",null,word,,,,,ENTERTAINING,,
html-keyboard-response,64,110180,299.31000000215136,"GRATEFUL<img id = ""stim"" ><div class = red_square id = ""topsquare"" ></div><img id = ""stim"" ><div class = red_square  id = ""bottomsquare"" ></div>",32,word_square,response,1,Space,true,,,
html-keyboard-response,65,111687,null,"GRATEFUL",null,word,,,,,GRATEFUL,,
html-keyboard-response,66,112191,null,"LOUD<img id = ""stim"" ><div class = green_square id = ""topsquare"" ></div><img id = ""stim"" ><div class = green_square  id = ""bottomsquare"" ></div>",null,word_square,response,0,none,true,,,
html-keyboard-response,67,113698,null,"LOUD",null,word,,,,,LOUD,,
html-keyboard-response,68,113989,289.7099999972852,"SMART<img id = ""stim"" ><div class = red_square id = ""topsquare"" ></div><img id = ""stim"" ><div class = red_square  id = ""bottomsquare"" ></div>",32,word_square,response,1,Space,true,,,
html-keyboard-response,69,115496,null,"SMART",null,word,,,,,SMART,,
html-keyboard-response,70,115924,426.89500000415137,"SMOOTH<img id = ""stim"" ><div class = red_square id = ""topsquare"" ></div><img id = ""stim"" ><div class = red_square  id = ""bottomsquare"" ></div>",32,word_square,response,1,Space,true,,,
html-keyboard-response,71,117430,null,"SMOOTH",null,word,,,,,SMOOTH,,
html-keyboard-response,72,117937,null,"DISHONEST<img id = ""stim"" ><div class = green_square id = ""topsquare"" ></div><img id = ""stim"" ><div class = green_square  id = ""bottomsquare"" ></div>",null,word_square,response,0,none,true,,,
html-keyboard-response,73,119444,null,"DISHONEST",null,word,,,,,DISHONEST,,
html-keyboard-response,74,119735,290.4950000011013,"WEALTHY<img id = ""stim"" ><div class = red_square id = ""topsquare"" ></div><img id = ""stim"" ><div class = red_square  id = ""bottomsquare"" ></div>",32,word_square,response,1,Space,true,,,
html-keyboard-response,75,121241,null,"WEALTHY",null,word,,,,,WEALTHY,,
html-keyboard-response,76,121742,null,"BEAUTIFUL<img id = ""stim"" ><div class = green_square id = ""topsquare"" ></div><img id = ""stim"" ><div class = green_square  id = ""bottomsquare"" ></div>",null,word_square,response,0,none,true,,,
html-keyboard-response,77,123249,null,"BEAUTIFUL",null,word,,,,,BEAUTIFUL,,
html-keyboard-response,78,123756,null,"DREARY<img id = ""stim"" ><div class = green_square id = ""topsquare"" ></div><img id = ""stim"" ><div class = green_square  id = ""bottomsquare"" ></div>",null,word_square,response,0,none,true,,,
html-keyboard-response,79,125261,null,"DREARY",null,word,,,,,DREARY,,
html-keyboard-response,80,125553,289.4899999955669,"PLAYFUL<img id = ""stim"" ><div class = red_square id = ""topsquare"" ></div><img id = ""stim"" ><div class = red_square  id = ""bottomsquare"" ></div>",32,word_square,response,1,Space,true,,,
html-keyboard-response,81,127060,null,"PLAYFUL",null,word,,,,,PLAYFUL,,
html-keyboard-response,82,135989,8927.660000001197,"<p> Good job! You responded correctly to 100% of the red squares.</p>
                  <p>Be sure to keep your accuracy above 80%</p>
                  <p>Press any key to begin the math and recall sections. Thank you!</p>",32,,,,,,,,
call-function,83,135990,,"",,,,,,,,,
html-keyboard-response,84,136093,null,"",null,,,,,,,,
math-period,85,141518,8445.855000005395,"",,,,,,,,,0
html-keyboard-response,86,141624,null,"",null,,,,,,,,
math-period,87,144880,6418.024999999034,"",,,,,,,,,3
html-keyboard-response,88,144984,null,"",null,,,,,,,,
math-period,89,147199,4321.8549999946845,"",,,,,,,,,4
html-keyboard-response,90,147302,null,"",null,,,,,,,,
math-period,91,149091,3514.8150000022724,"",,,,,,,,,1
html-keyboard-response,92,149195,null,"",null,,,,,,,,
math-period,93,151169,3659.3250000005355,"",,,,,,,,,4
html-keyboard-response,94,151272,null,"",null,,,,,,,,
math-period,95,152459,2303.6150000043563,"",,,,,,,,,4
html-keyboard-response,96,152561,null,"",null,,,,,,,,
math-period,97,154255,3306.0199999890756,"",,,,,,,,,1
html-keyboard-response,98,154358,null,"",null,,,,,,,,
math-period,99,155845,2914.39499999251,"",,,,,,,,,4
html-keyboard-response,100,155948,null,"",null,,,,,,,,
math-period,101,157041,2138.744999989285,"",,,,,,,,,3
html-keyboard-response,102,157145,null,"",null,,,,,,,,
math-period,103,158847,3319.3949999986216,"",,,,,,,,,5
html-keyboard-response,104,158949,null,"",null,,,,,,,,
math-period,105,159997,null,"",,,,,,,,,
html-keyboard-response,106,161004,null,"Recall Period!",null,,,,,,,,
call-function,107,161005,,"",,,,,,,,,
html-keyboard-response,108,161111,null,"",null,,,,,,,,
recall-period,109,173454,81662.96499998862,"",,,,,,,,,dready
html-keyboard-response,110,173558,null,"",null,,,,,,,,
recall-period,111,176383,14822.379999990517,"",,,,,,,,,happy
html-keyboard-response,112,176486,null,"",null,,,,,,,,
recall-period,113,177473,3313.7100000094506,"",,,,,,,,,cold
html-keyboard-response,114,177575,null,"",null,,,,,,,,
recall-period,115,185061,58865.96499999723,"",,,,,,,,,peaceful
html-keyboard-response,116,185164,null,"",null,,,,,,,,
recall-period,117,212896,190470.88499999518,"",,,,,,,,,lonely
html-keyboard-response,118,212999,null,"",null,,,,,,,,
recall-period,119,236011,null,"",,,,,,,,,
html-keyboard-response,120,236519,null,"Time's Up!",null,,,,,,,,
html-keyboard-response,121,246013,9493.265000004612,"<p>We will now begin the experiment!<p><p>Please try to remember all words from each list.<p><p>Press the spacebar whenever you see a red square.<p><p><p><p>Press the spacebar to begin.</p>",32,,,,,,,,
html-keyboard-response,122,252982,6467.109999997774,"<div style=""font-size:48px;"">Press any key to begin list 1 of 24 </div>",32,,,,,,,,
html-keyboard-response,123,255488,null,"<div style=""font-size:60px;"">+</div>",null,,,,,,,,
html-keyboard-response,124,255992,null,"COCOON<img id = ""stim"" ><div class = red_square id = ""topsquare"" ></div><img id = ""stim"" ><div class = red_square  id = ""bottomsquare"" ></div>",null,word_square,response,1,Space,false,,,
html-keyboard-response,125,257494,null,"COCOON",null,word,,,,, 'COCOON',,
html-keyboard-response,126,257894,399.0899999989779,"OYSTER<img id = ""stim"" ><div class = red_square id = ""topsquare"" ></div><img id = ""stim"" ><div class = red_square  id = ""bottomsquare"" ></div>",32,word_square,response,1,Space,true,,,
html-keyboard-response,127,259397,null,"OYSTER",null,word,,,,, 'OYSTER',,
html-keyboard-response,128,259904,null,"JOINT<img id = ""stim"" ><div class = green_square id = ""topsquare"" ></div><img id = ""stim"" ><div class = green_square  id = ""bottomsquare"" ></div>",null,word_square,response,0,none,true,,,
html-keyboard-response,129,261406,null,"JOINT",null,word,,,,, 'JOINT',,
html-keyboard-response,130,261731,324.1649999981746,"ELK<img id = ""stim"" ><div class = red_square id = ""topsquare"" ></div><img id = ""stim"" ><div class = red_square  id = ""bottomsquare"" ></div>",32,word_square,response,1,Space,true,,,
html-keyboard-response,131,263236,null,"ELK",null,word,,,,, 'ELK',,
html-keyboard-response,132,263737,null,"SIBLING<img id = ""stim"" ><div class = green_square id = ""topsquare"" ></div><img id = ""stim"" ><div class = green_square  id = ""bottomsquare"" ></div>",null,word_square,response,0,none,true,,,
html-keyboard-response,133,265244,null,"SIBLING",null,word,,,,, 'SIBLING',,
html-keyboard-response,134,265751,null,"MAILMAN<img id = ""stim"" ><div class = green_square id = ""topsquare"" ></div><img id = ""stim"" ><div class = green_square  id = ""bottomsquare"" ></div>",null,word_square,response,0,none,true,,,
html-keyboard-response,135,267253,null,"MAILMAN",null,word,,,,, 'MAILMAN',,
html-keyboard-response,136,267560,305.56999999680556,"DWARF<img id = ""stim"" ><div class = red_square id = ""topsquare"" ></div><img id = ""stim"" ><div class = red_square  id = ""bottomsquare"" ></div>",32,word_square,response,1,Space,true,,,
html-keyboard-response,137,269067,null,"DWARF",null,word,,,,, 'DWARF',,
html-keyboard-response,138,269573,null,"THRONE<img id = ""stim"" ><div class = green_square id = ""topsquare"" ></div><img id = ""stim"" ><div class = green_square  id = ""bottomsquare"" ></div>",null,word_square,response,0,none,true,,,
html-keyboard-response,139,271078,null,"THRONE",null,word,,,,, 'THRONE',,
html-keyboard-response,140,271362,282.76000000187196,"PALACE<img id = ""stim"" ><div class = red_square id = ""topsquare"" ></div><img id = ""stim"" ><div class = red_square  id = ""bottomsquare"" ></div>",32,word_square,response,1,Space,true,,,
html-keyboard-response,141,272869,null,"PALACE",null,word,,,,, 'PALACE',,
html-keyboard-response,142,273374,null,"SHEPHERD<img id = ""stim"" ><div class = green_square id = ""topsquare"" ></div><img id = ""stim"" ><div class = green_square  id = ""bottomsquare"" ></div>",null,word_square,response,0,none,true,,,
html-keyboard-response,143,274876,null,"SHEPHERD",null,word,,,,, 'SHEPHERD',,
html-keyboard-response,144,275382,null,"POND<img id = ""stim"" ><div class = green_square id = ""topsquare"" ></div><img id = ""stim"" ><div class = green_square  id = ""bottomsquare"" ></div>",null,word_square,response,0,none,true,,,
html-keyboard-response,145,276885,null,"POND",null,word,,,,, 'POND',,
html-keyboard-response,146,277169,283.145000001241,"SCARECROW<img id = ""stim"" ><div class = red_square id = ""topsquare"" ></div><img id = ""stim"" ><div class = red_square  id = ""bottomsquare"" ></div>",32,word_square,response,1,Space,true,,,
html-keyboard-response,147,278676,null,"SCARECROW",null,word,,,,, 'SCARECROW',,
html-keyboard-response,148,279178,null,"PERCH<img id = ""stim"" ><div class = green_square id = ""topsquare"" ></div><img id = ""stim"" ><div class = green_square  id = ""bottomsquare"" ></div>",null,word_square,response,0,none,true,,,
html-keyboard-response,149,280685,null,"PERCH",null,word,,,,, 'PERCH',,
html-keyboard-response,150,281000,313.6750000048778,"PICNIC<img id = ""stim"" ><div class = red_square id = ""topsquare"" ></div><img id = ""stim"" ><div class = red_square  id = ""bottomsquare"" ></div>",32,word_square,response,1,Space,true,,,
html-keyboard-response,151,282503,null,"PICNIC",null,word,,,,, 'PICNIC',,
html-keyboard-response,152,283009,null,"LEMON<img id = ""stim"" ><div class = green_square id = ""topsquare"" ></div><img id = ""stim"" ><div class = green_square  id = ""bottomsquare"" ></div>",null,word_square,response,0,none,true,,,
html-keyboard-response,153,284514,null,"LEMON",null,word,,,,, 'LEMON',,
html-keyboard-response,154,285021,null,"SHAMPOO<img id = ""stim"" ><div class = green_square id = ""topsquare"" ></div><img id = ""stim"" ><div class = green_square  id = ""bottomsquare"" ></div>",null,word_square,response,0,none,true,,,
html-keyboard-response,155,286525,null,"SHAMPOO",null,word,,,,, 'SHAMPOO',,
html-keyboard-response,156,286835,308.3200000037323,"LEADER<img id = ""stim"" ><div class = red_square id = ""topsquare"" ></div><img id = ""stim"" ><div class = red_square  id = ""bottomsquare"" ></div>",32,word_square,response,1,Space,true,,,
html-keyboard-response,157,288341,null,"LEADER",null,word,,,,, 'LEADER',,
html-keyboard-response,158,288703,361.4099999977043,"PIGMENT<img id = ""stim"" ><div class = red_square id = ""topsquare"" ></div><img id = ""stim"" ><div class = red_square  id = ""bottomsquare"" ></div>",32,word_square,response,1,Space,true,,,
html-keyboard-response,159,290210,null,"PIGMENT",null,word,,,,, 'PIGMENT',,
call-function,160,290211,,"",,,,,,,,,
html-keyboard-response,161,290314,null,"",null,,,,,,,,
math-period,162,292595,4489.469999993162,"",,,,,,,,,6
html-keyboard-response,163,292701,null,"",null,,,,,,,,
math-period,164,294110,2734.019999996235,"",,,,,,,,,4
html-keyboard-response,165,294213,null,"",null,,,,,,,,
math-period,166,295340,2072.555000006105,"",,,,,,,,,2
html-keyboard-response,167,295441,null,"",null,,,,,,,,
math-period,168,297319,3664.6850000033737,"",,,,,,,,,0
html-keyboard-response,169,297422,null,"",null,,,,,,,,
math-period,170,298875,2803.3099999956903,"",,,,,,,,,5
html-keyboard-response,171,298979,null,"",null,,,,,,,,
math-period,172,300642,3229.779999994207,"",,,,,,,,,4
html-keyboard-response,173,300745,null,"",null,,,,,,,,
math-period,174,302773,3980.389999996987,"",,,,,,,,,2
html-keyboard-response,175,302874,null,"",null,,,,,,,,
math-period,176,305008,7105.155000004743,"",,,,,,,,,6
html-keyboard-response,177,305111,null,"",null,,,,,,,,
math-period,178,306387,2463.755000004312,"",,,,,,,,,3
html-keyboard-response,179,306492,null,"",null,,,,,,,,
math-period,180,307454,1874.4900000019697,"",,,,,,,,,4
html-keyboard-response,181,307559,null,"",null,,,,,,,,
math-period,182,310010,4830.255000000761,"",,,,,,,,,0
html-keyboard-response,183,310114,null,"",null,,,,,,,,
math-period,184,312761,5110.074999996868,"",,,,,,,,,5
html-keyboard-response,185,312864,null,"",null,,,,,,,,
math-period,186,314217,null,"",,,,,,,,,
html-keyboard-response,187,315225,null,"Recall Period!",null,,,,,,,,
call-function,188,315226,,"",,,,,,,,,
html-keyboard-response,189,315330,null,"",null,,,,,,,,
recall-period,190,319426,24080.060000014782,"",,,,,,,,,oyster
html-keyboard-response,191,319530,null,"",null,,,,,,,,
recall-period,192,323572,18256.664999993518,"",,,,,,,,,picnic
html-keyboard-response,193,323675,null,"",null,,,,,,,,
recall-period,194,326113,11223.825000000943,"",,,,,,,,,cocoon
html-keyboard-response,195,326216,null,"",null,,,,,,,,
recall-period,196,328127,8830.570000012813,"",,,,,,,,,joint
html-keyboard-response,197,328230,null,"",null,,,,,,,,
recall-period,198,373957,180500.8600000001,"",,,,,,,,,elk
html-keyboard-response,199,374060,null,"",null,,,,,,,,
recall-period,200,390232,null,"",,,,,,,,,
html-keyboard-response,201,390734,null,"Time's Up!",null,,,,,,,,
html-keyboard-response,202,393366,2630.4700000036974,"<p> Good job! You responded correctly to 97% of the red squares.</p>
                  <p>Be sure to keep your accuracy above 80%</p>
                  <p>Press any key to continue the experiment. Thank you!</p>",32,,,,,,,,
html-keyboard-response,203,396542,3174.8349999979837,"<div style=""font-size:48px;"">Press any key to begin list 2 of 24 </div>",32,,,,,,,,
html-keyboard-response,204,399053,null,"<div style=""font-size:60px;"">+</div>",null,,,,,,,,
html-keyboard-response,205,399560,null,"SQUIRREL<img id = ""stim"" ><div class = red_square id = ""topsquare"" ></div><img id = ""stim"" ><div class = red_square  id = ""bottomsquare"" ></div>",null,word_square,response,1,Space,false,,,
html-keyboard-response,206,401062,null,"SQUIRREL",null,word,,,,, 'SQUIRREL',,
html-keyboard-response,207,401525,461.1250000016298,"MARKER<img id = ""stim"" ><div class = red_square id = ""topsquare"" ></div><img id = ""stim"" ><div class = red_square  id = ""bottomsquare"" ></div>",32,word_square,response,1,Space,true,,,
html-keyboard-response,208,403029,null,"MARKER",null,word,,,,, 'MARKER',,
html-keyboard-response,209,403532,null,"SLACKS<img id = ""stim"" ><div class = green_square id = ""topsquare"" ></div><img id = ""stim"" ><div class = green_square  id = ""bottomsquare"" ></div>",null,word_square,response,0,none,true,,,
html-keyboard-response,210,405039,null,"SLACKS",null,word,,,,, 'SLACKS',,
html-keyboard-response,211,405331,290.94500000064727,"DANDRUFF<img id = ""stim"" ><div class = red_square id = ""topsquare"" ></div><img id = ""stim"" ><div class = red_square  id = ""bottomsquare"" ></div>",32,word_square,response,1,Space,true,,,
html-keyboard-response,212,406838,null,"DANDRUFF",null,word,,,,, 'DANDRUFF',,
html-keyboard-response,213,407340,null,"FLASK<img id = ""stim"" ><div class = green_square id = ""topsquare"" ></div><img id = ""stim"" ><div class = green_square  id = ""bottomsquare"" ></div>",null,word_square,response,0,none,true,,,
html-keyboard-response,214,408843,null,"FLASK",null,word,,,,, 'FLASK',,
html-keyboard-response,215,409139,294.4350000034319,"MONGOOSE<img id = ""stim"" ><div class = green_square id = ""topsquare"" ></div><img id = ""stim"" ><div class = green_square  id = ""bottomsquare"" ></div>",32,word_square,response,0,none,false,,,
html-keyboard-response,216,410641,null,"MONGOOSE",null,word,,,,, 'MONGOOSE',,
html-keyboard-response,217,411010,367.6100000011502,"BUTLER<img id = ""stim"" ><div class = red_square id = ""topsquare"" ></div><img id = ""stim"" ><div class = red_square  id = ""bottomsquare"" ></div>",32,word_square,response,1,Space,true,,,
html-keyboard-response,218,412514,null,"BUTLER",null,word,,,,, 'BUTLER',,
html-keyboard-response,219,413021,null,"CHEST<img id = ""stim"" ><div class = green_square id = ""topsquare"" ></div><img id = ""stim"" ><div class = green_square  id = ""bottomsquare"" ></div>",null,word_square,response,0,none,true,,,
html-keyboard-response,220,414526,null,"CHEST",null,word,,,,, 'CHEST',,
html-keyboard-response,221,414825,298.1849999996484,"HEART<img id = ""stim"" ><div class = red_square id = ""topsquare"" ></div><img id = ""stim"" ><div class = red_square  id = ""bottomsquare"" ></div>",32,word_square,response,1,Space,true,,,
html-keyboard-response,222,416332,null,"HEART",null,word,,,,, 'HEART',,
html-keyboard-response,223,416839,null,"FROG<img id = ""stim"" ><div class = green_square id = ""topsquare"" ></div><img id = ""stim"" ><div class = green_square  id = ""bottomsquare"" ></div>",null,word_square,response,0,none,true,,,
html-keyboard-response,224,418343,null,"FROG",null,word,,,,, 'FROG',,
html-keyboard-response,225,418850,null,"BLACKBOARD<img id = ""stim"" ><div class = green_square id = ""topsquare"" ></div><img id = ""stim"" ><div class = green_square  id = ""bottomsquare"" ></div>",null,word_square,response,0,none,true,,,
html-keyboard-response,226,420357,null,"BLACKBOARD",null,word,,,,, 'BLACKBOARD',,
html-keyboard-response,227,420631,272.87999999680324,"RABBIT<img id = ""stim"" ><div class = red_square id = ""topsquare"" ></div><img id = ""stim"" ><div class = red_square  id = ""bottomsquare"" ></div>",32,word_square,response,1,Space,true,,,
html-keyboard-response,228,422133,null,"RABBIT",null,word,,,,, 'RABBIT',,
html-keyboard-response,229,422640,null,"STREAM<img id = ""stim"" ><div class = green_square id = ""topsquare"" ></div><img id = ""stim"" ><div class = green_square  id = ""bottomsquare"" ></div>",null,word_square,response,0,none,true,,,
html-keyboard-response,230,424146,null,"STREAM",null,word,,,,, 'STREAM',,
html-keyboard-response,231,424440,292.3199999931967,"CANAL<img id = ""stim"" ><div class = red_square id = ""topsquare"" ></div><img id = ""stim"" ><div class = red_square  id = ""bottomsquare"" ></div>",32,word_square,response,1,Space,true,,,
html-keyboard-response,232,425947,null,"CANAL",null,word,,,,, 'CANAL',,
html-keyboard-response,233,426453,null,"TORTOISE<img id = ""stim"" ><div class = green_square id = ""topsquare"" ></div><img id = ""stim"" ><div class = green_square  id = ""bottomsquare"" ></div>",null,word_square,response,0,none,true,,,
html-keyboard-response,234,427958,null,"TORTOISE",null,word,,,,, 'TORTOISE',,
html-keyboard-response,235,428465,null,"GROUND<img id = ""stim"" ><div class = green_square id = ""topsquare"" ></div><img id = ""stim"" ><div class = green_square  id = ""bottomsquare"" ></div>",null,word_square,response,0,none,true,,,
html-keyboard-response,236,429966,null,"GROUND",null,word,,,,, 'GROUND',,
html-keyboard-response,237,430271,303.2450000027893,"GRAVEL<img id = ""stim"" ><div class = red_square id = ""topsquare"" ></div><img id = ""stim"" ><div class = red_square  id = ""bottomsquare"" ></div>",32,word_square,response,1,Space,true,,,
html-keyboard-response,238,431777,null,"GRAVEL",null,word,,,,, 'GRAVEL',,
html-keyboard-response,239,432283,null,"WARDROBE<img id = ""stim"" ><div class = red_square id = ""topsquare"" ></div><img id = ""stim"" ><div class = red_square  id = ""bottomsquare"" ></div>",null,word_square,response,1,Space,false,,,
html-keyboard-response,240,433788,null,"WARDROBE",null,word,,,,, 'WARDROBE',,
call-function,241,433789,,"",,,,,,,,,
html-keyboard-response,242,433896,null,"",null,,,,,,,,
math-period,243,435843,3761.1200000028475,"",,,,,,,,,4
html-keyboard-response,244,435945,null,"",null,,,,,,,,
math-period,245,443303,14192.519999996875,"",,,,,,,,,1
html-keyboard-response,246,443406,null,"",null,,,,,,,,
math-period,247,444735,2564.075000002049,"",,,,,,,,,6
html-keyboard-response,248,444842,null,"",null,,,,,,,,
math-period,249,445982,2178.1099999934668,"",,,,,,,,,3
html-keyboard-response,250,446085,null,"",null,,,,,,,,
math-period,251,448876,5009.784999994736,"",,,,,,,,,1
html-keyboard-response,252,448979,null,"",null,,,,,,,,
math-period,253,450405,2739.4450000065262,"",,,,,,,,,4
html-keyboard-response,254,450508,null,"",null,,,,,,,,
math-period,255,454201,6921.125000008033,"",,,,,,,,,2
html-keyboard-response,256,454304,null,"",null,,,,,,,,
math-period,257,455627,2517.105000006268,"",,,,,,,,,1
html-keyboard-response,258,455732,null,"",null,,,,,,,,
math-period,259,456875,2214.46499999729,"",,,,,,,,,3
html-keyboard-response,260,456978,null,"",null,,,,,,,,
math-period,261,457794,null,"",,,,,,,,,
html-keyboard-response,262,458801,null,"Recall Period!",null,,,,,,,,
call-function,263,458802,,"",,,,,,,,,
html-keyboard-response,264,458908,null,"",null,,,,,,,,
recall-period,265,492601,231364.47999997472,"",,,,,,,,,racoom
html-keyboard-response,266,492708,null,"",null,,,,,,,,
recall-period,267,497849,63894.34999993682,"",,,,,,,,,racoon
html-keyboard-response,268,497952,null,"",null,,,,,,,,
recall-period,269,506158,53227.58500000782,"",,,,,,,,,rabbit
html-keyboard-response,270,506261,null,"",null,,,,,,,,
recall-period,271,509187,15890.334999989136,"",,,,,,,,,heart
html-keyboard-response,272,509290,null,"",null,,,,,,,,
recall-period,273,515656,45234.139999993204,"",,,,,,,,,pigment
html-keyboard-response,274,515759,null,"",null,,,,,,,,
recall-period,275,533808,null,"",,,,,,,,,
html-keyboard-response,276,534311,null,"Time's Up!",null,,,,,,,,
html-keyboard-response,277,537897,3584.340000001248,"<p> Good job! You responded correctly to 93% of the red squares.</p>
                  <p>Be sure to keep your accuracy above 80%</p>
                  <p>Press any key to continue the experiment. Thank you!</p>",32,,,,,,,,
html-keyboard-response,278,542684,4785.964999995427,"<div style=""font-size:48px;"">Press any key to begin list 3 of 24 </div>",32,,,,,,,,
html-keyboard-response,279,545193,null,"<div style=""font-size:60px;"">+</div>",null,,,,,,,,
html-keyboard-response,280,545700,null,"SODA<img id = ""stim"" ><div class = green_square id = ""topsquare"" ></div><img id = ""stim"" ><div class = green_square  id = ""bottomsquare"" ></div>",null,word_square,response,0,none,true,,,
html-keyboard-response,281,547202,null,"SODA",null,word,,,,, 'SODA',,
html-keyboard-response,282,547709,null,"CATTLE<img id = ""stim"" ><div class = green_square id = ""topsquare"" ></div><img id = ""stim"" ><div class = green_square  id = ""bottomsquare"" ></div>",null,word_square,response,0,none,true,,,
html-keyboard-response,283,549211,null,"CATTLE",null,word,,,,, 'CATTLE',,
html-keyboard-response,284,549605,393.21499999635853,"OX<img id = ""stim"" ><div class = red_square id = ""topsquare"" ></div><img id = ""stim"" ><div class = red_square  id = ""bottomsquare"" ></div>",32,word_square,response,1,Space,true,,,
html-keyboard-response,285,551110,null,"OX",null,word,,,,, 'OX',,
html-keyboard-response,286,551615,null,"SWIMMER<img id = ""stim"" ><div class = green_square id = ""topsquare"" ></div><img id = ""stim"" ><div class = green_square  id = ""bottomsquare"" ></div>",null,word_square,response,0,none,true,,,
html-keyboard-response,287,553121,null,"SWIMMER",null,word,,,,, 'SWIMMER',,
html-keyboard-response,288,553408,286.4950000003446,"PENCIL<img id = ""stim"" ><div class = red_square id = ""topsquare"" ></div><img id = ""stim"" ><div class = red_square  id = ""bottomsquare"" ></div>",32,word_square,response,1,Space,true,,,
html-keyboard-response,289,554910,null,"PENCIL",null,word,,,,, 'PENCIL',,
html-keyboard-response,290,555330,418.98000000219326,"CLIFF<img id = ""stim"" ><div class = red_square id = ""topsquare"" ></div><img id = ""stim"" ><div class = red_square  id = ""bottomsquare"" ></div>",32,word_square,response,1,Space,true,,,
html-keyboard-response,291,556836,null,"CLIFF",null,word,,,,, 'CLIFF',,
html-keyboard-response,292,557343,null,"SCOUT<img id = ""stim"" ><div class = green_square id = ""topsquare"" ></div><img id = ""stim"" ><div class = green_square  id = ""bottomsquare"" ></div>",null,word_square,response,0,none,true,,,
html-keyboard-response,293,558845,null,"SCOUT",null,word,,,,, 'SCOUT',,
html-keyboard-response,294,559155,309.6000000005588,"STRING<img id = ""stim"" ><div class = red_square id = ""topsquare"" ></div><img id = ""stim"" ><div class = red_square  id = ""bottomsquare"" ></div>",32,word_square,response,1,Space,true,,,
html-keyboard-response,295,560661,null,"STRING",null,word,,,,, 'STRING',,
html-keyboard-response,296,561168,null,"STALLION<img id = ""stim"" ><div class = green_square id = ""topsquare"" ></div><img id = ""stim"" ><div class = green_square  id = ""bottomsquare"" ></div>",null,word_square,response,0,none,true,,,
html-keyboard-response,297,562670,null,"STALLION",null,word,,,,, 'STALLION',,
html-keyboard-response,298,562921,249.44500000122935,"BATHTUB<img id = ""stim"" ><div class = red_square id = ""topsquare"" ></div><img id = ""stim"" ><div class = red_square  id = ""bottomsquare"" ></div>",32,word_square,response,1,Space,true,,,
html-keyboard-response,299,564427,null,"BATHTUB",null,word,,,,, 'BATHTUB',,
html-keyboard-response,300,564787,358.60999999567866,"ANGEL<img id = ""stim"" ><div class = red_square id = ""topsquare"" ></div><img id = ""stim"" ><div class = red_square  id = ""bottomsquare"" ></div>",32,word_square,response,1,Space,true,,,
html-keyboard-response,301,566294,null,"ANGEL",null,word,,,,, 'ANGEL',,
html-keyboard-response,302,566799,null,"NEPTUNE<img id = ""stim"" ><div class = green_square id = ""topsquare"" ></div><img id = ""stim"" ><div class = green_square  id = ""bottomsquare"" ></div>",null,word_square,response,0,none,true,,,
html-keyboard-response,303,568306,null,"NEPTUNE",null,word,,,,, 'NEPTUNE',,
html-keyboard-response,304,568576,268.464999993681,"CAFE<img id = ""stim"" ><div class = red_square id = ""topsquare"" ></div><img id = ""stim"" ><div class = red_square  id = ""bottomsquare"" ></div>",32,word_square,response,1,Space,true,,,
html-keyboard-response,305,570082,null,"CAFE",null,word,,,,, 'CAFE',,
html-keyboard-response,306,570587,null,"COUSIN<img id = ""stim"" ><div class = green_square id = ""topsquare"" ></div><img id = ""stim"" ><div class = green_square  id = ""bottomsquare"" ></div>",null,word_square,response,0,none,true,,,
html-keyboard-response,307,572089,null,"COUSIN",null,word,,,,, 'COUSIN',,
html-keyboard-response,308,572352,261.66000000364147,"PARENT<img id = ""stim"" ><div class = red_square id = ""topsquare"" ></div><img id = ""stim"" ><div class = red_square  id = ""bottomsquare"" ></div>",32,word_square,response,1,Space,true,,,
html-keyboard-response,309,573859,null,"PARENT",null,word,,,,, 'PARENT',,
html-keyboard-response,310,574212,352.1399999954738,"LAVA<img id = ""stim"" ><div class = red_square id = ""topsquare"" ></div><img id = ""stim"" ><div class = red_square  id = ""bottomsquare"" ></div>",32,word_square,response,1,Space,true,,,
html-keyboard-response,311,575718,null,"LAVA",null,word,,,,, 'LAVA',,
html-keyboard-response,312,576225,null,"GALLON<img id = ""stim"" ><div class = green_square id = ""topsquare"" ></div><img id = ""stim"" ><div class = green_square  id = ""bottomsquare"" ></div>",null,word_square,response,0,none,true,,,
html-keyboard-response,313,577727,null,"GALLON",null,word,,,,, 'GALLON',,
html-keyboard-response,314,578234,null,"SILK<img id = ""stim"" ><div class = green_square id = ""topsquare"" ></div><img id = ""stim"" ><div class = green_square  id = ""bottomsquare"" ></div>",null,word_square,response,0,none,true,,,
html-keyboard-response,315,579737,null,"SILK",null,word,,,,, 'SILK',,
call-function,316,579738,,"",,,,,,,,,
html-keyboard-response,317,579845,null,"",null,,,,,,,,
math-period,318,581982,4150.740000004647,"",,,,,,,,,4
html-keyboard-response,319,582087,null,"",null,,,,,,,,
math-period,320,585183,5889.534999994794,"",,,,,,,,,5
html-keyboard-response,321,585288,null,"",null,,,,,,,,
math-period,322,591224,62708.56500002148,"",,,,,,,,,0
html-keyboard-response,323,591327,null,"",null,,,,,,,,
math-period,324,593160,3123.149999999325,"",,,,,,,,,4
html-keyboard-response,325,593263,null,"",null,,,,,,,,
math-period,326,594500,2380.5649999994785,"",,,,,,,,,6
html-keyboard-response,327,594603,null,"",null,,,,,,,,
math-period,328,595508,1706.0199999979232,"",,,,,,,,,6
html-keyboard-response,329,595611,null,"",null,,,,,,,,
math-period,330,597022,2769.1049999995157,"",,,,,,,,,5
html-keyboard-response,331,597128,null,"",null,,,,,,,,
math-period,332,598482,2657.6750000022585,"",,,,,,,,,1
html-keyboard-response,333,598587,null,"",null,,,,,,,,
math-period,334,599671,2102.2700000028126,"",,,,,,,,,3
html-keyboard-response,335,599773,null,"",null,,,,,,,,
math-period,336,600823,2029.790000000503,"",,,,,,,,,3
html-keyboard-response,337,600927,null,"",null,,,,,,,,
math-period,338,603745,2558.505000000936,"",,,,,,,,,3
html-keyboard-response,339,604750,null,"Recall Period!",null,,,,,,,,
call-function,340,604751,,"",,,,,,,,,
html-keyboard-response,341,604855,null,"",null,,,,,,,,
recall-period,342,606903,2046.409999995376,"",,,,,,,,,
html-keyboard-response,343,607006,null,"",null,,,,,,,,
recall-period,344,608170,5861.379999994882,"",,,,,,,,,cattle
html-keyboard-response,345,608273,null,"",null,,,,,,,,
recall-period,346,609830,6421.924999987823,"",,,,,,,,,cafe
html-keyboard-response,347,609933,null,"",null,,,,,,,,
recall-period,348,613383,14033.734999989974,"",,,,,,,,,lava
html-keyboard-response,349,613488,null,"",null,,,,,,,,
recall-period,350,614956,6549.584999986226,"",,,,,,,,,stone
html-keyboard-response,351,615059,null,"",null,,,,,,,,
recall-period,352,622679,75888.81500001356,"",,,,,,,,,bathtub
html-keyboard-response,353,622782,null,"",null,,,,,,,,
recall-period,354,679759,null,"",,,,,,,,,
html-keyboard-response,355,680266,null,"Time's Up!",null,,,,,,,,
html-keyboard-response,356,682442,2174.4150000012014,"<p> Good job! You responded correctly to 94% of the red squares.</p>
                  <p>Be sure to keep your accuracy above 80%</p>
                  <p>Press any key to continue the experiment. Thank you!</p>",32,,,,,,,,
html-keyboard-response,357,685743,3300.1900000018068,"<div style=""font-size:48px;"">Press any key to begin list 4 of 24 </div>",32,,,,,,,,
html-keyboard-response,358,688254,null,"<div style=""font-size:60px;"">+</div>",null,,,,,,,,
html-keyboard-response,359,688760,null,"VENUS<img id = ""stim"" ><div class = green_square id = ""topsquare"" ></div><img id = ""stim"" ><div class = green_square  id = ""bottomsquare"" ></div>",null,word_square,response,0,none,true,,,
html-keyboard-response,360,690262,null,"VENUS",null,word,,,,, 'VENUS',,
html-keyboard-response,361,690766,null,"WOLF<img id = ""stim"" ><div class = green_square id = ""topsquare"" ></div><img id = ""stim"" ><div class = green_square  id = ""bottomsquare"" ></div>",null,word_square,response,0,none,true,,,
html-keyboard-response,362,692273,null,"WOLF",null,word,,,,, 'WOLF',,
html-keyboard-response,363,692605,330.7749999947846,"DASHBOARD<img id = ""stim"" ><div class = red_square id = ""topsquare"" ></div><img id = ""stim"" ><div class = red_square  id = ""bottomsquare"" ></div>",32,word_square,response,1,Space,true,,,
html-keyboard-response,364,694111,null,"DASHBOARD",null,word,,,,, 'DASHBOARD',,
html-keyboard-response,365,694618,null,"WORLD<img id = ""stim"" ><div class = green_square id = ""topsquare"" ></div><img id = ""stim"" ><div class = green_square  id = ""bottomsquare"" ></div>",null,word_square,response,0,none,true,,,
html-keyboard-response,366,696125,null,"WORLD",null,word,,,,, 'WORLD',,
html-keyboard-response,367,696477,351.07000000425614,"CLERK<img id = ""stim"" ><div class = red_square id = ""topsquare"" ></div><img id = ""stim"" ><div class = red_square  id = ""bottomsquare"" ></div>",32,word_square,response,1,Space,true,,,
html-keyboard-response,368,697979,null,"CLERK",null,word,,,,, 'CLERK',,
html-keyboard-response,369,698303,322.2749999985099,"TRUCK<img id = ""stim"" ><div class = red_square id = ""topsquare"" ></div><img id = ""stim"" ><div class = red_square  id = ""bottomsquare"" ></div>",32,word_square,response,1,Space,true,,,
html-keyboard-response,370,699808,null,"TRUCK",null,word,,,,, 'TRUCK',,
html-keyboard-response,371,700311,null,"PLANET<img id = ""stim"" ><div class = green_square id = ""topsquare"" ></div><img id = ""stim"" ><div class = green_square  id = ""bottomsquare"" ></div>",null,word_square,response,0,none,true,,,
html-keyboard-response,372,701818,null,"PLANET",null,word,,,,, 'PLANET',,
html-keyboard-response,373,702132,312.91500000213273,"RUST<img id = ""stim"" ><div class = red_square id = ""topsquare"" ></div><img id = ""stim"" ><div class = red_square  id = ""bottomsquare"" ></div>",32,word_square,response,1,Space,true,,,
html-keyboard-response,374,703637,null,"RUST",null,word,,,,, 'RUST',,
html-keyboard-response,375,704141,null,"PATIENT<img id = ""stim"" ><div class = green_square id = ""topsquare"" ></div><img id = ""stim"" ><div class = green_square  id = ""bottomsquare"" ></div>",null,word_square,response,0,none,true,,,
html-keyboard-response,376,705647,null,"PATIENT",null,word,,,,, 'PATIENT',,
html-keyboard-response,377,705999,351.0150000001304,"COMET<img id = ""stim"" ><div class = red_square id = ""topsquare"" ></div><img id = ""stim"" ><div class = red_square  id = ""bottomsquare"" ></div>",32,word_square,response,1,Space,true,,,
html-keyboard-response,378,707506,null,"COMET",null,word,,,,, 'COMET',,
html-keyboard-response,379,707930,423.21500000252854,"GUARD<img id = ""stim"" ><div class = red_square id = ""topsquare"" ></div><img id = ""stim"" ><div class = red_square  id = ""bottomsquare"" ></div>",32,word_square,response,1,Space,true,,,
html-keyboard-response,380,709434,null,"GUARD",null,word,,,,, 'GUARD',,
html-keyboard-response,381,709941,null,"TIMBER<img id = ""stim"" ><div class = green_square id = ""topsquare"" ></div><img id = ""stim"" ><div class = green_square  id = ""bottomsquare"" ></div>",null,word_square,response,0,none,true,,,
html-keyboard-response,382,711446,null,"TIMBER",null,word,,,,, 'TIMBER',,
html-keyboard-response,383,711725,277.6049999955576,"MARKET<img id = ""stim"" ><div class = red_square id = ""topsquare"" ></div><img id = ""stim"" ><div class = red_square  id = ""bottomsquare"" ></div>",32,word_square,response,1,Space,true,,,
html-keyboard-response,384,713231,null,"MARKET",null,word,,,,, 'MARKET',,
html-keyboard-response,385,713734,null,"PLAZA<img id = ""stim"" ><div class = green_square id = ""topsquare"" ></div><img id = ""stim"" ><div class = green_square  id = ""bottomsquare"" ></div>",null,word_square,response,0,none,true,,,
html-keyboard-response,386,715236,null,"PLAZA",null,word,,,,, 'PLAZA',,
html-keyboard-response,387,715529,291.97999999439344,"NURSE<img id = ""stim"" ><div class = red_square id = ""topsquare"" ></div><img id = ""stim"" ><div class = red_square  id = ""bottomsquare"" ></div>",32,word_square,response,1,Space,true,,,
html-keyboard-response,388,717034,null,"NURSE",null,word,,,,, 'NURSE',,
html-keyboard-response,389,717363,327.7349999989383,"DOORBELL<img id = ""stim"" ><div class = red_square id = ""topsquare"" ></div><img id = ""stim"" ><div class = red_square  id = ""bottomsquare"" ></div>",32,word_square,response,1,Space,true,,,
html-keyboard-response,390,718865,null,"DOORBELL",null,word,,,,, 'DOORBELL',,
html-keyboard-response,391,719368,null,"DUSTPAN<img id = ""stim"" ><div class = green_square id = ""topsquare"" ></div><img id = ""stim"" ><div class = green_square  id = ""bottomsquare"" ></div>",null,word_square,response,0,none,true,,,
html-keyboard-response,392,720874,null,"DUSTPAN",null,word,,,,, 'DUSTPAN',,
html-keyboard-response,393,721376,null,"NAPKIN<img id = ""stim"" ><div class = green_square id = ""topsquare"" ></div><img id = ""stim"" ><div class = green_square  id = ""bottomsquare"" ></div>",null,word_square,response,0,none,true,,,
html-keyboard-response,394,722883,null,"NAPKIN",null,word,,,,, 'NAPKIN',,
call-function,395,722884,,"",,,,,,,,,
html-keyboard-response,396,722991,null,"",null,,,,,,,,
math-period,397,725159,4233.195000007981,"",,,,,,,,,5
html-keyboard-response,398,725262,null,"",null,,,,,,,,
math-period,399,726411,2224.1750000030734,"",,,,,,,,,3
html-keyboard-response,400,726515,null,"",null,,,,,,,,
math-period,401,733251,21592.160000007483,"",,,,,,,,,2
html-keyboard-response,402,733354,null,"",null,,,,,,,,
math-period,403,736930,6974.184999999357,"",,,,,,,,,2
html-keyboard-response,404,737032,null,"",null,,,,,,,,
math-period,405,740746,7313.62000000081,"",,,,,,,,,1
html-keyboard-response,406,740850,null,"",null,,,,,,,,
math-period,407,743744,5084.899999994435,"",,,,,,,,,1
html-keyboard-response,408,743845,null,"",null,,,,,,,,
math-period,409,746891,null,"",,,,,,,,,
html-keyboard-response,410,747892,null,"Recall Period!",null,,,,,,,,
call-function,411,747893,,"",,,,,,,,,
html-keyboard-response,412,748000,null,"",null,,,,,,,,
recall-period,413,750935,13520.515000004205,"",,,,,,,,,venus
html-keyboard-response,414,751038,null,"",null,,,,,,,,
recall-period,415,755447,15972.070000025444,"",,,,,,,,,wolf
html-keyboard-response,416,755550,null,"",null,,,,,,,,
recall-period,417,801278,578143.4099999829,"",,,,,,,,,world
html-keyboard-response,418,801380,null,"",null,,,,,,,,
recall-period,419,822900,null,"",,,,,,,,,
html-keyboard-response,420,823404,null,"Time's Up!",null,,,,,,,,
html-keyboard-response,421,871100,47693.169999998645,"<p> Good job! You responded correctly to 96% of the red squares.</p>
                  <p>Be sure to keep your accuracy above 80%</p>
                  <p>Press any key to continue the experiment. Thank you!</p>",13,,,,,,,,
html-keyboard-response,422,872338,1236.4250000028405,"<div style=""font-size:48px;"">Press any key to begin list 5 of 24 </div>",13,,,,,,,,
html-keyboard-response,423,874846,null,"<div style=""font-size:60px;"">+</div>",null,,,,,,,,
html-keyboard-response,424,875353,null,"ACTOR<img id = ""stim"" ><div class = green_square id = ""topsquare"" ></div><img id = ""stim"" ><div class = green_square  id = ""bottomsquare"" ></div>",null,word_square,response,0,none,true,,,
html-keyboard-response,425,876856,null,"ACTOR",null,word,,,,, 'ACTOR',,
html-keyboard-response,426,877164,306.9000000031665,"ACTRESS<img id = ""stim"" ><div class = red_square id = ""topsquare"" ></div><img id = ""stim"" ><div class = red_square  id = ""bottomsquare"" ></div>",32,word_square,response,1,Space,true,,,
html-keyboard-response,427,878671,null,"ACTRESS",null,word,,,,, 'ACTRESS',,
html-keyboard-response,428,879177,null,"SWAMP<img id = ""stim"" ><div class = green_square id = ""topsquare"" ></div><img id = ""stim"" ><div class = green_square  id = ""bottomsquare"" ></div>",null,word_square,response,0,none,true,,,
html-keyboard-response,429,880684,null,"SWAMP",null,word,,,,, 'SWAMP',,
html-keyboard-response,430,880976,290.51500000059605,"SEAFOOD<img id = ""stim"" ><div class = red_square id = ""topsquare"" ></div><img id = ""stim"" ><div class = red_square  id = ""bottomsquare"" ></div>",32,word_square,response,1,Space,true,,,
html-keyboard-response,431,882482,null,"SEAFOOD",null,word,,,,, 'SEAFOOD',,
html-keyboard-response,432,882984,null,"PIANO<img id = ""stim"" ><div class = green_square id = ""topsquare"" ></div><img id = ""stim"" ><div class = green_square  id = ""bottomsquare"" ></div>",null,word_square,response,0,none,true,,,
html-keyboard-response,433,884491,null,"PIANO",null,word,,,,, 'PIANO',,
html-keyboard-response,434,884997,null,"LAUNDRY<img id = ""stim"" ><div class = green_square id = ""topsquare"" ></div><img id = ""stim"" ><div class = green_square  id = ""bottomsquare"" ></div>",null,word_square,response,0,none,true,,,
html-keyboard-response,435,886503,null,"LAUNDRY",null,word,,,,, 'LAUNDRY',,
html-keyboard-response,436,886790,285.45000000309665,"BOTTLE<img id = ""stim"" ><div class = red_square id = ""topsquare"" ></div><img id = ""stim"" ><div class = red_square  id = ""bottomsquare"" ></div>",32,word_square,response,1,Space,true,,,
html-keyboard-response,437,888291,null,"BOTTLE",null,word,,,,, 'BOTTLE',,
html-keyboard-response,438,888797,null,"CROWN<img id = ""stim"" ><div class = green_square id = ""topsquare"" ></div><img id = ""stim"" ><div class = green_square  id = ""bottomsquare"" ></div>",null,word_square,response,0,none,true,,,
html-keyboard-response,439,890299,null,"CROWN",null,word,,,,, 'CROWN',,
html-keyboard-response,440,890804,null,"COBRA<img id = ""stim"" ><div class = green_square id = ""topsquare"" ></div><img id = ""stim"" ><div class = green_square  id = ""bottomsquare"" ></div>",null,word_square,response,0,none,true,,,
html-keyboard-response,441,892307,null,"COBRA",null,word,,,,, 'COBRA',,
html-keyboard-response,442,892608,300.0400000018999,"LEOPARD<img id = ""stim"" ><div class = red_square id = ""topsquare"" ></div><img id = ""stim"" ><div class = red_square  id = ""bottomsquare"" ></div>",32,word_square,response,1,Space,true,,,
html-keyboard-response,443,894112,null,"LEOPARD",null,word,,,,, 'LEOPARD',,
html-keyboard-response,444,894619,null,"SOFA<img id = ""stim"" ><div class = green_square id = ""topsquare"" ></div><img id = ""stim"" ><div class = green_square  id = ""bottomsquare"" ></div>",null,word_square,response,0,none,true,,,
html-keyboard-response,445,896126,null,"SOFA",null,word,,,,, 'SOFA',,
html-keyboard-response,446,896633,null,"DIAMOND<img id = ""stim"" ><div class = green_square id = ""topsquare"" ></div><img id = ""stim"" ><div class = green_square  id = ""bottomsquare"" ></div>",null,word_square,response,0,none,true,,,
html-keyboard-response,447,898140,null,"DIAMOND",null,word,,,,, 'DIAMOND',,
html-keyboard-response,448,898447,305.7849999968894,"EAGLE<img id = ""stim"" ><div class = red_square id = ""topsquare"" ></div><img id = ""stim"" ><div class = red_square  id = ""bottomsquare"" ></div>",32,word_square,response,1,Space,true,,,
html-keyboard-response,449,899954,null,"EAGLE",null,word,,,,, 'EAGLE',,
html-keyboard-response,450,900403,447.8949999974575,"RIVER<img id = ""stim"" ><div class = red_square id = ""topsquare"" ></div><img id = ""stim"" ><div class = red_square  id = ""bottomsquare"" ></div>",32,word_square,response,1,Space,true,,,
html-keyboard-response,451,901907,null,"RIVER",null,word,,,,, 'RIVER',,
html-keyboard-response,452,902312,402.4649999992689,"PANTHER<img id = ""stim"" ><div class = red_square id = ""topsquare"" ></div><img id = ""stim"" ><div class = red_square  id = ""bottomsquare"" ></div>",32,word_square,response,1,Space,true,,,
html-keyboard-response,453,903813,null,"PANTHER",null,word,,,,, 'PANTHER',,
html-keyboard-response,454,904190,375.0200000067707,"SAPPHIRE<img id = ""stim"" ><div class = red_square id = ""topsquare"" ></div><img id = ""stim"" ><div class = red_square  id = ""bottomsquare"" ></div>",32,word_square,response,1,Space,true,,,
html-keyboard-response,455,905693,null,"SAPPHIRE",null,word,,,,, 'SAPPHIRE',,
html-keyboard-response,456,906197,null,"BOYFRIEND<img id = ""stim"" ><div class = green_square id = ""topsquare"" ></div><img id = ""stim"" ><div class = green_square  id = ""bottomsquare"" ></div>",null,word_square,response,0,none,true,,,
html-keyboard-response,457,907702,null,"BOYFRIEND",null,word,,,,, 'BOYFRIEND',,
html-keyboard-response,458,908021,317.1749999964377,"FEMALE<img id = ""stim"" ><div class = red_square id = ""topsquare"" ></div><img id = ""stim"" ><div class = red_square  id = ""bottomsquare"" ></div>",32,word_square,response,1,Space,true,,,
html-keyboard-response,459,909528,null,"FEMALE",null,word,,,,, 'FEMALE',,
call-function,460,909529,,"",,,,,,,,,
html-keyboard-response,461,909632,null,"",null,,,,,,,,
math-period,462,911674,3973.6449999982724,"",,,,,,,,,4
html-keyboard-response,463,911779,null,"",null,,,,,,,,
math-period,464,913480,2720.6350000051316,"",,,,,,,,,4
html-keyboard-response,465,913583,null,"",null,,,,,,,,
math-period,466,914624,1976.4350000041304,"",,,,,,,,,3
html-keyboard-response,467,914726,null,"",null,,,,,,,,
math-period,468,916235,2879.199999995879,"",,,,,,,,,3
html-keyboard-response,469,916339,null,"",null,,,,,,,,
math-period,470,917011,1254.2099999920465,"",,,,,,,,,3
html-keyboard-response,471,917114,null,"",null,,,,,,,,
math-period,472,918601,2895.7399999999907,"",,,,,,,,,1
html-keyboard-response,473,918704,null,"",null,,,,,,,,
math-period,474,920142,2792.6050000023097,"",,,,,,,,,4
html-keyboard-response,475,920246,null,"",null,,,,,,,,
math-period,476,921497,2445.9749999950873,"",,,,,,,,,5
html-keyboard-response,477,921598,null,"",null,,,,,,,,
math-period,478,923103,2912.6099999923026,"",,,,,,,,,4
html-keyboard-response,479,923206,null,"",null,,,,,,,,
math-period,480,924783,3078.070000003092,"",,,,,,,,,3
html-keyboard-response,481,924886,null,"",null,,,,,,,,
math-period,482,928417,6796.714999996708,"",,,,,,,,,1
html-keyboard-response,483,928520,null,"",null,,,,,,,,
math-period,484,930646,4171.189999993658,"",,,,,,,,,2
html-keyboard-response,485,930748,null,"",null,,,,,,,,
math-period,486,932798,3647.8949999946635,"",,,,,,,,,5
html-keyboard-response,487,932901,null,"",null,,,,,,,,
math-period,488,933535,null,"",,,,,,,,,
html-keyboard-response,489,934542,null,"Recall Period!",null,,,,,,,,
call-function,490,934543,,"",,,,,,,,,
html-keyboard-response,491,934647,null,"",null,,,,,,,,
recall-period,492,937402,12590.96999999031,"",,,,,,,,,actor
html-keyboard-response,493,937505,null,"",null,,,,,,,,
recall-period,494,940196,15790.834999985178,"",,,,,,,,,actress
html-keyboard-response,495,940299,null,"",null,,,,,,,,
recall-period,496,944404,8541.344999982859,"",,,,,,,,,cobra
html-keyboard-response,497,944506,null,"",null,,,,,,,,
recall-period,498,947783,7889.459999998682,"",,,,,,,,,eagle
html-keyboard-response,499,947886,null,"",null,,,,,,,,
recall-period,500,952516,33140.72000003152,"",,,,,,,,,sapphire
html-keyboard-response,501,952621,null,"",null,,,,,,,,
recall-period,502,954224,7360.270000019111,"",,,,,,,,,diamond
html-keyboard-response,503,954327,null,"",null,,,,,,,,
recall-period,504,961580,63344.350000028266,"",,,,,,,,,seafood
html-keyboard-response,505,961683,null,"",null,,,,,,,,
recall-period,506,975680,105185.49500002025,"",,,,,,,,,actress
html-keyboard-response,507,975783,null,"",null,,,,,,,,
recall-period,508,977783,7073.38999998325,"",,,,,,,,,actor
html-keyboard-response,509,977886,null,"",null,,,,,,,,
recall-period,510,1009945,null,"",,,,,,,,,
html-keyboard-response,511,1010451,null,"Time's Up!",null,,,,,,,,
html-keyboard-response,512,1012476,2023.909999996191,"<p> Good job! You responded correctly to 96% of the red squares.</p>
                  <p>Be sure to keep your accuracy above 80%</p>
                  <p>Press any key to continue the experiment. Thank you!</p>",13,,,,,,,,
html-keyboard-response,513,1015661,3183.2050000012387,"<div style=""font-size:48px;"">Press any key to begin list 6 of 24 </div>",13,,,,,,,,
html-keyboard-response,514,1018170,null,"<div style=""font-size:60px;"">+</div>",null,,,,,,,,
html-keyboard-response,515,1018675,null,"COUGAR<img id = ""stim"" ><div class = green_square id = ""topsquare"" ></div><img id = ""stim"" ><div class = green_square  id = ""bottomsquare"" ></div>",null,word_square,response,0,none,true,,,
html-keyboard-response,516,1020177,null,"COUGAR",null,word,,,,, 'COUGAR',,
html-keyboard-response,517,1020605,426.86500000115484,"NEUTRON<img id = ""stim"" ><div class = red_square id = ""topsquare"" ></div><img id = ""stim"" ><div class = red_square  id = ""bottomsquare"" ></div>",32,word_square,response,1,Space,true,,,
html-keyboard-response,518,1022112,null,"NEUTRON",null,word,,,,, 'NEUTRON',,
html-keyboard-response,519,1022614,null,"PROTON<img id = ""stim"" ><div class = green_square id = ""topsquare"" ></div><img id = ""stim"" ><div class = green_square  id = ""bottomsquare"" ></div>",null,word_square,response,0,none,true,,,
html-keyboard-response,520,1024119,null,"PROTON",null,word,,,,, 'PROTON',,
html-keyboard-response,521,1024428,307.01000000396743,"DRIVEWAY<img id = ""stim"" ><div class = red_square id = ""topsquare"" ></div><img id = ""stim"" ><div class = red_square  id = ""bottomsquare"" ></div>",32,word_square,response,1,Space,true,,,
html-keyboard-response,522,1025929,null,"DRIVEWAY",null,word,,,,, 'DRIVEWAY',,
html-keyboard-response,523,1026436,null,"TROPHY<img id = ""stim"" ><div class = green_square id = ""topsquare"" ></div><img id = ""stim"" ><div class = green_square  id = ""bottomsquare"" ></div>",null,word_square,response,0,none,true,,,
html-keyboard-response,524,1027943,null,"TROPHY",null,word,,,,, 'TROPHY',,
html-keyboard-response,525,1028449,null,"CELLAR<img id = ""stim"" ><div class = green_square id = ""topsquare"" ></div><img id = ""stim"" ><div class = green_square  id = ""bottomsquare"" ></div>",null,word_square,response,0,none,true,,,
html-keyboard-response,526,1029951,null,"CELLAR",null,word,,,,, 'CELLAR',,
html-keyboard-response,527,1030263,310.3850000043167,"BASEMENT<img id = ""stim"" ><div class = red_square id = ""topsquare"" ></div><img id = ""stim"" ><div class = red_square  id = ""bottomsquare"" ></div>",32,word_square,response,1,Space,true,,,
html-keyboard-response,528,1031767,null,"BASEMENT",null,word,,,,, 'BASEMENT',,
html-keyboard-response,529,1032273,null,"SAND<img id = ""stim"" ><div class = green_square id = ""topsquare"" ></div><img id = ""stim"" ><div class = green_square  id = ""bottomsquare"" ></div>",null,word_square,response,0,none,true,,,
html-keyboard-response,530,1033776,null,"SAND",null,word,,,,, 'SAND',,
html-keyboard-response,531,1034281,null,"TILE<img id = ""stim"" ><div class = green_square id = ""topsquare"" ></div><img id = ""stim"" ><div class = green_square  id = ""bottomsquare"" ></div>",null,word_square,response,0,none,true,,,
html-keyboard-response,532,1035788,null,"TILE",null,word,,,,, 'TILE',,
html-keyboard-response,533,1036097,307.5900000039255,"GIRL<img id = ""stim"" ><div class = red_square id = ""topsquare"" ></div><img id = ""stim"" ><div class = red_square  id = ""bottomsquare"" ></div>",32,word_square,response,1,Space,true,,,
html-keyboard-response,534,1037601,null,"GIRL",null,word,,,,, 'GIRL',,
html-keyboard-response,535,1038108,null,"TREAT<img id = ""stim"" ><div class = green_square id = ""topsquare"" ></div><img id = ""stim"" ><div class = green_square  id = ""bottomsquare"" ></div>",null,word_square,response,0,none,true,,,
html-keyboard-response,536,1039613,null,"TREAT",null,word,,,,, 'TREAT',,
html-keyboard-response,537,1040120,null,"APPLE<img id = ""stim"" ><div class = green_square id = ""topsquare"" ></div><img id = ""stim"" ><div class = green_square  id = ""bottomsquare"" ></div>",null,word_square,response,0,none,true,,,
html-keyboard-response,538,1041622,null,"APPLE",null,word,,,,, 'APPLE',,
html-keyboard-response,539,1041936,312.4499999976251,"JUNGLE<img id = ""stim"" ><div class = red_square id = ""topsquare"" ></div><img id = ""stim"" ><div class = red_square  id = ""bottomsquare"" ></div>",32,word_square,response,1,Space,true,,,
html-keyboard-response,540,1043441,null,"JUNGLE",null,word,,,,, 'JUNGLE',,
html-keyboard-response,541,1043801,359.2900000002701,"CUSTARD<img id = ""stim"" ><div class = red_square id = ""topsquare"" ></div><img id = ""stim"" ><div class = red_square  id = ""bottomsquare"" ></div>",32,word_square,response,1,Space,true,,,
html-keyboard-response,542,1045308,null,"CUSTARD",null,word,,,,, 'CUSTARD',,
html-keyboard-response,543,1045674,363.92500000516884,"KEYBOARD<img id = ""stim"" ><div class = red_square id = ""topsquare"" ></div><img id = ""stim"" ><div class = red_square  id = ""bottomsquare"" ></div>",32,word_square,response,1,Space,true,,,
html-keyboard-response,544,1047181,null,"KEYBOARD",null,word,,,,, 'KEYBOARD',,
html-keyboard-response,545,1047529,346.2950000029523,"STRANGER<img id = ""stim"" ><div class = red_square id = ""topsquare"" ></div><img id = ""stim"" ><div class = red_square  id = ""bottomsquare"" ></div>",32,word_square,response,1,Space,true,,,
html-keyboard-response,546,1049031,null,"STRANGER",null,word,,,,, 'STRANGER',,
html-keyboard-response,547,1049532,null,"RADISH<img id = ""stim"" ><div class = green_square id = ""topsquare"" ></div><img id = ""stim"" ><div class = green_square  id = ""bottomsquare"" ></div>",null,word_square,response,0,none,true,,,
html-keyboard-response,548,1051039,null,"RADISH",null,word,,,,, 'RADISH',,
html-keyboard-response,549,1051369,327.7049999961164,"ORGAN<img id = ""stim"" ><div class = red_square id = ""topsquare"" ></div><img id = ""stim"" ><div class = red_square  id = ""bottomsquare"" ></div>",32,word_square,response,1,Space,true,,,
html-keyboard-response,550,1052879,null,"ORGAN",null,word,,,,, 'ORGAN',,
call-function,551,1052879,,"",,,,,,,,,
html-keyboard-response,552,1052985,null,"",null,,,,,,,,
math-period,553,1054743,3278.8550000041723,"",,,,,,,,,3
html-keyboard-response,554,1054846,null,"",null,,,,,,,,
math-period,555,1056614,3296.640000000363,"",,,,,,,,,0
html-keyboard-response,556,1056718,null,"",null,,,,,,,,
math-period,557,1058376,3049.8649999937043,"",,,,,,,,,0
html-keyboard-response,558,1058479,null,"",null,,,,,,,,
math-period,559,1059952,2791.4400000078604,"",,,,,,,,,6
html-keyboard-response,560,1060055,null,"",null,,,,,,,,
math-period,561,1063701,7022.3000000042375,"",,,,,,,,,1
html-keyboard-response,562,1063804,null,"",null,,,,,,,,
math-period,563,1066703,5687.885000006529,"",,,,,,,,,2
html-keyboard-response,564,1066805,null,"",null,,,,,,,,
math-period,565,1068359,2988.2799999976996,"",,,,,,,,,5
html-keyboard-response,566,1068463,null,"",null,,,,,,,,
math-period,567,1071339,5414.040000003297,"",,,,,,,,,0
html-keyboard-response,568,1071442,null,"",null,,,,,,,,
math-period,569,1072826,2368.6699999962,"",,,,,,,,,3
html-keyboard-response,570,1072929,null,"",null,,,,,,,,
math-period,571,1076887,2901.87999999756,"",,,,,,,,,3
html-keyboard-response,572,1077895,null,"Recall Period!",null,,,,,,,,
call-function,573,1077896,,"",,,,,,,,,
html-keyboard-response,574,1078002,null,"",null,,,,,,,,
recall-period,575,1081534,17272.869999985676,"",,,,,,,,,cougar
html-keyboard-response,576,1081637,null,"",null,,,,,,,,
recall-period,577,1084388,11812.669999998761,"",,,,,,,,,neutron
html-keyboard-response,578,1084491,null,"",null,,,,,,,,
recall-period,579,1085308,1912.3450000185985,"",,,,,,,,,girl
html-keyboard-response,580,1085411,null,"",null,,,,,,,,
recall-period,581,1086739,4676.939999997383,"",,,,,,,,,treat
html-keyboard-response,582,1086841,null,"",null,,,,,,,,
recall-period,583,1089019,9703.680000013672,"",,,,,,,,,jungle
html-keyboard-response,584,1089122,null,"",null,,,,,,,,
recall-period,585,1090877,6343.840000001481,"",,,,,,,,,proton
html-keyboard-response,586,1090979,null,"",null,,,,,,,,
recall-period,587,1152906,null,"",,,,,,,,,
html-keyboard-response,588,1153411,null,"Time's Up!",null,,,,,,,,
html-keyboard-response,589,1160050,6636.9750000010245,"<p> Good job! You responded correctly to 97% of the red squares.</p>
                  <p>Be sure to keep your accuracy above 80%</p>
                  <p>Press any key to continue the experiment. Thank you!</p>",13,,,,,,,,
html-keyboard-response,590,1164204,4152.699999998789,"<div style=""font-size:48px;"">Press any key to begin list 7 of 24 </div>",13,,,,,,,,
html-keyboard-response,591,1166710,null,"<div style=""font-size:60px;"">+</div>",null,,,,,,,,
html-keyboard-response,592,1167212,null,"POCKET<img id = ""stim"" ><div class = red_square id = ""topsquare"" ></div><img id = ""stim"" ><div class = red_square  id = ""bottomsquare"" ></div>",null,word_square,response,1,Space,false,,,
html-keyboard-response,593,1168716,null,"POCKET",null,word,,,,, 'POCKET',,
html-keyboard-response,594,1169223,null,"DOCK<img id = ""stim"" ><div class = green_square id = ""topsquare"" ></div><img id = ""stim"" ><div class = green_square  id = ""bottomsquare"" ></div>",null,word_square,response,0,none,true,,,
html-keyboard-response,595,1170725,null,"DOCK",null,word,,,,, 'DOCK',,
html-keyboard-response,596,1171059,332.24999999953434,"SENATE<img id = ""stim"" ><div class = red_square id = ""topsquare"" ></div><img id = ""stim"" ><div class = red_square  id = ""bottomsquare"" ></div>",32,word_square,response,1,Space,true,,,
html-keyboard-response,597,1172566,null,"SENATE",null,word,,,,, 'SENATE',,
html-keyboard-response,598,1173073,null,"SAUCER<img id = ""stim"" ><div class = green_square id = ""topsquare"" ></div><img id = ""stim"" ><div class = green_square  id = ""bottomsquare"" ></div>",null,word_square,response,0,none,true,,,
html-keyboard-response,599,1174580,null,"SAUCER",null,word,,,,, 'SAUCER',,
html-keyboard-response,600,1174887,306.2999999965541,"GODDESS<img id = ""stim"" ><div class = red_square id = ""topsquare"" ></div><img id = ""stim"" ><div class = red_square  id = ""bottomsquare"" ></div>",32,word_square,response,1,Space,true,,,
html-keyboard-response,601,1176394,null,"GODDESS",null,word,,,,, 'GODDESS',,
html-keyboard-response,602,1176765,369.34000000497326,"WAGON<img id = ""stim"" ><div class = red_square id = ""topsquare"" ></div><img id = ""stim"" ><div class = red_square  id = ""bottomsquare"" ></div>",32,word_square,response,1,Space,true,,,
html-keyboard-response,603,1178267,null,"WAGON",null,word,,,,, 'WAGON',,
html-keyboard-response,604,1178769,null,"MOTOR<img id = ""stim"" ><div class = green_square id = ""topsquare"" ></div><img id = ""stim"" ><div class = green_square  id = ""bottomsquare"" ></div>",null,word_square,response,0,none,true,,,
html-keyboard-response,605,1180275,null,"MOTOR",null,word,,,,, 'MOTOR',,
html-keyboard-response,606,1180564,287.2700000004843,"HAMMER<img id = ""stim"" ><div class = red_square id = ""topsquare"" ></div><img id = ""stim"" ><div class = red_square  id = ""bottomsquare"" ></div>",32,word_square,response,1,Space,true,,,
html-keyboard-response,607,1182071,null,"HAMMER",null,word,,,,, 'HAMMER',,
html-keyboard-response,608,1182362,290.0950000039302,"CHEMIST<img id = ""stim"" ><div class = red_square id = ""topsquare"" ></div><img id = ""stim"" ><div class = red_square  id = ""bottomsquare"" ></div>",32,word_square,response,1,Space,true,,,
html-keyboard-response,609,1183869,null,"CHEMIST",null,word,,,,, 'CHEMIST',,
html-keyboard-response,610,1184372,null,"MARINE<img id = ""stim"" ><div class = green_square id = ""topsquare"" ></div><img id = ""stim"" ><div class = green_square  id = ""bottomsquare"" ></div>",null,word_square,response,0,none,true,,,
html-keyboard-response,611,1185877,null,"MARINE",null,word,,,,, 'MARINE',,
html-keyboard-response,612,1186169,290.77500000130385,"SNEAKER<img id = ""stim"" ><div class = red_square id = ""topsquare"" ></div><img id = ""stim"" ><div class = red_square  id = ""bottomsquare"" ></div>",32,word_square,response,1,Space,true,,,
html-keyboard-response,613,1187675,null,"SNEAKER",null,word,,,,, 'SNEAKER',,
html-keyboard-response,614,1188027,351.0999999998603,"FREEZER<img id = ""stim"" ><div class = red_square id = ""topsquare"" ></div><img id = ""stim"" ><div class = red_square  id = ""bottomsquare"" ></div>",32,word_square,response,1,Space,true,,,
html-keyboard-response,615,1189531,null,"FREEZER",null,word,,,,, 'FREEZER',,
html-keyboard-response,616,1190036,null,"IGLOO<img id = ""stim"" ><div class = green_square id = ""topsquare"" ></div><img id = ""stim"" ><div class = green_square  id = ""bottomsquare"" ></div>",null,word_square,response,0,none,true,,,
html-keyboard-response,617,1191538,null,"IGLOO",null,word,,,,, 'IGLOO',,
html-keyboard-response,618,1192045,null,"GLASS<img id = ""stim"" ><div class = green_square id = ""topsquare"" ></div><img id = ""stim"" ><div class = green_square  id = ""bottomsquare"" ></div>",null,word_square,response,0,none,true,,,
html-keyboard-response,619,1193547,null,"GLASS",null,word,,,,, 'GLASS',,
html-keyboard-response,620,1194050,null,"PARTNER<img id = ""stim"" ><div class = green_square id = ""topsquare"" ></div><img id = ""stim"" ><div class = green_square  id = ""bottomsquare"" ></div>",null,word_square,response,0,none,true,,,
html-keyboard-response,621,1195557,null,"PARTNER",null,word,,,,, 'PARTNER',,
html-keyboard-response,622,1196061,null,"LUNCH<img id = ""stim"" ><div class = green_square id = ""topsquare"" ></div><img id = ""stim"" ><div class = green_square  id = ""bottomsquare"" ></div>",null,word_square,response,0,none,true,,,
html-keyboard-response,623,1197563,null,"LUNCH",null,word,,,,, 'LUNCH',,
html-keyboard-response,624,1198043,478.81000000052154,"SOCKET<img id = ""stim"" ><div class = red_square id = ""topsquare"" ></div><img id = ""stim"" ><div class = red_square  id = ""bottomsquare"" ></div>",32,word_square,response,1,Space,true,,,
html-keyboard-response,625,1199550,null,"SOCKET",null,word,,,,, 'SOCKET',,
html-keyboard-response,626,1200057,null,"FLASHLIGHT<img id = ""stim"" ><div class = green_square id = ""topsquare"" ></div><img id = ""stim"" ><div class = green_square  id = ""bottomsquare"" ></div>",null,word_square,response,0,none,true,,,
html-keyboard-response,627,1201561,null,"FLASHLIGHT",null,word,,,,, 'FLASHLIGHT',,
call-function,628,1201562,,"",,,,,,,,,
html-keyboard-response,629,1201664,null,"",null,,,,,,,,
math-period,630,1203523,3649.4249999958556,"",,,,,,,,,5
html-keyboard-response,631,1203625,null,"",null,,,,,,,,
math-period,632,1204940,2538.7549999943003,"",,,,,,,,,1
html-keyboard-response,633,1205043,null,"",null,,,,,,,,
math-period,634,1206103,2011.1249999974389,"",,,,,,,,,3
html-keyboard-response,635,1206206,null,"",null,,,,,,,,
math-period,636,1207190,1876.1400000078138,"",,,,,,,,,3
html-keyboard-response,637,1207293,null,"",null,,,,,,,,
math-period,638,1209933,5176.0649999994785,"",,,,,,,,,5
html-keyboard-response,639,1210036,null,"",null,,,,,,,,
math-period,640,1211505,2888.725000004284,"",,,,,,,,,1
html-keyboard-response,641,1211612,null,"",null,,,,,,,,
math-period,642,1213201,3128.9700000050943,"",,,,,,,,,4
html-keyboard-response,643,1213306,null,"",null,,,,,,,,
math-period,644,1214742,2604.664999998873,"",,,,,,,,,3
html-keyboard-response,645,1214845,null,"",null,,,,,,,,
math-period,646,1216306,2815.0699999970384,"",,,,,,,,,4
html-keyboard-response,647,1216409,null,"",null,,,,,,,,
math-period,648,1220199,7267.854999997886,"",,,,,,,,,5
html-keyboard-response,649,1220302,null,"",null,,,,,,,,
math-period,650,1221509,2331.100000002887,"",,,,,,,,,1
html-keyboard-response,651,1221611,null,"",null,,,,,,,,
math-period,652,1223700,3770.300000003539,"",,,,,,,,,4
html-keyboard-response,653,1223803,null,"",null,,,,,,,,
math-period,654,1224941,2218.809999998659,"",,,,,,,,,1
html-keyboard-response,655,1225045,null,"",null,,,,,,,,
math-period,656,1225568,null,"",,,,,,,,,
html-keyboard-response,657,1226571,null,"Recall Period!",null,,,,,,,,
call-function,658,1226572,,"",,,,,,,,,
html-keyboard-response,659,1226678,null,"",null,,,,,,,,
recall-period,660,1228961,10691.70499998238,"",,,,,,,,,hammer
html-keyboard-response,661,1229064,null,"",null,,,,,,,,
recall-period,662,1230649,5290.030000004685,"",,,,,,,,,chemist
html-keyboard-response,663,1230751,null,"",null,,,,,,,,
recall-period,664,1232364,5778.5050000099,"",,,,,,,,,pocket
html-keyboard-response,665,1232466,null,"",null,,,,,,,,
recall-period,666,1233431,3110.6050000232644,"",,,,,,,,,dock
html-keyboard-response,667,1233537,null,"",null,,,,,,,,
recall-period,668,1235456,11753.42499997397,"",,,,,,,,,socket
html-keyboard-response,669,1235561,null,"",null,,,,,,,,
recall-period,670,1301579,null,"",,,,,,,,,
html-keyboard-response,671,1302081,null,"Time's Up!",null,,,,,,,,
html-keyboard-response,672,1343718,41632.78000000003,"<p> Good job! You responded correctly to 97% of the red squares.</p>
                  <p>Be sure to keep your accuracy above 80%</p>
                  <p>Press any key to continue the experiment. Thank you!</p>",16,,,,,,,,
html-keyboard-response,673,1346054,2335.3350000032224,"<div style=""font-size:48px;"">Press any key to begin list 8 of 24 </div>",13,,,,,,,,
html-keyboard-response,674,1348559,null,"<div style=""font-size:60px;"">+</div>",null,,,,,,,,
html-keyboard-response,675,1349005,443.769999998156,"NEEDLE<img id = ""stim"" ><div class = red_square id = ""topsquare"" ></div><img id = ""stim"" ><div class = red_square  id = ""bottomsquare"" ></div>",32,word_square,response,1,Space,true,,,
html-keyboard-response,676,1350508,null,"NEEDLE",null,word,,,,, 'NEEDLE',,
html-keyboard-response,677,1351012,null,"DAISY<img id = ""stim"" ><div class = green_square id = ""topsquare"" ></div><img id = ""stim"" ><div class = green_square  id = ""bottomsquare"" ></div>",null,word_square,response,0,none,true,,,
html-keyboard-response,678,1352519,null,"DAISY",null,word,,,,, 'DAISY',,
html-keyboard-response,679,1352846,324.94999999459833,"TURNIP<img id = ""stim"" ><div class = red_square id = ""topsquare"" ></div><img id = ""stim"" ><div class = red_square  id = ""bottomsquare"" ></div>",32,word_square,response,1,Space,true,,,
html-keyboard-response,680,1354350,null,"TURNIP",null,word,,,,, 'TURNIP',,
html-keyboard-response,681,1354855,null,"MOP<img id = ""stim"" ><div class = green_square id = ""topsquare"" ></div><img id = ""stim"" ><div class = green_square  id = ""bottomsquare"" ></div>",null,word_square,response,0,none,true,,,
html-keyboard-response,682,1356361,null,"MOP",null,word,,,,, 'MOP',,
html-keyboard-response,683,1356733,370.6799999999348,"AIRCRAFT<img id = ""stim"" ><div class = red_square id = ""topsquare"" ></div><img id = ""stim"" ><div class = red_square  id = ""bottomsquare"" ></div>",32,word_square,response,1,Space,true,,,
html-keyboard-response,684,1358235,null,"AIRCRAFT",null,word,,,,, 'AIRCRAFT',,
html-keyboard-response,685,1358609,373.0649999997113,"KNUCKLE<img id = ""stim"" ><div class = red_square id = ""topsquare"" ></div><img id = ""stim"" ><div class = red_square  id = ""bottomsquare"" ></div>",32,word_square,response,1,Space,true,,,
html-keyboard-response,686,1360113,null,"KNUCKLE",null,word,,,,, 'KNUCKLE',,
html-keyboard-response,687,1360617,null,"BAKER<img id = ""stim"" ><div class = green_square id = ""topsquare"" ></div><img id = ""stim"" ><div class = green_square  id = ""bottomsquare"" ></div>",null,word_square,response,0,none,true,,,
html-keyboard-response,688,1362118,null,"BAKER",null,word,,,,, 'BAKER',,
html-keyboard-response,689,1362495,375.5449999952689,"BROOK<img id = ""stim"" ><div class = red_square id = ""topsquare"" ></div><img id = ""stim"" ><div class = red_square  id = ""bottomsquare"" ></div>",32,word_square,response,1,Space,true,,,
html-keyboard-response,690,1363997,null,"BROOK",null,word,,,,, 'BROOK',,
html-keyboard-response,691,1364378,379.55499999946915,"DRAGON<img id = ""stim"" ><div class = red_square id = ""topsquare"" ></div><img id = ""stim"" ><div class = red_square  id = ""bottomsquare"" ></div>",32,word_square,response,1,Space,true,,,
html-keyboard-response,692,1365880,null,"DRAGON",null,word,,,,, 'DRAGON',,
html-keyboard-response,693,1366387,null,"GIFT<img id = ""stim"" ><div class = green_square id = ""topsquare"" ></div><img id = ""stim"" ><div class = green_square  id = ""bottomsquare"" ></div>",null,word_square,response,0,none,true,,,
html-keyboard-response,694,1367893,null,"GIFT",null,word,,,,, 'GIFT',,
html-keyboard-response,695,1368202,307.78499999735504,"VICTIM<img id = ""stim"" ><div class = red_square id = ""topsquare"" ></div><img id = ""stim"" ><div class = red_square  id = ""bottomsquare"" ></div>",32,word_square,response,1,Space,true,,,
html-keyboard-response,696,1369705,null,"VICTIM",null,word,,,,, 'VICTIM',,
html-keyboard-response,697,1370092,384.91500000236556,"SLUG<img id = ""stim"" ><div class = red_square id = ""topsquare"" ></div><img id = ""stim"" ><div class = red_square  id = ""bottomsquare"" ></div>",32,word_square,response,1,Space,true,,,
html-keyboard-response,698,1371593,null,"SLUG",null,word,,,,, 'SLUG',,
html-keyboard-response,699,1372098,null,"CLAM<img id = ""stim"" ><div class = green_square id = ""topsquare"" ></div><img id = ""stim"" ><div class = green_square  id = ""bottomsquare"" ></div>",null,word_square,response,0,none,true,,,
html-keyboard-response,700,1373605,null,"CLAM",null,word,,,,, 'CLAM',,
html-keyboard-response,701,1374111,null,"BINDER<img id = ""stim"" ><div class = green_square id = ""topsquare"" ></div><img id = ""stim"" ><div class = green_square  id = ""bottomsquare"" ></div>",null,word_square,response,0,none,true,,,
html-keyboard-response,702,1375613,null,"BINDER",null,word,,,,, 'BINDER',,
html-keyboard-response,703,1376116,null,"INMATE<img id = ""stim"" ><div class = green_square id = ""topsquare"" ></div><img id = ""stim"" ><div class = green_square  id = ""bottomsquare"" ></div>",null,word_square,response,0,none,true,,,
html-keyboard-response,704,1377622,null,"INMATE",null,word,,,,, 'INMATE',,
html-keyboard-response,705,1378126,null,"STAKE<img id = ""stim"" ><div class = green_square id = ""topsquare"" ></div><img id = ""stim"" ><div class = green_square  id = ""bottomsquare"" ></div>",null,word_square,response,0,none,true,,,
html-keyboard-response,706,1379629,null,"STAKE",null,word,,,,, 'STAKE',,
html-keyboard-response,707,1379971,340.60000000311993,"FIREPLACE<img id = ""stim"" ><div class = red_square id = ""topsquare"" ></div><img id = ""stim"" ><div class = red_square  id = ""bottomsquare"" ></div>",32,word_square,response,1,Space,true,,,
html-keyboard-response,708,1381475,null,"FIREPLACE",null,word,,,,, 'FIREPLACE',,
html-keyboard-response,709,1381979,null,"ADULT<img id = ""stim"" ><div class = green_square id = ""topsquare"" ></div><img id = ""stim"" ><div class = green_square  id = ""bottomsquare"" ></div>",null,word_square,response,0,none,true,,,
html-keyboard-response,710,1383481,null,"ADULT",null,word,,,,, 'ADULT',,
call-function,711,1383482,,"",,,,,,,,,
html-keyboard-response,712,1383584,null,"",null,,,,,,,,
math-period,713,1385610,3948.424999995157,"",,,,,,,,,5
html-keyboard-response,714,1385713,null,"",null,,,,,,,,
math-period,715,1387008,2519.560000007972,"",,,,,,,,,6
html-keyboard-response,716,1387112,null,"",null,,,,,,,,
math-period,717,1388652,3006.704999999609,"",,,,,,,,,5
html-keyboard-response,718,1388756,null,"",null,,,,,,,,
math-period,719,1391213,4446.989999996964,"",,,,,,,,,1
html-keyboard-response,720,1391316,null,"",null,,,,,,,,
math-period,721,1392602,2494.3750000018626,"",,,,,,,,,2
html-keyboard-response,722,1392705,null,"",null,,,,,,,,
math-period,723,1393356,1218.9600000053179,"",,,,,,,,,2
html-keyboard-response,724,1393459,null,"",null,,,,,,,,
math-period,725,1394592,2127.5399999939837,"",,,,,,,,,3
html-keyboard-response,726,1394695,null,"",null,,,,,,,,
math-period,727,1395955,2459.9299999973737,"",,,,,,,,,1
html-keyboard-response,728,1396057,null,"",null,,,,,,,,
math-period,729,1398010,3661.0699999944773,"",,,,,,,,,0
html-keyboard-response,730,1398113,null,"",null,,,,,,,,
math-period,731,1400074,3812.010000008857,"",,,,,,,,,4
html-keyboard-response,732,1400178,null,"",null,,,,,,,,
math-period,733,1401692,2769.5349999992177,"",,,,,,,,,4
html-keyboard-response,734,1401796,null,"",null,,,,,,,,
math-period,735,1402626,1557.2049999975134,"",,,,,,,,,4
html-keyboard-response,736,1402729,null,"",null,,,,,,,,
math-period,737,1405907,6245.225000005914,"",,,,,,,,,2
html-keyboard-response,738,1406010,null,"",null,,,,,,,,
math-period,739,1407485,null,"",,,,,,,,,
html-keyboard-response,740,1408492,null,"Recall Period!",null,,,,,,,,
call-function,741,1408493,,"",,,,,,,,,
html-keyboard-response,742,1408596,null,"",null,,,,,,,,
recall-period,743,1412284,32162.065000039525,"",,,,,,,,,fireplace
html-keyboard-response,744,1412386,null,"",null,,,,,,,,
recall-period,745,1413574,5667.965000021271,"",,,,,,,,,inmate
html-keyboard-response,746,1413677,null,"",null,,,,,,,,
recall-period,747,1415051,5406.344999996945,"",,,,,,,,,needle
html-keyboard-response,748,1415154,null,"",null,,,,,,,,
recall-period,749,1416179,2197.4500000069384,"",,,,,,,,,mop
html-keyboard-response,750,1416282,null,"",null,,,,,,,,
recall-period,751,1454706,265406.18500002124,"",,,,,,,,,inmate
html-keyboard-response,752,1454809,null,"",null,,,,,,,,
recall-period,753,1455992,4633.889999975916,"",,,,,,,,,needle
html-keyboard-response,754,1456094,null,"",null,,,,,,,,
recall-period,755,1469725,64825.340000024764,"",,,,,,,,,gift
html-keyboard-response,756,1469831,null,"",null,,,,,,,,
recall-period,757,1481621,78485.96500001475,"",,,,,,,,,binder
html-keyboard-response,758,1481724,null,"",null,,,,,,,,
recall-period,759,1483496,null,"",,,,,,,,,
html-keyboard-response,760,1484004,null,"Time's Up!",null,,,,,,,,
html-keyboard-response,761,1485755,1749.4149999986403,"<p> Good job! You responded correctly to 97% of the red squares.</p>
                  <p>Be sure to keep your accuracy above 80%</p>
                  <p>Press any key to continue the experiment. Thank you!</p>",13,,,,,,,,
html-keyboard-response,762,1487485,1728.9799999999814,"<div style=""font-size:48px;"">Press any key to begin list 9 of 24 </div>",13,,,,,,,,
html-keyboard-response,763,1489994,null,"<div style=""font-size:60px;"">+</div>",null,,,,,,,,
html-keyboard-response,764,1490497,null,"TUTU<img id = ""stim"" ><div class = green_square id = ""topsquare"" ></div><img id = ""stim"" ><div class = green_square  id = ""bottomsquare"" ></div>",null,word_square,response,0,none,true,,,
html-keyboard-response,765,1492001,null,"TUTU",null,word,,,,, 'TUTU',,
html-keyboard-response,766,1492505,null,"MONKEY<img id = ""stim"" ><div class = green_square id = ""topsquare"" ></div><img id = ""stim"" ><div class = green_square  id = ""bottomsquare"" ></div>",null,word_square,response,0,none,true,,,
html-keyboard-response,767,1494011,null,"MONKEY",null,word,,,,, 'MONKEY',,
html-keyboard-response,768,1494452,438.8600000019651,"CHURCH<img id = ""stim"" ><div class = red_square id = ""topsquare"" ></div><img id = ""stim"" ><div class = red_square  id = ""bottomsquare"" ></div>",32,word_square,response,1,Space,true,,,
html-keyboard-response,769,1495955,null,"CHURCH",null,word,,,,, 'CHURCH',,
html-keyboard-response,770,1496459,null,"SIRLOIN<img id = ""stim"" ><div class = green_square id = ""topsquare"" ></div><img id = ""stim"" ><div class = green_square  id = ""bottomsquare"" ></div>",null,word_square,response,0,none,true,,,
html-keyboard-response,771,1497963,null,"SIRLOIN",null,word,,,,, 'SIRLOIN',,
html-keyboard-response,772,1498297,332.41500000446104,"CANDY<img id = ""stim"" ><div class = red_square id = ""topsquare"" ></div><img id = ""stim"" ><div class = red_square  id = ""bottomsquare"" ></div>",32,word_square,response,1,Space,true,,,
html-keyboard-response,773,1499802,null,"CANDY",null,word,,,,, 'CANDY',,
html-keyboard-response,774,1500309,null,"IDOL<img id = ""stim"" ><div class = green_square id = ""topsquare"" ></div><img id = ""stim"" ><div class = green_square  id = ""bottomsquare"" ></div>",null,word_square,response,0,none,true,,,
html-keyboard-response,775,1501813,null,"IDOL",null,word,,,,, 'IDOL',,
html-keyboard-response,776,1502125,310.2550000040792,"SLIME<img id = ""stim"" ><div class = red_square id = ""topsquare"" ></div><img id = ""stim"" ><div class = red_square  id = ""bottomsquare"" ></div>",32,word_square,response,1,Space,true,,,
html-keyboard-response,777,1503629,null,"SLIME",null,word,,,,, 'SLIME',,
html-keyboard-response,778,1504133,null,"PLASTER<img id = ""stim"" ><div class = green_square id = ""topsquare"" ></div><img id = ""stim"" ><div class = green_square  id = ""bottomsquare"" ></div>",null,word_square,response,0,none,true,,,
html-keyboard-response,779,1505638,null,"PLASTER",null,word,,,,, 'PLASTER',,
html-keyboard-response,780,1506140,null,"COD<img id = ""stim"" ><div class = green_square id = ""topsquare"" ></div><img id = ""stim"" ><div class = green_square  id = ""bottomsquare"" ></div>",null,word_square,response,0,none,true,,,
html-keyboard-response,781,1507645,null,"COD",null,word,,,,, 'COD',,
html-keyboard-response,782,1507976,329.59999999729916,"SUITE<img id = ""stim"" ><div class = red_square id = ""topsquare"" ></div><img id = ""stim"" ><div class = red_square  id = ""bottomsquare"" ></div>",32,word_square,response,1,Space,true,,,
html-keyboard-response,783,1509478,null,"SUITE",null,word,,,,, 'SUITE',,
html-keyboard-response,784,1509846,366.0650000020396,"SKUNK<img id = ""stim"" ><div class = red_square id = ""topsquare"" ></div><img id = ""stim"" ><div class = red_square  id = ""bottomsquare"" ></div>",32,word_square,response,1,Space,true,,,
html-keyboard-response,785,1511353,null,"SKUNK",null,word,,,,, 'SKUNK',,
html-keyboard-response,786,1511859,null,"AUTHOR<img id = ""stim"" ><div class = green_square id = ""topsquare"" ></div><img id = ""stim"" ><div class = green_square  id = ""bottomsquare"" ></div>",null,word_square,response,0,none,true,,,
html-keyboard-response,787,1513363,null,"AUTHOR",null,word,,,,, 'AUTHOR',,
html-keyboard-response,788,1513865,null,"GLOVE<img id = ""stim"" ><div class = green_square id = ""topsquare"" ></div><img id = ""stim"" ><div class = green_square  id = ""bottomsquare"" ></div>",null,word_square,response,0,none,true,,,
html-keyboard-response,789,1515372,null,"GLOVE",null,word,,,,, 'GLOVE',,
html-keyboard-response,790,1515711,337.6350000035018,"HAND<img id = ""stim"" ><div class = red_square id = ""topsquare"" ></div><img id = ""stim"" ><div class = red_square  id = ""bottomsquare"" ></div>",32,word_square,response,1,Space,true,,,
html-keyboard-response,791,1517217,null,"HAND",null,word,,,,, 'HAND',,
html-keyboard-response,792,1517599,380.30499999877065,"STOVE<img id = ""stim"" ><div class = red_square id = ""topsquare"" ></div><img id = ""stim"" ><div class = red_square  id = ""bottomsquare"" ></div>",32,word_square,response,1,Space,true,,,
html-keyboard-response,793,1519106,null,"STOVE",null,word,,,,, 'STOVE',,
html-keyboard-response,794,1519430,322.7149999947287,"SKILLET<img id = ""stim"" ><div class = red_square id = ""topsquare"" ></div><img id = ""stim"" ><div class = red_square  id = ""bottomsquare"" ></div>",32,word_square,response,1,Space,true,,,
html-keyboard-response,795,1520935,null,"SKILLET",null,word,,,,, 'SKILLET',,
html-keyboard-response,796,1521442,null,"COWBOY<img id = ""stim"" ><div class = green_square id = ""topsquare"" ></div><img id = ""stim"" ><div class = green_square  id = ""bottomsquare"" ></div>",null,word_square,response,0,none,true,,,
html-keyboard-response,797,1522945,null,"COWBOY",null,word,,,,, 'COWBOY',,
html-keyboard-response,798,1523234,287.29500000202097,"NOMAD<img id = ""stim"" ><div class = red_square id = ""topsquare"" ></div><img id = ""stim"" ><div class = red_square  id = ""bottomsquare"" ></div>",32,word_square,response,1,Space,true,,,
html-keyboard-response,799,1524741,null,"NOMAD",null,word,,,,, 'NOMAD',,
call-function,800,1524742,,"",,,,,,,,,
html-keyboard-response,801,1524846,null,"",null,,,,,,,,
math-period,802,1527011,4242.749999997672,"",,,,,,,,,2
html-keyboard-response,803,1527114,null,"",null,,,,,,,,
math-period,804,1528769,3236.4099999978207,"",,,,,,,,,4
html-keyboard-response,805,1528871,null,"",null,,,,,,,,
math-period,806,1530792,3531.7399999909103,"",,,,,,,,,1
html-keyboard-response,807,1530894,null,"",null,,,,,,,,
math-period,808,1532363,2857.245000006398,"",,,,,,,,,4
html-keyboard-response,809,1532466,null,"",null,,,,,,,,
math-period,810,1533762,2525.5000000102445,"",,,,,,,,,5
html-keyboard-response,811,1533864,null,"",null,,,,,,,,
math-period,812,1535062,1918.5199999921024,"",,,,,,,,,5
html-keyboard-response,813,1535165,null,"",null,,,,,,,,
math-period,814,1536906,3360.815000000177,"",,,,,,,,,2
html-keyboard-response,815,1537009,null,"",null,,,,,,,,
math-period,816,1539902,5029.239999996498,"",,,,,,,,,0
html-keyboard-response,817,1540005,null,"",null,,,,,,,,
math-period,818,1541249,2201.479999996256,"",,,,,,,,,0
html-keyboard-response,819,1541352,null,"",null,,,,,,,,
math-period,820,1542821,2836.7450000008103,"",,,,,,,,,4
html-keyboard-response,821,1542924,null,"",null,,,,,,,,
math-period,822,1545653,5388.825000001583,"",,,,,,,,,4
html-keyboard-response,823,1545755,null,"",null,,,,,,,,
math-period,824,1547116,2624.1599999992177,"",,,,,,,,,4
html-keyboard-response,825,1547218,null,"",null,,,,,,,,
math-period,826,1548747,null,"",,,,,,,,,
html-keyboard-response,827,1549751,null,"Recall Period!",null,,,,,,,,
call-function,828,1549752,,"",,,,,,,,,
html-keyboard-response,829,1549853,null,"",null,,,,,,,,
recall-period,830,1552864,10120.875000015134,"",,,,,,,,,tutu
html-keyboard-response,831,1552967,null,"",null,,,,,,,,
recall-period,832,1554874,7141.780000004917,"",,,,,,,,,monkey
html-keyboard-response,833,1554976,null,"",null,,,,,,,,
recall-period,834,1555633,2124.6299999915063,"",,,,,,,,,glove
html-keyboard-response,835,1555735,null,"",null,,,,,,,,
recall-period,836,1557400,6757.169999996666,"",,,,,,,,,skillet
html-keyboard-response,837,1557505,null,"",null,,,,,,,,
recall-period,838,1624760,null,"",,,,,,,,,
html-keyboard-response,839,1625266,null,"Time's Up!",null,,,,,,,,
html-keyboard-response,840,1675905,50636.220000000205,"<p> Good job! You responded correctly to 97% of the red squares.</p>
                  <p>Be sure to keep your accuracy above 80%</p>
                  <p>Press any key to continue the experiment. Thank you!</p>",13,,,,,,,,
html-keyboard-response,841,1678672,2765.340000005206,"<div style=""font-size:48px;"">Press any key to begin list 10 of 24 </div>",13,,,,,,,,
html-keyboard-response,842,1681175,null,"<div style=""font-size:60px;"">+</div>",null,,,,,,,,
html-keyboard-response,843,1681677,null,"MARBLE<img id = ""stim"" ><div class = green_square id = ""topsquare"" ></div><img id = ""stim"" ><div class = green_square  id = ""bottomsquare"" ></div>",null,word_square,response,0,none,true,,,
html-keyboard-response,844,1683180,null,"MARBLE",null,word,,,,, 'MARBLE',,
html-keyboard-response,845,1683681,null,"CHAPEL<img id = ""stim"" ><div class = green_square id = ""topsquare"" ></div><img id = ""stim"" ><div class = green_square  id = ""bottomsquare"" ></div>",null,word_square,response,0,none,true,,,
html-keyboard-response,846,1685183,null,"CHAPEL",null,word,,,,, 'CHAPEL',,
html-keyboard-response,847,1685609,424.95499999495223,"MUMMY<img id = ""stim"" ><div class = red_square id = ""topsquare"" ></div><img id = ""stim"" ><div class = red_square  id = ""bottomsquare"" ></div>",32,word_square,response,1,Space,true,,,
html-keyboard-response,848,1687116,null,"MUMMY",null,word,,,,, 'MUMMY',,
html-keyboard-response,849,1687619,null,"EGYPT<img id = ""stim"" ><div class = green_square id = ""topsquare"" ></div><img id = ""stim"" ><div class = green_square  id = ""bottomsquare"" ></div>",null,word_square,response,0,none,true,,,
html-keyboard-response,850,1689124,null,"EGYPT",null,word,,,,, 'EGYPT',,
html-keyboard-response,851,1689450,324.845000002766,"STATUE<img id = ""stim"" ><div class = red_square id = ""topsquare"" ></div><img id = ""stim"" ><div class = red_square  id = ""bottomsquare"" ></div>",32,word_square,response,1,Space,true,,,
html-keyboard-response,852,1690957,null,"STATUE",null,word,,,,, 'STATUE',,
html-keyboard-response,853,1691464,null,"BASEBALL<img id = ""stim"" ><div class = green_square id = ""topsquare"" ></div><img id = ""stim"" ><div class = green_square  id = ""bottomsquare"" ></div>",null,word_square,response,0,none,true,,,
html-keyboard-response,854,1692969,null,"BASEBALL",null,word,,,,, 'BASEBALL',,
html-keyboard-response,855,1693254,282.9150000032969,"HOOD<img id = ""stim"" ><div class = red_square id = ""topsquare"" ></div><img id = ""stim"" ><div class = red_square  id = ""bottomsquare"" ></div>",32,word_square,response,1,Space,true,,,
html-keyboard-response,856,1694761,null,"HOOD",null,word,,,,, 'HOOD',,
html-keyboard-response,857,1695267,null,"MACHINE<img id = ""stim"" ><div class = green_square id = ""topsquare"" ></div><img id = ""stim"" ><div class = green_square  id = ""bottomsquare"" ></div>",null,word_square,response,0,none,true,,,
html-keyboard-response,858,1696774,null,"MACHINE",null,word,,,,, 'MACHINE',,
html-keyboard-response,859,1697281,null,"SNACK<img id = ""stim"" ><div class = green_square id = ""topsquare"" ></div><img id = ""stim"" ><div class = green_square  id = ""bottomsquare"" ></div>",null,word_square,response,0,none,true,,,
html-keyboard-response,860,1698788,null,"SNACK",null,word,,,,, 'SNACK',,
html-keyboard-response,861,1699102,312.35000000032596,"NEPHEW<img id = ""stim"" ><div class = red_square id = ""topsquare"" ></div><img id = ""stim"" ><div class = red_square  id = ""bottomsquare"" ></div>",32,word_square,response,1,Space,true,,,
html-keyboard-response,862,1700609,null,"NEPHEW",null,word,,,,, 'NEPHEW',,
html-keyboard-response,863,1700932,321.9150000005029,"KETCHUP<img id = ""stim"" ><div class = red_square id = ""topsquare"" ></div><img id = ""stim"" ><div class = red_square  id = ""bottomsquare"" ></div>",32,word_square,response,1,Space,true,,,
html-keyboard-response,864,1702435,null,"KETCHUP",null,word,,,,, 'KETCHUP',,
html-keyboard-response,865,1702942,null,"PLATE<img id = ""stim"" ><div class = green_square id = ""topsquare"" ></div><img id = ""stim"" ><div class = green_square  id = ""bottomsquare"" ></div>",null,word_square,response,0,none,true,,,
html-keyboard-response,866,1704447,null,"PLATE",null,word,,,,, 'PLATE',,
html-keyboard-response,867,1704951,null,"MATCH<img id = ""stim"" ><div class = green_square id = ""topsquare"" ></div><img id = ""stim"" ><div class = green_square  id = ""bottomsquare"" ></div>",null,word_square,response,0,none,true,,,
html-keyboard-response,868,1706458,null,"MATCH",null,word,,,,, 'MATCH',,
html-keyboard-response,869,1706777,317.4550000040326,"LASER<img id = ""stim"" ><div class = red_square id = ""topsquare"" ></div><img id = ""stim"" ><div class = red_square  id = ""bottomsquare"" ></div>",32,word_square,response,1,Space,true,,,
html-keyboard-response,870,1708278,null,"LASER",null,word,,,,, 'LASER',,
html-keyboard-response,871,1708643,363.36999999918044,"COOK<img id = ""stim"" ><div class = red_square id = ""topsquare"" ></div><img id = ""stim"" ><div class = red_square  id = ""bottomsquare"" ></div>",32,word_square,response,1,Space,true,,,
html-keyboard-response,872,1710150,null,"COOK",null,word,,,,, 'COOK',,
html-keyboard-response,873,1710518,366.3250000027474,"HOSTESS<img id = ""stim"" ><div class = red_square id = ""topsquare"" ></div><img id = ""stim"" ><div class = red_square  id = ""bottomsquare"" ></div>",32,word_square,response,1,Space,true,,,
html-keyboard-response,874,1712024,null,"HOSTESS",null,word,,,,, 'HOSTESS',,
html-keyboard-response,875,1712530,null,"DINER<img id = ""stim"" ><div class = green_square id = ""topsquare"" ></div><img id = ""stim"" ><div class = green_square  id = ""bottomsquare"" ></div>",null,word_square,response,0,none,true,,,
html-keyboard-response,876,1714037,null,"DINER",null,word,,,,, 'DINER',,
html-keyboard-response,877,1714316,278.6049999995157,"BOXER<img id = ""stim"" ><div class = red_square id = ""topsquare"" ></div><img id = ""stim"" ><div class = red_square  id = ""bottomsquare"" ></div>",32,word_square,response,1,Space,true,,,
html-keyboard-response,878,1715820,null,"BOXER",null,word,,,,, 'BOXER',,
call-function,879,1715821,,"",,,,,,,,,
html-keyboard-response,880,1715924,null,"",null,,,,,,,,
math-period,881,1717418,2862.6250000090804,"",,,,,,,,,2
html-keyboard-response,882,1717521,null,"",null,,,,,,,,
math-period,883,1718139,1136.5850000001956,"",,,,,,,,,2
html-keyboard-response,884,1718241,null,"",null,,,,,,,,
math-period,885,1718964,1359.4849999935832,"",,,,,,,,,2
html-keyboard-response,886,1719067,null,"",null,,,,,,,,
math-period,887,1720310,2407.195000007283,"",,,,,,,,,4
html-keyboard-response,888,1720414,null,"",null,,,,,,,,
math-period,889,1721128,1329.530000002589,"",,,,,,,,,4
html-keyboard-response,890,1721234,null,"",null,,,,,,,,
math-period,891,1722268,2001.8650000055786,"",,,,,,,,,3
html-keyboard-response,892,1722373,null,"",null,,,,,,,,
math-period,893,1723359,1924.600000005681,"",,,,,,,,,4
html-keyboard-response,894,1723464,null,"",null,,,,,,,,
math-period,895,1724667,2330.6949999970384,"",,,,,,,,,6
html-keyboard-response,896,1724770,null,"",null,,,,,,,,
math-period,897,1725950,2301.2299999971874,"",,,,,,,,,5
html-keyboard-response,898,1726052,null,"",null,,,,,,,,
math-period,899,1727779,3377.0050000019837,"",,,,,,,,,2
html-keyboard-response,900,1727881,null,"",null,,,,,,,,
math-period,901,1730653,5267.009999988833,"",,,,,,,,,0
html-keyboard-response,902,1730756,null,"",null,,,,,,,,
math-period,903,1731961,2351.6200000015087,"",,,,,,,,,6
html-keyboard-response,904,1732062,null,"",null,,,,,,,,
math-period,905,1733559,2918.934999994468,"",,,,,,,,,2
html-keyboard-response,906,1733662,null,"",null,,,,,,,,
math-period,907,1734673,1948.3349999936763,"",,,,,,,,,4
html-keyboard-response,908,1734780,null,"",null,,,,,,,,
math-period,909,1737123,4594.889999993378,"",,,,,,,,,2
html-keyboard-response,910,1737224,null,"",null,,,,,,,,
math-period,911,1738307,2068.364999999525,"",,,,,,,,,2
html-keyboard-response,912,1738410,null,"",null,,,,,,,,
math-period,913,1739825,null,"",,,,,,,,,
html-keyboard-response,914,1740832,null,"Recall Period!",null,,,,,,,,
