trial_type,trial_index,time_elapsed,rt,stimulus,key_press,test_part,task,targ_cond,correctKeyCode,correct,word,value,response
pavlovia,0,1116,,"",,,,,,,,,
external-html,1,28275,26916.98500001803,"",,,,,,,,,
html-keyboard-response,2,30041,1764.2000000050757,"Welcome to the experiment. Press any key to begin.",32,,,,,,,,
html-keyboard-response,3,35728,5686.119999998482,"<p>You will see a list of words and colored squares in the following task.<p><p>Press the spacebar whenever you see a red square.<p><p>Do not press a key if the square is green<p><p>Press the spacebar to continue.</p>",32,,,,,,,,
html-keyboard-response,4,44882,8649.830000009388,"<p>Please try to remember as many of the words as you can, and try to think about the meaning of each word as it appears.<p><p>After the detection and encoding task you will be asked to solve some math problems for 24 seconds.<p> Please solve as many problems as you can in the time given. <p>",32,,,,,,,,
html-keyboard-response,5,55458,10073.485000000801,"After solving the math problems, you will be asked to type in as many words <p>from the previous list as you can remember for 75 seconds.<p> If you finish recalling before the 75 seconds are up,<p> just sit tight and try to think of any more words you could have missed. <p><p>We will begin with a brief practice session<p>Press the spacebar to begin the practice.</p>",32,,,,,,,,
html-keyboard-response,6,57961,null,"<div style=""font-size:60px;"">+</div>",null,,,,,,,,
html-keyboard-response,7,58463,null,"HAPPY<img id = ""stim"" ><div class = green_square id = ""topsquare"" ></div><img id = ""stim"" ><div class = green_square  id = ""bottomsquare"" ></div>",null,word_square,prac_response,0,none,true,,,
html-keyboard-response,8,59965,null,"HAPPY",null,word,,,,,HAPPY,,
html-keyboard-response,9,60468,474.75999998277985,"COLD<img id = ""stim"" ><div class = red_square id = ""topsquare"" ></div><img id = ""stim"" ><div class = red_square  id = ""bottomsquare"" ></div>",32,word_square,prac_response,1,Space,true,,,
html-keyboard-response,10,61969,null,"COLD",null,word,,,,,COLD,,
html-keyboard-response,11,62476,359.1299999970943,"HEAVY<img id = ""stim"" ><div class = red_square id = ""topsquare"" ></div><img id = ""stim"" ><div class = red_square  id = ""bottomsquare"" ></div>",32,word_square,prac_response,1,Space,true,,,
html-keyboard-response,12,63978,null,"HEAVY",null,word,,,,,HEAVY,,
html-keyboard-response,13,64479,446.62499998230487,"FUNNY<img id = ""stim"" ><div class = green_square id = ""topsquare"" ></div><img id = ""stim"" ><div class = green_square  id = ""bottomsquare"" ></div>",32,word_square,prac_response,0,none,true,,,
html-keyboard-response,14,65982,null,"FUNNY",null,word,,,,,FUNNY,,
html-keyboard-response,15,66483,474.85499997856095,"SCARY<img id = ""stim"" ><div class = red_square id = ""topsquare"" ></div><img id = ""stim"" ><div class = red_square  id = ""bottomsquare"" ></div>",32,word_square,prac_response,1,Space,true,,,
html-keyboard-response,16,67985,null,"SCARY",null,word,,,,,SCARY,,
html-keyboard-response,17,68487,471.2500000023283,"PEACEFUL<img id = ""stim"" ><div class = red_square id = ""topsquare"" ></div><img id = ""stim"" ><div class = red_square  id = ""bottomsquare"" ></div>",32,word_square,prac_response,1,Space,true,,,
html-keyboard-response,18,69988,null,"PEACEFUL",null,word,,,,,PEACEFUL,,
html-keyboard-response,19,70489,null,"LITTLE<img id = ""stim"" ><div class = green_square id = ""topsquare"" ></div><img id = ""stim"" ><div class = green_square  id = ""bottomsquare"" ></div>",null,word_square,prac_response,0,none,true,,,
html-keyboard-response,20,71992,null,"LITTLE",null,word,,,,,LITTLE,,
html-keyboard-response,21,72494,null,"TIRED<img id = ""stim"" ><div class = green_square id = ""topsquare"" ></div><img id = ""stim"" ><div class = green_square  id = ""bottomsquare"" ></div>",null,word_square,prac_response,0,none,true,,,
html-keyboard-response,22,73996,null,"TIRED",null,word,,,,,TIRED,,
html-keyboard-response,23,74497,null,"ENTERTAINING<img id = ""stim"" ><div class = green_square id = ""topsquare"" ></div><img id = ""stim"" ><div class = green_square  id = ""bottomsquare"" ></div>",null,word_square,prac_response,0,none,true,,,
html-keyboard-response,24,75999,null,"ENTERTAINING",null,word,,,,,ENTERTAINING,,
html-keyboard-response,25,76500,377.45500000892207,"GRATEFUL<img id = ""stim"" ><div class = red_square id = ""topsquare"" ></div><img id = ""stim"" ><div class = red_square  id = ""bottomsquare"" ></div>",32,word_square,prac_response,1,Space,true,,,
html-keyboard-response,26,78016,null,"GRATEFUL",null,word,,,,,GRATEFUL,,
html-keyboard-response,27,78517,null,"LOUD<img id = ""stim"" ><div class = green_square id = ""topsquare"" ></div><img id = ""stim"" ><div class = green_square  id = ""bottomsquare"" ></div>",null,word_square,prac_response,0,none,true,,,
html-keyboard-response,28,80020,null,"LOUD",null,word,,,,,LOUD,,
html-keyboard-response,29,80522,412.03000000678,"SMART<img id = ""stim"" ><div class = red_square id = ""topsquare"" ></div><img id = ""stim"" ><div class = red_square  id = ""bottomsquare"" ></div>",32,word_square,prac_response,1,Space,true,,,
html-keyboard-response,30,82023,null,"SMART",null,word,,,,,SMART,,
html-keyboard-response,31,82525,null,"SMOOTH<img id = ""stim"" ><div class = red_square id = ""topsquare"" ></div><img id = ""stim"" ><div class = red_square  id = ""bottomsquare"" ></div>",null,word_square,prac_response,1,Space,false,,,
html-keyboard-response,32,84027,null,"SMOOTH",null,word,,,,,SMOOTH,,
html-keyboard-response,33,84528,null,"DISHONEST<img id = ""stim"" ><div class = green_square id = ""topsquare"" ></div><img id = ""stim"" ><div class = green_square  id = ""bottomsquare"" ></div>",null,word_square,prac_response,0,none,true,,,
html-keyboard-response,34,86029,null,"DISHONEST",null,word,,,,,DISHONEST,,
html-keyboard-response,35,86532,378.6449999897741,"WEALTHY<img id = ""stim"" ><div class = red_square id = ""topsquare"" ></div><img id = ""stim"" ><div class = red_square  id = ""bottomsquare"" ></div>",32,word_square,prac_response,1,Space,true,,,
html-keyboard-response,36,88033,null,"WEALTHY",null,word,,,,,WEALTHY,,
html-keyboard-response,37,88535,null,"BEAUTIFUL<img id = ""stim"" ><div class = green_square id = ""topsquare"" ></div><img id = ""stim"" ><div class = green_square  id = ""bottomsquare"" ></div>",null,word_square,prac_response,0,none,true,,,
html-keyboard-response,38,90037,null,"BEAUTIFUL",null,word,,,,,BEAUTIFUL,,
html-keyboard-response,39,90539,null,"DREARY<img id = ""stim"" ><div class = green_square id = ""topsquare"" ></div><img id = ""stim"" ><div class = green_square  id = ""bottomsquare"" ></div>",null,word_square,prac_response,0,none,true,,,
html-keyboard-response,40,92041,null,"DREARY",null,word,,,,,DREARY,,
html-keyboard-response,41,92543,366.8300000135787,"PLAYFUL<img id = ""stim"" ><div class = red_square id = ""topsquare"" ></div><img id = ""stim"" ><div class = red_square  id = ""bottomsquare"" ></div>",32,word_square,prac_response,1,Space,true,,,
html-keyboard-response,42,94045,null,"PLAYFUL",null,word,,,,,PLAYFUL,,
html-keyboard-response,43,102626,8578.249999991385,"<p> Good job! You responded correctly to 94% of the red squares.</p>
                  <p>Be sure to keep your accuracy above 80%</p>
                  <p>We're going to try once more to make sure you understand  the task. press any key to continue. </p>",32,,,,,,,,
html-keyboard-response,44,105344,2718.345000001136,"<p>You will see a list of words and colored squares in the following task.<p><p>Press the spacebar whenever you see a red square.<p><p>Do not press a key if the square is green<p><p>Press the spacebar to continue.</p>",32,,,,,,,,
html-keyboard-response,45,107846,null,"<div style=""font-size:60px;"">+</div>",null,,,,,,,,
html-keyboard-response,46,108348,null,"HAPPY<img id = ""stim"" ><div class = green_square id = ""topsquare"" ></div><img id = ""stim"" ><div class = green_square  id = ""bottomsquare"" ></div>",null,word_square,response,0,none,true,,,
html-keyboard-response,47,109849,null,"HAPPY",null,word,,,,,HAPPY,,
html-keyboard-response,48,110351,null,"COLD<img id = ""stim"" ><div class = red_square id = ""topsquare"" ></div><img id = ""stim"" ><div class = red_square  id = ""bottomsquare"" ></div>",null,word_square,response,1,Space,false,,,
html-keyboard-response,49,111854,null,"COLD",null,word,,,,,COLD,,
html-keyboard-response,50,112241,385.7350000180304,"HEAVY<img id = ""stim"" ><div class = red_square id = ""topsquare"" ></div><img id = ""stim"" ><div class = red_square  id = ""bottomsquare"" ></div>",32,word_square,response,1,Space,true,,,
html-keyboard-response,51,113742,null,"HEAVY",null,word,,,,,HEAVY,,
html-keyboard-response,52,114244,null,"FUNNY<img id = ""stim"" ><div class = green_square id = ""topsquare"" ></div><img id = ""stim"" ><div class = green_square  id = ""bottomsquare"" ></div>",null,word_square,response,0,none,true,,,
html-keyboard-response,53,115746,null,"FUNNY",null,word,,,,,FUNNY,,
html-keyboard-response,54,116161,413.5699999751523,"SCARY<img id = ""stim"" ><div class = red_square id = ""topsquare"" ></div><img id = ""stim"" ><div class = red_square  id = ""bottomsquare"" ></div>",32,word_square,response,1,Space,true,,,
html-keyboard-response,55,117662,null,"SCARY",null,word,,,,,SCARY,,
html-keyboard-response,56,118025,361.5399999835063,"PEACEFUL<img id = ""stim"" ><div class = red_square id = ""topsquare"" ></div><img id = ""stim"" ><div class = red_square  id = ""bottomsquare"" ></div>",32,word_square,response,1,Space,true,,,
html-keyboard-response,57,119527,null,"PEACEFUL",null,word,,,,,PEACEFUL,,
html-keyboard-response,58,120029,null,"LITTLE<img id = ""stim"" ><div class = green_square id = ""topsquare"" ></div><img id = ""stim"" ><div class = green_square  id = ""bottomsquare"" ></div>",null,word_square,response,0,none,true,,,
html-keyboard-response,59,121530,null,"LITTLE",null,word,,,,,LITTLE,,
html-keyboard-response,60,122032,301.34999999427237,"TIRED<img id = ""stim"" ><div class = green_square id = ""topsquare"" ></div><img id = ""stim"" ><div class = green_square  id = ""bottomsquare"" ></div>",32,word_square,response,0,none,true,,,
html-keyboard-response,61,123534,null,"TIRED",null,word,,,,,TIRED,,
html-keyboard-response,62,124036,null,"ENTERTAINING<img id = ""stim"" ><div class = green_square id = ""topsquare"" ></div><img id = ""stim"" ><div class = green_square  id = ""bottomsquare"" ></div>",null,word_square,response,0,none,true,,,
html-keyboard-response,63,125538,null,"ENTERTAINING",null,word,,,,,ENTERTAINING,,
html-keyboard-response,64,125865,324.98500001383945,"GRATEFUL<img id = ""stim"" ><div class = red_square id = ""topsquare"" ></div><img id = ""stim"" ><div class = red_square  id = ""bottomsquare"" ></div>",32,word_square,response,1,Space,true,,,
html-keyboard-response,65,127366,null,"GRATEFUL",null,word,,,,,GRATEFUL,,
html-keyboard-response,66,127868,null,"LOUD<img id = ""stim"" ><div class = green_square id = ""topsquare"" ></div><img id = ""stim"" ><div class = green_square  id = ""bottomsquare"" ></div>",null,word_square,response,0,none,true,,,
html-keyboard-response,67,129370,null,"LOUD",null,word,,,,,LOUD,,
html-keyboard-response,68,129681,309.36000001383945,"SMART<img id = ""stim"" ><div class = red_square id = ""topsquare"" ></div><img id = ""stim"" ><div class = red_square  id = ""bottomsquare"" ></div>",32,word_square,response,1,Space,true,,,
html-keyboard-response,69,131183,null,"SMART",null,word,,,,,SMART,,
html-keyboard-response,70,131577,392.46999999159016,"SMOOTH<img id = ""stim"" ><div class = red_square id = ""topsquare"" ></div><img id = ""stim"" ><div class = red_square  id = ""bottomsquare"" ></div>",32,word_square,response,1,Space,true,,,
html-keyboard-response,71,133078,null,"SMOOTH",null,word,,,,,SMOOTH,,
html-keyboard-response,72,133579,null,"DISHONEST<img id = ""stim"" ><div class = green_square id = ""topsquare"" ></div><img id = ""stim"" ><div class = green_square  id = ""bottomsquare"" ></div>",null,word_square,response,0,none,true,,,
html-keyboard-response,73,135082,null,"DISHONEST",null,word,,,,,DISHONEST,,
html-keyboard-response,74,135488,405.0899999856483,"WEALTHY<img id = ""stim"" ><div class = red_square id = ""topsquare"" ></div><img id = ""stim"" ><div class = red_square  id = ""bottomsquare"" ></div>",32,word_square,response,1,Space,true,,,
html-keyboard-response,75,136990,null,"WEALTHY",null,word,,,,,WEALTHY,,
html-keyboard-response,76,137492,null,"BEAUTIFUL<img id = ""stim"" ><div class = green_square id = ""topsquare"" ></div><img id = ""stim"" ><div class = green_square  id = ""bottomsquare"" ></div>",null,word_square,response,0,none,true,,,
html-keyboard-response,77,138995,null,"BEAUTIFUL",null,word,,,,,BEAUTIFUL,,
html-keyboard-response,78,139497,null,"DREARY<img id = ""stim"" ><div class = green_square id = ""topsquare"" ></div><img id = ""stim"" ><div class = green_square  id = ""bottomsquare"" ></div>",null,word_square,response,0,none,true,,,
html-keyboard-response,79,140999,null,"DREARY",null,word,,,,,DREARY,,
html-keyboard-response,80,141361,359.21999998390675,"PLAYFUL<img id = ""stim"" ><div class = red_square id = ""topsquare"" ></div><img id = ""stim"" ><div class = red_square  id = ""bottomsquare"" ></div>",32,word_square,response,1,Space,true,,,
html-keyboard-response,81,142863,null,"PLAYFUL",null,word,,,,,PLAYFUL,,
html-keyboard-response,82,145545,2679.7049999877345,"<p> Good job! You responded correctly to 94% of the red squares.</p>
                  <p>Be sure to keep your accuracy above 80%</p>
                  <p>Press any key to begin the math and recall sections. Thank you!</p>",32,,,,,,,,
call-function,83,145545,,"",,,,,,,,,
html-keyboard-response,84,145648,null,"",null,,,,,,,,
math-period,85,149953,7199.505000025965,"",,,,,,,,,3numpad
html-keyboard-response,86,150056,null,"",null,,,,,,,,
math-period,87,154616,6918.424999981653,"",,,,,,,,,2numpad
html-keyboard-response,88,154731,null,"",null,,,,,,,,
math-period,89,157040,3808.6749999783933,"",,,,,,,,,6
html-keyboard-response,90,157151,null,"",null,,,,,,,,
math-period,91,158304,1991.5599999658298,"",,,,,,,,,6
html-keyboard-response,92,158411,null,"",null,,,,,,,,
math-period,93,159936,2718.9500000386033,"",,,,,,,,,3
html-keyboard-response,94,160040,null,"",null,,,,,,,,
math-period,95,161456,2509.2100000183564,"",,,,,,,,,3
html-keyboard-response,96,161559,null,"",null,,,,,,,,
math-period,97,163096,2704.7249999886844,"",,,,,,,,,6
html-keyboard-response,98,163198,null,"",null,,,,,,,,
math-period,99,164992,3131.1649999697693,"",,,,,,,,,5
html-keyboard-response,100,165095,null,"",null,,,,,,,,
math-period,101,168240,5255.995000043185,"",,,,,,,,,2
html-keyboard-response,102,168352,null,"",null,,,,,,,,
math-period,103,169547,null,"",,,,,,,,,
html-keyboard-response,104,170548,null,"Recall Period!",null,,,,,,,,
call-function,105,170549,,"",,,,,,,,,
html-keyboard-response,106,170650,null,"",null,,,,,,,,
recall-period,107,176529,36355.02999986056,"",,,,,,,,,wealthy
html-keyboard-response,108,176634,null,"",null,,,,,,,,
recall-period,109,183889,32081.540000042878,"",,,,,,,,,cold
html-keyboard-response,110,184001,null,"",null,,,,,,,,
recall-period,111,199792,148288.19999992265,"",,,,,,,,,beautiful
html-keyboard-response,112,199901,null,"",null,,,,,,,,
recall-period,113,212176,59667.74500004249,"",,,,,,,,,coat
html-keyboard-response,114,212278,null,"",null,,,,,,,,
recall-period,115,245550,null,"",,,,,,,,,
html-keyboard-response,116,246052,null,"Time's Up!",null,,,,,,,,
html-keyboard-response,117,257673,11619.124999997439,"<p>We will now begin the experiment!<p><p>Please try to remember all words from each list.<p><p>Press the spacebar whenever you see a red square.<p><p><p><p>Press the spacebar to begin.</p>",32,,,,,,,,
html-keyboard-response,118,261416,3242.035000002943,"<div style=""font-size:48px;"">Press any key to begin list 1 of 24 </div>",50,,,,,,,,
html-keyboard-response,119,263919,null,"<div style=""font-size:60px;"">+</div>",null,,,,,,,,
html-keyboard-response,120,264421,null,"SICKLE<img id = ""stim"" ><div class = green_square id = ""topsquare"" ></div><img id = ""stim"" ><div class = green_square  id = ""bottomsquare"" ></div>",null,word_square,response,0,none,true,,,
html-keyboard-response,121,265922,null,"SICKLE",null,word,,,,, 'SICKLE',,
html-keyboard-response,122,266304,380.98999997600913,"RADISH<img id = ""stim"" ><div class = red_square id = ""topsquare"" ></div><img id = ""stim"" ><div class = red_square  id = ""bottomsquare"" ></div>",32,word_square,response,1,Space,true,,,
html-keyboard-response,123,267806,null,"RADISH",null,word,,,,, 'RADISH',,
html-keyboard-response,124,268307,null,"BIBLE<img id = ""stim"" ><div class = green_square id = ""topsquare"" ></div><img id = ""stim"" ><div class = green_square  id = ""bottomsquare"" ></div>",null,word_square,response,0,none,true,,,
html-keyboard-response,125,269809,null,"BIBLE",null,word,,,,, 'BIBLE',,
html-keyboard-response,126,270280,470.5050000047777,"SPINACH<img id = ""stim"" ><div class = red_square id = ""topsquare"" ></div><img id = ""stim"" ><div class = red_square  id = ""bottomsquare"" ></div>",32,word_square,response,1,Space,true,,,
html-keyboard-response,127,271782,null,"SPINACH",null,word,,,,, 'SPINACH',,
html-keyboard-response,128,272284,null,"BRIEFCASE<img id = ""stim"" ><div class = green_square id = ""topsquare"" ></div><img id = ""stim"" ><div class = green_square  id = ""bottomsquare"" ></div>",null,word_square,response,0,none,true,,,
html-keyboard-response,129,273785,null,"BRIEFCASE",null,word,,,,, 'BRIEFCASE',,
html-keyboard-response,130,274287,null,"PADDING<img id = ""stim"" ><div class = green_square id = ""topsquare"" ></div><img id = ""stim"" ><div class = green_square  id = ""bottomsquare"" ></div>",null,word_square,response,0,none,true,,,
html-keyboard-response,131,275789,null,"PADDING",null,word,,,,, 'PADDING',,
html-keyboard-response,132,276152,362.6599999843165,"VELVET<img id = ""stim"" ><div class = red_square id = ""topsquare"" ></div><img id = ""stim"" ><div class = red_square  id = ""bottomsquare"" ></div>",32,word_square,response,1,Space,true,,,
html-keyboard-response,133,277654,null,"VELVET",null,word,,,,, 'VELVET',,
html-keyboard-response,134,278156,null,"BEAST<img id = ""stim"" ><div class = red_square id = ""topsquare"" ></div><img id = ""stim"" ><div class = red_square  id = ""bottomsquare"" ></div>",null,word_square,response,1,Space,false,,,
html-keyboard-response,135,279658,null,"BEAST",null,word,,,,, 'BEAST',,
html-keyboard-response,136,280160,null,"TOMBSTONE<img id = ""stim"" ><div class = red_square id = ""topsquare"" ></div><img id = ""stim"" ><div class = red_square  id = ""bottomsquare"" ></div>",null,word_square,response,1,Space,false,,,
html-keyboard-response,137,281662,null,"TOMBSTONE",null,word,,,,, 'TOMBSTONE',,
html-keyboard-response,138,282164,null,"ATLAS<img id = ""stim"" ><div class = green_square id = ""topsquare"" ></div><img id = ""stim"" ><div class = green_square  id = ""bottomsquare"" ></div>",null,word_square,response,0,none,true,,,
html-keyboard-response,139,283667,null,"ATLAS",null,word,,,,, 'ATLAS',,
html-keyboard-response,140,284168,null,"MAMMAL<img id = ""stim"" ><div class = green_square id = ""topsquare"" ></div><img id = ""stim"" ><div class = green_square  id = ""bottomsquare"" ></div>",null,word_square,response,0,none,true,,,
html-keyboard-response,141,285669,null,"MAMMAL",null,word,,,,, 'MAMMAL',,
html-keyboard-response,142,286181,null,"CASKET<img id = ""stim"" ><div class = red_square id = ""topsquare"" ></div><img id = ""stim"" ><div class = red_square  id = ""bottomsquare"" ></div>",null,word_square,response,1,Space,false,,,
html-keyboard-response,143,287684,null,"CASKET",null,word,,,,, 'CASKET',,
html-keyboard-response,144,288185,null,"COBWEB<img id = ""stim"" ><div class = green_square id = ""topsquare"" ></div><img id = ""stim"" ><div class = green_square  id = ""bottomsquare"" ></div>",null,word_square,response,0,none,true,,,
html-keyboard-response,145,289687,null,"COBWEB",null,word,,,,, 'COBWEB',,
html-keyboard-response,146,290144,456.4700000046287,"PORPOISE<img id = ""stim"" ><div class = red_square id = ""topsquare"" ></div><img id = ""stim"" ><div class = red_square  id = ""bottomsquare"" ></div>",32,word_square,response,1,Space,true,,,
html-keyboard-response,147,291647,null,"PORPOISE",null,word,,,,, 'PORPOISE',,
html-keyboard-response,148,292148,null,"BADGE<img id = ""stim"" ><div class = red_square id = ""topsquare"" ></div><img id = ""stim"" ><div class = red_square  id = ""bottomsquare"" ></div>",null,word_square,response,1,Space,false,,,
html-keyboard-response,149,293650,null,"BADGE",null,word,,,,, 'BADGE',,
html-keyboard-response,150,294152,null,"DOUGHNUT<img id = ""stim"" ><div class = green_square id = ""topsquare"" ></div><img id = ""stim"" ><div class = green_square  id = ""bottomsquare"" ></div>",null,word_square,response,0,none,true,,,
html-keyboard-response,151,295653,null,"DOUGHNUT",null,word,,,,, 'DOUGHNUT',,
html-keyboard-response,152,296154,null,"FOLDER<img id = ""stim"" ><div class = green_square id = ""topsquare"" ></div><img id = ""stim"" ><div class = green_square  id = ""bottomsquare"" ></div>",null,word_square,response,0,none,true,,,
html-keyboard-response,153,297657,null,"FOLDER",null,word,,,,, 'FOLDER',,
html-keyboard-response,154,298158,null,"OX<img id = ""stim"" ><div class = red_square id = ""topsquare"" ></div><img id = ""stim"" ><div class = red_square  id = ""bottomsquare"" ></div>",null,word_square,response,1,Space,false,,,
html-keyboard-response,155,299659,null,"OX",null,word,,,,, 'OX',,
call-function,156,299660,,"",,,,,,,,,
html-keyboard-response,157,299761,null,"",null,,,,,,,,
math-period,158,303520,7156.830000021728,"",,,,,,,,,1
html-keyboard-response,159,303631,null,"",null,,,,,,,,
math-period,160,305872,4079.5000000216532,"",,,,,,,,,2
html-keyboard-response,161,305981,null,"",null,,,,,,,,
math-period,162,308216,4125.339999969583,"",,,,,,,,,1
html-keyboard-response,163,308318,null,"",null,,,,,,,,
math-period,164,310016,2962.774999992689,"",,,,,,,,,3
html-keyboard-response,165,310131,null,"",null,,,,,,,,
math-period,166,311504,2391.4399999775924,"",,,,,,,,,5
html-keyboard-response,167,311618,null,"",null,,,,,,,,
math-period,168,314272,5081.819999992149,"",,,,,,,,,1
html-keyboard-response,169,314375,null,"",null,,,,,,,,
math-period,170,315889,2632.099999987986,"",,,,,,,,,4
html-keyboard-response,171,316001,null,"",null,,,,,,,,
math-period,172,317264,2332.159999990836,"",,,,,,,,,5
html-keyboard-response,173,317366,null,"",null,,,,,,,,
math-period,174,320920,11861.234999960288,"",,,,,,,,,0
html-keyboard-response,175,321032,null,"",null,,,,,,,,
math-period,176,322633,2950.569999986328,"",,,,,,,,,2
html-keyboard-response,177,322741,null,"",null,,,,,,,,
math-period,178,323660,null,"",,,,,,,,,
html-keyboard-response,179,324662,null,"Recall Period!",null,,,,,,,,
call-function,180,324663,,"",,,,,,,,,
html-keyboard-response,181,324765,null,"",null,,,,,,,,
recall-period,182,331464,43938.52000005427,"",,,,,,,,,folder
html-keyboard-response,183,331567,null,"",null,,,,,,,,
recall-period,184,340384,47548.910000157775,"",,,,,,,,,doughnut
html-keyboard-response,185,340491,null,"",null,,,,,,,,
recall-period,186,343153,14002.674999908777,"",,,,,,,,,casket
html-keyboard-response,187,343259,null,"",null,,,,,,,,
recall-period,188,350169,26514.34999986668,"",,,,,,,,,atlas
html-keyboard-response,189,350271,null,"",null,,,,,,,,
recall-period,190,359640,82388.43000005,"",,,,,,,,,tombstone
html-keyboard-response,191,359742,null,"",null,,,,,,,,
recall-period,192,366992,32002.02999994508,"",,,,,,,,,best
html-keyboard-response,193,367094,null,"",null,,,,,,,,
recall-period,194,369056,8208.14499995322,"",,,,,,,,,beast
html-keyboard-response,195,369157,null,"",null,,,,,,,,
recall-period,196,382272,87810.54999990738,"",,,,,,,,,spinach
html-keyboard-response,197,382377,null,"",null,,,,,,,,
recall-period,198,396904,96141.70500001637,"",,,,,,,,,sickle
html-keyboard-response,199,397005,null,"",null,,,,,,,,
recall-period,200,399665,null,"",,,,,,,,,
html-keyboard-response,201,400166,null,"Time's Up!",null,,,,,,,,
html-keyboard-response,202,406984,6816.120000003139,"<p> Good job! You responded correctly to 83% of the red squares.</p>
                  <p>Be sure to keep your accuracy above 80%</p>
                  <p>Press any key to continue the experiment. Thank you!</p>",32,,,,,,,,
html-keyboard-response,203,409736,2750.559999985853,"<div style=""font-size:48px;"">Press any key to begin list 2 of 24 </div>",50,,,,,,,,
html-keyboard-response,204,412239,null,"<div style=""font-size:60px;"">+</div>",null,,,,,,,,
html-keyboard-response,205,412740,null,"WORKER<img id = ""stim"" ><div class = green_square id = ""topsquare"" ></div><img id = ""stim"" ><div class = green_square  id = ""bottomsquare"" ></div>",null,word_square,response,0,none,true,,,
html-keyboard-response,206,414243,null,"WORKER",null,word,,,,, 'WORKER',,
html-keyboard-response,207,414664,419.7750000166707,"CELLAR<img id = ""stim"" ><div class = red_square id = ""topsquare"" ></div><img id = ""stim"" ><div class = red_square  id = ""bottomsquare"" ></div>",32,word_square,response,1,Space,true,,,
html-keyboard-response,208,416166,null,"CELLAR",null,word,,,,, 'CELLAR',,
html-keyboard-response,209,416691,null,"DRAGON<img id = ""stim"" ><div class = green_square id = ""topsquare"" ></div><img id = ""stim"" ><div class = green_square  id = ""bottomsquare"" ></div>",null,word_square,response,0,none,true,,,
html-keyboard-response,210,418193,null,"DRAGON",null,word,,,,, 'DRAGON',,
html-keyboard-response,211,418601,405.94500000588596,"MONGOOSE<img id = ""stim"" ><div class = red_square id = ""topsquare"" ></div><img id = ""stim"" ><div class = red_square  id = ""bottomsquare"" ></div>",32,word_square,response,1,Space,true,,,
html-keyboard-response,212,420102,null,"MONGOOSE",null,word,,,,, 'MONGOOSE',,
html-keyboard-response,213,420603,null,"DRINK<img id = ""stim"" ><div class = green_square id = ""topsquare"" ></div><img id = ""stim"" ><div class = green_square  id = ""bottomsquare"" ></div>",null,word_square,response,0,none,true,,,
html-keyboard-response,214,422105,null,"DRINK",null,word,,,,, 'DRINK',,
html-keyboard-response,215,422606,null,"GLASSES<img id = ""stim"" ><div class = green_square id = ""topsquare"" ></div><img id = ""stim"" ><div class = green_square  id = ""bottomsquare"" ></div>",null,word_square,response,0,none,true,,,
html-keyboard-response,216,424108,null,"GLASSES",null,word,,,,, 'GLASSES',,
html-keyboard-response,217,424488,379.224999982398,"ELBOW<img id = ""stim"" ><div class = red_square id = ""topsquare"" ></div><img id = ""stim"" ><div class = red_square  id = ""bottomsquare"" ></div>",32,word_square,response,1,Space,true,,,
html-keyboard-response,218,425990,null,"ELBOW",null,word,,,,, 'ELBOW',,
html-keyboard-response,219,426376,385.1300000096671,"ANKLE<img id = ""stim"" ><div class = red_square id = ""topsquare"" ></div><img id = ""stim"" ><div class = red_square  id = ""bottomsquare"" ></div>",32,word_square,response,1,Space,true,,,
html-keyboard-response,220,427878,null,"ANKLE",null,word,,,,, 'ANKLE',,
html-keyboard-response,221,428272,393.0850000178907,"BRUNETTE<img id = ""stim"" ><div class = red_square id = ""topsquare"" ></div><img id = ""stim"" ><div class = red_square  id = ""bottomsquare"" ></div>",32,word_square,response,1,Space,true,,,
html-keyboard-response,222,429774,null,"BRUNETTE",null,word,,,,, 'BRUNETTE',,
html-keyboard-response,223,430277,null,"FIREMAN<img id = ""stim"" ><div class = green_square id = ""topsquare"" ></div><img id = ""stim"" ><div class = green_square  id = ""bottomsquare"" ></div>",null,word_square,response,0,none,true,,,
html-keyboard-response,224,431779,null,"FIREMAN",null,word,,,,, 'FIREMAN',,
html-keyboard-response,225,432282,null,"SHELTER<img id = ""stim"" ><div class = green_square id = ""topsquare"" ></div><img id = ""stim"" ><div class = green_square  id = ""bottomsquare"" ></div>",null,word_square,response,0,none,true,,,
html-keyboard-response,226,433783,null,"SHELTER",null,word,,,,, 'SHELTER',,
html-keyboard-response,227,434177,392.1649999974761,"COTTAGE<img id = ""stim"" ><div class = red_square id = ""topsquare"" ></div><img id = ""stim"" ><div class = red_square  id = ""bottomsquare"" ></div>",32,word_square,response,1,Space,true,,,
html-keyboard-response,228,435678,null,"COTTAGE",null,word,,,,, 'COTTAGE',,
html-keyboard-response,229,436180,null,"LEADER<img id = ""stim"" ><div class = green_square id = ""topsquare"" ></div><img id = ""stim"" ><div class = green_square  id = ""bottomsquare"" ></div>",null,word_square,response,0,none,true,,,
html-keyboard-response,230,437681,null,"LEADER",null,word,,,,, 'LEADER',,
html-keyboard-response,231,438096,414.14499998791143,"TAXI<img id = ""stim"" ><div class = red_square id = ""topsquare"" ></div><img id = ""stim"" ><div class = red_square  id = ""bottomsquare"" ></div>",32,word_square,response,1,Space,true,,,
html-keyboard-response,232,439597,null,"TAXI",null,word,,,,, 'TAXI',,
html-keyboard-response,233,439992,393.46000002115034,"SENATE<img id = ""stim"" ><div class = red_square id = ""topsquare"" ></div><img id = ""stim"" ><div class = red_square  id = ""bottomsquare"" ></div>",32,word_square,response,1,Space,true,,,
html-keyboard-response,234,441493,null,"SENATE",null,word,,,,, 'SENATE',,
html-keyboard-response,235,441995,null,"COUCH<img id = ""stim"" ><div class = green_square id = ""topsquare"" ></div><img id = ""stim"" ><div class = green_square  id = ""bottomsquare"" ></div>",null,word_square,response,0,none,true,,,
html-keyboard-response,236,443497,null,"COUCH",null,word,,,,, 'COUCH',,
html-keyboard-response,237,443998,null,"MATTRESS<img id = ""stim"" ><div class = green_square id = ""topsquare"" ></div><img id = ""stim"" ><div class = green_square  id = ""bottomsquare"" ></div>",null,word_square,response,0,none,true,,,
html-keyboard-response,238,445500,null,"MATTRESS",null,word,,,,, 'MATTRESS',,
html-keyboard-response,239,445849,347.604999988107,"TROUT<img id = ""stim"" ><div class = red_square id = ""topsquare"" ></div><img id = ""stim"" ><div class = red_square  id = ""bottomsquare"" ></div>",32,word_square,response,1,Space,true,,,
html-keyboard-response,240,447351,null,"TROUT",null,word,,,,, 'TROUT',,
call-function,241,447352,,"",,,,,,,,,
html-keyboard-response,242,447453,null,"",null,,,,,,,,
math-period,243,449744,4266.985000023851,"",,,,,,,,,1
html-keyboard-response,244,449851,null,"",null,,,,,,,,
math-period,245,453824,5839.16000003228,"",,,,,,,,,1
html-keyboard-response,246,453940,null,"",null,,,,,,,,
math-period,247,455360,2549.8050000460353,"",,,,,,,,,3
html-keyboard-response,248,455462,null,"",null,,,,,,,,
math-period,249,456960,2561.890000011772,"",,,,,,,,,5
html-keyboard-response,250,457068,null,"",null,,,,,,,,
math-period,251,458409,2430.2699999825563,"",,,,,,,,,2
html-keyboard-response,252,458520,null,"",null,,,,,,,,
math-period,253,460008,2597.075000026962,"",,,,,,,,,4
html-keyboard-response,254,460109,null,"",null,,,,,,,,
math-period,255,461936,3443.1749999930616,"",,,,,,,,,1
html-keyboard-response,256,462040,null,"",null,,,,,,,,
math-period,257,463504,2774.189999967348,"",,,,,,,,,1
html-keyboard-response,258,463606,null,"",null,,,,,,,,
math-period,259,464896,2394.425000034971,"",,,,,,,,,3
html-keyboard-response,260,464998,null,"",null,,,,,,,,
math-period,261,467193,6803.139999974519,"",,,,,,,,,4
html-keyboard-response,262,467302,null,"",null,,,,,,,,
math-period,263,468944,2940.6749999616295,"",,,,,,,,,4
html-keyboard-response,264,469051,null,"",null,,,,,,,,
math-period,265,470321,2295.65499999444,"",,,,,,,,,3
html-keyboard-response,266,470436,null,"",null,,,,,,,,
math-period,267,471353,null,"",,,,,,,,,
html-keyboard-response,268,472355,null,"Recall Period!",null,,,,,,,,
call-function,269,472355,,"",,,,,,,,,
html-keyboard-response,270,472457,null,"",null,,,,,,,,
recall-period,271,475233,14662.104999908479,"",,,,,,,,,dragon
html-keyboard-response,272,475349,null,"",null,,,,,,,,
recall-period,273,477521,14508.149999950547,"",,,,,,,,,mongoose
html-keyboard-response,274,477632,null,"",null,,,,,,,,
recall-period,275,480944,13934.215000102995,"",,,,,,,,,worker
html-keyboard-response,276,481046,null,"",null,,,,,,,,
recall-period,277,482416,4333.539999992354,"",,,,,,,,,taxi
html-keyboard-response,278,482521,null,"",null,,,,,,,,
recall-period,279,490552,45757.909999927506,"",,,,,,,,,scalp
html-keyboard-response,280,490673,null,"",null,,,,,,,,
recall-period,281,502569,45024.28500002134,"",,,,,,,,,tax
html-keyboard-response,282,502676,null,"",null,,,,,,,,
recall-period,283,540751,224124.04999995488,"",,,,,,,,,bread
html-keyboard-response,284,540861,null,"",null,,,,,,,,
recall-period,285,547358,null,"",,,,,,,,,
html-keyboard-response,286,547859,null,"Time's Up!",null,,,,,,,,
html-keyboard-response,287,551600,3739.6999999764375,"<p> Good job! You responded correctly to 89% of the red squares.</p>
                  <p>Be sure to keep your accuracy above 80%</p>
                  <p>Press any key to continue the experiment. Thank you!</p>",32,,,,,,,,
html-keyboard-response,288,552384,782.6200000126846,"<div style=""font-size:48px;"">Press any key to begin list 3 of 24 </div>",51,,,,,,,,
html-keyboard-response,289,554888,null,"<div style=""font-size:60px;"">+</div>",null,,,,,,,,
html-keyboard-response,290,555352,462.310000002617,"CLAM<img id = ""stim"" ><div class = red_square id = ""topsquare"" ></div><img id = ""stim"" ><div class = red_square  id = ""bottomsquare"" ></div>",32,word_square,response,1,Space,true,,,
html-keyboard-response,291,556854,null,"CLAM",null,word,,,,, 'CLAM',,
html-keyboard-response,292,557356,null,"OYSTER<img id = ""stim"" ><div class = green_square id = ""topsquare"" ></div><img id = ""stim"" ><div class = green_square  id = ""bottomsquare"" ></div>",null,word_square,response,0,none,true,,,
html-keyboard-response,293,558858,null,"OYSTER",null,word,,,,, 'OYSTER',,
html-keyboard-response,294,559296,436.390000017127,"LOBBY<img id = ""stim"" ><div class = red_square id = ""topsquare"" ></div><img id = ""stim"" ><div class = red_square  id = ""bottomsquare"" ></div>",32,word_square,response,1,Space,true,,,
html-keyboard-response,295,560797,null,"LOBBY",null,word,,,,, 'LOBBY',,
html-keyboard-response,296,561300,null,"JAR<img id = ""stim"" ><div class = green_square id = ""topsquare"" ></div><img id = ""stim"" ><div class = green_square  id = ""bottomsquare"" ></div>",null,word_square,response,0,none,true,,,
html-keyboard-response,297,562802,null,"JAR",null,word,,,,, 'JAR',,
html-keyboard-response,298,563160,356.57000000355765,"MONSTER<img id = ""stim"" ><div class = red_square id = ""topsquare"" ></div><img id = ""stim"" ><div class = red_square  id = ""bottomsquare"" ></div>",32,word_square,response,1,Space,true,,,
html-keyboard-response,299,564661,null,"MONSTER",null,word,,,,, 'MONSTER',,
html-keyboard-response,300,565072,409.1550000011921,"COFFIN<img id = ""stim"" ><div class = red_square id = ""topsquare"" ></div><img id = ""stim"" ><div class = red_square  id = ""bottomsquare"" ></div>",32,word_square,response,1,Space,true,,,
html-keyboard-response,301,566574,null,"COFFIN",null,word,,,,, 'COFFIN',,
html-keyboard-response,302,567075,null,"PRINCE<img id = ""stim"" ><div class = green_square id = ""topsquare"" ></div><img id = ""stim"" ><div class = green_square  id = ""bottomsquare"" ></div>",null,word_square,response,0,none,true,,,
html-keyboard-response,303,568577,null,"PRINCE",null,word,,,,, 'PRINCE',,
html-keyboard-response,304,569079,null,"JUNGLE<img id = ""stim"" ><div class = green_square id = ""topsquare"" ></div><img id = ""stim"" ><div class = green_square  id = ""bottomsquare"" ></div>",null,word_square,response,0,none,true,,,
html-keyboard-response,305,570582,null,"JUNGLE",null,word,,,,, 'JUNGLE',,
html-keyboard-response,306,571084,null,"ARM<img id = ""stim"" ><div class = green_square id = ""topsquare"" ></div><img id = ""stim"" ><div class = green_square  id = ""bottomsquare"" ></div>",null,word_square,response,0,none,true,,,
html-keyboard-response,307,572586,null,"ARM",null,word,,,,, 'ARM',,
html-keyboard-response,308,572896,308.28500000643544,"GIRAFFE<img id = ""stim"" ><div class = red_square id = ""topsquare"" ></div><img id = ""stim"" ><div class = red_square  id = ""bottomsquare"" ></div>",32,word_square,response,1,Space,true,,,
html-keyboard-response,309,574397,null,"GIRAFFE",null,word,,,,, 'GIRAFFE',,
html-keyboard-response,310,574900,null,"BRACES<img id = ""stim"" ><div class = red_square id = ""topsquare"" ></div><img id = ""stim"" ><div class = red_square  id = ""bottomsquare"" ></div>",null,word_square,response,1,Space,false,,,
html-keyboard-response,311,576402,null,"BRACES",null,word,,,,, 'BRACES',,
html-keyboard-response,312,576904,null,"BLENDER<img id = ""stim"" ><div class = green_square id = ""topsquare"" ></div><img id = ""stim"" ><div class = green_square  id = ""bottomsquare"" ></div>",null,word_square,response,0,none,true,,,
html-keyboard-response,313,578405,null,"BLENDER",null,word,,,,, 'BLENDER',,
html-keyboard-response,314,578711,305.1149999955669,"CRUTCH<img id = ""stim"" ><div class = red_square id = ""topsquare"" ></div><img id = ""stim"" ><div class = red_square  id = ""bottomsquare"" ></div>",32,word_square,response,1,Space,true,,,
html-keyboard-response,315,580213,null,"CRUTCH",null,word,,,,, 'CRUTCH',,
html-keyboard-response,316,580715,null,"DENTIST<img id = ""stim"" ><div class = green_square id = ""topsquare"" ></div><img id = ""stim"" ><div class = green_square  id = ""bottomsquare"" ></div>",null,word_square,response,0,none,true,,,
html-keyboard-response,317,582217,null,"DENTIST",null,word,,,,, 'DENTIST',,
html-keyboard-response,318,582719,null,"RUST<img id = ""stim"" ><div class = green_square id = ""topsquare"" ></div><img id = ""stim"" ><div class = green_square  id = ""bottomsquare"" ></div>",null,word_square,response,0,none,true,,,
html-keyboard-response,319,584221,null,"RUST",null,word,,,,, 'RUST',,
html-keyboard-response,320,584568,345.44000000460073,"PATROL<img id = ""stim"" ><div class = red_square id = ""topsquare"" ></div><img id = ""stim"" ><div class = red_square  id = ""bottomsquare"" ></div>",32,word_square,response,1,Space,true,,,
html-keyboard-response,321,586070,null,"PATROL",null,word,,,,, 'PATROL',,
html-keyboard-response,322,586504,432.76500000501983,"HELMET<img id = ""stim"" ><div class = red_square id = ""topsquare"" ></div><img id = ""stim"" ><div class = red_square  id = ""bottomsquare"" ></div>",32,word_square,response,1,Space,true,,,
html-keyboard-response,323,588006,null,"HELMET",null,word,,,,, 'HELMET',,
html-keyboard-response,324,588508,null,"HERO<img id = ""stim"" ><div class = green_square id = ""topsquare"" ></div><img id = ""stim"" ><div class = green_square  id = ""bottomsquare"" ></div>",null,word_square,response,0,none,true,,,
html-keyboard-response,325,590009,null,"HERO",null,word,,,,, 'HERO',,
call-function,326,590010,,"",,,,,,,,,
html-keyboard-response,327,590111,null,"",null,,,,,,,,
math-period,328,592672,4734.32000001776,"",,,,,,,,,3
html-keyboard-response,329,592774,null,"",null,,,,,,,,
math-period,330,593992,2176.2649999873247,"",,,,,,,,,5
html-keyboard-response,331,594094,null,"",null,,,,,,,,
math-period,332,595200,1984.7650000010617,"",,,,,,,,,6
html-keyboard-response,333,595311,null,"",null,,,,,,,,
math-period,334,596456,2094.7550000273623,"",,,,,,,,,4
html-keyboard-response,335,596558,null,"",null,,,,,,,,
math-period,336,597647,2017.5800000142772,"",,,,,,,,,2
html-keyboard-response,337,597749,null,"",null,,,,,,,,
math-period,338,599160,2650.999999983469,"",,,,,,,,,1
html-keyboard-response,339,599261,null,"",null,,,,,,,,
math-period,340,602888,12180.48500007717,"",,,,,,,,,3
html-keyboard-response,341,602989,null,"",null,,,,,,,,
math-period,342,605592,4794.620000000577,"",,,,,,,,,0
html-keyboard-response,343,605702,null,"",null,,,,,,,,
math-period,344,607360,3065.3000000165775,"",,,,,,,,,1
html-keyboard-response,345,607472,null,"",null,,,,,,,,
math-period,346,609496,3814.200000022538,"",,,,,,,,,2
html-keyboard-response,347,609611,null,"",null,,,,,,,,
math-period,348,610840,2303.474999964237,"",,,,,,,,,2
html-keyboard-response,349,610942,null,"",null,,,,,,,,
math-period,350,612560,2842.2349999891594,"",,,,,,,,,5
html-keyboard-response,351,612661,null,"",null,,,,,,,,
math-period,352,613592,1666.9650000112597,"",,,,,,,,,6
html-keyboard-response,353,613701,null,"",null,,,,,,,,
math-period,354,614011,null,"",,,,,,,,,
html-keyboard-response,355,615014,null,"Recall Period!",null,,,,,,,,
call-function,356,615015,,"",,,,,,,,,
html-keyboard-response,357,615117,null,"",null,,,,,,,,
recall-period,358,617895,14525.454999966314,"",,,,,,,,,oyster
html-keyboard-response,359,617997,null,"",null,,,,,,,,
recall-period,360,619416,4920.029999979306,"",,,,,,,,,clam
html-keyboard-response,361,619518,null,"",null,,,,,,,,
recall-period,362,652400,227734.16500000167,"",,,,,,,,,worker
html-keyboard-response,363,652502,null,"",null,,,,,,,,
recall-period,364,658720,46308.25000006007,"",,,,,,,,,dentist
html-keyboard-response,365,658822,null,"",null,,,,,,,,
recall-period,366,690017,8081.035000010161,"",,,,,,,,, 
html-keyboard-response,367,690519,null,"Time's Up!",null,,,,,,,,
html-keyboard-response,368,693872,3351.410000002943,"<p> Good job! You responded correctly to 90% of the red squares.</p>
                  <p>Be sure to keep your accuracy above 80%</p>
                  <p>Press any key to continue the experiment. Thank you!</p>",32,,,,,,,,
html-keyboard-response,369,694904,1030.6350000028033,"<div style=""font-size:48px;"">Press any key to begin list 4 of 24 </div>",52,,,,,,,,
html-keyboard-response,370,697406,null,"<div style=""font-size:60px;"">+</div>",null,,,,,,,,
html-keyboard-response,371,697908,null,"JACKET<img id = ""stim"" ><div class = red_square id = ""topsquare"" ></div><img id = ""stim"" ><div class = red_square  id = ""bottomsquare"" ></div>",null,word_square,response,1,Space,false,,,
html-keyboard-response,372,699409,null,"JACKET",null,word,,,,, 'JACKET',,
html-keyboard-response,373,699911,null,"CABOOSE<img id = ""stim"" ><div class = green_square id = ""topsquare"" ></div><img id = ""stim"" ><div class = green_square  id = ""bottomsquare"" ></div>",null,word_square,response,0,none,true,,,
html-keyboard-response,374,701414,null,"CABOOSE",null,word,,,,, 'CABOOSE',,
html-keyboard-response,375,701872,457.00999998371117,"ATOM<img id = ""stim"" ><div class = red_square id = ""topsquare"" ></div><img id = ""stim"" ><div class = red_square  id = ""bottomsquare"" ></div>",32,word_square,response,1,Space,true,,,
html-keyboard-response,376,703373,null,"ATOM",null,word,,,,, 'ATOM',,
html-keyboard-response,377,703876,null,"PROTON<img id = ""stim"" ><div class = green_square id = ""topsquare"" ></div><img id = ""stim"" ><div class = green_square  id = ""bottomsquare"" ></div>",null,word_square,response,0,none,true,,,
html-keyboard-response,378,705378,null,"PROTON",null,word,,,,, 'PROTON',,
html-keyboard-response,379,705776,397.61000001453795,"DRESS<img id = ""stim"" ><div class = red_square id = ""topsquare"" ></div><img id = ""stim"" ><div class = red_square  id = ""bottomsquare"" ></div>",32,word_square,response,1,Space,true,,,
html-keyboard-response,380,707278,null,"DRESS",null,word,,,,, 'DRESS',,
html-keyboard-response,381,707712,433.32499999087304,"GALLON<img id = ""stim"" ><div class = red_square id = ""topsquare"" ></div><img id = ""stim"" ><div class = red_square  id = ""bottomsquare"" ></div>",32,word_square,response,1,Space,true,,,
html-keyboard-response,382,709213,null,"GALLON",null,word,,,,, 'GALLON',,
html-keyboard-response,383,709715,null,"FOSSIL<img id = ""stim"" ><div class = green_square id = ""topsquare"" ></div><img id = ""stim"" ><div class = green_square  id = ""bottomsquare"" ></div>",null,word_square,response,0,none,true,,,
html-keyboard-response,384,711218,null,"FOSSIL",null,word,,,,, 'FOSSIL',,
html-keyboard-response,385,711720,null,"LOVER<img id = ""stim"" ><div class = green_square id = ""topsquare"" ></div><img id = ""stim"" ><div class = green_square  id = ""bottomsquare"" ></div>",null,word_square,response,0,none,true,,,
html-keyboard-response,386,713223,null,"LOVER",null,word,,,,, 'LOVER',,
html-keyboard-response,387,713725,null,"HOOD<img id = ""stim"" ><div class = green_square id = ""topsquare"" ></div><img id = ""stim"" ><div class = green_square  id = ""bottomsquare"" ></div>",null,word_square,response,0,none,true,,,
html-keyboard-response,388,715227,null,"HOOD",null,word,,,,, 'HOOD',,
html-keyboard-response,389,715576,347.8599999798462,"VALVE<img id = ""stim"" ><div class = red_square id = ""topsquare"" ></div><img id = ""stim"" ><div class = red_square  id = ""bottomsquare"" ></div>",32,word_square,response,1,Space,true,,,
html-keyboard-response,390,717078,null,"VALVE",null,word,,,,, 'VALVE',,
html-keyboard-response,391,717504,424.68499997630715,"STABLE<img id = ""stim"" ><div class = red_square id = ""topsquare"" ></div><img id = ""stim"" ><div class = red_square  id = ""bottomsquare"" ></div>",32,word_square,response,1,Space,true,,,
html-keyboard-response,392,719006,null,"STABLE",null,word,,,,, 'STABLE',,
html-keyboard-response,393,719508,null,"GAVEL<img id = ""stim"" ><div class = green_square id = ""topsquare"" ></div><img id = ""stim"" ><div class = green_square  id = ""bottomsquare"" ></div>",null,word_square,response,0,none,true,,,
html-keyboard-response,394,721010,null,"GAVEL",null,word,,,,, 'GAVEL',,
html-keyboard-response,395,721351,340.4049999953713,"SIRLOIN<img id = ""stim"" ><div class = red_square id = ""topsquare"" ></div><img id = ""stim"" ><div class = red_square  id = ""bottomsquare"" ></div>",32,word_square,response,1,Space,true,,,
html-keyboard-response,396,722853,null,"SIRLOIN",null,word,,,,, 'SIRLOIN',,
html-keyboard-response,397,723356,null,"LADDER<img id = ""stim"" ><div class = green_square id = ""topsquare"" ></div><img id = ""stim"" ><div class = green_square  id = ""bottomsquare"" ></div>",null,word_square,response,0,none,true,,,
html-keyboard-response,398,724857,null,"LADDER",null,word,,,,, 'LADDER',,
html-keyboard-response,399,725358,null,"WITNESS<img id = ""stim"" ><div class = green_square id = ""topsquare"" ></div><img id = ""stim"" ><div class = green_square  id = ""bottomsquare"" ></div>",null,word_square,response,0,none,true,,,
html-keyboard-response,400,726860,null,"WITNESS",null,word,,,,, 'WITNESS',,
html-keyboard-response,401,727240,378.3149999799207,"DAGGER<img id = ""stim"" ><div class = red_square id = ""topsquare"" ></div><img id = ""stim"" ><div class = red_square  id = ""bottomsquare"" ></div>",32,word_square,response,1,Space,true,,,
html-keyboard-response,402,728741,null,"DAGGER",null,word,,,,, 'DAGGER',,
html-keyboard-response,403,729208,465.45500002685003,"KNUCKLE<img id = ""stim"" ><div class = red_square id = ""topsquare"" ></div><img id = ""stim"" ><div class = red_square  id = ""bottomsquare"" ></div>",32,word_square,response,1,Space,true,,,
html-keyboard-response,404,730709,null,"KNUCKLE",null,word,,,,, 'KNUCKLE',,
html-keyboard-response,405,731211,null,"SUMMIT<img id = ""stim"" ><div class = green_square id = ""topsquare"" ></div><img id = ""stim"" ><div class = green_square  id = ""bottomsquare"" ></div>",null,word_square,response,0,none,true,,,
html-keyboard-response,406,732713,null,"SUMMIT",null,word,,,,, 'SUMMIT',,
call-function,407,732714,,"",,,,,,,,,
html-keyboard-response,408,732816,null,"",null,,,,,,,,
math-period,409,735344,4365.905000042403,"",,,,,,,,,3
html-keyboard-response,410,735445,null,"",null,,,,,,,,
math-period,411,736767,2514.214999973774,"",,,,,,,,,1
html-keyboard-response,412,736869,null,"",null,,,,,,,,
math-period,413,737848,1843.3249999943655,"",,,,,,,,,2
html-keyboard-response,414,737961,null,"",null,,,,,,,,
math-period,415,739695,3330.3000000014435,"",,,,,,,,,1
html-keyboard-response,416,739797,null,"",null,,,,,,,,
math-period,417,741432,3179.0349999791943,"",,,,,,,,,1
html-keyboard-response,418,741541,null,"",null,,,,,,,,
math-period,419,744175,8324.5749999478,"",,,,,,,,,6
html-keyboard-response,420,744277,null,"",null,,,,,,,,
math-period,421,745543,2346.5699999651406,"",,,,,,,,,3
html-keyboard-response,422,745644,null,"",null,,,,,,,,
math-period,423,748432,5147.435000020778,"",,,,,,,,,0
html-keyboard-response,424,748541,null,"",null,,,,,,,,
math-period,425,750232,3259.0199999976903,"",,,,,,,,,1
html-keyboard-response,426,750333,null,"",null,,,,,,,,
math-period,427,752000,2962.1850000112318,"",,,,,,,,,4
html-keyboard-response,428,752111,null,"",null,,,,,,,,
math-period,429,753304,2182.035000034375,"",,,,,,,,,3
html-keyboard-response,430,753406,null,"",null,,,,,,,,
math-period,431,754768,2400.4799999820534,"",,,,,,,,,4
html-keyboard-response,432,754870,null,"",null,,,,,,,,
math-period,433,756127,2328.8500000198837,"",,,,,,,,,5
html-keyboard-response,434,756229,null,"",null,,,,,,,,
math-period,435,756714,null,"",,,,,,,,,
html-keyboard-response,436,757716,null,"Recall Period!",null,,,,,,,,
call-function,437,757717,,"",,,,,,,,,
html-keyboard-response,438,757818,null,"",null,,,,,,,,
recall-period,439,760440,12817.074999999022,"",,,,,,,,,summit
html-keyboard-response,440,760541,null,"",null,,,,,,,,
recall-period,441,773271,82787.00499993283,"",,,,,,,,,office
html-keyboard-response,442,773381,null,"",null,,,,,,,,
recall-period,443,773951,568.7500000058208,"",,,,,,,,,
html-keyboard-response,444,774052,null,"",null,,,,,,,,
recall-period,445,775984,7361.609999963548,"",,,,,,,,,dress
html-keyboard-response,446,776087,null,"",null,,,,,,,,
recall-period,447,777624,4762.05500002834,"",,,,,,,,,atom
html-keyboard-response,448,777725,null,"",null,,,,,,,,
recall-period,449,786648,116726.14000021713,"",,,,,,,,,photon
html-keyboard-response,450,786764,null,"",null,,,,,,,,
recall-period,451,792008,31415.47999990871,"",,,,,,,,,jacket
html-keyboard-response,452,792110,null,"",null,,,,,,,,
recall-period,453,795696,16528.58500002185,"",,,,,,,,,hood
html-keyboard-response,454,795797,null,"",null,,,,,,,,
recall-period,455,832717,null,"",,,,,,,,,
html-keyboard-response,456,833219,null,"Time's Up!",null,,,,,,,,
html-keyboard-response,457,835624,2403.3150000032037,"<p> Good job! You responded correctly to 91% of the red squares.</p>
                  <p>Be sure to keep your accuracy above 80%</p>
                  <p>Press any key to continue the experiment. Thank you!</p>",13,,,,,,,,
html-keyboard-response,458,836295,670.5599999986589,"<div style=""font-size:48px;"">Press any key to begin list 5 of 24 </div>",13,,,,,,,,
html-keyboard-response,459,838798,null,"<div style=""font-size:60px;"">+</div>",null,,,,,,,,
html-keyboard-response,460,839301,null,"NEPTUNE<img id = ""stim"" ><div class = green_square id = ""topsquare"" ></div><img id = ""stim"" ><div class = green_square  id = ""bottomsquare"" ></div>",null,word_square,response,0,none,true,,,
html-keyboard-response,461,840803,null,"NEPTUNE",null,word,,,,, 'NEPTUNE',,
html-keyboard-response,462,841207,403.57500000391155,"SHRIMP<img id = ""stim"" ><div class = red_square id = ""topsquare"" ></div><img id = ""stim"" ><div class = red_square  id = ""bottomsquare"" ></div>",32,word_square,response,1,Space,true,,,
html-keyboard-response,463,842709,null,"SHRIMP",null,word,,,,, 'SHRIMP',,
html-keyboard-response,464,843210,null,"PECAN<img id = ""stim"" ><div class = green_square id = ""topsquare"" ></div><img id = ""stim"" ><div class = green_square  id = ""bottomsquare"" ></div>",null,word_square,response,0,none,true,,,
html-keyboard-response,465,844712,null,"PECAN",null,word,,,,, 'PECAN',,
html-keyboard-response,466,845214,null,"STAIRS<img id = ""stim"" ><div class = green_square id = ""topsquare"" ></div><img id = ""stim"" ><div class = green_square  id = ""bottomsquare"" ></div>",null,word_square,response,0,none,true,,,
html-keyboard-response,467,846716,null,"STAIRS",null,word,,,,, 'STAIRS',,
html-keyboard-response,468,847151,434.02999997488223,"SURGEON<img id = ""stim"" ><div class = red_square id = ""topsquare"" ></div><img id = ""stim"" ><div class = red_square  id = ""bottomsquare"" ></div>",32,word_square,response,1,Space,true,,,
html-keyboard-response,469,848653,null,"SURGEON",null,word,,,,, 'SURGEON',,
html-keyboard-response,470,849155,null,"BROTHER<img id = ""stim"" ><div class = red_square id = ""topsquare"" ></div><img id = ""stim"" ><div class = red_square  id = ""bottomsquare"" ></div>",null,word_square,response,1,Space,false,,,
html-keyboard-response,471,850657,null,"BROTHER",null,word,,,,, 'BROTHER',,
html-keyboard-response,472,851158,null,"SCALLOP<img id = ""stim"" ><div class = green_square id = ""topsquare"" ></div><img id = ""stim"" ><div class = green_square  id = ""bottomsquare"" ></div>",null,word_square,response,0,none,true,,,
html-keyboard-response,473,852660,null,"SCALLOP",null,word,,,,, 'SCALLOP',,
html-keyboard-response,474,853162,null,"MEAT<img id = ""stim"" ><div class = green_square id = ""topsquare"" ></div><img id = ""stim"" ><div class = green_square  id = ""bottomsquare"" ></div>",null,word_square,response,0,none,true,,,
html-keyboard-response,475,854664,null,"MEAT",null,word,,,,, 'MEAT',,
html-keyboard-response,476,855079,414.40500001772307,"BATHROOM<img id = ""stim"" ><div class = red_square id = ""topsquare"" ></div><img id = ""stim"" ><div class = red_square  id = ""bottomsquare"" ></div>",32,word_square,response,1,Space,true,,,
html-keyboard-response,477,856581,null,"BATHROOM",null,word,,,,, 'BATHROOM',,
html-keyboard-response,478,857083,null,"CONVICT<img id = ""stim"" ><div class = green_square id = ""topsquare"" ></div><img id = ""stim"" ><div class = green_square  id = ""bottomsquare"" ></div>",null,word_square,response,0,none,true,,,
html-keyboard-response,479,858585,null,"CONVICT",null,word,,,,, 'CONVICT',,
html-keyboard-response,480,858943,357.5449999771081,"QUILT<img id = ""stim"" ><div class = red_square id = ""topsquare"" ></div><img id = ""stim"" ><div class = red_square  id = ""bottomsquare"" ></div>",32,word_square,response,1,Space,true,,,
html-keyboard-response,481,860445,null,"QUILT",null,word,,,,, 'QUILT',,
html-keyboard-response,482,860832,385.9799999918323,"MEDAL<img id = ""stim"" ><div class = red_square id = ""topsquare"" ></div><img id = ""stim"" ><div class = red_square  id = ""bottomsquare"" ></div>",32,word_square,response,1,Space,true,,,
html-keyboard-response,483,862334,null,"MEDAL",null,word,,,,, 'MEDAL',,
html-keyboard-response,484,862837,null,"CHEST<img id = ""stim"" ><div class = green_square id = ""topsquare"" ></div><img id = ""stim"" ><div class = green_square  id = ""bottomsquare"" ></div>",null,word_square,response,0,none,true,,,
html-keyboard-response,485,864338,null,"CHEST",null,word,,,,, 'CHEST',,
html-keyboard-response,486,864703,363.86499999207444,"VICTOR<img id = ""stim"" ><div class = red_square id = ""topsquare"" ></div><img id = ""stim"" ><div class = red_square  id = ""bottomsquare"" ></div>",32,word_square,response,1,Space,true,,,
html-keyboard-response,487,866206,null,"VICTOR",null,word,,,,, 'VICTOR',,
html-keyboard-response,488,866707,null,"LACE<img id = ""stim"" ><div class = green_square id = ""topsquare"" ></div><img id = ""stim"" ><div class = green_square  id = ""bottomsquare"" ></div>",null,word_square,response,0,none,true,,,
html-keyboard-response,489,868208,null,"LACE",null,word,,,,, 'LACE',,
html-keyboard-response,490,868710,null,"SILK<img id = ""stim"" ><div class = green_square id = ""topsquare"" ></div><img id = ""stim"" ><div class = green_square  id = ""bottomsquare"" ></div>",null,word_square,response,0,none,true,,,
html-keyboard-response,491,870211,null,"SILK",null,word,,,,, 'SILK',,
html-keyboard-response,492,870567,355.05499999271706,"OUTLAW<img id = ""stim"" ><div class = red_square id = ""topsquare"" ></div><img id = ""stim"" ><div class = red_square  id = ""bottomsquare"" ></div>",32,word_square,response,1,Space,true,,,
html-keyboard-response,493,872070,null,"OUTLAW",null,word,,,,, 'OUTLAW',,
html-keyboard-response,494,872480,408.4350000193808,"TROMBONE<img id = ""stim"" ><div class = red_square id = ""topsquare"" ></div><img id = ""stim"" ><div class = red_square  id = ""bottomsquare"" ></div>",32,word_square,response,1,Space,true,,,
html-keyboard-response,495,873981,null,"TROMBONE",null,word,,,,, 'TROMBONE',,
call-function,496,873982,,"",,,,,,,,,
html-keyboard-response,497,874083,null,"",null,,,,,,,,
math-period,498,875991,3405.5799999914598,"",,,,,,,,,1
html-keyboard-response,499,876101,null,"",null,,,,,,,,
math-period,500,878551,4610.820000001695,"",,,,,,,,,2
html-keyboard-response,501,878653,null,"",null,,,,,,,,
math-period,502,880055,2650.095000019064,"",,,,,,,,,1
html-keyboard-response,503,880157,null,"",null,,,,,,,,
math-period,504,881567,2594.135000021197,"",,,,,,,,,3
html-keyboard-response,505,881682,null,"",null,,,,,,,,
math-period,506,882512,1537.6600000017788,"",,,,,,,,,3
html-keyboard-response,507,882617,null,"",null,,,,,,,,
math-period,508,884215,2530.594999989262,"",,,,,,,,,5
html-keyboard-response,509,884317,null,"",null,,,,,,,,
math-period,510,885263,1673.789999971632,"",,,,,,,,,4
html-keyboard-response,511,885365,null,"",null,,,,,,,,
math-period,512,887583,4138.620000041556,"",,,,,,,,,0
html-keyboard-response,513,887691,null,"",null,,,,,,,,
math-period,514,888679,1791.0099999862723,"",,,,,,,,,3
html-keyboard-response,515,888792,null,"",null,,,,,,,,
math-period,516,889823,1931.9700000050943,"",,,,,,,,,4
html-keyboard-response,517,889931,null,"",null,,,,,,,,
math-period,518,890943,1933.7300000188407,"",,,,,,,,,5
html-keyboard-response,519,891045,null,"",null,,,,,,,,
math-period,520,892239,2098.8499999803025,"",,,,,,,,,4
html-keyboard-response,521,892351,null,"",null,,,,,,,,
math-period,522,895263,5677.690000011353,"",,,,,,,,,1
html-keyboard-response,523,895365,null,"",null,,,,,,,,
math-period,524,897527,6914.514999953099,"",,,,,,,,,4
html-keyboard-response,525,897641,null,"",null,,,,,,,,
math-period,526,897983,null,"",,,,,,,,,
html-keyboard-response,527,898985,null,"Recall Period!",null,,,,,,,,
call-function,528,898986,,"",,,,,,,,,
html-keyboard-response,529,899088,null,"",null,,,,,,,,
recall-period,530,901183,10182.489999948302,"",,,,,,,,,neptune
html-keyboard-response,531,901286,null,"",null,,,,,,,,
recall-period,532,903167,7259.224999987055,"",,,,,,,,,shrimp
html-keyboard-response,533,903271,null,"",null,,,,,,,,
recall-period,534,934575,242756.604999915,"",,,,,,,,,surface
html-keyboard-response,535,934682,null,"",null,,,,,,,,
recall-period,536,973987,11428.410000022268,"",,,,,,,,, 
html-keyboard-response,537,974490,null,"Time's Up!",null,,,,,,,,
html-keyboard-response,538,978663,4172.4949999770615,"<p> Good job! You responded correctly to 92% of the red squares.</p>
                  <p>Be sure to keep your accuracy above 80%</p>
                  <p>Press any key to continue the experiment. Thank you!</p>",32,,,,,,,,
html-keyboard-response,539,979015,350.55499998270534,"<div style=""font-size:48px;"">Press any key to begin list 6 of 24 </div>",32,,,,,,,,
html-keyboard-response,540,981517,null,"<div style=""font-size:60px;"">+</div>",null,,,,,,,,
html-keyboard-response,541,982018,null,"FLOWER<img id = ""stim"" ><div class = green_square id = ""topsquare"" ></div><img id = ""stim"" ><div class = green_square  id = ""bottomsquare"" ></div>",null,word_square,response,0,none,true,,,
html-keyboard-response,542,983520,null,"FLOWER",null,word,,,,, 'FLOWER',,
html-keyboard-response,543,984007,486.0249999910593,"PISTON<img id = ""stim"" ><div class = red_square id = ""topsquare"" ></div><img id = ""stim"" ><div class = red_square  id = ""bottomsquare"" ></div>",32,word_square,response,1,Space,true,,,
html-keyboard-response,544,985509,null,"PISTON",null,word,,,,, 'PISTON',,
html-keyboard-response,545,986011,null,"SUNSET<img id = ""stim"" ><div class = green_square id = ""topsquare"" ></div><img id = ""stim"" ><div class = green_square  id = ""bottomsquare"" ></div>",null,word_square,response,0,none,true,,,
html-keyboard-response,546,987512,null,"SUNSET",null,word,,,,, 'SUNSET',,
html-keyboard-response,547,988014,null,"CASHEW<img id = ""stim"" ><div class = green_square id = ""topsquare"" ></div><img id = ""stim"" ><div class = green_square  id = ""bottomsquare"" ></div>",null,word_square,response,0,none,true,,,
html-keyboard-response,548,989516,null,"CASHEW",null,word,,,,, 'CASHEW',,
html-keyboard-response,549,989855,337.75500001502223,"TOOTHBRUSH<img id = ""stim"" ><div class = red_square id = ""topsquare"" ></div><img id = ""stim"" ><div class = red_square  id = ""bottomsquare"" ></div>",32,word_square,response,1,Space,true,,,
html-keyboard-response,550,991357,null,"TOOTHBRUSH",null,word,,,,, 'TOOTHBRUSH',,
html-keyboard-response,551,991774,416.07499998644926,"VILLAGE<img id = ""stim"" ><div class = red_square id = ""topsquare"" ></div><img id = ""stim"" ><div class = red_square  id = ""bottomsquare"" ></div>",32,word_square,response,1,Space,true,,,
html-keyboard-response,552,993276,null,"VILLAGE",null,word,,,,, 'VILLAGE',,
html-keyboard-response,553,993779,null,"BATHTUB<img id = ""stim"" ><div class = green_square id = ""topsquare"" ></div><img id = ""stim"" ><div class = green_square  id = ""bottomsquare"" ></div>",null,word_square,response,0,none,true,,,
html-keyboard-response,554,995280,null,"BATHTUB",null,word,,,,, 'BATHTUB',,
html-keyboard-response,555,995782,null,"GLASS<img id = ""stim"" ><div class = green_square id = ""topsquare"" ></div><img id = ""stim"" ><div class = green_square  id = ""bottomsquare"" ></div>",null,word_square,response,0,none,true,,,
html-keyboard-response,556,997283,null,"GLASS",null,word,,,,, 'GLASS',,
html-keyboard-response,557,997623,339.0850000141654,"MASK<img id = ""stim"" ><div class = red_square id = ""topsquare"" ></div><img id = ""stim"" ><div class = red_square  id = ""bottomsquare"" ></div>",32,word_square,response,1,Space,true,,,
html-keyboard-response,558,999126,null,"MASK",null,word,,,,, 'MASK',,
html-keyboard-response,559,999627,null,"REPTILE<img id = ""stim"" ><div class = green_square id = ""topsquare"" ></div><img id = ""stim"" ><div class = green_square  id = ""bottomsquare"" ></div>",null,word_square,response,0,none,true,,,
html-keyboard-response,560,1001130,null,"REPTILE",null,word,,,,, 'REPTILE',,
html-keyboard-response,561,1001487,356.3199999916833,"GERM<img id = ""stim"" ><div class = red_square id = ""topsquare"" ></div><img id = ""stim"" ><div class = red_square  id = ""bottomsquare"" ></div>",32,word_square,response,1,Space,true,,,
html-keyboard-response,562,1002989,null,"GERM",null,word,,,,, 'GERM',,
html-keyboard-response,563,1003431,440.4649999924004,"PONY<img id = ""stim"" ><div class = red_square id = ""topsquare"" ></div><img id = ""stim"" ><div class = red_square  id = ""bottomsquare"" ></div>",32,word_square,response,1,Space,true,,,
html-keyboard-response,564,1004933,null,"PONY",null,word,,,,, 'PONY',,
html-keyboard-response,565,1005444,null,"BALLOON<img id = ""stim"" ><div class = green_square id = ""topsquare"" ></div><img id = ""stim"" ><div class = green_square  id = ""bottomsquare"" ></div>",null,word_square,response,0,none,true,,,
html-keyboard-response,566,1006947,null,"BALLOON",null,word,,,,, 'BALLOON',,
html-keyboard-response,567,1007231,282.97999998903833,"SODA<img id = ""stim"" ><div class = red_square id = ""topsquare"" ></div><img id = ""stim"" ><div class = red_square  id = ""bottomsquare"" ></div>",32,word_square,response,1,Space,true,,,
html-keyboard-response,568,1008732,null,"SODA",null,word,,,,, 'SODA',,
html-keyboard-response,569,1009234,null,"COSTUME<img id = ""stim"" ><div class = green_square id = ""topsquare"" ></div><img id = ""stim"" ><div class = green_square  id = ""bottomsquare"" ></div>",null,word_square,response,0,none,true,,,
html-keyboard-response,570,1010737,null,"COSTUME",null,word,,,,, 'COSTUME',,
html-keyboard-response,571,1011023,284.97999999672174,"FRIEND<img id = ""stim"" ><div class = green_square id = ""topsquare"" ></div><img id = ""stim"" ><div class = green_square  id = ""bottomsquare"" ></div>",32,word_square,response,0,none,false,,,
html-keyboard-response,572,1012525,null,"FRIEND",null,word,,,,, 'FRIEND',,
html-keyboard-response,573,1012871,344.9549999786541,"DUST<img id = ""stim"" ><div class = red_square id = ""topsquare"" ></div><img id = ""stim"" ><div class = red_square  id = ""bottomsquare"" ></div>",32,word_square,response,1,Space,true,,,
html-keyboard-response,574,1014372,null,"DUST",null,word,,,,, 'DUST',,
html-keyboard-response,575,1014751,377.7999999874737,"STAMP<img id = ""stim"" ><div class = red_square id = ""topsquare"" ></div><img id = ""stim"" ><div class = red_square  id = ""bottomsquare"" ></div>",32,word_square,response,1,Space,true,,,
html-keyboard-response,576,1016253,null,"STAMP",null,word,,,,, 'STAMP',,
call-function,577,1016253,,"",,,,,,,,,
html-keyboard-response,578,1016354,null,"",null,,,,,,,,
math-period,579,1019191,5367.345000006026,"",,,,,,,,,5
html-keyboard-response,580,1019292,null,"",null,,,,,,,,
math-period,581,1020351,1937.7450000320096,"",,,,,,,,,3
html-keyboard-response,582,1020453,null,"",null,,,,,,,,
math-period,583,1023008,4866.2700000277255,"",,,,,,,,,1
html-keyboard-response,584,1023114,null,"",null,,,,,,,,
math-period,585,1024647,2656.4349999825936,"",,,,,,,,,3
html-keyboard-response,586,1024748,null,"",null,,,,,,,,
math-period,587,1025775,1858.0850000143982,"",,,,,,,,,2
html-keyboard-response,588,1025876,null,"",null,,,,,,,,
math-period,589,1028167,7240.114999964135,"",,,,,,,,,5
html-keyboard-response,590,1028269,null,"",null,,,,,,,,
math-period,591,1032535,11083.26499996474,"",,,,,,,,,2
html-keyboard-response,592,1032637,null,"",null,,,,,,,,
math-period,593,1034191,2713.6049999680836,"",,,,,,,,,6
html-keyboard-response,594,1034305,null,"",null,,,,,,,,
math-period,595,1035807,2737.4950000084937,"",,,,,,,,,1
html-keyboard-response,596,1035909,null,"",null,,,,,,,,
math-period,597,1038343,6988.440000015544,"",,,,,,,,,3
html-keyboard-response,598,1038452,null,"",null,,,,,,,,
math-period,599,1039783,2244.11999998847,"",,,,,,,,,5
html-keyboard-response,600,1039891,null,"",null,,,,,,,,
math-period,601,1040254,null,"",,,,,,,,,
html-keyboard-response,602,1041257,null,"Recall Period!",null,,,,,,,,
call-function,603,1041257,,"",,,,,,,,,
html-keyboard-response,604,1041359,null,"",null,,,,,,,,
recall-period,605,1063687,252008.0349999189,"",,,,,,,,,brother
html-keyboard-response,606,1063800,null,"",null,,,,,,,,
recall-period,607,1113111,334526.0150000395,"",,,,,,,,,closet
html-keyboard-response,608,1113213,null,"",null,,,,,,,,
recall-period,609,1116259,null,"",,,,,,,,,
html-keyboard-response,610,1116767,null,"Time's Up!",null,,,,,,,,
html-keyboard-response,611,1118439,1668.0500000074971,"<p> Good job! You responded correctly to 92% of the red squares.</p>
                  <p>Be sure to keep your accuracy above 80%</p>
                  <p>Press any key to continue the experiment. Thank you!</p>",32,,,,,,,,
html-keyboard-response,612,1118830,390.7300000137184,"<div style=""font-size:48px;"">Press any key to begin list 7 of 24 </div>",32,,,,,,,,
html-keyboard-response,613,1121333,null,"<div style=""font-size:60px;"">+</div>",null,,,,,,,,
html-keyboard-response,614,1121834,null,"SAUSAGE<img id = ""stim"" ><div class = red_square id = ""topsquare"" ></div><img id = ""stim"" ><div class = red_square  id = ""bottomsquare"" ></div>",null,word_square,response,1,Space,false,,,
html-keyboard-response,615,1123335,null,"SAUSAGE",null,word,,,,, 'SAUSAGE',,
html-keyboard-response,616,1123837,null,"ONION<img id = ""stim"" ><div class = green_square id = ""topsquare"" ></div><img id = ""stim"" ><div class = green_square  id = ""bottomsquare"" ></div>",null,word_square,response,0,none,true,,,
html-keyboard-response,617,1125338,null,"ONION",null,word,,,,, 'ONION',,
html-keyboard-response,618,1125807,467.34999999171123,"BUTLER<img id = ""stim"" ><div class = red_square id = ""topsquare"" ></div><img id = ""stim"" ><div class = red_square  id = ""bottomsquare"" ></div>",32,word_square,response,1,Space,true,,,
html-keyboard-response,619,1127308,null,"BUTLER",null,word,,,,, 'BUTLER',,
html-keyboard-response,620,1127655,345.97999998368323,"CRACKER<img id = ""stim"" ><div class = red_square id = ""topsquare"" ></div><img id = ""stim"" ><div class = red_square  id = ""bottomsquare"" ></div>",32,word_square,response,1,Space,true,,,
html-keyboard-response,621,1129158,null,"CRACKER",null,word,,,,, 'CRACKER',,
html-keyboard-response,622,1129661,null,"CONCRETE<img id = ""stim"" ><div class = green_square id = ""topsquare"" ></div><img id = ""stim"" ><div class = green_square  id = ""bottomsquare"" ></div>",null,word_square,response,0,none,true,,,
html-keyboard-response,623,1131163,null,"CONCRETE",null,word,,,,, 'CONCRETE',,
html-keyboard-response,624,1131667,null,"BANDAGE<img id = ""stim"" ><div class = green_square id = ""topsquare"" ></div><img id = ""stim"" ><div class = green_square  id = ""bottomsquare"" ></div>",null,word_square,response,0,none,true,,,
html-keyboard-response,625,1133169,null,"BANDAGE",null,word,,,,, 'BANDAGE',,
html-keyboard-response,626,1133520,349.72499997820705,"APRON<img id = ""stim"" ><div class = red_square id = ""topsquare"" ></div><img id = ""stim"" ><div class = red_square  id = ""bottomsquare"" ></div>",32,word_square,response,1,Space,true,,,
html-keyboard-response,627,1135021,null,"APRON",null,word,,,,, 'APRON',,
html-keyboard-response,628,1135416,393.02499999757856,"KITCHEN<img id = ""stim"" ><div class = red_square id = ""topsquare"" ></div><img id = ""stim"" ><div class = red_square  id = ""bottomsquare"" ></div>",32,word_square,response,1,Space,true,,,
html-keyboard-response,629,1136918,null,"KITCHEN",null,word,,,,, 'KITCHEN',,
html-keyboard-response,630,1137427,null,"WAGON<img id = ""stim"" ><div class = green_square id = ""topsquare"" ></div><img id = ""stim"" ><div class = green_square  id = ""bottomsquare"" ></div>",null,word_square,response,0,none,true,,,
html-keyboard-response,631,1138929,null,"WAGON",null,word,,,,, 'WAGON',,
html-keyboard-response,632,1139264,333.0849999911152,"WAITRESS<img id = ""stim"" ><div class = red_square id = ""topsquare"" ></div><img id = ""stim"" ><div class = red_square  id = ""bottomsquare"" ></div>",32,word_square,response,1,Space,true,,,
html-keyboard-response,633,1140765,null,"WAITRESS",null,word,,,,, 'WAITRESS',,
html-keyboard-response,634,1141267,null,"PICKLE<img id = ""stim"" ><div class = green_square id = ""topsquare"" ></div><img id = ""stim"" ><div class = green_square  id = ""bottomsquare"" ></div>",null,word_square,response,0,none,true,,,
html-keyboard-response,635,1142768,null,"PICKLE",null,word,,,,, 'PICKLE',,
html-keyboard-response,636,1143271,null,"PIGMENT<img id = ""stim"" ><div class = green_square id = ""topsquare"" ></div><img id = ""stim"" ><div class = green_square  id = ""bottomsquare"" ></div>",null,word_square,response,0,none,true,,,
html-keyboard-response,637,1144773,null,"PIGMENT",null,word,,,,, 'PIGMENT',,
html-keyboard-response,638,1145096,322.08499999251217,"PLANT<img id = ""stim"" ><div class = red_square id = ""topsquare"" ></div><img id = ""stim"" ><div class = red_square  id = ""bottomsquare"" ></div>",32,word_square,response,1,Space,true,,,
html-keyboard-response,639,1146598,null,"PLANT",null,word,,,,, 'PLANT',,
html-keyboard-response,640,1147100,null,"SERVER<img id = ""stim"" ><div class = green_square id = ""topsquare"" ></div><img id = ""stim"" ><div class = green_square  id = ""bottomsquare"" ></div>",null,word_square,response,0,none,true,,,
html-keyboard-response,641,1148603,null,"SERVER",null,word,,,,, 'SERVER',,
html-keyboard-response,642,1148959,355.4549999826122,"CAMEL<img id = ""stim"" ><div class = red_square id = ""topsquare"" ></div><img id = ""stim"" ><div class = red_square  id = ""bottomsquare"" ></div>",32,word_square,response,1,Space,true,,,
html-keyboard-response,643,1150461,null,"CAMEL",null,word,,,,, 'CAMEL',,
html-keyboard-response,644,1150963,null,"ACTOR<img id = ""stim"" ><div class = red_square id = ""topsquare"" ></div><img id = ""stim"" ><div class = red_square  id = ""bottomsquare"" ></div>",null,word_square,response,1,Space,false,,,
html-keyboard-response,645,1152466,null,"ACTOR",null,word,,,,, 'ACTOR',,
html-keyboard-response,646,1152969,null,"RACCOON<img id = ""stim"" ><div class = green_square id = ""topsquare"" ></div><img id = ""stim"" ><div class = green_square  id = ""bottomsquare"" ></div>",null,word_square,response,0,none,true,,,
html-keyboard-response,647,1154471,null,"RACCOON",null,word,,,,, 'RACCOON',,
html-keyboard-response,648,1154768,295.7649999880232,"PERCH<img id = ""stim"" ><div class = green_square id = ""topsquare"" ></div><img id = ""stim"" ><div class = green_square  id = ""bottomsquare"" ></div>",32,word_square,response,0,none,false,,,
html-keyboard-response,649,1156269,null,"PERCH",null,word,,,,, 'PERCH',,
call-function,650,1156270,,"",,,,,,,,,
html-keyboard-response,651,1156371,null,"",null,,,,,,,,
math-period,652,1158800,4735.09999999078,"",,,,,,,,,3
html-keyboard-response,653,1158903,null,"",null,,,,,,,,
math-period,654,1160504,2711.0950000060257,"",,,,,,,,,5
html-keyboard-response,655,1160608,null,"",null,,,,,,,,
math-period,656,1165127,5685.624999983702,"",,,,,,,,,2
html-keyboard-response,657,1165229,null,"",null,,,,,,,,
math-period,658,1167272,3233.8049999962095,"",,,,,,,,,1
html-keyboard-response,659,1167381,null,"",null,,,,,,,,
math-period,660,1171352,7306.09500000719,"",,,,,,,,,0
html-keyboard-response,661,1171464,null,"",null,,,,,,,,
math-period,662,1174568,5725.705000018934,"",,,,,,,,,3
html-keyboard-response,663,1174682,null,"",null,,,,,,,,
math-period,664,1178496,6609.369999991031,"",,,,,,,,,2
html-keyboard-response,665,1178601,null,"",null,,,,,,,,
math-period,666,1180184,3002.9150000191294,"",,,,,,,,,3
html-keyboard-response,667,1180285,null,"",null,,,,,,,,
math-period,668,1180288,null,"",,,,,,,,,
html-keyboard-response,669,1181290,null,"Recall Period!",null,,,,,,,,
call-function,670,1181290,,"",,,,,,,,,
html-keyboard-response,671,1181392,null,"",null,,,,,,,,
recall-period,672,1184048,11981.804999959422,"",,,,,,,,,sausage
html-keyboard-response,673,1184162,null,"",null,,,,,,,,
recall-period,674,1185719,6123.230000026524,"",,,,,,,,,actor
html-keyboard-response,675,1185832,null,"",null,,,,,,,,
recall-period,676,1256291,null,"",,,,,,,,,
html-keyboard-response,677,1256793,null,"Time's Up!",null,,,,,,,,
html-keyboard-response,678,1258296,1501.1200000008103,"<p> Good job! You responded correctly to 91% of the red squares.</p>
                  <p>Be sure to keep your accuracy above 80%</p>
                  <p>Press any key to continue the experiment. Thank you!</p>",32,,,,,,,,
html-keyboard-response,679,1260023,1726.4650000142865,"<div style=""font-size:48px;"">Press any key to begin list 8 of 24 </div>",32,,,,,,,,
html-keyboard-response,680,1262525,null,"<div style=""font-size:60px;"">+</div>",null,,,,,,,,
html-keyboard-response,681,1263027,null,"FLASK<img id = ""stim"" ><div class = red_square id = ""topsquare"" ></div><img id = ""stim"" ><div class = red_square  id = ""bottomsquare"" ></div>",null,word_square,response,1,Space,false,,,
html-keyboard-response,682,1264529,null,"FLASK",null,word,,,,, 'FLASK',,
html-keyboard-response,683,1265031,null,"CHARCOAL<img id = ""stim"" ><div class = green_square id = ""topsquare"" ></div><img id = ""stim"" ><div class = green_square  id = ""bottomsquare"" ></div>",null,word_square,response,0,none,true,,,
html-keyboard-response,684,1266545,null,"CHARCOAL",null,word,,,,, 'CHARCOAL',,
html-keyboard-response,685,1266887,340.72000000742264,"EAGLE<img id = ""stim"" ><div class = red_square id = ""topsquare"" ></div><img id = ""stim"" ><div class = red_square  id = ""bottomsquare"" ></div>",32,word_square,response,1,Space,true,,,
html-keyboard-response,686,1268389,null,"EAGLE",null,word,,,,, 'EAGLE',,
html-keyboard-response,687,1268791,400.93000000342727,"JUGGLER<img id = ""stim"" ><div class = red_square id = ""topsquare"" ></div><img id = ""stim"" ><div class = red_square  id = ""bottomsquare"" ></div>",32,word_square,response,1,Space,true,,,
html-keyboard-response,688,1270292,null,"JUGGLER",null,word,,,,, 'JUGGLER',,
html-keyboard-response,689,1270795,null,"RACKET<img id = ""stim"" ><div class = green_square id = ""topsquare"" ></div><img id = ""stim"" ><div class = green_square  id = ""bottomsquare"" ></div>",null,word_square,response,0,none,true,,,
html-keyboard-response,690,1272297,null,"RACKET",null,word,,,,, 'RACKET',,
html-keyboard-response,691,1272801,null,"SUPPER<img id = ""stim"" ><div class = green_square id = ""topsquare"" ></div><img id = ""stim"" ><div class = green_square  id = ""bottomsquare"" ></div>",null,word_square,response,0,none,true,,,
html-keyboard-response,692,1274302,null,"SUPPER",null,word,,,,, 'SUPPER',,
html-keyboard-response,693,1274640,336.154999997234,"JOINT<img id = ""stim"" ><div class = red_square id = ""topsquare"" ></div><img id = ""stim"" ><div class = red_square  id = ""bottomsquare"" ></div>",32,word_square,response,1,Space,true,,,
html-keyboard-response,694,1276141,null,"JOINT",null,word,,,,, 'JOINT',,
html-keyboard-response,695,1276576,433.0150000168942,"CAFE<img id = ""stim"" ><div class = red_square id = ""topsquare"" ></div><img id = ""stim"" ><div class = red_square  id = ""bottomsquare"" ></div>",32,word_square,response,1,Space,true,,,
html-keyboard-response,696,1278077,null,"CAFE",null,word,,,,, 'CAFE',,
html-keyboard-response,697,1278580,null,"PLAQUE<img id = ""stim"" ><div class = green_square id = ""topsquare"" ></div><img id = ""stim"" ><div class = green_square  id = ""bottomsquare"" ></div>",null,word_square,response,0,none,true,,,
html-keyboard-response,698,1280083,null,"PLAQUE",null,word,,,,, 'PLAQUE',,
html-keyboard-response,699,1280336,251.76499999361113,"BUILDER<img id = ""stim"" ><div class = red_square id = ""topsquare"" ></div><img id = ""stim"" ><div class = red_square  id = ""bottomsquare"" ></div>",32,word_square,response,1,Space,true,,,
html-keyboard-response,700,1281838,null,"BUILDER",null,word,,,,, 'BUILDER',,
html-keyboard-response,701,1282340,null,"VAGRANT<img id = ""stim"" ><div class = green_square id = ""topsquare"" ></div><img id = ""stim"" ><div class = green_square  id = ""bottomsquare"" ></div>",null,word_square,response,0,none,true,,,
html-keyboard-response,702,1283841,null,"VAGRANT",null,word,,,,, 'VAGRANT',,
html-keyboard-response,703,1284343,null,"GHETTO<img id = ""stim"" ><div class = green_square id = ""topsquare"" ></div><img id = ""stim"" ><div class = green_square  id = ""bottomsquare"" ></div>",null,word_square,response,0,none,true,,,
html-keyboard-response,704,1285845,null,"GHETTO",null,word,,,,, 'GHETTO',,
html-keyboard-response,705,1286232,385.2799999876879,"CANAL<img id = ""stim"" ><div class = red_square id = ""topsquare"" ></div><img id = ""stim"" ><div class = red_square  id = ""bottomsquare"" ></div>",32,word_square,response,1,Space,true,,,
html-keyboard-response,706,1287733,null,"CANAL",null,word,,,,, 'CANAL',,
html-keyboard-response,707,1288235,null,"BUCKET<img id = ""stim"" ><div class = green_square id = ""topsquare"" ></div><img id = ""stim"" ><div class = green_square  id = ""bottomsquare"" ></div>",null,word_square,response,0,none,true,,,
html-keyboard-response,708,1289737,null,"BUCKET",null,word,,,,, 'BUCKET',,
html-keyboard-response,709,1290048,309.54499999643303,"BANQUET<img id = ""stim"" ><div class = red_square id = ""topsquare"" ></div><img id = ""stim"" ><div class = red_square  id = ""bottomsquare"" ></div>",32,word_square,response,1,Space,true,,,
html-keyboard-response,710,1291550,null,"BANQUET",null,word,,,,, 'BANQUET',,
html-keyboard-response,711,1291984,433.0000000190921,"BRANDY<img id = ""stim"" ><div class = red_square id = ""topsquare"" ></div><img id = ""stim"" ><div class = red_square  id = ""bottomsquare"" ></div>",32,word_square,response,1,Space,true,,,
html-keyboard-response,712,1293486,null,"BRANDY",null,word,,,,, 'BRANDY',,
html-keyboard-response,713,1293988,null,"MAJOR<img id = ""stim"" ><div class = green_square id = ""topsquare"" ></div><img id = ""stim"" ><div class = green_square  id = ""bottomsquare"" ></div>",null,word_square,response,0,none,true,,,
html-keyboard-response,714,1295491,null,"MAJOR",null,word,,,,, 'MAJOR',,
html-keyboard-response,715,1295993,null,"SWITCH<img id = ""stim"" ><div class = green_square id = ""topsquare"" ></div><img id = ""stim"" ><div class = green_square  id = ""bottomsquare"" ></div>",null,word_square,response,0,none,true,,,
html-keyboard-response,716,1297496,null,"SWITCH",null,word,,,,, 'SWITCH',,
call-function,717,1297496,,"",,,,,,,,,
html-keyboard-response,718,1297599,null,"",null,,,,,,,,
math-period,719,1301936,8309.66499997885,"",,,,,,,,,1
html-keyboard-response,720,1302037,null,"",null,,,,,,,,
math-period,721,1305448,6577.764999965439,"",,,,,,,,,2
html-keyboard-response,722,1305558,null,"",null,,,,,,,,
math-period,723,1307151,2959.2050000210293,"",,,,,,,,,3
html-keyboard-response,724,1307253,null,"",null,,,,,,,,
math-period,725,1309615,7389.074999955483,"",,,,,,,,,4
html-keyboard-response,726,1309717,null,"",null,,,,,,,,
math-period,727,1311730,3860.1999999955297,"",,,,,,,,,2
html-keyboard-response,728,1311832,null,"",null,,,,,,,,
math-period,729,1313399,4974.775000009686,"",,,,,,,,,2
html-keyboard-response,730,1313512,null,"",null,,,,,,,,
math-period,731,1314983,2594.840000005206,"",,,,,,,,,6
html-keyboard-response,732,1315092,null,"",null,,,,,,,,
math-period,733,1316263,2132.8149999608286,"",,,,,,,,,4
html-keyboard-response,734,1316371,null,"",null,,,,,,,,
math-period,735,1317999,2989.1200000129174,"",,,,,,,,,4
html-keyboard-response,736,1318112,null,"",null,,,,,,,,
math-period,737,1319287,2164.0499999921303,"",,,,,,,,,4
html-keyboard-response,738,1319393,null,"",null,,,,,,,,
math-period,739,1321497,null,"",,,,,,,,,
html-keyboard-response,740,1322499,null,"Recall Period!",null,,,,,,,,
call-function,741,1322500,,"",,,,,,,,,
html-keyboard-response,742,1322602,null,"",null,,,,,,,,
recall-period,743,1324183,6350.655000016559,"",,,,,,,,,ghetto
html-keyboard-response,744,1324286,null,"",null,,,,,,,,
recall-period,745,1329047,24779.705000051763,"",,,,,,,,,plank
html-keyboard-response,746,1329150,null,"",null,,,,,,,,
recall-period,747,1335079,27254.849999968428,"",,,,,,,,,city
html-keyboard-response,748,1335180,null,"",null,,,,,,,,
recall-period,749,1397500,null,"",,,,,,,,,
html-keyboard-response,750,1398002,null,"Time's Up!",null,,,,,,,,
html-keyboard-response,751,1400311,2307.1099999942817,"<p> Good job! You responded correctly to 91% of the red squares.</p>
                  <p>Be sure to keep your accuracy above 80%</p>
                  <p>Press any key to continue the experiment. Thank you!</p>",32,,,,,,,,
html-keyboard-response,752,1400526,214.50499998172745,"<div style=""font-size:48px;"">Press any key to begin list 9 of 24 </div>",32,,,,,,,,
html-keyboard-response,753,1403029,null,"<div style=""font-size:60px;"">+</div>",null,,,,,,,,
html-keyboard-response,754,1403532,null,"AIRCRAFT<img id = ""stim"" ><div class = red_square id = ""topsquare"" ></div><img id = ""stim"" ><div class = red_square  id = ""bottomsquare"" ></div>",null,word_square,response,1,Space,false,,,
html-keyboard-response,755,1405033,null,"AIRCRAFT",null,word,,,,, 'AIRCRAFT',,
html-keyboard-response,756,1405535,null,"RECORD<img id = ""stim"" ><div class = green_square id = ""topsquare"" ></div><img id = ""stim"" ><div class = green_square  id = ""bottomsquare"" ></div>",null,word_square,response,0,none,true,,,
html-keyboard-response,757,1407037,null,"RECORD",null,word,,,,, 'RECORD',,
html-keyboard-response,758,1407539,null,"FROG<img id = ""stim"" ><div class = green_square id = ""topsquare"" ></div><img id = ""stim"" ><div class = green_square  id = ""bottomsquare"" ></div>",null,word_square,response,0,none,true,,,
html-keyboard-response,759,1409042,null,"FROG",null,word,,,,, 'FROG',,
html-keyboard-response,760,1409398,355.0749999994878,"FRIES<img id = ""stim"" ><div class = red_square id = ""topsquare"" ></div><img id = ""stim"" ><div class = red_square  id = ""bottomsquare"" ></div>",32,word_square,response,1,Space,true,,,
html-keyboard-response,761,1410902,null,"FRIES",null,word,,,,, 'FRIES',,
html-keyboard-response,762,1411403,null,"PLATE<img id = ""stim"" ><div class = green_square id = ""topsquare"" ></div><img id = ""stim"" ><div class = green_square  id = ""bottomsquare"" ></div>",null,word_square,response,0,none,true,,,
html-keyboard-response,763,1412905,null,"PLATE",null,word,,,,, 'PLATE',,
html-keyboard-response,764,1413311,404.2550000012852,"PICNIC<img id = ""stim"" ><div class = red_square id = ""topsquare"" ></div><img id = ""stim"" ><div class = red_square  id = ""bottomsquare"" ></div>",32,word_square,response,1,Space,true,,,
html-keyboard-response,765,1414812,null,"PICNIC",null,word,,,,, 'PICNIC',,
html-keyboard-response,766,1415314,null,"GRILL<img id = ""stim"" ><div class = green_square id = ""topsquare"" ></div><img id = ""stim"" ><div class = green_square  id = ""bottomsquare"" ></div>",null,word_square,response,0,none,true,,,
html-keyboard-response,767,1416818,null,"GRILL",null,word,,,,, 'GRILL',,
html-keyboard-response,768,1417134,313.52999998489395,"BEETLE<img id = ""stim"" ><div class = red_square id = ""topsquare"" ></div><img id = ""stim"" ><div class = red_square  id = ""bottomsquare"" ></div>",32,word_square,response,1,Space,true,,,
html-keyboard-response,769,1418636,null,"BEETLE",null,word,,,,, 'BEETLE',,
html-keyboard-response,770,1419138,null,"YOLK<img id = ""stim"" ><div class = green_square id = ""topsquare"" ></div><img id = ""stim"" ><div class = green_square  id = ""bottomsquare"" ></div>",null,word_square,response,0,none,true,,,
html-keyboard-response,771,1420640,null,"YOLK",null,word,,,,, 'YOLK',,
html-keyboard-response,772,1420958,317.349999997532,"EYELASH<img id = ""stim"" ><div class = red_square id = ""topsquare"" ></div><img id = ""stim"" ><div class = red_square  id = ""bottomsquare"" ></div>",32,word_square,response,1,Space,true,,,
html-keyboard-response,773,1422460,null,"EYELASH",null,word,,,,, 'EYELASH',,
html-keyboard-response,774,1422887,425.104999972973,"SARDINE<img id = ""stim"" ><div class = red_square id = ""topsquare"" ></div><img id = ""stim"" ><div class = red_square  id = ""bottomsquare"" ></div>",32,word_square,response,1,Space,true,,,
html-keyboard-response,775,1424388,null,"SARDINE",null,word,,,,, 'SARDINE',,
html-keyboard-response,776,1424890,null,"TUNNEL<img id = ""stim"" ><div class = green_square id = ""topsquare"" ></div><img id = ""stim"" ><div class = green_square  id = ""bottomsquare"" ></div>",null,word_square,response,0,none,true,,,
html-keyboard-response,777,1426392,null,"TUNNEL",null,word,,,,, 'TUNNEL',,
html-keyboard-response,778,1426894,null,"DOCTOR<img id = ""stim"" ><div class = green_square id = ""topsquare"" ></div><img id = ""stim"" ><div class = green_square  id = ""bottomsquare"" ></div>",null,word_square,response,0,none,true,,,
html-keyboard-response,779,1428396,null,"DOCTOR",null,word,,,,, 'DOCTOR',,
html-keyboard-response,780,1428790,392.2749999910593,"CUPBOARD<img id = ""stim"" ><div class = red_square id = ""topsquare"" ></div><img id = ""stim"" ><div class = red_square  id = ""bottomsquare"" ></div>",32,word_square,response,1,Space,true,,,
html-keyboard-response,781,1430292,null,"CUPBOARD",null,word,,,,, 'CUPBOARD',,
html-keyboard-response,782,1430793,null,"CRATER<img id = ""stim"" ><div class = green_square id = ""topsquare"" ></div><img id = ""stim"" ><div class = green_square  id = ""bottomsquare"" ></div>",null,word_square,response,0,none,true,,,
html-keyboard-response,783,1432296,null,"CRATER",null,word,,,,, 'CRATER',,
html-keyboard-response,784,1432798,null,"SHEARS<img id = ""stim"" ><div class = green_square id = ""topsquare"" ></div><img id = ""stim"" ><div class = green_square  id = ""bottomsquare"" ></div>",null,word_square,response,0,none,true,,,
html-keyboard-response,785,1434300,null,"SHEARS",null,word,,,,, 'SHEARS',,
html-keyboard-response,786,1434607,305.82500001764856,"TURTLE<img id = ""stim"" ><div class = red_square id = ""topsquare"" ></div><img id = ""stim"" ><div class = red_square  id = ""bottomsquare"" ></div>",32,word_square,response,1,Space,true,,,
html-keyboard-response,787,1436108,null,"TURTLE",null,word,,,,, 'TURTLE',,
html-keyboard-response,788,1436519,409.27999999257736,"SLUG<img id = ""stim"" ><div class = red_square id = ""topsquare"" ></div><img id = ""stim"" ><div class = red_square  id = ""bottomsquare"" ></div>",32,word_square,response,1,Space,true,,,
html-keyboard-response,789,1438021,null,"SLUG",null,word,,,,, 'SLUG',,
call-function,790,1438022,,"",,,,,,,,,
html-keyboard-response,791,1438123,null,"",null,,,,,,,,
math-period,792,1441230,5834.970000025351,"",,,,,,,,,1
html-keyboard-response,793,1441341,null,"",null,,,,,,,,
math-period,794,1443006,2975.5399999849033,"",,,,,,,,,2
html-keyboard-response,795,1443118,null,"",null,,,,,,,,
math-period,796,1444790,3037.3299999919254,"",,,,,,,,,4
html-keyboard-response,797,1444906,null,"",null,,,,,,,,
math-period,798,1446838,6203.485000034561,"",,,,,,,,,5
html-keyboard-response,799,1446941,null,"",null,,,,,,,,
math-period,800,1447903,1825.3249999543186,"",,,,,,,,,2
html-keyboard-response,801,1448018,null,"",null,,,,,,,,
math-period,802,1448999,1814.4000000320375,"",,,,,,,,,4
html-keyboard-response,803,1449101,null,"",null,,,,,,,,
math-period,804,1450007,1729.059999983292,"",,,,,,,,,3
html-keyboard-response,805,1450108,null,"",null,,,,,,,,
math-period,806,1453238,6162.0050000201445,"",,,,,,,,,0
html-keyboard-response,807,1453340,null,"",null,,,,,,,,
math-period,808,1454662,1320.7149999798276,"",,,,,,,,,
html-keyboard-response,809,1454771,null,"",null,,,,,,,,
math-period,810,1455172,399.87000002292916,"",,,,,,,,,
html-keyboard-response,811,1455274,null,"",null,,,,,,,,
math-period,812,1456158,1558.0249999766238,"",,,,,,,,,2
html-keyboard-response,813,1456260,null,"",null,,,,,,,,
math-period,814,1462023,null,"",,,,,,,,,
html-keyboard-response,815,1463025,null,"Recall Period!",null,,,,,,,,
call-function,816,1463026,,"",,,,,,,,,
html-keyboard-response,817,1463128,null,"",null,,,,,,,,
recall-period,818,1468526,32979.27499987418,"",,,,,,,,,aircraft
html-keyboard-response,819,1468641,null,"",null,,,,,,,,
recall-period,820,1470214,7537.579999945592,"",,,,,,,,,record
html-keyboard-response,821,1470321,null,"",null,,,,,,,,
recall-period,822,1471374,3200.249999994412,"",,,,,,,,,slug
html-keyboard-response,823,1471477,null,"",null,,,,,,,,
recall-period,824,1472766,3379.579999978887,"",,,,,,,,,fish
html-keyboard-response,825,1472879,null,"",null,,,,,,,,
recall-period,826,1479087,39245.95500007854,"",,,,,,,,,tunnel
html-keyboard-response,827,1479189,null,"",null,,,,,,,,
recall-period,828,1491350,70809.17499991483,"",,,,,,,,,fries
html-keyboard-response,829,1491452,null,"",null,,,,,,,,
recall-period,830,1514542,154414.50500002247,"",,,,,,,,,pickle
html-keyboard-response,831,1514651,null,"",null,,,,,,,,
recall-period,832,1538027,null,"",,,,,,,,,
html-keyboard-response,833,1538529,null,"Time's Up!",null,,,,,,,,
html-keyboard-response,834,1540271,1740.15500000678,"<p> Good job! You responded correctly to 92% of the red squares.</p>
                  <p>Be sure to keep your accuracy above 80%</p>
                  <p>Press any key to continue the experiment. Thank you!</p>",32,,,,,,,,
html-keyboard-response,835,1540999,726.5100000076927,"<div style=""font-size:48px;"">Press any key to begin list 10 of 24 </div>",32,,,,,,,,
html-keyboard-response,836,1543502,null,"<div style=""font-size:60px;"">+</div>",null,,,,,,,,
html-keyboard-response,837,1544004,null,"TIMBER<img id = ""stim"" ><div class = red_square id = ""topsquare"" ></div><img id = ""stim"" ><div class = red_square  id = ""bottomsquare"" ></div>",null,word_square,response,1,Space,false,,,
html-keyboard-response,838,1545506,null,"TIMBER",null,word,,,,, 'TIMBER',,
html-keyboard-response,839,1546008,null,"SNAKE<img id = ""stim"" ><div class = green_square id = ""topsquare"" ></div><img id = ""stim"" ><div class = green_square  id = ""bottomsquare"" ></div>",null,word_square,response,0,none,true,,,
html-keyboard-response,840,1547510,null,"SNAKE",null,word,,,,, 'SNAKE',,
html-keyboard-response,841,1548013,null,"STOMACH<img id = ""stim"" ><div class = green_square id = ""topsquare"" ></div><img id = ""stim"" ><div class = green_square  id = ""bottomsquare"" ></div>",null,word_square,response,0,none,true,,,
html-keyboard-response,842,1549515,null,"STOMACH",null,word,,,,, 'STOMACH',,
html-keyboard-response,843,1549918,402.0299999974668,"DWARF<img id = ""stim"" ><div class = red_square id = ""topsquare"" ></div><img id = ""stim"" ><div class = red_square  id = ""bottomsquare"" ></div>",32,word_square,response,1,Space,true,,,
html-keyboard-response,844,1551420,null,"DWARF",null,word,,,,, 'DWARF',,
html-keyboard-response,845,1551922,null,"HOUND<img id = ""stim"" ><div class = green_square id = ""topsquare"" ></div><img id = ""stim"" ><div class = green_square  id = ""bottomsquare"" ></div>",null,word_square,response,0,none,true,,,
html-keyboard-response,846,1553431,null,"HOUND",null,word,,,,, 'HOUND',,
html-keyboard-response,847,1553823,390.20500000333413,"HEADBAND<img id = ""stim"" ><div class = red_square id = ""topsquare"" ></div><img id = ""stim"" ><div class = red_square  id = ""bottomsquare"" ></div>",32,word_square,response,1,Space,true,,,
html-keyboard-response,848,1555325,null,"HEADBAND",null,word,,,,, 'HEADBAND',,
html-keyboard-response,849,1555827,null,"DORM<img id = ""stim"" ><div class = green_square id = ""topsquare"" ></div><img id = ""stim"" ><div class = green_square  id = ""bottomsquare"" ></div>",null,word_square,response,0,none,true,,,
html-keyboard-response,850,1557328,null,"DORM",null,word,,,,, 'DORM',,
html-keyboard-response,851,1557718,388.61999998334795,"BRICK<img id = ""stim"" ><div class = red_square id = ""topsquare"" ></div><img id = ""stim"" ><div class = red_square  id = ""bottomsquare"" ></div>",32,word_square,response,1,Space,true,,,
html-keyboard-response,852,1559221,null,"BRICK",null,word,,,,, 'BRICK',,
html-keyboard-response,853,1559723,null,"SLIDE<img id = ""stim"" ><div class = green_square id = ""topsquare"" ></div><img id = ""stim"" ><div class = green_square  id = ""bottomsquare"" ></div>",null,word_square,response,0,none,true,,,
html-keyboard-response,854,1561224,null,"SLIDE",null,word,,,,, 'SLIDE',,
html-keyboard-response,855,1561718,492.47999998624437,"POISON<img id = ""stim"" ><div class = red_square id = ""topsquare"" ></div><img id = ""stim"" ><div class = red_square  id = ""bottomsquare"" ></div>",32,word_square,response,1,Space,true,,,
html-keyboard-response,856,1563220,null,"POISON",null,word,,,,, 'POISON',,
html-keyboard-response,857,1563722,null,"DOG<img id = ""stim"" ><div class = red_square id = ""topsquare"" ></div><img id = ""stim"" ><div class = red_square  id = ""bottomsquare"" ></div>",null,word_square,response,1,Space,false,,,
html-keyboard-response,858,1565224,null,"DOG",null,word,,,,, 'DOG',,
html-keyboard-response,859,1565727,null,"LONDON<img id = ""stim"" ><div class = green_square id = ""topsquare"" ></div><img id = ""stim"" ><div class = green_square  id = ""bottomsquare"" ></div>",null,word_square,response,0,none,true,,,
html-keyboard-response,860,1567229,null,"LONDON",null,word,,,,, 'LONDON',,
html-keyboard-response,861,1567731,null,"FRANCE<img id = ""stim"" ><div class = green_square id = ""topsquare"" ></div><img id = ""stim"" ><div class = green_square  id = ""bottomsquare"" ></div>",null,word_square,response,0,none,true,,,
html-keyboard-response,862,1569234,null,"FRANCE",null,word,,,,, 'FRANCE',,
html-keyboard-response,863,1569623,387.9099999903701,"PANTHER<img id = ""stim"" ><div class = red_square id = ""topsquare"" ></div><img id = ""stim"" ><div class = red_square  id = ""bottomsquare"" ></div>",32,word_square,response,1,Space,true,,,
html-keyboard-response,864,1571126,null,"PANTHER",null,word,,,,, 'PANTHER',,
html-keyboard-response,865,1571628,null,"NURSE<img id = ""stim"" ><div class = green_square id = ""topsquare"" ></div><img id = ""stim"" ><div class = green_square  id = ""bottomsquare"" ></div>",null,word_square,response,0,none,true,,,
html-keyboard-response,866,1573130,null,"NURSE",null,word,,,,, 'NURSE',,
html-keyboard-response,867,1573644,null,"SCAPEGOAT<img id = ""stim"" ><div class = green_square id = ""topsquare"" ></div><img id = ""stim"" ><div class = green_square  id = ""bottomsquare"" ></div>",null,word_square,response,0,none,true,,,
html-keyboard-response,868,1575146,null,"SCAPEGOAT",null,word,,,,, 'SCAPEGOAT',,
html-keyboard-response,869,1575519,370.98999999579974,"BOXER<img id = ""stim"" ><div class = red_square id = ""topsquare"" ></div><img id = ""stim"" ><div class = red_square  id = ""bottomsquare"" ></div>",32,word_square,response,1,Space,true,,,
html-keyboard-response,870,1577028,null,"BOXER",null,word,,,,, 'BOXER',,
html-keyboard-response,871,1577530,null,"CAPE<img id = ""stim"" ><div class = red_square id = ""topsquare"" ></div><img id = ""stim"" ><div class = red_square  id = ""bottomsquare"" ></div>",null,word_square,response,1,Space,false,,,
html-keyboard-response,872,1579032,null,"CAPE",null,word,,,,, 'CAPE',,
call-function,873,1579032,,"",,,,,,,,,
html-keyboard-response,874,1579135,null,"",null,,,,,,,,
math-period,875,1583694,8780.315000010887,"",,,,,,,,,4
html-keyboard-response,876,1583798,null,"",null,,,,,,,,
math-period,877,1584718,1708.9150000247173,"",,,,,,,,,2
html-keyboard-response,878,1584831,null,"",null,,,,,,,,
math-period,879,1586246,2603.2150000391994,"",,,,,,,,,5
html-keyboard-response,880,1586349,null,"",null,,,,,,,,
math-period,881,1589686,10776.695000007749,"",,,,,,,,,3
html-keyboard-response,882,1589802,null,"",null,,,,,,,,
math-period,883,1590966,2054.420000000391,"",,,,,,,,,4
html-keyboard-response,884,1591067,null,"",null,,,,,,,,
math-period,885,1591982,1691.1900000122841,"",,,,,,,,,3
html-keyboard-response,886,1592084,null,"",null,,,,,,,,
math-period,887,1593318,2154.045000032056,"",,,,,,,,,6
html-keyboard-response,888,1593436,null,"",null,,,,,,,,
math-period,889,1594542,1931.1799999850336,"",,,,,,,,,3
html-keyboard-response,890,1594645,null,"",null,,,,,,,,
math-period,891,1595670,1871.8150000204332,"",,,,,,,,,6
html-keyboard-response,892,1595782,null,"",null,,,,,,,,
math-period,893,1596990,2278.2049999805167,"",,,,,,,,,5
html-keyboard-response,894,1597109,null,"",null,,,,,,,,
math-period,895,1598702,3105.1149999839254,"",,,,,,,,,5
html-keyboard-response,896,1598804,null,"",null,,,,,,,,
math-period,897,1599758,1802.3050000192598,"",,,,,,,,,2
html-keyboard-response,898,1599871,null,"",null,,,,,,,,
math-period,899,1601054,2300.7550000038464,"",,,,,,,,,5
html-keyboard-response,900,1601156,null,"",null,,,,,,,,
math-period,901,1601966,1536.8349999771453,"",,,,,,,,,5
html-keyboard-response,902,1602068,null,"",null,,,,,,,,
math-period,903,1603033,null,"",,,,,,,,,
html-keyboard-response,904,1604035,null,"Recall Period!",null,,,,,,,,
call-function,905,1604036,,"",,,,,,,,,
html-keyboard-response,906,1604138,null,"",null,,,,,,,,
recall-period,907,1606270,10827.025000035064,"",,,,,,,,,timber
html-keyboard-response,908,1606381,null,"",null,,,,,,,,
recall-period,909,1607478,4541.114999970887,"",,,,,,,,,snake
html-keyboard-response,910,1607581,null,"",null,,,,,,,,
recall-period,911,1609230,5951.889999909326,"",,,,,,,,,hound
html-keyboard-response,912,1609335,null,"",null,,,,,,,,
recall-period,913,1610814,5873.200000060024,"",,,,,,,,,boxer
html-keyboard-response,914,1610916,null,"",null,,,,,,,,
recall-period,915,1613191,11895.420000044396,"",,,,,,,,,london
html-keyboard-response,916,1613298,null,"",null,,,,,,,,
