trial_type,trial_index,time_elapsed,rt,stimulus,key_press,test_part,task,targ_cond,correctKeyCode,correct,word,value,response
pavlovia,0,1091,,"",,,,,,,,,
external-html,1,191002,189744.7650000031,"",,,,,,,,,
html-keyboard-response,2,193514,2510.2400000032503,"Welcome to the experiment. Press any key to begin.",32,,,,,,,,
html-keyboard-response,3,205525,12009.565000000293,"<p>You will see a list of words and colored squares in the following task.<p><p>Press the spacebar whenever you see a GREEN square.<p><p>Do not press a key if the square is RED<p><p>Press the spacebar to continue.</p>",32,,,,,,,,
html-keyboard-response,4,213114,7087.585000001127,"<p>Please try to remember as many of the words as you can, and try to think about the meaning of each word as it appears.<p><p>After the detection and encoding task you will be asked to solve some math problems for 24 seconds.<p> Please solve as many problems as you can in the time given. <p>",32,,,,,,,,
html-keyboard-response,5,223767,10151.98500000406,"After solving the math problems, you will be asked to type in as many words <p>from the previous list as you can remember for 75 seconds.<p> If you finish recalling before the 75 seconds are up,<p> just sit tight and try to think of any more words you could have missed. <p><p>We will begin with a brief practice session<p>Press the spacebar to begin the practice.</p>",32,,,,,,,,
html-keyboard-response,6,226274,null,"<div style=""font-size:60px;"">+</div>",null,,,,,,,,
html-keyboard-response,7,226777,null,"HAPPY<img id = ""stim"" ><div class = red_square id = ""topsquare"" ></div><img id = ""stim"" ><div class = red_square  id = ""bottomsquare"" ></div>",null,word_square,prac_response,0,none,true,,,
html-keyboard-response,8,228278,null,"HAPPY",null,word,,,,,HAPPY,,
html-keyboard-response,9,228781,null,"COLD<img id = ""stim"" ><div class = green_square id = ""topsquare"" ></div><img id = ""stim"" ><div class = green_square  id = ""bottomsquare"" ></div>",null,word_square,prac_response,1,Space,false,,,
html-keyboard-response,10,230283,null,"COLD",null,word,,,,,COLD,,
html-keyboard-response,11,230789,453.1649999989895,"HEAVY<img id = ""stim"" ><div class = green_square id = ""topsquare"" ></div><img id = ""stim"" ><div class = green_square  id = ""bottomsquare"" ></div>",32,word_square,prac_response,1,Space,true,,,
html-keyboard-response,12,232290,null,"HEAVY",null,word,,,,,HEAVY,,
html-keyboard-response,13,232792,null,"FUNNY<img id = ""stim"" ><div class = red_square id = ""topsquare"" ></div><img id = ""stim"" ><div class = red_square  id = ""bottomsquare"" ></div>",null,word_square,prac_response,0,none,true,,,
html-keyboard-response,14,234294,null,"FUNNY",null,word,,,,,FUNNY,,
html-keyboard-response,15,234795,388.48500000312924,"SCARY<img id = ""stim"" ><div class = green_square id = ""topsquare"" ></div><img id = ""stim"" ><div class = green_square  id = ""bottomsquare"" ></div>",32,word_square,prac_response,1,Space,true,,,
html-keyboard-response,16,236296,null,"SCARY",null,word,,,,,SCARY,,
html-keyboard-response,17,236802,352.5149999986752,"PEACEFUL<img id = ""stim"" ><div class = green_square id = ""topsquare"" ></div><img id = ""stim"" ><div class = green_square  id = ""bottomsquare"" ></div>",32,word_square,prac_response,1,Space,true,,,
html-keyboard-response,18,238303,null,"PEACEFUL",null,word,,,,,PEACEFUL,,
html-keyboard-response,19,238804,null,"LITTLE<img id = ""stim"" ><div class = red_square id = ""topsquare"" ></div><img id = ""stim"" ><div class = red_square  id = ""bottomsquare"" ></div>",null,word_square,prac_response,0,none,true,,,
html-keyboard-response,20,240305,null,"LITTLE",null,word,,,,,LITTLE,,
html-keyboard-response,21,240809,null,"TIRED<img id = ""stim"" ><div class = red_square id = ""topsquare"" ></div><img id = ""stim"" ><div class = red_square  id = ""bottomsquare"" ></div>",null,word_square,prac_response,0,none,true,,,
html-keyboard-response,22,242312,null,"TIRED",null,word,,,,,TIRED,,
html-keyboard-response,23,242813,null,"ENTERTAINING<img id = ""stim"" ><div class = red_square id = ""topsquare"" ></div><img id = ""stim"" ><div class = red_square  id = ""bottomsquare"" ></div>",null,word_square,prac_response,0,none,true,,,
html-keyboard-response,24,244314,null,"ENTERTAINING",null,word,,,,,ENTERTAINING,,
html-keyboard-response,25,244815,397.1499999970547,"GRATEFUL<img id = ""stim"" ><div class = green_square id = ""topsquare"" ></div><img id = ""stim"" ><div class = green_square  id = ""bottomsquare"" ></div>",32,word_square,prac_response,1,Space,true,,,
html-keyboard-response,26,246316,null,"GRATEFUL",null,word,,,,,GRATEFUL,,
html-keyboard-response,27,246817,null,"LOUD<img id = ""stim"" ><div class = red_square id = ""topsquare"" ></div><img id = ""stim"" ><div class = red_square  id = ""bottomsquare"" ></div>",null,word_square,prac_response,0,none,true,,,
html-keyboard-response,28,248318,null,"LOUD",null,word,,,,,LOUD,,
html-keyboard-response,29,248819,438.23999999585794,"SMART<img id = ""stim"" ><div class = green_square id = ""topsquare"" ></div><img id = ""stim"" ><div class = green_square  id = ""bottomsquare"" ></div>",32,word_square,prac_response,1,Space,true,,,
html-keyboard-response,30,250323,null,"SMART",null,word,,,,,SMART,,
html-keyboard-response,31,250825,312.6899999988382,"SMOOTH<img id = ""stim"" ><div class = green_square id = ""topsquare"" ></div><img id = ""stim"" ><div class = green_square  id = ""bottomsquare"" ></div>",32,word_square,prac_response,1,Space,true,,,
html-keyboard-response,32,252326,null,"SMOOTH",null,word,,,,,SMOOTH,,
html-keyboard-response,33,252827,null,"DISHONEST<img id = ""stim"" ><div class = red_square id = ""topsquare"" ></div><img id = ""stim"" ><div class = red_square  id = ""bottomsquare"" ></div>",null,word_square,prac_response,0,none,true,,,
html-keyboard-response,34,254328,null,"DISHONEST",null,word,,,,,DISHONEST,,
html-keyboard-response,35,254829,405.7650000031572,"WEALTHY<img id = ""stim"" ><div class = green_square id = ""topsquare"" ></div><img id = ""stim"" ><div class = green_square  id = ""bottomsquare"" ></div>",32,word_square,prac_response,1,Space,true,,,
html-keyboard-response,36,256330,null,"WEALTHY",null,word,,,,,WEALTHY,,
html-keyboard-response,37,256831,null,"BEAUTIFUL<img id = ""stim"" ><div class = red_square id = ""topsquare"" ></div><img id = ""stim"" ><div class = red_square  id = ""bottomsquare"" ></div>",null,word_square,prac_response,0,none,true,,,
html-keyboard-response,38,258335,null,"BEAUTIFUL",null,word,,,,,BEAUTIFUL,,
html-keyboard-response,39,258836,null,"DREARY<img id = ""stim"" ><div class = red_square id = ""topsquare"" ></div><img id = ""stim"" ><div class = red_square  id = ""bottomsquare"" ></div>",null,word_square,prac_response,0,none,true,,,
html-keyboard-response,40,260337,null,"DREARY",null,word,,,,,DREARY,,
html-keyboard-response,41,260839,419.2600000023958,"PLAYFUL<img id = ""stim"" ><div class = green_square id = ""topsquare"" ></div><img id = ""stim"" ><div class = green_square  id = ""bottomsquare"" ></div>",32,word_square,prac_response,1,Space,true,,,
html-keyboard-response,42,262342,null,"PLAYFUL",null,word,,,,,PLAYFUL,,
html-keyboard-response,43,268975,6631.279999994149,"<p> Good job! You responded correctly to 94% of the GREEN squares.</p>
                  <p>Be sure to keep your accuracy above 80%</p>
                  <p>We're going to try once more to make sure you understand  the task. press any key to continue. </p>",32,,,,,,,,
html-keyboard-response,44,273036,4059.499999995751,"<p>You will see a list of words and colored squares in the following task.<p><p>Press the spacebar whenever you see a GREEN square.<p><p>Do not press a key if the square is RED<p><p>Press the spacebar to continue.</p>",32,,,,,,,,
html-keyboard-response,45,275539,null,"<div style=""font-size:60px;"">+</div>",null,,,,,,,,
html-keyboard-response,46,276040,null,"HAPPY<img id = ""stim"" ><div class = red_square id = ""topsquare"" ></div><img id = ""stim"" ><div class = red_square  id = ""bottomsquare"" ></div>",null,word_square,response,0,none,true,,,
html-keyboard-response,47,277541,null,"HAPPY",null,word,,,,,HAPPY,,
html-keyboard-response,48,277921,378.6249999975553,"COLD<img id = ""stim"" ><div class = green_square id = ""topsquare"" ></div><img id = ""stim"" ><div class = green_square  id = ""bottomsquare"" ></div>",32,word_square,response,1,Space,true,,,
html-keyboard-response,49,279424,null,"COLD",null,word,,,,,COLD,,
html-keyboard-response,50,279764,339.14000000368105,"HEAVY<img id = ""stim"" ><div class = green_square id = ""topsquare"" ></div><img id = ""stim"" ><div class = green_square  id = ""bottomsquare"" ></div>",32,word_square,response,1,Space,true,,,
html-keyboard-response,51,281265,null,"HEAVY",null,word,,,,,HEAVY,,
html-keyboard-response,52,281767,null,"FUNNY<img id = ""stim"" ><div class = red_square id = ""topsquare"" ></div><img id = ""stim"" ><div class = red_square  id = ""bottomsquare"" ></div>",null,word_square,response,0,none,true,,,
html-keyboard-response,53,283268,null,"FUNNY",null,word,,,,,FUNNY,,
html-keyboard-response,54,283593,323.3350000009523,"SCARY<img id = ""stim"" ><div class = green_square id = ""topsquare"" ></div><img id = ""stim"" ><div class = green_square  id = ""bottomsquare"" ></div>",32,word_square,response,1,Space,true,,,
html-keyboard-response,55,285094,null,"SCARY",null,word,,,,,SCARY,,
html-keyboard-response,56,285421,326.7649999979767,"PEACEFUL<img id = ""stim"" ><div class = green_square id = ""topsquare"" ></div><img id = ""stim"" ><div class = green_square  id = ""bottomsquare"" ></div>",32,word_square,response,1,Space,true,,,
html-keyboard-response,57,286924,null,"PEACEFUL",null,word,,,,,PEACEFUL,,
html-keyboard-response,58,287426,null,"LITTLE<img id = ""stim"" ><div class = red_square id = ""topsquare"" ></div><img id = ""stim"" ><div class = red_square  id = ""bottomsquare"" ></div>",null,word_square,response,0,none,true,,,
html-keyboard-response,59,288927,null,"LITTLE",null,word,,,,,LITTLE,,
html-keyboard-response,60,289428,null,"TIRED<img id = ""stim"" ><div class = red_square id = ""topsquare"" ></div><img id = ""stim"" ><div class = red_square  id = ""bottomsquare"" ></div>",null,word_square,response,0,none,true,,,
html-keyboard-response,61,290929,null,"TIRED",null,word,,,,,TIRED,,
html-keyboard-response,62,291435,null,"ENTERTAINING<img id = ""stim"" ><div class = red_square id = ""topsquare"" ></div><img id = ""stim"" ><div class = red_square  id = ""bottomsquare"" ></div>",null,word_square,response,0,none,true,,,
html-keyboard-response,63,292936,null,"ENTERTAINING",null,word,,,,,ENTERTAINING,,
html-keyboard-response,64,293256,318.59999999869615,"GRATEFUL<img id = ""stim"" ><div class = green_square id = ""topsquare"" ></div><img id = ""stim"" ><div class = green_square  id = ""bottomsquare"" ></div>",32,word_square,response,1,Space,true,,,
html-keyboard-response,65,294759,null,"GRATEFUL",null,word,,,,,GRATEFUL,,
html-keyboard-response,66,295260,null,"LOUD<img id = ""stim"" ><div class = red_square id = ""topsquare"" ></div><img id = ""stim"" ><div class = red_square  id = ""bottomsquare"" ></div>",null,word_square,response,0,none,true,,,
html-keyboard-response,67,296763,null,"LOUD",null,word,,,,,LOUD,,
html-keyboard-response,68,297067,302.27000000013504,"SMART<img id = ""stim"" ><div class = green_square id = ""topsquare"" ></div><img id = ""stim"" ><div class = green_square  id = ""bottomsquare"" ></div>",32,word_square,response,1,Space,true,,,
html-keyboard-response,69,298568,null,"SMART",null,word,,,,,SMART,,
html-keyboard-response,70,298937,367.8250000011758,"SMOOTH<img id = ""stim"" ><div class = green_square id = ""topsquare"" ></div><img id = ""stim"" ><div class = green_square  id = ""bottomsquare"" ></div>",32,word_square,response,1,Space,true,,,
html-keyboard-response,71,300441,null,"SMOOTH",null,word,,,,,SMOOTH,,
html-keyboard-response,72,300942,null,"DISHONEST<img id = ""stim"" ><div class = red_square id = ""topsquare"" ></div><img id = ""stim"" ><div class = red_square  id = ""bottomsquare"" ></div>",null,word_square,response,0,none,true,,,
html-keyboard-response,73,302446,null,"DISHONEST",null,word,,,,,DISHONEST,,
html-keyboard-response,74,302813,366.3200000009965,"WEALTHY<img id = ""stim"" ><div class = green_square id = ""topsquare"" ></div><img id = ""stim"" ><div class = green_square  id = ""bottomsquare"" ></div>",32,word_square,response,1,Space,true,,,
html-keyboard-response,75,304314,null,"WEALTHY",null,word,,,,,WEALTHY,,
html-keyboard-response,76,304815,null,"BEAUTIFUL<img id = ""stim"" ><div class = red_square id = ""topsquare"" ></div><img id = ""stim"" ><div class = red_square  id = ""bottomsquare"" ></div>",null,word_square,response,0,none,true,,,
html-keyboard-response,77,306316,null,"BEAUTIFUL",null,word,,,,,BEAUTIFUL,,
html-keyboard-response,78,306817,null,"DREARY<img id = ""stim"" ><div class = red_square id = ""topsquare"" ></div><img id = ""stim"" ><div class = red_square  id = ""bottomsquare"" ></div>",null,word_square,response,0,none,true,,,
html-keyboard-response,79,308318,null,"DREARY",null,word,,,,,DREARY,,
html-keyboard-response,80,308651,330.99500000389526,"PLAYFUL<img id = ""stim"" ><div class = green_square id = ""topsquare"" ></div><img id = ""stim"" ><div class = green_square  id = ""bottomsquare"" ></div>",32,word_square,response,1,Space,true,,,
html-keyboard-response,81,310152,null,"PLAYFUL",null,word,,,,,PLAYFUL,,
html-keyboard-response,82,316233,6079.689999998664,"<p> Good job! You responded correctly to 100% of the GREEN squares.</p>
                  <p>Be sure to keep your accuracy above 80%</p>
                  <p>Press any key to begin the math and recall sections. Thank you!</p>",32,,,,,,,,
call-function,83,316234,,"",,,,,,,,,
html-keyboard-response,84,316337,null,"",null,,,,,,,,
math-period,85,320593,7465.784999993048,"",,,,,,,,,3
html-keyboard-response,86,320695,null,"",null,,,,,,,,
math-period,87,324766,7528.684999997495,"",,,,,,,,,1
html-keyboard-response,88,324868,null,"",null,,,,,,,,
math-period,89,327590,4926.905000007537,"",,,,,,,,,1
html-keyboard-response,90,327692,null,"",null,,,,,,,,
math-period,91,329497,3086.6449999957695,"",,,,,,,,,2
html-keyboard-response,92,329599,null,"",null,,,,,,,,
math-period,93,332058,4230.575000001409,"",,,,,,,,,1
html-keyboard-response,94,332161,null,"",null,,,,,,,,
math-period,95,334102,3241.410000002361,"",,,,,,,,,5
html-keyboard-response,96,334204,null,"",null,,,,,,,,
math-period,97,335793,2689.5950000034645,"",,,,,,,,,6
html-keyboard-response,98,335896,null,"",null,,,,,,,,
math-period,99,337469,2640.124999998079,"",,,,,,,,,2
html-keyboard-response,100,337571,null,"",null,,,,,,,,
math-period,101,339664,3789.519999998447,"",,,,,,,,,6
html-keyboard-response,102,339765,null,"",null,,,,,,,,
math-period,103,340236,null,"",,,,,,,,,
html-keyboard-response,104,341237,null,"Recall Period!",null,,,,,,,,
call-function,105,341238,,"",,,,,,,,,
html-keyboard-response,106,341339,null,"",null,,,,,,,,
recall-period,107,344918,3578.0999999988126,"",,,,,,,,,
html-keyboard-response,108,345020,null,"",null,,,,,,,,
recall-period,109,348012,15420.190000011644,"",,,,,,,,,happy
html-keyboard-response,110,348114,null,"",null,,,,,,,,
recall-period,111,349307,4204.060000003665,"",,,,,,,,,heavy
html-keyboard-response,112,349408,null,"",null,,,,,,,,
recall-period,113,351789,13335.000000013679,"",,,,,,,,,peaceful
html-keyboard-response,114,351891,null,"",null,,,,,,,,
recall-period,115,353214,5602.090000014869,"",,,,,,,,,smooth
html-keyboard-response,116,353316,null,"",null,,,,,,,,
recall-period,117,354558,3878.1250000247383,"",,,,,,,,,dreary
html-keyboard-response,118,354662,null,"",null,,,,,,,,
recall-period,119,356397,11408.790000037698,"",,,,,,,,,entertaining
html-keyboard-response,120,356499,null,"",null,,,,,,,,
recall-period,121,357527,3223.6050000065006,"",,,,,,,,,cold
html-keyboard-response,122,357628,null,"",null,,,,,,,,
recall-period,123,361631,25658.06999999768,"",,,,,,,,,little
html-keyboard-response,124,361733,null,"",null,,,,,,,,
recall-period,125,364330,15298.575000007986,"",,,,,,,,,smooth
html-keyboard-response,126,364432,null,"",null,,,,,,,,
recall-period,127,396833,192564.33500001003,"",,,,,,,,,tired
html-keyboard-response,128,396934,null,"",null,,,,,,,,
recall-period,129,416239,null,"",,,,,,,,,
html-keyboard-response,130,416740,null,"Time's Up!",null,,,,,,,,
html-keyboard-response,131,427726,10984.650000005786,"<p>We will now begin the experiment!<p><p>Please try to remember all words from each list.<p><p>Press the spacebar whenever you see a GREEN square.<p><p><p><p>Press the spacebar to begin.</p>",32,,,,,,,,
html-keyboard-response,132,430809,2582.204999998794,"<div style=""font-size:48px;"">Press any key to begin list 1 of 24 </div>",32,,,,,,,,
html-keyboard-response,133,433312,null,"<div style=""font-size:60px;"">+</div>",null,,,,,,,,
html-keyboard-response,134,433663,349.5499999989988,"FEMALE<img id = ""stim"" ><div class = red_square id = ""topsquare"" ></div><img id = ""stim"" ><div class = red_square  id = ""bottomsquare"" ></div>",32,word_square,response,0,none,false,,,
html-keyboard-response,135,435164,null,"FEMALE",null,word,,,,, 'FEMALE',,
html-keyboard-response,136,435548,383.07999999960884,"LOVER<img id = ""stim"" ><div class = green_square id = ""topsquare"" ></div><img id = ""stim"" ><div class = green_square  id = ""bottomsquare"" ></div>",32,word_square,response,1,Space,true,,,
html-keyboard-response,137,437053,null,"LOVER",null,word,,,,, 'LOVER',,
html-keyboard-response,138,437558,null,"CONSOLE<img id = ""stim"" ><div class = red_square id = ""topsquare"" ></div><img id = ""stim"" ><div class = red_square  id = ""bottomsquare"" ></div>",null,word_square,response,0,none,true,,,
html-keyboard-response,139,439059,null,"CONSOLE",null,word,,,,, 'CONSOLE',,
html-keyboard-response,140,439511,450.8499999938067,"MONGOOSE<img id = ""stim"" ><div class = green_square id = ""topsquare"" ></div><img id = ""stim"" ><div class = green_square  id = ""bottomsquare"" ></div>",32,word_square,response,1,Space,true,,,
html-keyboard-response,141,441014,null,"MONGOOSE",null,word,,,,, 'MONGOOSE',,
html-keyboard-response,142,441518,null,"LAGOON<img id = ""stim"" ><div class = red_square id = ""topsquare"" ></div><img id = ""stim"" ><div class = red_square  id = ""bottomsquare"" ></div>",null,word_square,response,0,none,true,,,
html-keyboard-response,143,443019,null,"LAGOON",null,word,,,,, 'LAGOON',,
html-keyboard-response,144,443520,null,"PUDDLE<img id = ""stim"" ><div class = red_square id = ""topsquare"" ></div><img id = ""stim"" ><div class = red_square  id = ""bottomsquare"" ></div>",null,word_square,response,0,none,true,,,
html-keyboard-response,145,445021,null,"PUDDLE",null,word,,,,, 'PUDDLE',,
html-keyboard-response,146,445408,386.5150000056019,"MONEY<img id = ""stim"" ><div class = green_square id = ""topsquare"" ></div><img id = ""stim"" ><div class = green_square  id = ""bottomsquare"" ></div>",32,word_square,response,1,Space,true,,,
html-keyboard-response,147,446913,null,"MONEY",null,word,,,,, 'MONEY',,
html-keyboard-response,148,447414,null,"LILY<img id = ""stim"" ><div class = red_square id = ""topsquare"" ></div><img id = ""stim"" ><div class = red_square  id = ""bottomsquare"" ></div>",null,word_square,response,0,none,true,,,
html-keyboard-response,149,448919,null,"LILY",null,word,,,,, 'LILY',,
html-keyboard-response,150,449300,380.05499999417225,"DRAGON<img id = ""stim"" ><div class = green_square id = ""topsquare"" ></div><img id = ""stim"" ><div class = green_square  id = ""bottomsquare"" ></div>",32,word_square,response,1,Space,true,,,
html-keyboard-response,151,450804,null,"DRAGON",null,word,,,,, 'DRAGON',,
html-keyboard-response,152,451309,null,"VENUS<img id = ""stim"" ><div class = red_square id = ""topsquare"" ></div><img id = ""stim"" ><div class = red_square  id = ""bottomsquare"" ></div>",null,word_square,response,0,none,true,,,
html-keyboard-response,153,452810,null,"VENUS",null,word,,,,, 'VENUS',,
html-keyboard-response,154,453311,null,"UNCLE<img id = ""stim"" ><div class = red_square id = ""topsquare"" ></div><img id = ""stim"" ><div class = red_square  id = ""bottomsquare"" ></div>",null,word_square,response,0,none,true,,,
html-keyboard-response,155,454812,null,"UNCLE",null,word,,,,, 'UNCLE',,
html-keyboard-response,156,455221,407.7449999967939,"BEAKER<img id = ""stim"" ><div class = green_square id = ""topsquare"" ></div><img id = ""stim"" ><div class = green_square  id = ""bottomsquare"" ></div>",32,word_square,response,1,Space,true,,,
html-keyboard-response,157,456726,null,"BEAKER",null,word,,,,, 'BEAKER',,
html-keyboard-response,158,457162,435.0049999993644,"MARINE<img id = ""stim"" ><div class = green_square id = ""topsquare"" ></div><img id = ""stim"" ><div class = green_square  id = ""bottomsquare"" ></div>",32,word_square,response,1,Space,true,,,
html-keyboard-response,159,458663,null,"MARINE",null,word,,,,, 'MARINE',,
html-keyboard-response,160,459031,366.8050000051153,"CLOSET<img id = ""stim"" ><div class = green_square id = ""topsquare"" ></div><img id = ""stim"" ><div class = green_square  id = ""bottomsquare"" ></div>",32,word_square,response,1,Space,true,,,
html-keyboard-response,161,460532,null,"CLOSET",null,word,,,,, 'CLOSET',,
html-keyboard-response,162,460861,327.5400000056834,"REINDEER<img id = ""stim"" ><div class = green_square id = ""topsquare"" ></div><img id = ""stim"" ><div class = green_square  id = ""bottomsquare"" ></div>",32,word_square,response,1,Space,true,,,
html-keyboard-response,163,462362,null,"REINDEER",null,word,,,,, 'REINDEER',,
html-keyboard-response,164,462864,null,"RAILROAD<img id = ""stim"" ><div class = red_square id = ""topsquare"" ></div><img id = ""stim"" ><div class = red_square  id = ""bottomsquare"" ></div>",null,word_square,response,0,none,true,,,
html-keyboard-response,165,464365,null,"RAILROAD",null,word,,,,, 'RAILROAD',,
html-keyboard-response,166,464867,null,"WOLF<img id = ""stim"" ><div class = red_square id = ""topsquare"" ></div><img id = ""stim"" ><div class = red_square  id = ""bottomsquare"" ></div>",null,word_square,response,0,none,true,,,
html-keyboard-response,167,466368,null,"WOLF",null,word,,,,, 'WOLF',,
html-keyboard-response,168,466748,378.8550000026589,"IDOL<img id = ""stim"" ><div class = green_square id = ""topsquare"" ></div><img id = ""stim"" ><div class = green_square  id = ""bottomsquare"" ></div>",32,word_square,response,1,Space,true,,,
html-keyboard-response,169,468253,null,"IDOL",null,word,,,,, 'IDOL',,
call-function,170,468254,,"",,,,,,,,,
html-keyboard-response,171,468359,null,"",null,,,,,,,,
math-period,172,472459,7134.63000000047,"",,,,,,,,,4
html-keyboard-response,173,472560,null,"",null,,,,,,,,
math-period,174,474818,3865.780000007362,"",,,,,,,,,1
html-keyboard-response,175,474920,null,"",null,,,,,,,,
math-period,176,476810,3362.1099999945727,"",,,,,,,,,1
html-keyboard-response,177,476911,null,"",null,,,,,,,,
math-period,178,478448,2660.2049999928568,"",,,,,,,,,4
html-keyboard-response,179,478550,null,"",null,,,,,,,,
math-period,180,480903,4275.29499999946,"",,,,,,,,,2
html-keyboard-response,181,481004,null,"",null,,,,,,,,
math-period,182,482920,3386.3150000033784,"",,,,,,,,,2
html-keyboard-response,183,483021,null,"",null,,,,,,,,
math-period,184,484601,2645.7550000050105,"",,,,,,,,,5
html-keyboard-response,185,484703,null,"",null,,,,,,,,
math-period,186,486321,2735.210000006191,"",,,,,,,,,3
html-keyboard-response,187,486425,null,"",null,,,,,,,,
math-period,188,489472,5637.350000004517,"",,,,,,,,,1
html-keyboard-response,189,489575,null,"",null,,,,,,,,
math-period,190,491068,2496.4249999975436,"",,,,,,,,,2
html-keyboard-response,191,491170,null,"",null,,,,,,,,
math-period,192,492258,null,"",,,,,,,,,
html-keyboard-response,193,493259,null,"Recall Period!",null,,,,,,,,
call-function,194,493260,,"",,,,,,,,,
html-keyboard-response,195,493361,null,"",null,,,,,,,,
recall-period,196,495683,15820.934999988822,"",,,,,,,,,mongoose
html-keyboard-response,197,495785,null,"",null,,,,,,,,
recall-period,198,496849,3009.1299999912735,"",,,,,,,,,idol
html-keyboard-response,199,496950,null,"",null,,,,,,,,
recall-period,200,499951,19489.09999999887,"",,,,,,,,,reindeer
html-keyboard-response,201,500052,null,"",null,,,,,,,,
recall-period,202,501622,7454.67499998631,"",,,,,,,,,lagoon
html-keyboard-response,203,501723,null,"",null,,,,,,,,
recall-period,204,506518,30253.560000004654,"",,,,,,,,,dragon
html-keyboard-response,205,506620,null,"",null,,,,,,,,
recall-period,206,516955,59943.469999991066,"",,,,,,,,,uncle
html-keyboard-response,207,517056,null,"",null,,,,,,,,
recall-period,208,519620,11275.609999989683,"",,,,,,,,,wolf
html-keyboard-response,209,519722,null,"",null,,,,,,,,
recall-period,210,521661,8315.419999991718,"",,,,,,,,,lily
html-keyboard-response,211,521763,null,"",null,,,,,,,,
recall-period,212,529750,53474.42999999516,"",,,,,,,,,closet
html-keyboard-response,213,529851,null,"",null,,,,,,,,
recall-period,214,555700,178752.0450000153,"",,,,,,,,,beaker
html-keyboard-response,215,555801,null,"",null,,,,,,,,
recall-period,216,568261,null,"",,,,,,,,,
html-keyboard-response,217,568765,null,"Time's Up!",null,,,,,,,,
html-keyboard-response,218,571200,2433.099999994738,"<p> Good job! You responded correctly to 97% of the GREEN squares.</p>
                  <p>Be sure to keep your accuracy above 80%</p>
                  <p>Press any key to continue the experiment. Thank you!</p>",13,,,,,,,,
html-keyboard-response,219,575663,4462.305000000866,"<div style=""font-size:48px;"">Press any key to begin list 2 of 24 </div>",13,,,,,,,,
html-keyboard-response,220,578164,null,"<div style=""font-size:60px;"">+</div>",null,,,,,,,,
html-keyboard-response,221,578665,null,"OX<img id = ""stim"" ><div class = red_square id = ""topsquare"" ></div><img id = ""stim"" ><div class = red_square  id = ""bottomsquare"" ></div>",null,word_square,response,0,none,true,,,
html-keyboard-response,222,580166,null,"OX",null,word,,,,, 'OX',,
html-keyboard-response,223,580667,null,"SKIRT<img id = ""stim"" ><div class = green_square id = ""topsquare"" ></div><img id = ""stim"" ><div class = green_square  id = ""bottomsquare"" ></div>",null,word_square,response,1,Space,false,,,
html-keyboard-response,224,582168,null,"SKIRT",null,word,,,,, 'SKIRT',,
html-keyboard-response,225,582669,null,"SHORTS<img id = ""stim"" ><div class = red_square id = ""topsquare"" ></div><img id = ""stim"" ><div class = red_square  id = ""bottomsquare"" ></div>",null,word_square,response,0,none,true,,,
html-keyboard-response,226,584173,null,"SHORTS",null,word,,,,, 'SHORTS',,
html-keyboard-response,227,584562,387.48499999928754,"MAMMAL<img id = ""stim"" ><div class = green_square id = ""topsquare"" ></div><img id = ""stim"" ><div class = green_square  id = ""bottomsquare"" ></div>",32,word_square,response,1,Space,true,,,
html-keyboard-response,228,586063,null,"MAMMAL",null,word,,,,, 'MAMMAL',,
html-keyboard-response,229,586564,null,"CASTLE<img id = ""stim"" ><div class = red_square id = ""topsquare"" ></div><img id = ""stim"" ><div class = red_square  id = ""bottomsquare"" ></div>",null,word_square,response,0,none,true,,,
html-keyboard-response,230,588065,null,"CASTLE",null,word,,,,, 'CASTLE',,
html-keyboard-response,231,588567,null,"FLIPPER<img id = ""stim"" ><div class = red_square id = ""topsquare"" ></div><img id = ""stim"" ><div class = red_square  id = ""bottomsquare"" ></div>",null,word_square,response,0,none,true,,,
html-keyboard-response,232,590068,null,"FLIPPER",null,word,,,,, 'FLIPPER',,
html-keyboard-response,233,590571,null,"SNOB<img id = ""stim"" ><div class = green_square id = ""topsquare"" ></div><img id = ""stim"" ><div class = green_square  id = ""bottomsquare"" ></div>",null,word_square,response,1,Space,false,,,
html-keyboard-response,234,592072,null,"SNOB",null,word,,,,, 'SNOB',,
html-keyboard-response,235,592578,null,"SALT<img id = ""stim"" ><div class = red_square id = ""topsquare"" ></div><img id = ""stim"" ><div class = red_square  id = ""bottomsquare"" ></div>",null,word_square,response,0,none,true,,,
html-keyboard-response,236,594079,null,"SALT",null,word,,,,, 'SALT',,
html-keyboard-response,237,594423,343.19500000122935,"DOORBELL<img id = ""stim"" ><div class = green_square id = ""topsquare"" ></div><img id = ""stim"" ><div class = green_square  id = ""bottomsquare"" ></div>",32,word_square,response,1,Space,true,,,
html-keyboard-response,238,595927,null,"DOORBELL",null,word,,,,, 'DOORBELL',,
html-keyboard-response,239,596428,null,"GAZELLE<img id = ""stim"" ><div class = red_square id = ""topsquare"" ></div><img id = ""stim"" ><div class = red_square  id = ""bottomsquare"" ></div>",null,word_square,response,0,none,true,,,
html-keyboard-response,240,597929,null,"GAZELLE",null,word,,,,, 'GAZELLE',,
html-keyboard-response,241,598431,null,"GERM<img id = ""stim"" ><div class = red_square id = ""topsquare"" ></div><img id = ""stim"" ><div class = red_square  id = ""bottomsquare"" ></div>",null,word_square,response,0,none,true,,,
html-keyboard-response,242,599932,null,"GERM",null,word,,,,, 'GERM',,
html-keyboard-response,243,600344,411.06500000029337,"ICEBERG<img id = ""stim"" ><div class = green_square id = ""topsquare"" ></div><img id = ""stim"" ><div class = green_square  id = ""bottomsquare"" ></div>",32,word_square,response,1,Space,true,,,
html-keyboard-response,244,601845,null,"ICEBERG",null,word,,,,, 'ICEBERG',,
html-keyboard-response,245,602166,319.83000000042375,"VIRUS<img id = ""stim"" ><div class = green_square id = ""topsquare"" ></div><img id = ""stim"" ><div class = green_square  id = ""bottomsquare"" ></div>",32,word_square,response,1,Space,true,,,
html-keyboard-response,246,603667,null,"VIRUS",null,word,,,,, 'VIRUS',,
html-keyboard-response,247,604044,375.64500000013504,"SHIRT<img id = ""stim"" ><div class = green_square id = ""topsquare"" ></div><img id = ""stim"" ><div class = green_square  id = ""bottomsquare"" ></div>",32,word_square,response,1,Space,true,,,
html-keyboard-response,248,605545,null,"SHIRT",null,word,,,,, 'SHIRT',,
html-keyboard-response,249,605927,380.4800000070827,"DRESS<img id = ""stim"" ><div class = green_square id = ""topsquare"" ></div><img id = ""stim"" ><div class = green_square  id = ""bottomsquare"" ></div>",32,word_square,response,1,Space,true,,,
html-keyboard-response,250,607428,null,"DRESS",null,word,,,,, 'DRESS',,
html-keyboard-response,251,607929,null,"STALLION<img id = ""stim"" ><div class = red_square id = ""topsquare"" ></div><img id = ""stim"" ><div class = red_square  id = ""bottomsquare"" ></div>",null,word_square,response,0,none,true,,,
html-keyboard-response,252,609430,null,"STALLION",null,word,,,,, 'STALLION',,
html-keyboard-response,253,609934,null,"VALLEY<img id = ""stim"" ><div class = red_square id = ""topsquare"" ></div><img id = ""stim"" ><div class = red_square  id = ""bottomsquare"" ></div>",null,word_square,response,0,none,true,,,
html-keyboard-response,254,611435,null,"VALLEY",null,word,,,,, 'VALLEY',,
html-keyboard-response,255,611839,403.33999999717344,"MUSHROOM<img id = ""stim"" ><div class = green_square id = ""topsquare"" ></div><img id = ""stim"" ><div class = green_square  id = ""bottomsquare"" ></div>",32,word_square,response,1,Space,true,,,
html-keyboard-response,256,613344,null,"MUSHROOM",null,word,,,,, 'MUSHROOM',,
call-function,257,613345,,"",,,,,,,,,
html-keyboard-response,258,613445,null,"",null,,,,,,,,
math-period,259,615239,3117.630000000703,"",,,,,,,,,4
html-keyboard-response,260,615344,null,"",null,,,,,,,,
math-period,261,616601,2107.9099999915343,"",,,,,,,,,2
html-keyboard-response,262,616702,null,"",null,,,,,,,,
math-period,263,618227,2517.1300000002375,"",,,,,,,,,4
html-keyboard-response,264,618330,null,"",null,,,,,,,,
math-period,265,619639,2180.010000003502,"",,,,,,,,,3
html-keyboard-response,266,619741,null,"",null,,,,,,,,
math-period,267,620989,2084.9900000103517,"",,,,,,,,,2
html-keyboard-response,268,621091,null,"",null,,,,,,,,
math-period,269,622313,2096.2649999998976,"",,,,,,,,,5
html-keyboard-response,270,622415,null,"",null,,,,,,,,
math-period,271,623688,2127.2499999976717,"",,,,,,,,,3
html-keyboard-response,272,623790,null,"",null,,,,,,,,
math-period,273,624919,1931.3350000082282,"",,,,,,,,,6
html-keyboard-response,274,625021,null,"",null,,,,,,,,
math-period,275,626256,2133.9199999929406,"",,,,,,,,,5
html-keyboard-response,276,626357,null,"",null,,,,,,,,
math-period,277,627908,2758.850000005681,"",,,,,,,,,5
html-keyboard-response,278,628010,null,"",null,,,,,,,,
math-period,279,629196,1998.7749999928055,"",,,,,,,,,3
html-keyboard-response,280,629297,null,"",null,,,,,,,,
math-period,281,631542,4094.6350000085076,"",,,,,,,,,1
html-keyboard-response,282,631644,null,"",null,,,,,,,,
math-period,283,632960,2211.6500000045635,"",,,,,,,,,3
html-keyboard-response,284,633062,null,"",null,,,,,,,,
math-period,285,634927,3335.814999998547,"",,,,,,,,,2
html-keyboard-response,286,635028,null,"",null,,,,,,,,
math-period,287,636342,2216.3900000015274,"",,,,,,,,,3
html-keyboard-response,288,636443,null,"",null,,,,,,,,
math-period,289,637345,null,"",,,,,,,,,
html-keyboard-response,290,638350,null,"Recall Period!",null,,,,,,,,
call-function,291,638351,,"",,,,,,,,,
html-keyboard-response,292,638455,null,"",null,,,,,,,,
recall-period,293,641672,23512.799999996787,"",,,,,,,,,mushroom
html-keyboard-response,294,641774,null,"",null,,,,,,,,
recall-period,295,642602,1942.6349999991944,"",,,,,,,,,ox
html-keyboard-response,296,642708,null,"",null,,,,,,,,
recall-period,297,644344,4657.460000008927,"",,,,,,,,,mammal
html-keyboard-response,298,644446,null,"",null,,,,,,,,
recall-period,299,645996,5376.660000016913,"",,,,,,,,,stallion
html-keyboard-response,300,646097,null,"",null,,,,,,,,
recall-period,301,655974,57418.6150000022,"",,,,,,,,,shirt
html-keyboard-response,302,656078,null,"",null,,,,,,,,
recall-period,303,656832,3029.404999993858,"",,,,,,,,,shorts
html-keyboard-response,304,656933,null,"",null,,,,,,,,
recall-period,305,657832,2869.110000007204,"",,,,,,,,,dress
html-keyboard-response,306,657934,null,"",null,,,,,,,,
recall-period,307,713357,null,"",,,,,,,,,
html-keyboard-response,308,713862,null,"Time's Up!",null,,,,,,,,
html-keyboard-response,309,718259,4395.774999997113,"<p> Good job! You responded correctly to 94% of the GREEN squares.</p>
                  <p>Be sure to keep your accuracy above 80%</p>
                  <p>Press any key to continue the experiment. Thank you!</p>",13,,,,,,,,
html-keyboard-response,310,720883,2622.855000001495,"<div style=""font-size:48px;"">Press any key to begin list 3 of 24 </div>",32,,,,,,,,
html-keyboard-response,311,723384,null,"<div style=""font-size:60px;"">+</div>",null,,,,,,,,
html-keyboard-response,312,723885,500.3849999993108,"SLEEVE<img id = ""stim"" ><div class = green_square id = ""topsquare"" ></div><img id = ""stim"" ><div class = green_square  id = ""bottomsquare"" ></div>",32,word_square,response,1,Space,true,,,
html-keyboard-response,313,725389,null,"SLEEVE",null,word,,,,, 'SLEEVE',,
html-keyboard-response,314,725890,null,"FACE<img id = ""stim"" ><div class = red_square id = ""topsquare"" ></div><img id = ""stim"" ><div class = red_square  id = ""bottomsquare"" ></div>",null,word_square,response,0,none,true,,,
html-keyboard-response,315,727391,null,"FACE",null,word,,,,, 'FACE',,
html-keyboard-response,316,727865,472.3549999980023,"LADY<img id = ""stim"" ><div class = green_square id = ""topsquare"" ></div><img id = ""stim"" ><div class = green_square  id = ""bottomsquare"" ></div>",32,word_square,response,1,Space,true,,,
html-keyboard-response,317,729369,null,"LADY",null,word,,,,, 'LADY',,
html-keyboard-response,318,729874,null,"HOOD<img id = ""stim"" ><div class = red_square id = ""topsquare"" ></div><img id = ""stim"" ><div class = red_square  id = ""bottomsquare"" ></div>",null,word_square,response,0,none,true,,,
html-keyboard-response,319,731378,null,"HOOD",null,word,,,,, 'HOOD',,
html-keyboard-response,320,731832,453.7750000017695,"DAUGHTER<img id = ""stim"" ><div class = green_square id = ""topsquare"" ></div><img id = ""stim"" ><div class = green_square  id = ""bottomsquare"" ></div>",32,word_square,response,1,Space,true,,,
html-keyboard-response,321,733333,null,"DAUGHTER",null,word,,,,, 'DAUGHTER',,
html-keyboard-response,322,733839,null,"KEEPER<img id = ""stim"" ><div class = green_square id = ""topsquare"" ></div><img id = ""stim"" ><div class = green_square  id = ""bottomsquare"" ></div>",null,word_square,response,1,Space,false,,,
html-keyboard-response,323,735343,null,"KEEPER",null,word,,,,, 'KEEPER',,
html-keyboard-response,324,735847,null,"TURTLE<img id = ""stim"" ><div class = red_square id = ""topsquare"" ></div><img id = ""stim"" ><div class = red_square  id = ""bottomsquare"" ></div>",null,word_square,response,0,none,true,,,
html-keyboard-response,325,737349,null,"TURTLE",null,word,,,,, 'TURTLE',,
html-keyboard-response,326,737664,314.2650000008289,"SHACK<img id = ""stim"" ><div class = green_square id = ""topsquare"" ></div><img id = ""stim"" ><div class = green_square  id = ""bottomsquare"" ></div>",32,word_square,response,1,Space,true,,,
html-keyboard-response,327,739165,null,"SHACK",null,word,,,,, 'SHACK',,
html-keyboard-response,328,739669,null,"DOCTOR<img id = ""stim"" ><div class = red_square id = ""topsquare"" ></div><img id = ""stim"" ><div class = red_square  id = ""bottomsquare"" ></div>",null,word_square,response,0,none,true,,,
html-keyboard-response,329,741170,null,"DOCTOR",null,word,,,,, 'DOCTOR',,
html-keyboard-response,330,741556,384.9400000034366,"MARS<img id = ""stim"" ><div class = green_square id = ""topsquare"" ></div><img id = ""stim"" ><div class = green_square  id = ""bottomsquare"" ></div>",32,word_square,response,1,Space,true,,,
html-keyboard-response,331,743057,null,"MARS",null,word,,,,, 'MARS',,
html-keyboard-response,332,743544,486.24500000011176,"BUBBLE<img id = ""stim"" ><div class = green_square id = ""topsquare"" ></div><img id = ""stim"" ><div class = green_square  id = ""bottomsquare"" ></div>",32,word_square,response,1,Space,true,,,
html-keyboard-response,333,745049,null,"BUBBLE",null,word,,,,, 'BUBBLE',,
html-keyboard-response,334,745551,null,"CANAL<img id = ""stim"" ><div class = red_square id = ""topsquare"" ></div><img id = ""stim"" ><div class = red_square  id = ""bottomsquare"" ></div>",null,word_square,response,0,none,true,,,
html-keyboard-response,335,747056,null,"CANAL",null,word,,,,, 'CANAL',,
html-keyboard-response,336,747557,null,"DOUGHNUT<img id = ""stim"" ><div class = red_square id = ""topsquare"" ></div><img id = ""stim"" ><div class = red_square  id = ""bottomsquare"" ></div>",null,word_square,response,0,none,true,,,
html-keyboard-response,337,749060,null,"DOUGHNUT",null,word,,,,, 'DOUGHNUT',,
html-keyboard-response,338,749561,null,"PEBBLE<img id = ""stim"" ><div class = red_square id = ""topsquare"" ></div><img id = ""stim"" ><div class = red_square  id = ""bottomsquare"" ></div>",null,word_square,response,0,none,true,,,
html-keyboard-response,339,751063,null,"PEBBLE",null,word,,,,, 'PEBBLE',,
html-keyboard-response,340,751564,null,"STONE<img id = ""stim"" ><div class = red_square id = ""topsquare"" ></div><img id = ""stim"" ><div class = red_square  id = ""bottomsquare"" ></div>",null,word_square,response,0,none,true,,,
html-keyboard-response,341,753067,null,"STONE",null,word,,,,, 'STONE',,
html-keyboard-response,342,753509,441.22000000055414,"CLAMP<img id = ""stim"" ><div class = green_square id = ""topsquare"" ></div><img id = ""stim"" ><div class = green_square  id = ""bottomsquare"" ></div>",32,word_square,response,1,Space,true,,,
html-keyboard-response,343,755010,null,"CLAMP",null,word,,,,, 'CLAMP',,
html-keyboard-response,344,755469,458.1000000034692,"SLUG<img id = ""stim"" ><div class = green_square id = ""topsquare"" ></div><img id = ""stim"" ><div class = green_square  id = ""bottomsquare"" ></div>",32,word_square,response,1,Space,true,,,
html-keyboard-response,345,756971,null,"SLUG",null,word,,,,, 'SLUG',,
html-keyboard-response,346,757474,null,"CONVENT<img id = ""stim"" ><div class = red_square id = ""topsquare"" ></div><img id = ""stim"" ><div class = red_square  id = ""bottomsquare"" ></div>",null,word_square,response,0,none,true,,,
html-keyboard-response,347,758978,null,"CONVENT",null,word,,,,, 'CONVENT',,
call-function,348,758979,,"",,,,,,,,,
html-keyboard-response,349,759080,null,"",null,,,,,,,,
math-period,350,762399,5137.09500000556,"",,,,,,,,,4
html-keyboard-response,351,762501,null,"",null,,,,,,,,
math-period,352,764303,2948.0100000001257,"",,,,,,,,,4
html-keyboard-response,353,764407,null,"",null,,,,,,,,
math-period,354,765518,1897.7650000016438,"",,,,,,,,,4
html-keyboard-response,355,765620,null,"",null,,,,,,,,
math-period,356,768115,4351.900000001537,"",,,,,,,,,2
html-keyboard-response,357,768217,null,"",null,,,,,,,,
math-period,358,769850,2866.2249999978812,"",,,,,,,,,1
html-keyboard-response,359,769953,null,"",null,,,,,,,,
math-period,360,772051,3743.054999991553,"",,,,,,,,,2
html-keyboard-response,361,772153,null,"",null,,,,,,,,
math-period,362,773296,1964.244999995688,"",,,,,,,,,4
html-keyboard-response,363,773397,null,"",null,,,,,,,,
math-period,364,774757,2329.4449999958742,"",,,,,,,,,3
html-keyboard-response,365,774858,null,"",null,,,,,,,,
math-period,366,776121,2198.8300000011222,"",,,,,,,,,4
html-keyboard-response,367,776222,null,"",null,,,,,,,,
math-period,368,778410,4087.7450000115205,"",,,,,,,,,0
html-keyboard-response,369,778514,null,"",null,,,,,,,,
math-period,370,780140,2906.1299999956973,"",,,,,,,,,4
html-keyboard-response,371,780241,null,"",null,,,,,,,,
math-period,372,782801,4826.274999999441,"",,,,,,,,,5
html-keyboard-response,373,782903,null,"",null,,,,,,,,
math-period,374,782982,null,"",,,,,,,,,
html-keyboard-response,375,783983,null,"Recall Period!",null,,,,,,,,
call-function,376,783984,,"",,,,,,,,,
html-keyboard-response,377,784086,null,"",null,,,,,,,,
recall-period,378,786369,14888.110000015004,"",,,,,,,,,convent
html-keyboard-response,379,786471,null,"",null,,,,,,,,
recall-period,380,787497,4151.30500002089,"",,,,,,,,,bubble
html-keyboard-response,381,787599,null,"",null,,,,,,,,
recall-period,382,789404,11100.025000014342,"",,,,,,,,,stone
html-keyboard-response,383,789507,null,"",null,,,,,,,,
recall-period,384,791472,11270.80500001472,"",,,,,,,,,pebble
html-keyboard-response,385,791574,null,"",null,,,,,,,,
recall-period,386,792372,3267.505000018282,"",,,,,,,,,keeper
html-keyboard-response,387,792473,null,"",null,,,,,,,,
recall-period,388,793423,4327.2950000240235,"",,,,,,,,,daughter
html-keyboard-response,389,793524,null,"",null,,,,,,,,
recall-period,390,810485,115697.26999998244,"",,,,,,,,,doctor
html-keyboard-response,391,810586,null,"",null,,,,,,,,
recall-period,392,858991,null,"",,,,,,,,,
html-keyboard-response,393,859493,null,"Time's Up!",null,,,,,,,,
html-keyboard-response,394,866014,6519.195000000764,"<p> Good job! You responded correctly to 94% of the GREEN squares.</p>
                  <p>Be sure to keep your accuracy above 80%</p>
                  <p>Press any key to continue the experiment. Thank you!</p>",32,,,,,,,,
html-keyboard-response,395,874170,8154.750000001513,"<div style=""font-size:48px;"">Press any key to begin list 4 of 24 </div>",32,,,,,,,,
html-keyboard-response,396,876678,null,"<div style=""font-size:60px;"">+</div>",null,,,,,,,,
html-keyboard-response,397,877184,null,"SAPPHIRE<img id = ""stim"" ><div class = green_square id = ""topsquare"" ></div><img id = ""stim"" ><div class = green_square  id = ""bottomsquare"" ></div>",null,word_square,response,1,Space,false,,,
html-keyboard-response,398,878687,null,"SAPPHIRE",null,word,,,,, 'SAPPHIRE',,
html-keyboard-response,399,879194,null,"JOKER<img id = ""stim"" ><div class = red_square id = ""topsquare"" ></div><img id = ""stim"" ><div class = red_square  id = ""bottomsquare"" ></div>",null,word_square,response,0,none,true,,,
html-keyboard-response,400,880695,null,"JOKER",null,word,,,,, 'JOKER',,
html-keyboard-response,401,881079,382.11500000045635,"STAMP<img id = ""stim"" ><div class = green_square id = ""topsquare"" ></div><img id = ""stim"" ><div class = green_square  id = ""bottomsquare"" ></div>",32,word_square,response,1,Space,true,,,
html-keyboard-response,402,882585,null,"STAMP",null,word,,,,, 'STAMP',,
html-keyboard-response,403,883092,null,"RABBIT<img id = ""stim"" ><div class = red_square id = ""topsquare"" ></div><img id = ""stim"" ><div class = red_square  id = ""bottomsquare"" ></div>",null,word_square,response,0,none,true,,,
html-keyboard-response,404,884595,null,"RABBIT",null,word,,,,, 'RABBIT',,
html-keyboard-response,405,885091,494.6700000000419,"OUTFIT<img id = ""stim"" ><div class = green_square id = ""topsquare"" ></div><img id = ""stim"" ><div class = green_square  id = ""bottomsquare"" ></div>",32,word_square,response,1,Space,true,,,
html-keyboard-response,406,886597,null,"OUTFIT",null,word,,,,, 'OUTFIT',,
html-keyboard-response,407,887015,416.92999999935273,"COSTUME<img id = ""stim"" ><div class = green_square id = ""topsquare"" ></div><img id = ""stim"" ><div class = green_square  id = ""bottomsquare"" ></div>",32,word_square,response,1,Space,true,,,
html-keyboard-response,408,888521,null,"COSTUME",null,word,,,,, 'COSTUME',,
html-keyboard-response,409,889029,null,"BOUQUET<img id = ""stim"" ><div class = red_square id = ""topsquare"" ></div><img id = ""stim"" ><div class = red_square  id = ""bottomsquare"" ></div>",null,word_square,response,0,none,true,,,
html-keyboard-response,410,890531,null,"BOUQUET",null,word,,,,, 'BOUQUET',,
html-keyboard-response,411,890915,383.07000000355765,"PLANT<img id = ""stim"" ><div class = green_square id = ""topsquare"" ></div><img id = ""stim"" ><div class = green_square  id = ""bottomsquare"" ></div>",32,word_square,response,1,Space,true,,,
html-keyboard-response,412,892419,null,"PLANT",null,word,,,,, 'PLANT',,
html-keyboard-response,413,892927,null,"STICKER<img id = ""stim"" ><div class = red_square id = ""topsquare"" ></div><img id = ""stim"" ><div class = red_square  id = ""bottomsquare"" ></div>",null,word_square,response,0,none,true,,,
html-keyboard-response,414,894429,null,"STICKER",null,word,,,,, 'STICKER',,
html-keyboard-response,415,894907,476.3500000045169,"MAGNET<img id = ""stim"" ><div class = green_square id = ""topsquare"" ></div><img id = ""stim"" ><div class = green_square  id = ""bottomsquare"" ></div>",32,word_square,response,1,Space,true,,,
html-keyboard-response,416,896410,null,"MAGNET",null,word,,,,, 'MAGNET',,
html-keyboard-response,417,896916,null,"FREEWAY<img id = ""stim"" ><div class = green_square id = ""topsquare"" ></div><img id = ""stim"" ><div class = green_square  id = ""bottomsquare"" ></div>",null,word_square,response,1,Space,false,,,
html-keyboard-response,418,898421,null,"FREEWAY",null,word,,,,, 'FREEWAY',,
html-keyboard-response,419,898927,null,"ANGEL<img id = ""stim"" ><div class = red_square id = ""topsquare"" ></div><img id = ""stim"" ><div class = red_square  id = ""bottomsquare"" ></div>",null,word_square,response,0,none,true,,,
html-keyboard-response,420,900428,null,"ANGEL",null,word,,,,, 'ANGEL',,
html-keyboard-response,421,900930,null,"PARSLEY<img id = ""stim"" ><div class = red_square id = ""topsquare"" ></div><img id = ""stim"" ><div class = red_square  id = ""bottomsquare"" ></div>",null,word_square,response,0,none,true,,,
html-keyboard-response,422,902431,null,"PARSLEY",null,word,,,,, 'PARSLEY',,
html-keyboard-response,423,902934,null,"SNACK<img id = ""stim"" ><div class = red_square id = ""topsquare"" ></div><img id = ""stim"" ><div class = red_square  id = ""bottomsquare"" ></div>",null,word_square,response,0,none,true,,,
html-keyboard-response,424,904441,null,"SNACK",null,word,,,,, 'SNACK',,
html-keyboard-response,425,904949,null,"SATURN<img id = ""stim"" ><div class = red_square id = ""topsquare"" ></div><img id = ""stim"" ><div class = red_square  id = ""bottomsquare"" ></div>",null,word_square,response,0,none,true,,,
html-keyboard-response,426,906454,null,"SATURN",null,word,,,,, 'SATURN',,
html-keyboard-response,427,906959,null,"ISLAND<img id = ""stim"" ><div class = green_square id = ""topsquare"" ></div><img id = ""stim"" ><div class = green_square  id = ""bottomsquare"" ></div>",null,word_square,response,1,Space,false,,,
html-keyboard-response,428,908462,null,"ISLAND",null,word,,,,, 'ISLAND',,
html-keyboard-response,429,908966,null,"CONVICT<img id = ""stim"" ><div class = green_square id = ""topsquare"" ></div><img id = ""stim"" ><div class = green_square  id = ""bottomsquare"" ></div>",null,word_square,response,1,Space,false,,,
html-keyboard-response,430,910473,null,"CONVICT",null,word,,,,, 'CONVICT',,
html-keyboard-response,431,910979,null,"PEANUT<img id = ""stim"" ><div class = red_square id = ""topsquare"" ></div><img id = ""stim"" ><div class = red_square  id = ""bottomsquare"" ></div>",null,word_square,response,0,none,true,,,
html-keyboard-response,432,912481,null,"PEANUT",null,word,,,,, 'PEANUT',,
call-function,433,912482,,"",,,,,,,,,
html-keyboard-response,434,912583,null,"",null,,,,,,,,
math-period,435,914788,3924.4200000030687,"",,,,,,,,,4
html-keyboard-response,436,914891,null,"",null,,,,,,,,
math-period,437,916409,2339.0549999967916,"",,,,,,,,,2
html-keyboard-response,438,916512,null,"",null,,,,,,,,
math-period,439,918602,3860.924999993411,"",,,,,,,,,5
html-keyboard-response,440,918703,null,"",null,,,,,,,,
math-period,441,920403,2980.5900000063702,"",,,,,,,,,1
html-keyboard-response,442,920504,null,"",null,,,,,,,,
math-period,443,923370,5023.414999995963,"",,,,,,,,,1
html-keyboard-response,444,923471,null,"",null,,,,,,,,
math-period,445,925694,4029.0949999978766,"",,,,,,,,,2
html-keyboard-response,446,925798,null,"",null,,,,,,,,
math-period,447,927253,2551.840000000084,"",,,,,,,,,4
html-keyboard-response,448,927357,null,"",null,,,,,,,,
math-period,449,928697,2240.3750000012806,"",,,,,,,,,4
html-keyboard-response,450,928799,null,"",null,,,,,,,,
math-period,451,930547,3129.909999995958,"",,,,,,,,,1
html-keyboard-response,452,930649,null,"",null,,,,,,,,
math-period,453,932171,2543.26999999478,"",,,,,,,,,3
html-keyboard-response,454,932275,null,"",null,,,,,,,,
math-period,455,934811,7677.800000004936,"",,,,,,,,,5
html-keyboard-response,456,934912,null,"",null,,,,,,,,
math-period,457,936486,1536.1899999990128,"",,,,,,,,,3
html-keyboard-response,458,937491,null,"Recall Period!",null,,,,,,,,
call-function,459,937492,,"",,,,,,,,,
html-keyboard-response,460,937593,null,"",null,,,,,,,,
recall-period,461,944020,55322.3050000089,"",,,,,,,,,convent
html-keyboard-response,462,944122,null,"",null,,,,,,,,
recall-period,463,946131,11164.64500001166,"",,,,,,,,,rabbit
html-keyboard-response,464,946235,null,"",null,,,,,,,,
recall-period,465,946979,3104.2799999993294,"",,,,,,,,,sticker
html-keyboard-response,466,947083,null,"",null,,,,,,,,
recall-period,467,948096,2668.8399999989197,"",,,,,,,,,stamp
html-keyboard-response,468,948199,null,"",null,,,,,,,,
recall-period,469,952202,25500.17499999411,"",,,,,,,,,freeway
html-keyboard-response,470,952305,null,"",null,,,,,,,,
recall-period,471,953647,6533.679999978514,"",,,,,,,,,parsley
html-keyboard-response,472,953750,null,"",null,,,,,,,,
recall-period,473,967542,105073.08500001847,"",,,,,,,,,freeway
html-keyboard-response,474,967645,null,"",null,,,,,,,,
recall-period,475,978870,84806.48999999568,"",,,,,,,,,plant
html-keyboard-response,476,978973,null,"",null,,,,,,,,
recall-period,477,997529,192226.8499999626,"",,,,,,,,,peanut
html-keyboard-response,478,997632,null,"",null,,,,,,,,
recall-period,479,1012495,null,"",,,,,,,,,
html-keyboard-response,480,1012999,null,"Time's Up!",null,,,,,,,,
html-keyboard-response,481,1014477,1475.8600000059232,"<p> Good job! You responded correctly to 91% of the GREEN squares.</p>
                  <p>Be sure to keep your accuracy above 80%</p>
                  <p>Press any key to continue the experiment. Thank you!</p>",13,,,,,,,,
html-keyboard-response,482,1018900,4421.730000001844,"<div style=""font-size:48px;"">Press any key to begin list 5 of 24 </div>",32,,,,,,,,
html-keyboard-response,483,1021410,null,"<div style=""font-size:60px;"">+</div>",null,,,,,,,,
html-keyboard-response,484,1021913,null,"EARRING<img id = ""stim"" ><div class = green_square id = ""topsquare"" ></div><img id = ""stim"" ><div class = green_square  id = ""bottomsquare"" ></div>",null,word_square,response,1,Space,false,,,
html-keyboard-response,485,1023415,null,"EARRING",null,word,,,,, 'EARRING',,
html-keyboard-response,486,1023917,null,"PAINTING<img id = ""stim"" ><div class = red_square id = ""topsquare"" ></div><img id = ""stim"" ><div class = red_square  id = ""bottomsquare"" ></div>",null,word_square,response,0,none,true,,,
html-keyboard-response,487,1025419,null,"PAINTING",null,word,,,,, 'PAINTING',,
html-keyboard-response,488,1025923,null,"PATIENT<img id = ""stim"" ><div class = red_square id = ""topsquare"" ></div><img id = ""stim"" ><div class = red_square  id = ""bottomsquare"" ></div>",null,word_square,response,0,none,true,,,
html-keyboard-response,489,1027428,null,"PATIENT",null,word,,,,, 'PATIENT',,
html-keyboard-response,490,1027872,442.6049999964889,"NURSE<img id = ""stim"" ><div class = green_square id = ""topsquare"" ></div><img id = ""stim"" ><div class = green_square  id = ""bottomsquare"" ></div>",32,word_square,response,1,Space,true,,,
html-keyboard-response,491,1029378,null,"NURSE",null,word,,,,, 'NURSE',,
html-keyboard-response,492,1029881,null,"SENATE<img id = ""stim"" ><div class = red_square id = ""topsquare"" ></div><img id = ""stim"" ><div class = red_square  id = ""bottomsquare"" ></div>",null,word_square,response,0,none,true,,,
html-keyboard-response,493,1031383,null,"SENATE",null,word,,,,, 'SENATE',,
html-keyboard-response,494,1031889,null,"BROTHER<img id = ""stim"" ><div class = green_square id = ""topsquare"" ></div><img id = ""stim"" ><div class = green_square  id = ""bottomsquare"" ></div>",null,word_square,response,1,Space,false,,,
html-keyboard-response,495,1033391,null,"BROTHER",null,word,,,,, 'BROTHER',,
html-keyboard-response,496,1033896,null,"BANDIT<img id = ""stim"" ><div class = red_square id = ""topsquare"" ></div><img id = ""stim"" ><div class = red_square  id = ""bottomsquare"" ></div>",null,word_square,response,0,none,true,,,
html-keyboard-response,497,1035400,null,"BANDIT",null,word,,,,, 'BANDIT',,
html-keyboard-response,498,1035903,null,"ARTIST<img id = ""stim"" ><div class = red_square id = ""topsquare"" ></div><img id = ""stim"" ><div class = red_square  id = ""bottomsquare"" ></div>",null,word_square,response,0,none,true,,,
html-keyboard-response,499,1037405,null,"ARTIST",null,word,,,,, 'ARTIST',,
html-keyboard-response,500,1037907,null,"QUAIL<img id = ""stim"" ><div class = green_square id = ""topsquare"" ></div><img id = ""stim"" ><div class = green_square  id = ""bottomsquare"" ></div>",null,word_square,response,1,Space,false,,,
html-keyboard-response,501,1039411,null,"QUAIL",null,word,,,,, 'QUAIL',,
html-keyboard-response,502,1039913,null,"MEAT<img id = ""stim"" ><div class = red_square id = ""topsquare"" ></div><img id = ""stim"" ><div class = red_square  id = ""bottomsquare"" ></div>",null,word_square,response,0,none,true,,,
html-keyboard-response,503,1041416,null,"MEAT",null,word,,,,, 'MEAT',,
html-keyboard-response,504,1041922,null,"JELLO<img id = ""stim"" ><div class = green_square id = ""topsquare"" ></div><img id = ""stim"" ><div class = green_square  id = ""bottomsquare"" ></div>",null,word_square,response,1,Space,false,,,
html-keyboard-response,505,1043424,null,"JELLO",null,word,,,,, 'JELLO',,
html-keyboard-response,506,1043906,479.9349999957485,"BELLY<img id = ""stim"" ><div class = green_square id = ""topsquare"" ></div><img id = ""stim"" ><div class = green_square  id = ""bottomsquare"" ></div>",32,word_square,response,1,Space,true,,,
html-keyboard-response,507,1045407,null,"BELLY",null,word,,,,, 'BELLY',,
html-keyboard-response,508,1045909,null,"CARTON<img id = ""stim"" ><div class = red_square id = ""topsquare"" ></div><img id = ""stim"" ><div class = red_square  id = ""bottomsquare"" ></div>",null,word_square,response,0,none,true,,,
html-keyboard-response,509,1047411,null,"CARTON",null,word,,,,, 'CARTON',,
html-keyboard-response,510,1047878,465.77499999688007,"HANDBAG<img id = ""stim"" ><div class = green_square id = ""topsquare"" ></div><img id = ""stim"" ><div class = green_square  id = ""bottomsquare"" ></div>",32,word_square,response,1,Space,true,,,
html-keyboard-response,511,1049379,null,"HANDBAG",null,word,,,,, 'HANDBAG',,
html-keyboard-response,512,1049861,480.71500000497326,"SCOUT<img id = ""stim"" ><div class = green_square id = ""topsquare"" ></div><img id = ""stim"" ><div class = green_square  id = ""bottomsquare"" ></div>",32,word_square,response,1,Space,true,,,
html-keyboard-response,513,1051363,null,"SCOUT",null,word,,,,, 'SCOUT',,
html-keyboard-response,514,1051865,null,"SIBLING<img id = ""stim"" ><div class = red_square id = ""topsquare"" ></div><img id = ""stim"" ><div class = red_square  id = ""bottomsquare"" ></div>",null,word_square,response,0,none,true,,,
html-keyboard-response,515,1053367,null,"SIBLING",null,word,,,,, 'SIBLING',,
html-keyboard-response,516,1053872,null,"GRIZZLY<img id = ""stim"" ><div class = red_square id = ""topsquare"" ></div><img id = ""stim"" ><div class = red_square  id = ""bottomsquare"" ></div>",null,word_square,response,0,none,true,,,
html-keyboard-response,517,1055374,null,"GRIZZLY",null,word,,,,, 'GRIZZLY',,
html-keyboard-response,518,1055867,491.3200000007637,"CRAB<img id = ""stim"" ><div class = green_square id = ""topsquare"" ></div><img id = ""stim"" ><div class = green_square  id = ""bottomsquare"" ></div>",32,word_square,response,1,Space,true,,,
html-keyboard-response,519,1057372,null,"CRAB",null,word,,,,, 'CRAB',,
call-function,520,1057374,,"",,,,,,,,,
html-keyboard-response,521,1057478,null,"",null,,,,,,,,
math-period,522,1061142,5877.500000002328,"",,,,,,,,,4
html-keyboard-response,523,1061245,null,"",null,,,,,,,,
math-period,524,1062835,2864.9199999999255,"",,,,,,,,,1
html-keyboard-response,525,1062938,null,"",null,,,,,,,,
math-period,526,1064324,2620.7500000090804,"",,,,,,,,,6
html-keyboard-response,527,1064429,null,"",null,,,,,,,,
math-period,528,1065760,2443.805000002496,"",,,,,,,,,5
html-keyboard-response,529,1065863,null,"",null,,,,,,,,
math-period,530,1066895,1922.8399999993853,"",,,,,,,,,3
html-keyboard-response,531,1066998,null,"",null,,,,,,,,
math-period,532,1068199,2203.8950000058394,"",,,,,,,,,6
html-keyboard-response,533,1068302,null,"",null,,,,,,,,
math-period,534,1070593,4338.960000001127,"",,,,,,,,,5
html-keyboard-response,535,1070695,null,"",null,,,,,,,,
math-period,536,1073430,5288.835000006715,"",,,,,,,,,2
html-keyboard-response,537,1073533,null,"",null,,,,,,,,
math-period,538,1077919,8650.715000010561,"",,,,,,,,,1
html-keyboard-response,539,1078022,null,"",null,,,,,,,,
math-period,540,1079788,2999.940000001341,"",,,,,,,,,3
html-keyboard-response,541,1079892,null,"",null,,,,,,,,
math-period,542,1081378,null,"",,,,,,,,,
html-keyboard-response,543,1082379,null,"Recall Period!",null,,,,,,,,
call-function,544,1082380,,"",,,,,,,,,
html-keyboard-response,545,1082487,null,"",null,,,,,,,,
recall-period,546,1085369,15026.995000014314,"",,,,,,,,,nurse
html-keyboard-response,547,1085471,null,"",null,,,,,,,,
recall-period,548,1086349,3937.640000018524,"",,,,,,,,,patient
html-keyboard-response,549,1086453,null,"",null,,,,,,,,
recall-period,550,1087478,4203.739999974379,"",,,,,,,,,jello
html-keyboard-response,551,1087580,null,"",null,,,,,,,,
recall-period,552,1088242,2383.629999982193,"",,,,,,,,,belly
html-keyboard-response,553,1088346,null,"",null,,,,,,,,
recall-period,554,1089372,3457.095000012312,"",,,,,,,,,quail
html-keyboard-response,555,1089475,null,"",null,,,,,,,,
recall-period,556,1106117,98029.53999998188,"",,,,,,,,,scout
html-keyboard-response,557,1106220,null,"",null,,,,,,,,
recall-period,558,1107071,4073.459999992745,"",,,,,,,,,brother
html-keyboard-response,559,1107176,null,"",null,,,,,,,,
recall-period,560,1108381,4701.970000002766,"",,,,,,,,,grizzly
html-keyboard-response,561,1108484,null,"",null,,,,,,,,
recall-period,562,1113858,39692.29499998642,"",,,,,,,,,sibling
html-keyboard-response,563,1113962,null,"",null,,,,,,,,
recall-period,564,1157386,null,"",,,,,,,,,
html-keyboard-response,565,1157888,null,"Time's Up!",null,,,,,,,,
html-keyboard-response,566,1161072,3182.3349999978673,"<p> Good job! You responded correctly to 89% of the GREEN squares.</p>
                  <p>Be sure to keep your accuracy above 80%</p>
                  <p>Press any key to continue the experiment. Thank you!</p>",32,,,,,,,,
html-keyboard-response,567,1167131,6057.0100000042,"<div style=""font-size:48px;"">Press any key to begin list 6 of 24 </div>",32,,,,,,,,
html-keyboard-response,568,1169636,null,"<div style=""font-size:60px;"">+</div>",null,,,,,,,,
html-keyboard-response,569,1170140,null,"TIMBER<img id = ""stim"" ><div class = green_square id = ""topsquare"" ></div><img id = ""stim"" ><div class = green_square  id = ""bottomsquare"" ></div>",null,word_square,response,1,Space,false,,,
html-keyboard-response,570,1171643,null,"TIMBER",null,word,,,,, 'TIMBER',,
html-keyboard-response,571,1172145,null,"LAMP<img id = ""stim"" ><div class = red_square id = ""topsquare"" ></div><img id = ""stim"" ><div class = red_square  id = ""bottomsquare"" ></div>",null,word_square,response,0,none,true,,,
html-keyboard-response,572,1173646,null,"LAMP",null,word,,,,, 'LAMP',,
html-keyboard-response,573,1174153,null,"CHAMBER<img id = ""stim"" ><div class = red_square id = ""topsquare"" ></div><img id = ""stim"" ><div class = red_square  id = ""bottomsquare"" ></div>",null,word_square,response,0,none,true,,,
html-keyboard-response,574,1175656,null,"CHAMBER",null,word,,,,, 'CHAMBER',,
html-keyboard-response,575,1176159,null,"JEANS<img id = ""stim"" ><div class = green_square id = ""topsquare"" ></div><img id = ""stim"" ><div class = green_square  id = ""bottomsquare"" ></div>",null,word_square,response,1,Space,false,,,
html-keyboard-response,576,1177662,null,"JEANS",null,word,,,,, 'JEANS',,
html-keyboard-response,577,1178168,null,"BEAVER<img id = ""stim"" ><div class = red_square id = ""topsquare"" ></div><img id = ""stim"" ><div class = red_square  id = ""bottomsquare"" ></div>",null,word_square,response,0,none,true,,,
html-keyboard-response,578,1179669,null,"BEAVER",null,word,,,,, 'BEAVER',,
html-keyboard-response,579,1180150,479.27000000327826,"BISON<img id = ""stim"" ><div class = green_square id = ""topsquare"" ></div><img id = ""stim"" ><div class = green_square  id = ""bottomsquare"" ></div>",32,word_square,response,1,Space,true,,,
html-keyboard-response,580,1181651,null,"BISON",null,word,,,,, 'BISON',,
html-keyboard-response,581,1182156,null,"PADDING<img id = ""stim"" ><div class = red_square id = ""topsquare"" ></div><img id = ""stim"" ><div class = red_square  id = ""bottomsquare"" ></div>",null,word_square,response,0,none,true,,,
html-keyboard-response,582,1183658,null,"PADDING",null,word,,,,, 'PADDING',,
html-keyboard-response,583,1184165,null,"VELVET<img id = ""stim"" ><div class = red_square id = ""topsquare"" ></div><img id = ""stim"" ><div class = red_square  id = ""bottomsquare"" ></div>",null,word_square,response,0,none,true,,,
html-keyboard-response,584,1185667,null,"VELVET",null,word,,,,, 'VELVET',,
html-keyboard-response,585,1186093,424.49000000488013,"GUARD<img id = ""stim"" ><div class = green_square id = ""topsquare"" ></div><img id = ""stim"" ><div class = green_square  id = ""bottomsquare"" ></div>",32,word_square,response,1,Space,true,,,
html-keyboard-response,586,1187594,null,"GUARD",null,word,,,,, 'GUARD',,
html-keyboard-response,587,1188101,null,"STREET<img id = ""stim"" ><div class = red_square id = ""topsquare"" ></div><img id = ""stim"" ><div class = red_square  id = ""bottomsquare"" ></div>",null,word_square,response,0,none,true,,,
html-keyboard-response,588,1189602,null,"STREET",null,word,,,,, 'STREET',,
html-keyboard-response,589,1190105,null,"FIST<img id = ""stim"" ><div class = green_square id = ""topsquare"" ></div><img id = ""stim"" ><div class = green_square  id = ""bottomsquare"" ></div>",null,word_square,response,1,Space,false,,,
html-keyboard-response,590,1191607,null,"FIST",null,word,,,,, 'FIST',,
html-keyboard-response,591,1192028,419.4949999945238,"GOBLIN<img id = ""stim"" ><div class = green_square id = ""topsquare"" ></div><img id = ""stim"" ><div class = green_square  id = ""bottomsquare"" ></div>",32,word_square,response,1,Space,true,,,
html-keyboard-response,592,1193530,null,"GOBLIN",null,word,,,,, 'GOBLIN',,
html-keyboard-response,593,1194033,null,"DENIM<img id = ""stim"" ><div class = red_square id = ""topsquare"" ></div><img id = ""stim"" ><div class = red_square  id = ""bottomsquare"" ></div>",null,word_square,response,0,none,true,,,
html-keyboard-response,594,1195536,null,"DENIM",null,word,,,,, 'DENIM',,
html-keyboard-response,595,1195888,349.97499999729916,"POND<img id = ""stim"" ><div class = green_square id = ""topsquare"" ></div><img id = ""stim"" ><div class = green_square  id = ""bottomsquare"" ></div>",32,word_square,response,1,Space,true,,,
html-keyboard-response,596,1197390,null,"POND",null,word,,,,, 'POND',,
html-keyboard-response,597,1197789,397.81500000390224,"MATCH<img id = ""stim"" ><div class = green_square id = ""topsquare"" ></div><img id = ""stim"" ><div class = green_square  id = ""bottomsquare"" ></div>",32,word_square,response,1,Space,true,,,
html-keyboard-response,598,1199291,null,"MATCH",null,word,,,,, 'MATCH',,
html-keyboard-response,599,1199795,null,"SNAKE<img id = ""stim"" ><div class = red_square id = ""topsquare"" ></div><img id = ""stim"" ><div class = red_square  id = ""bottomsquare"" ></div>",null,word_square,response,0,none,true,,,
html-keyboard-response,600,1201302,null,"SNAKE",null,word,,,,, 'SNAKE',,
html-keyboard-response,601,1201771,468.3500000028871,"STAIRS<img id = ""stim"" ><div class = red_square id = ""topsquare"" ></div><img id = ""stim"" ><div class = red_square  id = ""bottomsquare"" ></div>",32,word_square,response,0,none,false,,,
html-keyboard-response,602,1203274,null,"STAIRS",null,word,,,,, 'STAIRS',,
html-keyboard-response,603,1203684,408.43999999924563,"COLONEL<img id = ""stim"" ><div class = green_square id = ""topsquare"" ></div><img id = ""stim"" ><div class = green_square  id = ""bottomsquare"" ></div>",32,word_square,response,1,Space,true,,,
html-keyboard-response,604,1205187,null,"COLONEL",null,word,,,,, 'COLONEL',,
call-function,605,1205188,,"",,,,,,,,,
html-keyboard-response,606,1205295,null,"",null,,,,,,,,
math-period,607,1208423,5331.785000002012,"",,,,,,,,,5
html-keyboard-response,608,1208526,null,"",null,,,,,,,,
math-period,609,1209727,1951.6699999945704,"",,,,,,,,,5
html-keyboard-response,610,1209831,null,"",null,,,,,,,,
math-period,611,1211509,3144.9599999976344,"",,,,,,,,,3
html-keyboard-response,612,1211613,null,"",null,,,,,,,,
math-period,613,1212676,1862.2949999989942,"",,,,,,,,,3
html-keyboard-response,614,1212779,null,"",null,,,,,,,,
math-period,615,1214662,3435.104999989737,"",,,,,,,,,5
html-keyboard-response,616,1214766,null,"",null,,,,,,,,
math-period,617,1216710,3640.4049999911804,"",,,,,,,,,0
html-keyboard-response,618,1216813,null,"",null,,,,,,,,
math-period,619,1218285,2548.1199999921955,"",,,,,,,,,5
html-keyboard-response,620,1218390,null,"",null,,,,,,,,
math-period,621,1220191,2847.955000004964,"",,,,,,,,,4
html-keyboard-response,622,1220298,null,"",null,,,,,,,,
math-period,623,1222012,3069.2200000048615,"",,,,,,,,,4
html-keyboard-response,624,1222116,null,"",null,,,,,,,,
math-period,625,1224053,3559.564999995753,"",,,,,,,,,2
html-keyboard-response,626,1224155,null,"",null,,,,,,,,
math-period,627,1225614,2596.1950000051875,"",,,,,,,,,4
html-keyboard-response,628,1225718,null,"",null,,,,,,,,
math-period,629,1226971,2158.38000000827,"",,,,,,,,,4
html-keyboard-response,630,1227074,null,"",null,,,,,,,,
math-period,631,1228759,3032.3449999922886,"",,,,,,,,,1
html-keyboard-response,632,1228862,null,"",null,,,,,,,,
math-period,633,1229193,null,"",,,,,,,,,
html-keyboard-response,634,1230196,null,"Recall Period!",null,,,,,,,,
call-function,635,1230197,,"",,,,,,,,,
html-keyboard-response,636,1230302,null,"",null,,,,,,,,
recall-period,637,1233224,18179.88499997626,"",,,,,,,,,colonel
html-keyboard-response,638,1233327,null,"",null,,,,,,,,
recall-period,639,1237802,32944.92000000132,"",,,,,,,,,padding
html-keyboard-response,640,1237905,null,"",null,,,,,,,,
recall-period,641,1246692,64157.465000004275,"",,,,,,,,,bison
html-keyboard-response,642,1246795,null,"",null,,,,,,,,
recall-period,643,1251641,18108.87500000582,"",,,,,,,,,box
html-keyboard-response,644,1251744,null,"",null,,,,,,,,
recall-period,645,1263760,78505.39500002936,"",,,,,,,,,pond
html-keyboard-response,646,1263864,null,"",null,,,,,,,,
recall-period,647,1265233,5550.034999985946,"",,,,,,,,,denim
html-keyboard-response,648,1265334,null,"",null,,,,,,,,
recall-period,649,1266321,2814.8700000029057,"",,,,,,,,,jeans
html-keyboard-response,650,1266424,null,"",null,,,,,,,,
recall-period,651,1276233,107165.46500002756,"",,,,,,,,,snake
html-keyboard-response,652,1276340,null,"",null,,,,,,,,
recall-period,653,1284644,55345.42000001948,"",,,,,,,,,street
html-keyboard-response,654,1284747,null,"",null,,,,,,,,
recall-period,655,1288878,18794.965000000317,"",,,,,,,,,fist
html-keyboard-response,656,1288980,null,"",null,,,,,,,,
recall-period,657,1305202,null,"",,,,,,,,,
html-keyboard-response,658,1305710,null,"Time's Up!",null,,,,,,,,
html-keyboard-response,659,1308609,2896.970000001602,"<p> Good job! You responded correctly to 87% of the GREEN squares.</p>
                  <p>Be sure to keep your accuracy above 80%</p>
                  <p>Press any key to continue the experiment. Thank you!</p>",32,,,,,,,,
html-keyboard-response,660,1321749,13138.78500000271,"<div style=""font-size:48px;"">Press any key to begin list 7 of 24 </div>",32,,,,,,,,
html-keyboard-response,661,1324253,null,"<div style=""font-size:60px;"">+</div>",null,,,,,,,,
html-keyboard-response,662,1324757,null,"GANGSTER<img id = ""stim"" ><div class = red_square id = ""topsquare"" ></div><img id = ""stim"" ><div class = red_square  id = ""bottomsquare"" ></div>",null,word_square,response,0,none,true,,,
html-keyboard-response,663,1326259,null,"GANGSTER",null,word,,,,, 'GANGSTER',,
html-keyboard-response,664,1326764,null,"SCHOOL<img id = ""stim"" ><div class = green_square id = ""topsquare"" ></div><img id = ""stim"" ><div class = green_square  id = ""bottomsquare"" ></div>",null,word_square,response,1,Space,false,,,
html-keyboard-response,665,1328266,null,"SCHOOL",null,word,,,,, 'SCHOOL',,
html-keyboard-response,666,1328655,387.61499999975786,"MISSILE<img id = ""stim"" ><div class = green_square id = ""topsquare"" ></div><img id = ""stim"" ><div class = green_square  id = ""bottomsquare"" ></div>",32,word_square,response,1,Space,true,,,
html-keyboard-response,667,1330158,null,"MISSILE",null,word,,,,, 'MISSILE',,
html-keyboard-response,668,1330663,null,"FLOWER<img id = ""stim"" ><div class = red_square id = ""topsquare"" ></div><img id = ""stim"" ><div class = red_square  id = ""bottomsquare"" ></div>",null,word_square,response,0,none,true,,,
html-keyboard-response,669,1332166,null,"FLOWER",null,word,,,,, 'FLOWER',,
html-keyboard-response,670,1332570,402.9949999966193,"DAISY<img id = ""stim"" ><div class = green_square id = ""topsquare"" ></div><img id = ""stim"" ><div class = green_square  id = ""bottomsquare"" ></div>",32,word_square,response,1,Space,true,,,
html-keyboard-response,671,1334076,null,"DAISY",null,word,,,,, 'DAISY',,
html-keyboard-response,672,1334582,null,"SURGEON<img id = ""stim"" ><div class = red_square id = ""topsquare"" ></div><img id = ""stim"" ><div class = red_square  id = ""bottomsquare"" ></div>",null,word_square,response,0,none,true,,,
html-keyboard-response,673,1336085,null,"SURGEON",null,word,,,,, 'SURGEON',,
html-keyboard-response,674,1336588,null,"CAPTIVE<img id = ""stim"" ><div class = green_square id = ""topsquare"" ></div><img id = ""stim"" ><div class = green_square  id = ""bottomsquare"" ></div>",null,word_square,response,1,Space,false,,,
html-keyboard-response,675,1338091,null,"CAPTIVE",null,word,,,,, 'CAPTIVE',,
html-keyboard-response,676,1338592,null,"PEDAL<img id = ""stim"" ><div class = green_square id = ""topsquare"" ></div><img id = ""stim"" ><div class = green_square  id = ""bottomsquare"" ></div>",null,word_square,response,1,Space,false,,,
html-keyboard-response,677,1340095,null,"PEDAL",null,word,,,,, 'PEDAL',,
html-keyboard-response,678,1340601,null,"BEEF<img id = ""stim"" ><div class = red_square id = ""topsquare"" ></div><img id = ""stim"" ><div class = red_square  id = ""bottomsquare"" ></div>",null,word_square,response,0,none,true,,,
html-keyboard-response,679,1342103,null,"BEEF",null,word,,,,, 'BEEF',,
html-keyboard-response,680,1342609,null,"SCAPEGOAT<img id = ""stim"" ><div class = green_square id = ""topsquare"" ></div><img id = ""stim"" ><div class = green_square  id = ""bottomsquare"" ></div>",null,word_square,response,1,Space,false,,,
html-keyboard-response,681,1344114,null,"SCAPEGOAT",null,word,,,,, 'SCAPEGOAT',,
html-keyboard-response,682,1344620,null,"TURKEY<img id = ""stim"" ><div class = red_square id = ""topsquare"" ></div><img id = ""stim"" ><div class = red_square  id = ""bottomsquare"" ></div>",null,word_square,response,0,none,true,,,
html-keyboard-response,683,1346125,null,"TURKEY",null,word,,,,, 'TURKEY',,
html-keyboard-response,684,1346629,null,"FARMER<img id = ""stim"" ><div class = red_square id = ""topsquare"" ></div><img id = ""stim"" ><div class = red_square  id = ""bottomsquare"" ></div>",null,word_square,response,0,none,true,,,
html-keyboard-response,685,1348131,null,"FARMER",null,word,,,,, 'FARMER',,
html-keyboard-response,686,1348634,null,"XEROX<img id = ""stim"" ><div class = green_square id = ""topsquare"" ></div><img id = ""stim"" ><div class = green_square  id = ""bottomsquare"" ></div>",null,word_square,response,1,Space,false,,,
html-keyboard-response,687,1350139,null,"XEROX",null,word,,,,, 'XEROX',,
html-keyboard-response,688,1350642,null,"MACHINE<img id = ""stim"" ><div class = red_square id = ""topsquare"" ></div><img id = ""stim"" ><div class = red_square  id = ""bottomsquare"" ></div>",null,word_square,response,0,none,true,,,
html-keyboard-response,689,1352147,null,"MACHINE",null,word,,,,, 'MACHINE',,
html-keyboard-response,690,1352651,null,"FRIAR<img id = ""stim"" ><div class = red_square id = ""topsquare"" ></div><img id = ""stim"" ><div class = red_square  id = ""bottomsquare"" ></div>",null,word_square,response,0,none,true,,,
html-keyboard-response,691,1354156,null,"FRIAR",null,word,,,,, 'FRIAR',,
html-keyboard-response,692,1354592,434.7300000009127,"SKUNK<img id = ""stim"" ><div class = green_square id = ""topsquare"" ></div><img id = ""stim"" ><div class = green_square  id = ""bottomsquare"" ></div>",32,word_square,response,1,Space,true,,,
html-keyboard-response,693,1356095,null,"SKUNK",null,word,,,,, 'SKUNK',,
html-keyboard-response,694,1356597,null,"GRASS<img id = ""stim"" ><div class = green_square id = ""topsquare"" ></div><img id = ""stim"" ><div class = green_square  id = ""bottomsquare"" ></div>",null,word_square,response,1,Space,false,,,
html-keyboard-response,695,1358099,null,"GRASS",null,word,,,,, 'GRASS',,
html-keyboard-response,696,1358604,null,"FROG<img id = ""stim"" ><div class = red_square id = ""topsquare"" ></div><img id = ""stim"" ><div class = red_square  id = ""bottomsquare"" ></div>",null,word_square,response,0,none,true,,,
html-keyboard-response,697,1360105,null,"FROG",null,word,,,,, 'FROG',,
call-function,698,1360106,,"",,,,,,,,,
html-keyboard-response,699,1360207,null,"",null,,,,,,,,
math-period,700,1362894,4657.200000001118,"",,,,,,,,,6
html-keyboard-response,701,1362996,null,"",null,,,,,,,,
math-period,702,1365638,5037.994999998715,"",,,,,,,,,1
html-keyboard-response,703,1365739,null,"",null,,,,,,,,
math-period,704,1367143,2577.8199999912176,"",,,,,,,,,4
html-keyboard-response,705,1367246,null,"",null,,,,,,,,
math-period,706,1368650,2589.4050000060815,"",,,,,,,,,4
html-keyboard-response,707,1368751,null,"",null,,,,,,,,
math-period,708,1370456,3180.6450000002515,"",,,,,,,,,0
html-keyboard-response,709,1370558,null,"",null,,,,,,,,
math-period,710,1372588,3849.884999996051,"",,,,,,,,,2
html-keyboard-response,711,1372691,null,"",null,,,,,,,,
math-period,712,1374341,3093.8550000067335,"",,,,,,,,,5
html-keyboard-response,713,1374442,null,"",null,,,,,,,,
math-period,714,1378619,8034.819999993546,"",,,,,,,,,6
html-keyboard-response,715,1378721,null,"",null,,,,,,,,
math-period,716,1381681,5768.645000003744,"",,,,,,,,,5
html-keyboard-response,717,1381784,null,"",null,,,,,,,,
math-period,718,1383282,2770.335000000894,"",,,,,,,,,6
html-keyboard-response,719,1383385,null,"",null,,,,,,,,
math-period,720,1384110,null,"",,,,,,,,,
html-keyboard-response,721,1385117,null,"Recall Period!",null,,,,,,,,
call-function,722,1385118,,"",,,,,,,,,
html-keyboard-response,723,1385222,null,"",null,,,,,,,,
recall-period,724,1388511,23600.859999999404,"",,,,,,,,,friar
html-keyboard-response,725,1388613,null,"",null,,,,,,,,
recall-period,726,1390137,9579.509999973932,"",,,,,,,,,shooting
html-keyboard-response,727,1390240,null,"",null,,,,,,,,
recall-period,728,1391239,3474.6550000119023,"",,,,,,,,,school
html-keyboard-response,729,1391344,null,"",null,,,,,,,,
recall-period,730,1392242,2901.3600000259466,"",,,,,,,,,turkey
html-keyboard-response,731,1392346,null,"",null,,,,,,,,
recall-period,732,1395433,20827.824999949895,"",,,,,,,,,xerox
html-keyboard-response,733,1395536,null,"",null,,,,,,,,
recall-period,734,1396536,4454.44500001031,"",,,,,,,,,machine
html-keyboard-response,735,1396638,null,"",null,,,,,,,,
recall-period,736,1408683,133156.7500000312,"",,,,,,,,,daisy
html-keyboard-response,737,1408787,null,"",null,,,,,,,,
recall-period,738,1409433,2732.4550000193994,"",,,,,,,,,flower
html-keyboard-response,739,1409535,null,"",null,,,,,,,,
recall-period,740,1431304,170384.0599999812,"",,,,,,,,,surgeon
html-keyboard-response,741,1431406,null,"",null,,,,,,,,
recall-period,742,1459802,167149.4299999827,"",,,,,,,,,grass
html-keyboard-response,743,1459908,null,"",null,,,,,,,,
recall-period,744,1460121,null,"",,,,,,,,,
html-keyboard-response,745,1460623,null,"Time's Up!",null,,,,,,,,
html-keyboard-response,746,1464897,4271.489999999292,"<p> Good job! You responded correctly to 85% of the GREEN squares.</p>
                  <p>Be sure to keep your accuracy above 80%</p>
                  <p>Press any key to continue the experiment. Thank you!</p>",32,,,,,,,,
html-keyboard-response,747,1467671,2773.0200000004843,"<div style=""font-size:48px;"">Press any key to begin list 8 of 24 </div>",32,,,,,,,,
html-keyboard-response,748,1470173,null,"<div style=""font-size:60px;"">+</div>",null,,,,,,,,
html-keyboard-response,749,1470675,null,"ZEBRA<img id = ""stim"" ><div class = red_square id = ""topsquare"" ></div><img id = ""stim"" ><div class = red_square  id = ""bottomsquare"" ></div>",null,word_square,response,0,none,true,,,
html-keyboard-response,750,1472177,null,"ZEBRA",null,word,,,,, 'ZEBRA',,
html-keyboard-response,751,1472587,409.2649999947753,"HORSE<img id = ""stim"" ><div class = green_square id = ""topsquare"" ></div><img id = ""stim"" ><div class = green_square  id = ""bottomsquare"" ></div>",32,word_square,response,1,Space,true,,,
html-keyboard-response,752,1474089,null,"HORSE",null,word,,,,, 'HORSE',,
html-keyboard-response,753,1474465,375.28999999631196,"TROPHY<img id = ""stim"" ><div class = green_square id = ""topsquare"" ></div><img id = ""stim"" ><div class = green_square  id = ""bottomsquare"" ></div>",32,word_square,response,1,Space,true,,,
html-keyboard-response,754,1475967,null,"TROPHY",null,word,,,,, 'TROPHY',,
html-keyboard-response,755,1476472,null,"LONDON<img id = ""stim"" ><div class = red_square id = ""topsquare"" ></div><img id = ""stim"" ><div class = red_square  id = ""bottomsquare"" ></div>",null,word_square,response,0,none,true,,,
html-keyboard-response,756,1477973,null,"LONDON",null,word,,,,, 'LONDON',,
html-keyboard-response,757,1478371,396.60499999462627,"STUDENT<img id = ""stim"" ><div class = green_square id = ""topsquare"" ></div><img id = ""stim"" ><div class = green_square  id = ""bottomsquare"" ></div>",32,word_square,response,1,Space,true,,,
html-keyboard-response,758,1479872,null,"STUDENT",null,word,,,,, 'STUDENT',,
html-keyboard-response,759,1480374,null,"COLLEGE<img id = ""stim"" ><div class = red_square id = ""topsquare"" ></div><img id = ""stim"" ><div class = red_square  id = ""bottomsquare"" ></div>",null,word_square,response,0,none,true,,,
html-keyboard-response,760,1481876,null,"COLLEGE",null,word,,,,, 'COLLEGE',,
html-keyboard-response,761,1482221,343.46499999798834,"COBWEB<img id = ""stim"" ><div class = green_square id = ""topsquare"" ></div><img id = ""stim"" ><div class = green_square  id = ""bottomsquare"" ></div>",32,word_square,response,1,Space,true,,,
html-keyboard-response,762,1483722,null,"COBWEB",null,word,,,,, 'COBWEB',,
html-keyboard-response,763,1484223,null,"ATHLETE<img id = ""stim"" ><div class = green_square id = ""topsquare"" ></div><img id = ""stim"" ><div class = green_square  id = ""bottomsquare"" ></div>",null,word_square,response,1,Space,false,,,
html-keyboard-response,764,1485726,null,"ATHLETE",null,word,,,,, 'ATHLETE',,
html-keyboard-response,765,1486228,null,"ROACH<img id = ""stim"" ><div class = red_square id = ""topsquare"" ></div><img id = ""stim"" ><div class = red_square  id = ""bottomsquare"" ></div>",null,word_square,response,0,none,true,,,
html-keyboard-response,766,1487733,null,"ROACH",null,word,,,,, 'ROACH',,
html-keyboard-response,767,1488085,350.8499999952037,"PLANET<img id = ""stim"" ><div class = green_square id = ""topsquare"" ></div><img id = ""stim"" ><div class = green_square  id = ""bottomsquare"" ></div>",32,word_square,response,1,Space,true,,,
html-keyboard-response,768,1489589,null,"PLANET",null,word,,,,, 'PLANET',,
html-keyboard-response,769,1490094,null,"PLAYGROUND<img id = ""stim"" ><div class = red_square id = ""topsquare"" ></div><img id = ""stim"" ><div class = red_square  id = ""bottomsquare"" ></div>",null,word_square,response,0,none,true,,,
html-keyboard-response,770,1491600,null,"PLAYGROUND",null,word,,,,, 'PLAYGROUND',,
html-keyboard-response,771,1492104,null,"CLIPPERS<img id = ""stim"" ><div class = red_square id = ""topsquare"" ></div><img id = ""stim"" ><div class = red_square  id = ""bottomsquare"" ></div>",null,word_square,response,0,none,true,,,
html-keyboard-response,772,1493608,null,"CLIPPERS",null,word,,,,, 'CLIPPERS',,
html-keyboard-response,773,1493977,367.71500000031665,"CRICKET<img id = ""stim"" ><div class = green_square id = ""topsquare"" ></div><img id = ""stim"" ><div class = green_square  id = ""bottomsquare"" ></div>",32,word_square,response,1,Space,true,,,
html-keyboard-response,774,1495479,null,"CRICKET",null,word,,,,, 'CRICKET',,
html-keyboard-response,775,1495982,null,"SLIME<img id = ""stim"" ><div class = red_square id = ""topsquare"" ></div><img id = ""stim"" ><div class = red_square  id = ""bottomsquare"" ></div>",null,word_square,response,0,none,true,,,
html-keyboard-response,776,1497484,null,"SLIME",null,word,,,,, 'SLIME',,
html-keyboard-response,777,1497988,null,"DIVER<img id = ""stim"" ><div class = red_square id = ""topsquare"" ></div><img id = ""stim"" ><div class = red_square  id = ""bottomsquare"" ></div>",null,word_square,response,0,none,true,,,
html-keyboard-response,778,1499490,null,"DIVER",null,word,,,,, 'DIVER',,
html-keyboard-response,779,1499947,455.5899999977555,"SHRUB<img id = ""stim"" ><div class = green_square id = ""topsquare"" ></div><img id = ""stim"" ><div class = green_square  id = ""bottomsquare"" ></div>",32,word_square,response,1,Space,true,,,
html-keyboard-response,780,1501450,null,"SHRUB",null,word,,,,, 'SHRUB',,
html-keyboard-response,781,1501952,null,"MISTER<img id = ""stim"" ><div class = green_square id = ""topsquare"" ></div><img id = ""stim"" ><div class = green_square  id = ""bottomsquare"" ></div>",null,word_square,response,1,Space,false,,,
html-keyboard-response,782,1503455,null,"MISTER",null,word,,,,, 'MISTER',,
html-keyboard-response,783,1503957,null,"FRANCE<img id = ""stim"" ><div class = red_square id = ""topsquare"" ></div><img id = ""stim"" ><div class = red_square  id = ""bottomsquare"" ></div>",null,word_square,response,0,none,true,,,
html-keyboard-response,784,1505462,null,"FRANCE",null,word,,,,, 'FRANCE',,
call-function,785,1505463,,"",,,,,,,,,
html-keyboard-response,786,1505564,null,"",null,,,,,,,,
math-period,787,1507690,3696.4649999937974,"",,,,,,,,,5
html-keyboard-response,788,1507793,null,"",null,,,,,,,,
math-period,789,1509973,3708.6999999955297,"",,,,,,,,,2
html-keyboard-response,790,1510075,null,"",null,,,,,,,,
math-period,791,1512571,4181.779999999097,"",,,,,,,,,3
html-keyboard-response,792,1512674,null,"",null,,,,,,,,
math-period,793,1514827,3768.7600000065286,"",,,,,,,,,3
html-keyboard-response,794,1514931,null,"",null,,,,,,,,
math-period,795,1516621,2912.7900000093505,"",,,,,,,,,4
html-keyboard-response,796,1516723,null,"",null,,,,,,,,
math-period,797,1518224,2509.5300000030547,"",,,,,,,,,4
html-keyboard-response,798,1518326,null,"",null,,,,,,,,
math-period,799,1521271,5514.349999990314,"",,,,,,,,,2
html-keyboard-response,800,1521375,null,"",null,,,,,,,,
math-period,801,1522883,2440.584999996703,"",,,,,,,,,4
html-keyboard-response,802,1522986,null,"",null,,,,,,,,
math-period,803,1524485,2522.8750000023283,"",,,,,,,,,5
html-keyboard-response,804,1524588,null,"",null,,,,,,,,
math-period,805,1526962,4326.104999992996,"",,,,,,,,,4
html-keyboard-response,806,1527065,null,"",null,,,,,,,,
math-period,807,1529160,3766.7849999994505,"",,,,,,,,,2
html-keyboard-response,808,1529263,null,"",null,,,,,,,,
math-period,809,1529469,null,"",,,,,,,,,
html-keyboard-response,810,1530471,null,"Recall Period!",null,,,,,,,,
call-function,811,1530472,,"",,,,,,,,,
html-keyboard-response,812,1530575,null,"",null,,,,,,,,
recall-period,813,1532330,7045.095000023255,"",,,,,,,,,slim
html-keyboard-response,814,1532433,null,"",null,,,,,,,,
recall-period,815,1533855,5680.190000013914,"",,,,,,,,,slime
html-keyboard-response,816,1533958,null,"",null,,,,,,,,
recall-period,817,1534685,2328.729999993928,"",,,,,,,,,diver
html-keyboard-response,818,1534787,null,"",null,,,,,,,,
recall-period,819,1536037,4159.080000025919,"",,,,,,,,,shrub
html-keyboard-response,820,1536140,null,"",null,,,,,,,,
recall-period,821,1539227,29558.64999994682,"",,,,,,,,,france
html-keyboard-response,822,1539331,null,"",null,,,,,,,,
recall-period,823,1542220,18029.074999992037,"",,,,,,,,,mister
html-keyboard-response,824,1542323,null,"",null,,,,,,,,
recall-period,825,1569549,292528.4850000036,"",,,,,,,,,playground
html-keyboard-response,826,1569652,null,"",null,,,,,,,,
recall-period,827,1598258,224975.29500001785,"",,,,,,,,,student
html-keyboard-response,828,1598361,null,"",null,,,,,,,,
recall-period,829,1605477,null,"",,,,,,,,,
html-keyboard-response,830,1605981,null,"Time's Up!",null,,,,,,,,
html-keyboard-response,831,1628996,23011.935000002384,"<p> Good job! You responded correctly to 85% of the GREEN squares.</p>
                  <p>Be sure to keep your accuracy above 80%</p>
                  <p>Press any key to continue the experiment. Thank you!</p>",32,,,,,,,,
html-keyboard-response,832,1631871,2874.154999997467,"<div style=""font-size:48px;"">Press any key to begin list 9 of 24 </div>",32,,,,,,,,
html-keyboard-response,833,1634376,null,"<div style=""font-size:60px;"">+</div>",null,,,,,,,,
html-keyboard-response,834,1634877,null,"DESSERT<img id = ""stim"" ><div class = red_square id = ""topsquare"" ></div><img id = ""stim"" ><div class = red_square  id = ""bottomsquare"" ></div>",null,word_square,response,0,none,true,,,
html-keyboard-response,835,1636379,null,"DESSERT",null,word,,,,, 'DESSERT',,
html-keyboard-response,836,1636786,406.105000001844,"CLOCK<img id = ""stim"" ><div class = green_square id = ""topsquare"" ></div><img id = ""stim"" ><div class = green_square  id = ""bottomsquare"" ></div>",32,word_square,response,1,Space,true,,,
html-keyboard-response,837,1638288,null,"CLOCK",null,word,,,,, 'CLOCK',,
html-keyboard-response,838,1638789,null,"SHAMPOO<img id = ""stim"" ><div class = red_square id = ""topsquare"" ></div><img id = ""stim"" ><div class = red_square  id = ""bottomsquare"" ></div>",null,word_square,response,0,none,true,,,
html-keyboard-response,839,1640292,null,"SHAMPOO",null,word,,,,, 'SHAMPOO',,
html-keyboard-response,840,1640795,null,"HOOK<img id = ""stim"" ><div class = red_square id = ""topsquare"" ></div><img id = ""stim"" ><div class = red_square  id = ""bottomsquare"" ></div>",null,word_square,response,0,none,true,,,
html-keyboard-response,841,1642297,null,"HOOK",null,word,,,,, 'HOOK',,
html-keyboard-response,842,1642704,406.23000000044703,"SALMON<img id = ""stim"" ><div class = green_square id = ""topsquare"" ></div><img id = ""stim"" ><div class = green_square  id = ""bottomsquare"" ></div>",32,word_square,response,1,Space,true,,,
html-keyboard-response,843,1644207,null,"SALMON",null,word,,,,, 'SALMON',,
html-keyboard-response,844,1644710,null,"COCOON<img id = ""stim"" ><div class = green_square id = ""topsquare"" ></div><img id = ""stim"" ><div class = green_square  id = ""bottomsquare"" ></div>",null,word_square,response,1,Space,false,,,
html-keyboard-response,845,1646212,null,"COCOON",null,word,,,,, 'COCOON',,
html-keyboard-response,846,1646714,null,"CREVICE<img id = ""stim"" ><div class = red_square id = ""topsquare"" ></div><img id = ""stim"" ><div class = red_square  id = ""bottomsquare"" ></div>",null,word_square,response,0,none,true,,,
html-keyboard-response,847,1648221,null,"CREVICE",null,word,,,,, 'CREVICE',,
html-keyboard-response,848,1648606,383.10500000067987,"SUPPER<img id = ""stim"" ><div class = green_square id = ""topsquare"" ></div><img id = ""stim"" ><div class = green_square  id = ""bottomsquare"" ></div>",32,word_square,response,1,Space,true,,,
html-keyboard-response,849,1650108,null,"SUPPER",null,word,,,,, 'SUPPER',,
html-keyboard-response,850,1650609,null,"BUTLER<img id = ""stim"" ><div class = green_square id = ""topsquare"" ></div><img id = ""stim"" ><div class = green_square  id = ""bottomsquare"" ></div>",null,word_square,response,1,Space,false,,,
html-keyboard-response,851,1652111,null,"BUTLER",null,word,,,,, 'BUTLER',,
html-keyboard-response,852,1652613,null,"BUSH<img id = ""stim"" ><div class = red_square id = ""topsquare"" ></div><img id = ""stim"" ><div class = red_square  id = ""bottomsquare"" ></div>",null,word_square,response,0,none,true,,,
html-keyboard-response,853,1654114,null,"BUSH",null,word,,,,, 'BUSH',,
html-keyboard-response,854,1654618,null,"WIDOW<img id = ""stim"" ><div class = red_square id = ""topsquare"" ></div><img id = ""stim"" ><div class = red_square  id = ""bottomsquare"" ></div>",null,word_square,response,0,none,true,,,
html-keyboard-response,855,1656121,null,"WIDOW",null,word,,,,, 'WIDOW',,
html-keyboard-response,856,1656508,385.23500000149943,"POISON<img id = ""stim"" ><div class = green_square id = ""topsquare"" ></div><img id = ""stim"" ><div class = green_square  id = ""bottomsquare"" ></div>",32,word_square,response,1,Space,true,,,
html-keyboard-response,857,1658010,null,"POISON",null,word,,,,, 'POISON',,
html-keyboard-response,858,1658399,388.1099999998696,"COUGAR<img id = ""stim"" ><div class = green_square id = ""topsquare"" ></div><img id = ""stim"" ><div class = green_square  id = ""bottomsquare"" ></div>",32,word_square,response,1,Space,true,,,
html-keyboard-response,859,1659901,null,"COUGAR",null,word,,,,, 'COUGAR',,
html-keyboard-response,860,1660402,null,"YOLK<img id = ""stim"" ><div class = red_square id = ""topsquare"" ></div><img id = ""stim"" ><div class = red_square  id = ""bottomsquare"" ></div>",null,word_square,response,0,none,true,,,
html-keyboard-response,861,1661905,null,"YOLK",null,word,,,,, 'YOLK',,
html-keyboard-response,862,1662407,null,"KLEENEX<img id = ""stim"" ><div class = red_square id = ""topsquare"" ></div><img id = ""stim"" ><div class = red_square  id = ""bottomsquare"" ></div>",null,word_square,response,0,none,true,,,
html-keyboard-response,863,1663909,null,"KLEENEX",null,word,,,,, 'KLEENEX',,
html-keyboard-response,864,1664301,390.6599999971222,"SLACKS<img id = ""stim"" ><div class = green_square id = ""topsquare"" ></div><img id = ""stim"" ><div class = green_square  id = ""bottomsquare"" ></div>",32,word_square,response,1,Space,true,,,
html-keyboard-response,865,1665805,null,"SLACKS",null,word,,,,, 'SLACKS',,
html-keyboard-response,866,1666307,null,"SEAL<img id = ""stim"" ><div class = red_square id = ""topsquare"" ></div><img id = ""stim"" ><div class = red_square  id = ""bottomsquare"" ></div>",null,word_square,response,0,none,true,,,
html-keyboard-response,867,1667809,null,"SEAL",null,word,,,,, 'SEAL',,
html-keyboard-response,868,1668183,373.1950000000652,"POSSUM<img id = ""stim"" ><div class = green_square id = ""topsquare"" ></div><img id = ""stim"" ><div class = green_square  id = ""bottomsquare"" ></div>",32,word_square,response,1,Space,true,,,
html-keyboard-response,869,1669685,null,"POSSUM",null,word,,,,, 'POSSUM',,
call-function,870,1669686,,"",,,,,,,,,
html-keyboard-response,871,1669788,null,"",null,,,,,,,,
math-period,872,1672029,4008.199999996694,"",,,,,,,,,5
html-keyboard-response,873,1672133,null,"",null,,,,,,,,
math-period,874,1673446,2236.324999998091,"",,,,,,,,,3
html-keyboard-response,875,1673550,null,"",null,,,,,,,,
math-period,876,1675627,3763.6949999940116,"",,,,,,,,,2
html-keyboard-response,877,1675730,null,"",null,,,,,,,,
math-period,878,1676991,2197.294999991078,"",,,,,,,,,4
html-keyboard-response,879,1677093,null,"",null,,,,,,,,
math-period,880,1678844,3220.6699999878183,"",,,,,,,,,0
html-keyboard-response,881,1678946,null,"",null,,,,,,,,
math-period,882,1680344,2401.4650000100955,"",,,,,,,,,4
html-keyboard-response,883,1680447,null,"",null,,,,,,,,
math-period,884,1681819,2368.375000012573,"",,,,,,,,,3
html-keyboard-response,885,1681921,null,"",null,,,,,,,,
math-period,886,1683175,2134.249999987893,"",,,,,,,,,3
html-keyboard-response,887,1683277,null,"",null,,,,,,,,
math-period,888,1684828,2764.9899999960326,"",,,,,,,,,5
html-keyboard-response,889,1684934,null,"",null,,,,,,,,
math-period,890,1686942,3620.4350000044797,"",,,,,,,,,2
html-keyboard-response,891,1687046,null,"",null,,,,,,,,
math-period,892,1689439,4275.760000003967,"",,,,,,,,,1
html-keyboard-response,893,1689546,null,"",null,,,,,,,,
math-period,894,1691401,3252.585000002058,"",,,,,,,,,3
html-keyboard-response,895,1691503,null,"",null,,,,,,,,
math-period,896,1693687,1739.6650000009686,"",,,,,,,,,4
html-keyboard-response,897,1694689,null,"Recall Period!",null,,,,,,,,
call-function,898,1694691,,"",,,,,,,,,
html-keyboard-response,899,1694794,null,"",null,,,,,,,,
recall-period,900,1696500,7730.815000010654,"",,,,,,,,,poison
html-keyboard-response,901,1696602,null,"",null,,,,,,,,
recall-period,902,1697963,4985.579999978421,"",,,,,,,,,cocoon
html-keyboard-response,903,1698065,null,"",null,,,,,,,,
recall-period,904,1699181,4264.124999986496,"",,,,,,,,,possum
html-keyboard-response,905,1699283,null,"",null,,,,,,,,
recall-period,906,1704306,27698.71500000567,"",,,,,,,,,clock
html-keyboard-response,907,1704409,null,"",null,,,,,,,,
recall-period,908,1711508,61939.35000000009,"",,,,,,,,,kleenex
html-keyboard-response,909,1711610,null,"",null,,,,,,,,
recall-period,910,1725754,96659.49000001978,"",,,,,,,,,slacks
html-keyboard-response,911,1725855,null,"",null,,,,,,,,
recall-period,912,1769692,null,"",,,,,,,,,
html-keyboard-response,913,1770193,null,"Time's Up!",null,,,,,,,,
html-keyboard-response,914,1776028,5832.1999999971595,"<p> Good job! You responded correctly to 86% of the GREEN squares.</p>
                  <p>Be sure to keep your accuracy above 80%</p>
                  <p>Press any key to continue the experiment. Thank you!</p>",32,,,,,,,,
html-keyboard-response,915,1786991,10961.204999999609,"<div style=""font-size:48px;"">Press any key to begin list 10 of 24 </div>",32,,,,,,,,
html-keyboard-response,916,1789494,null,"<div style=""font-size:60px;"">+</div>",null,,,,,,,,
html-keyboard-response,917,1789996,null,"PUPIL<img id = ""stim"" ><div class = red_square id = ""topsquare"" ></div><img id = ""stim"" ><div class = red_square  id = ""bottomsquare"" ></div>",null,word_square,response,0,none,true,,,
html-keyboard-response,918,1791499,null,"PUPIL",null,word,,,,, 'PUPIL',,
html-keyboard-response,919,1792001,null,"BODY<img id = ""stim"" ><div class = green_square id = ""topsquare"" ></div><img id = ""stim"" ><div class = green_square  id = ""bottomsquare"" ></div>",null,word_square,response,1,Space,false,,,
html-keyboard-response,920,1793503,null,"BODY",null,word,,,,, 'BODY',,
html-keyboard-response,921,1794007,null,"SCRIBBLE<img id = ""stim"" ><div class = red_square id = ""topsquare"" ></div><img id = ""stim"" ><div class = red_square  id = ""bottomsquare"" ></div>",null,word_square,response,0,none,true,,,
html-keyboard-response,922,1795508,null,"SCRIBBLE",null,word,,,,, 'SCRIBBLE',,
html-keyboard-response,923,1796010,null,"FAUCET<img id = ""stim"" ><div class = red_square id = ""topsquare"" ></div><img id = ""stim"" ><div class = red_square  id = ""bottomsquare"" ></div>",null,word_square,response,0,none,true,,,
html-keyboard-response,924,1797512,null,"FAUCET",null,word,,,,, 'FAUCET',,
html-keyboard-response,925,1797863,349.1049999939278,"JOINT<img id = ""stim"" ><div class = green_square id = ""topsquare"" ></div><img id = ""stim"" ><div class = green_square  id = ""bottomsquare"" ></div>",32,word_square,response,1,Space,true,,,
html-keyboard-response,926,1799365,null,"JOINT",null,word,,,,, 'JOINT',,
html-keyboard-response,927,1799682,315.8800000017509,"SAUSAGE<img id = ""stim"" ><div class = green_square id = ""topsquare"" ></div><img id = ""stim"" ><div class = green_square  id = ""bottomsquare"" ></div>",32,word_square,response,1,Space,true,,,
html-keyboard-response,928,1801184,null,"SAUSAGE",null,word,,,,, 'SAUSAGE',,
html-keyboard-response,929,1801686,null,"PICNIC<img id = ""stim"" ><div class = red_square id = ""topsquare"" ></div><img id = ""stim"" ><div class = red_square  id = ""bottomsquare"" ></div>",null,word_square,response,0,none,true,,,
html-keyboard-response,930,1803190,null,"PICNIC",null,word,,,,, 'PICNIC',,
html-keyboard-response,931,1803506,314.0599999970291,"SUBURB<img id = ""stim"" ><div class = green_square id = ""topsquare"" ></div><img id = ""stim"" ><div class = green_square  id = ""bottomsquare"" ></div>",32,word_square,response,1,Space,true,,,
html-keyboard-response,932,1805007,null,"SUBURB",null,word,,,,, 'SUBURB',,
html-keyboard-response,933,1805360,351.34999999729916,"FOSSIL<img id = ""stim"" ><div class = green_square id = ""topsquare"" ></div><img id = ""stim"" ><div class = green_square  id = ""bottomsquare"" ></div>",32,word_square,response,1,Space,true,,,
html-keyboard-response,934,1806861,null,"FOSSIL",null,word,,,,, 'FOSSIL',,
html-keyboard-response,935,1807367,null,"KITCHEN<img id = ""stim"" ><div class = red_square id = ""topsquare"" ></div><img id = ""stim"" ><div class = red_square  id = ""bottomsquare"" ></div>",null,word_square,response,0,none,true,,,
html-keyboard-response,936,1808872,null,"KITCHEN",null,word,,,,, 'KITCHEN',,
html-keyboard-response,937,1809377,null,"LASER<img id = ""stim"" ><div class = red_square id = ""topsquare"" ></div><img id = ""stim"" ><div class = red_square  id = ""bottomsquare"" ></div>",null,word_square,response,0,none,true,,,
