trial_type,trial_index,time_elapsed,rt,stimulus,key_press,test_part,task,targ_cond,correctKeyCode,correct,word,responses,correct_response
pavlovia,0,802,,"",,,,,,,,,
external-html,1,98706,97754.07999998424,"",,,,,,,,,
html-keyboard-response,2,100537,1824.9350000405684,"Welcome to the experiment. Press any key to begin.",32,,,,,,,,
html-keyboard-response,3,109491,8952.3099999642,"<p>You will see a list of words and colored squares in the following task.<p><p>Press the spacebar whenever you see a GREEN square.<p><p>Do not press a key if the square is RED<p><p>Press the spacebar to continue.</p>",32,,,,,,,,
html-keyboard-response,4,120096,10104.025000007823,"<p>Please try to remember as many of the words as you can, and try to think about the meaning of each word as it appears.<p><p>After the detection and encoding task you will be asked to solve some math problems for 24 seconds.<p> Please solve as many problems as you can in the time given. <p>",32,,,,,,,,
html-keyboard-response,5,136760,16162.285000027623,"After solving the math problems, you will be asked to type in as many words <p>from the previous list as you can remember for 75 seconds.<p> If you finish recalling before the 75 seconds are up,<p> just sit tight and try to think of any more words you could have missed. <p><p>We will begin with a brief practice session<p>Press the spacebar to begin the practice.</p>",32,,,,,,,,
html-keyboard-response,6,139263,null,"<div style=""font-size:60px;"">+</div>",null,,,,,,,,
html-keyboard-response,7,139767,null,"HAPPY<img id = ""stim"" ><div class = red_square id = ""topsquare"" ></div><img id = ""stim"" ><div class = red_square  id = ""bottomsquare"" ></div>",null,word_square,response,0,none,true,,,
html-keyboard-response,8,141269,null,"HAPPY",null,word,,,,,HAPPY,,
html-keyboard-response,9,141771,null,"COLD<img id = ""stim"" ><div class = green_square id = ""topsquare"" ></div><img id = ""stim"" ><div class = green_square  id = ""bottomsquare"" ></div>",null,word_square,response,1,Space,false,,,
html-keyboard-response,10,143274,null,"COLD",null,word,,,,,COLD,,
html-keyboard-response,11,143777,null,"HEAVY<img id = ""stim"" ><div class = green_square id = ""topsquare"" ></div><img id = ""stim"" ><div class = green_square  id = ""bottomsquare"" ></div>",null,word_square,response,1,Space,false,,,
html-keyboard-response,12,145279,null,"HEAVY",null,word,,,,,HEAVY,,
html-keyboard-response,13,145782,null,"FUNNY<img id = ""stim"" ><div class = red_square id = ""topsquare"" ></div><img id = ""stim"" ><div class = red_square  id = ""bottomsquare"" ></div>",null,word_square,response,0,none,true,,,
html-keyboard-response,14,147284,null,"FUNNY",null,word,,,,,FUNNY,,
html-keyboard-response,15,147786,null,"SCARY<img id = ""stim"" ><div class = green_square id = ""topsquare"" ></div><img id = ""stim"" ><div class = green_square  id = ""bottomsquare"" ></div>",null,word_square,response,1,Space,false,,,
html-keyboard-response,16,149287,null,"SCARY",null,word,,,,,SCARY,,
html-keyboard-response,17,149789,null,"PEACEFUL<img id = ""stim"" ><div class = green_square id = ""topsquare"" ></div><img id = ""stim"" ><div class = green_square  id = ""bottomsquare"" ></div>",null,word_square,response,1,Space,false,,,
html-keyboard-response,18,151291,null,"PEACEFUL",null,word,,,,,PEACEFUL,,
html-keyboard-response,19,151794,null,"LITTLE<img id = ""stim"" ><div class = red_square id = ""topsquare"" ></div><img id = ""stim"" ><div class = red_square  id = ""bottomsquare"" ></div>",null,word_square,response,0,none,true,,,
html-keyboard-response,20,153296,null,"LITTLE",null,word,,,,,LITTLE,,
html-keyboard-response,21,153798,null,"TIRED<img id = ""stim"" ><div class = red_square id = ""topsquare"" ></div><img id = ""stim"" ><div class = red_square  id = ""bottomsquare"" ></div>",null,word_square,response,0,none,true,,,
html-keyboard-response,22,155300,null,"TIRED",null,word,,,,,TIRED,,
html-keyboard-response,23,155802,null,"ENTERTAINING<img id = ""stim"" ><div class = red_square id = ""topsquare"" ></div><img id = ""stim"" ><div class = red_square  id = ""bottomsquare"" ></div>",null,word_square,response,0,none,true,,,
html-keyboard-response,24,157305,null,"ENTERTAINING",null,word,,,,,ENTERTAINING,,
html-keyboard-response,25,157758,452.2550000110641,"GRATEFUL<img id = ""stim"" ><div class = green_square id = ""topsquare"" ></div><img id = ""stim"" ><div class = green_square  id = ""bottomsquare"" ></div>",32,word_square,response,1,Space,true,,,
html-keyboard-response,26,159261,null,"GRATEFUL",null,word,,,,,GRATEFUL,,
html-keyboard-response,27,159764,null,"LOUD<img id = ""stim"" ><div class = red_square id = ""topsquare"" ></div><img id = ""stim"" ><div class = red_square  id = ""bottomsquare"" ></div>",null,word_square,response,0,none,true,,,
html-keyboard-response,28,161267,null,"LOUD",null,word,,,,,LOUD,,
html-keyboard-response,29,161677,408.86999998474494,"SMART<img id = ""stim"" ><div class = green_square id = ""topsquare"" ></div><img id = ""stim"" ><div class = green_square  id = ""bottomsquare"" ></div>",32,word_square,response,1,Space,true,,,
html-keyboard-response,30,163179,null,"SMART",null,word,,,,,SMART,,
html-keyboard-response,31,163649,468.5300000128336,"SMOOTH<img id = ""stim"" ><div class = green_square id = ""topsquare"" ></div><img id = ""stim"" ><div class = green_square  id = ""bottomsquare"" ></div>",32,word_square,response,1,Space,true,,,
html-keyboard-response,32,165150,null,"SMOOTH",null,word,,,,,SMOOTH,,
html-keyboard-response,33,165653,null,"DISHONEST<img id = ""stim"" ><div class = red_square id = ""topsquare"" ></div><img id = ""stim"" ><div class = red_square  id = ""bottomsquare"" ></div>",null,word_square,response,0,none,true,,,
html-keyboard-response,34,167155,null,"DISHONEST",null,word,,,,,DISHONEST,,
html-keyboard-response,35,167649,492.58000002009794,"WEALTHY<img id = ""stim"" ><div class = green_square id = ""topsquare"" ></div><img id = ""stim"" ><div class = green_square  id = ""bottomsquare"" ></div>",32,word_square,response,1,Space,true,,,
html-keyboard-response,36,169151,null,"WEALTHY",null,word,,,,,WEALTHY,,
html-keyboard-response,37,169654,null,"BEAUTIFUL<img id = ""stim"" ><div class = red_square id = ""topsquare"" ></div><img id = ""stim"" ><div class = red_square  id = ""bottomsquare"" ></div>",null,word_square,response,0,none,true,,,
html-keyboard-response,38,171156,null,"BEAUTIFUL",null,word,,,,,BEAUTIFUL,,
html-keyboard-response,39,171658,null,"DREARY<img id = ""stim"" ><div class = red_square id = ""topsquare"" ></div><img id = ""stim"" ><div class = red_square  id = ""bottomsquare"" ></div>",null,word_square,response,0,none,true,,,
html-keyboard-response,40,173160,null,"DREARY",null,word,,,,,DREARY,,
html-keyboard-response,41,173672,null,"PLAYFUL<img id = ""stim"" ><div class = red_square id = ""topsquare"" ></div><img id = ""stim"" ><div class = red_square  id = ""bottomsquare"" ></div>",null,word_square,response,0,none,true,,,
html-keyboard-response,42,175175,null,"PLAYFUL",null,word,,,,,PLAYFUL,,
survey-text,43,180032,4849.0749999764375,"",,,,,,,,{"Q0":"2"},
survey-text,44,182340,2300.8999999728985,"",,,,,,,,{"Q0":"1"},
survey-text,45,184553,2209.470000001602,"",,,,,,,,{"Q0":"2"},
survey-text,46,186396,1838.0200000246987,"",,,,,,,,{"Q0":"1"},
survey-text,47,188675,2275.255000044126,"",,,,,,,,{"Q0":"3"},
survey-text,48,190738,2058.0949999857694,"",,,,,,,,{"Q0":"3"},
survey-text,49,192470,1727.8649999643676,"",,,,,,,,{"Q0":"5"},
survey-text,50,195215,2740.170000004582,"",,,,,,,,{"Q0":"3"},
survey-text,51,198663,3443.859999999404,"",,,,,,,,{"Q0":"5"},
survey-text,52,200429,1761.220000043977,"",,,,,,,,{"Q0":"5"},
survey-text,53,205317,4883.32000002265,"",,,,,,,,{"Q0":"smooth"},
survey-text,54,206469,1146.370000031311,"",,,,,,,,{"Q0":"scary"},
survey-text,55,207784,1310.5849999701604,"",,,,,,,,{"Q0":"wealthy"},
survey-text,56,216262,8472.15500002494,"",,,,,,,,{"Q0":"funny"},
survey-text,57,218657,2389.885000011418,"",,,,,,,,{"Q0":"smart"},
survey-text,58,221342,2679.699999978766,"",,,,,,,,{"Q0":"happy"},
survey-text,59,243663,22315.995000011753,"",,,,,,,,{"Q0":"dishonest"},
survey-text,60,296251,52582.779999997,"",,,,,,,,{"Q0":"mad"},
html-keyboard-response,61,313758,17502.76500004111,"<p> Uh oh. You responded correctly on 78% of the GREEN squares.</p>
                  <p>We need you keep your accuracy above 80%</p>
                  <p>Press any key to begin the experiment. Thank you!</p>",32,,,,,,,,
html-keyboard-response,62,321851,8092.0700000133365,"<p>We will now begin the experiment!<p><p>Please try to remember all words from each list.<p><p>Press the spacebar whenever you see a GREEN square.<p><p><p><p>Press the spacebar to begin.</p>",32,,,,,,,,
html-keyboard-response,63,324059,1705.820000031963,"<div style=""font-size:48px;"">Press any key to begin list 1 of 24 </div>",32,,,,,,,,
html-keyboard-response,64,326562,null,"<div style=""font-size:60px;"">+</div>",null,,,,,,,,
html-keyboard-response,65,327065,null,"PIRATE<img id = ""stim"" ><div class = red_square id = ""topsquare"" ></div><img id = ""stim"" ><div class = red_square  id = ""bottomsquare"" ></div>",null,word_square,,0,,,,,SPACEBAR
html-keyboard-response,66,328567,null,"PIRATE",null,word,,,,, 'PIRATE',,
html-keyboard-response,67,329070,null,"SHELTER<img id = ""stim"" ><div class = green_square id = ""topsquare"" ></div><img id = ""stim"" ><div class = green_square  id = ""bottomsquare"" ></div>",null,word_square,,1,,,,,SPACEBAR
html-keyboard-response,68,330572,null,"SHELTER",null,word,,,,, 'SHELTER',,
html-keyboard-response,69,331074,null,"WOLF<img id = ""stim"" ><div class = green_square id = ""topsquare"" ></div><img id = ""stim"" ><div class = green_square  id = ""bottomsquare"" ></div>",null,word_square,,1,,,,,SPACEBAR
html-keyboard-response,70,332576,null,"WOLF",null,word,,,,, 'WOLF',,
html-keyboard-response,71,333079,null,"CLOUD<img id = ""stim"" ><div class = green_square id = ""topsquare"" ></div><img id = ""stim"" ><div class = green_square  id = ""bottomsquare"" ></div>",null,word_square,,1,,,,,SPACEBAR
html-keyboard-response,72,334581,null,"CLOUD",null,word,,,,, 'CLOUD',,
html-keyboard-response,73,335084,null,"COMET<img id = ""stim"" ><div class = red_square id = ""topsquare"" ></div><img id = ""stim"" ><div class = red_square  id = ""bottomsquare"" ></div>",null,word_square,,0,,,,,SPACEBAR
html-keyboard-response,74,336587,null,"COMET",null,word,,,,, 'COMET',,
html-keyboard-response,75,337089,null,"JAR<img id = ""stim"" ><div class = red_square id = ""topsquare"" ></div><img id = ""stim"" ><div class = red_square  id = ""bottomsquare"" ></div>",null,word_square,,0,,,,,SPACEBAR
html-keyboard-response,76,338591,null,"JAR",null,word,,,,, 'JAR',,
html-keyboard-response,77,339030,437.45500000659376,"BEAVER<img id = ""stim"" ><div class = green_square id = ""topsquare"" ></div><img id = ""stim"" ><div class = green_square  id = ""bottomsquare"" ></div>",32,word_square,,1,,,,,SPACEBAR
html-keyboard-response,78,340533,null,"BEAVER",null,word,,,,, 'BEAVER',,
html-keyboard-response,79,341035,null,"WASHER<img id = ""stim"" ><div class = red_square id = ""topsquare"" ></div><img id = ""stim"" ><div class = red_square  id = ""bottomsquare"" ></div>",null,word_square,,0,,,,,SPACEBAR
html-keyboard-response,80,342538,null,"WASHER",null,word,,,,, 'WASHER',,
html-keyboard-response,81,343041,null,"SWAMP<img id = ""stim"" ><div class = green_square id = ""topsquare"" ></div><img id = ""stim"" ><div class = green_square  id = ""bottomsquare"" ></div>",null,word_square,,1,,,,,SPACEBAR
html-keyboard-response,82,344543,null,"SWAMP",null,word,,,,, 'SWAMP',,
html-keyboard-response,83,345047,null,"COOKBOOK<img id = ""stim"" ><div class = red_square id = ""topsquare"" ></div><img id = ""stim"" ><div class = red_square  id = ""bottomsquare"" ></div>",null,word_square,,0,,,,,SPACEBAR
html-keyboard-response,84,346550,null,"COOKBOOK",null,word,,,,, 'COOKBOOK',,
html-keyboard-response,85,347053,null,"TURTLE<img id = ""stim"" ><div class = red_square id = ""topsquare"" ></div><img id = ""stim"" ><div class = red_square  id = ""bottomsquare"" ></div>",null,word_square,,0,,,,,SPACEBAR
html-keyboard-response,86,348555,null,"TURTLE",null,word,,,,, 'TURTLE',,
html-keyboard-response,87,348929,372.4899999797344,"SLUG<img id = ""stim"" ><div class = green_square id = ""topsquare"" ></div><img id = ""stim"" ><div class = green_square  id = ""bottomsquare"" ></div>",32,word_square,,1,,,,,SPACEBAR
html-keyboard-response,88,350434,null,"SLUG",null,word,,,,, 'SLUG',,
html-keyboard-response,89,350937,null,"CURTAIN<img id = ""stim"" ><div class = green_square id = ""topsquare"" ></div><img id = ""stim"" ><div class = green_square  id = ""bottomsquare"" ></div>",null,word_square,,1,,,,,SPACEBAR
html-keyboard-response,90,352439,null,"CURTAIN",null,word,,,,, 'CURTAIN',,
html-keyboard-response,91,352822,381.82000000961125,"IDOL<img id = ""stim"" ><div class = red_square id = ""topsquare"" ></div><img id = ""stim"" ><div class = red_square  id = ""bottomsquare"" ></div>",32,word_square,,0,,,,,SPACEBAR
html-keyboard-response,92,354325,null,"IDOL",null,word,,,,, 'IDOL',,
html-keyboard-response,93,354771,444.5399999967776,"HANDCUFFS<img id = ""stim"" ><div class = green_square id = ""topsquare"" ></div><img id = ""stim"" ><div class = green_square  id = ""bottomsquare"" ></div>",32,word_square,,1,,,,,SPACEBAR
html-keyboard-response,94,356273,null,"HANDCUFFS",null,word,,,,, 'HANDCUFFS',,
html-keyboard-response,95,356789,null,"ZIPPER<img id = ""stim"" ><div class = red_square id = ""topsquare"" ></div><img id = ""stim"" ><div class = red_square  id = ""bottomsquare"" ></div>",null,word_square,,0,,,,,SPACEBAR
html-keyboard-response,96,358292,null,"ZIPPER",null,word,,,,, 'ZIPPER',,
html-keyboard-response,97,358794,null,"SKIRT<img id = ""stim"" ><div class = red_square id = ""topsquare"" ></div><img id = ""stim"" ><div class = red_square  id = ""bottomsquare"" ></div>",null,word_square,,0,,,,,SPACEBAR
html-keyboard-response,98,360296,null,"SKIRT",null,word,,,,, 'SKIRT',,
html-keyboard-response,99,360686,388.67499999469146,"BANQUET<img id = ""stim"" ><div class = green_square id = ""topsquare"" ></div><img id = ""stim"" ><div class = green_square  id = ""bottomsquare"" ></div>",32,word_square,,1,,,,,SPACEBAR
html-keyboard-response,100,362188,null,"BANQUET",null,word,,,,, 'BANQUET',,
survey-text,101,364853,2660.634999978356,"",,,,,,,,{"Q0":"2"},
survey-text,102,367492,2634.1750000137836,"",,,,,,,,{"Q0":"5"},
survey-text,103,372338,4842.359999951441,"",,,,,,,,{"Q0":"2"},
survey-text,104,375690,3347.19000000041,"",,,,,,,,{"Q0":"3"},
survey-text,105,377409,1713.6000000173226,"",,,,,,,,{"Q0":"5"},
survey-text,106,378649,1235.9149999683723,"",,,,,,,,{"Q0":"3"},
survey-text,107,380294,1639.420000021346,"",,,,,,,,{"Q0":"5"},
survey-text,108,381682,1383.3749999757856,"",,,,,,,,{"Q0":"4"},
survey-text,109,382738,1051.500000001397,"",,,,,,,,{"Q0":"3"},
survey-text,110,384723,1980.1100000040606,"",,,,,,,,{"Q0":"1"},
survey-text,111,386184,1457.849999947939,"",,,,,,,,{"Q0":"4"},
survey-text,112,387345,1156.490000023041,"",,,,,,,,{"Q0":"3"},
survey-text,113,389512,2161.7850000038743,"",,,,,,,,{"Q0":"shelter"},
survey-text,114,393024,3507.4150000000373,"",,,,,,,,{"Q0":"wolf"},
survey-text,115,394340,1311.0100000048988,"",,,,,,,,{"Q0":"swamp"},
survey-text,116,397110,2766.330000013113,"",,,,,,,,{"Q0":"beaver"},
survey-text,117,398164,1048.9549999474548,"",,,,,,,,{"Q0":"slug"},
survey-text,118,401136,2966.6500000166707,"",,,,,,,,{"Q0":"curtain"},
survey-text,119,406692,5550.394999969285,"",,,,,,,,{"Q0":"idol"},
survey-text,120,409203,2505.810000002384,"",,,,,,,,{"Q0":"cloud"},
survey-text,121,447248,38040.56499997387,"",,,,,,,,{"Q0":"turtle"},
survey-text,122,449617,2364.7950000013225,"",,,,,,,,{"Q0":"idol"},
survey-text,123,527718,78096.45499999169,"",,,,,,,,{"Q0":"banquet"},
html-keyboard-response,124,532480,4760.049999982584,"<p> Uh oh. You responded correctly on 78% of the GREEN squares.</p>
                  <p>We need you keep your accuracy above 80%</p>
                  <p>Press any key to continue the experiment. Thank you!</p>",32,,,,,,,,
html-keyboard-response,125,540325,7843.8050000113435,"<div style=""font-size:48px;"">Press any key to begin list 2 of 24 </div>",32,,,,,,,,
html-keyboard-response,126,542828,null,"<div style=""font-size:60px;"">+</div>",null,,,,,,,,
html-keyboard-response,127,543329,null,"SALMON<img id = ""stim"" ><div class = red_square id = ""topsquare"" ></div><img id = ""stim"" ><div class = red_square  id = ""bottomsquare"" ></div>",null,word_square,,0,,,,,SPACEBAR
html-keyboard-response,128,544832,null,"SALMON",null,word,,,,, 'SALMON',,
html-keyboard-response,129,545335,null,"TAXI<img id = ""stim"" ><div class = green_square id = ""topsquare"" ></div><img id = ""stim"" ><div class = green_square  id = ""bottomsquare"" ></div>",null,word_square,,1,,,,,SPACEBAR
html-keyboard-response,130,546838,null,"TAXI",null,word,,,,, 'TAXI',,
html-keyboard-response,131,547340,null,"RUST<img id = ""stim"" ><div class = green_square id = ""topsquare"" ></div><img id = ""stim"" ><div class = green_square  id = ""bottomsquare"" ></div>",null,word_square,,1,,,,,SPACEBAR
html-keyboard-response,132,548842,null,"RUST",null,word,,,,, 'RUST',,
html-keyboard-response,133,549344,null,"BRICK<img id = ""stim"" ><div class = green_square id = ""topsquare"" ></div><img id = ""stim"" ><div class = green_square  id = ""bottomsquare"" ></div>",null,word_square,,1,,,,,SPACEBAR
html-keyboard-response,134,550846,null,"BRICK",null,word,,,,, 'BRICK',,
html-keyboard-response,135,551348,null,"CORAL<img id = ""stim"" ><div class = red_square id = ""topsquare"" ></div><img id = ""stim"" ><div class = red_square  id = ""bottomsquare"" ></div>",null,word_square,,0,,,,,SPACEBAR
html-keyboard-response,136,552851,null,"CORAL",null,word,,,,, 'CORAL',,
html-keyboard-response,137,553354,null,"ATTIRE<img id = ""stim"" ><div class = red_square id = ""topsquare"" ></div><img id = ""stim"" ><div class = red_square  id = ""bottomsquare"" ></div>",null,word_square,,0,,,,,SPACEBAR
html-keyboard-response,138,554855,null,"ATTIRE",null,word,,,,, 'ATTIRE',,
html-keyboard-response,139,555298,441.69000000692904,"CRACKER<img id = ""stim"" ><div class = green_square id = ""topsquare"" ></div><img id = ""stim"" ><div class = green_square  id = ""bottomsquare"" ></div>",32,word_square,,1,,,,,SPACEBAR
html-keyboard-response,140,556800,null,"CRACKER",null,word,,,,, 'CRACKER',,
html-keyboard-response,141,557303,null,"LETTER<img id = ""stim"" ><div class = red_square id = ""topsquare"" ></div><img id = ""stim"" ><div class = red_square  id = ""bottomsquare"" ></div>",null,word_square,,0,,,,,SPACEBAR
html-keyboard-response,142,558805,null,"LETTER",null,word,,,,, 'LETTER',,
html-keyboard-response,143,559307,null,"BOYFRIEND<img id = ""stim"" ><div class = green_square id = ""topsquare"" ></div><img id = ""stim"" ><div class = green_square  id = ""bottomsquare"" ></div>",null,word_square,,1,,,,,SPACEBAR
html-keyboard-response,144,560809,null,"BOYFRIEND",null,word,,,,, 'BOYFRIEND',,
html-keyboard-response,145,561311,null,"FLUTE<img id = ""stim"" ><div class = red_square id = ""topsquare"" ></div><img id = ""stim"" ><div class = red_square  id = ""bottomsquare"" ></div>",null,word_square,,0,,,,,SPACEBAR
html-keyboard-response,146,562813,null,"FLUTE",null,word,,,,, 'FLUTE',,
html-keyboard-response,147,563315,null,"BANJO<img id = ""stim"" ><div class = red_square id = ""topsquare"" ></div><img id = ""stim"" ><div class = red_square  id = ""bottomsquare"" ></div>",null,word_square,,0,,,,,SPACEBAR
html-keyboard-response,148,564818,null,"BANJO",null,word,,,,, 'BANJO',,
html-keyboard-response,149,565184,365.4800000367686,"RIVER<img id = ""stim"" ><div class = green_square id = ""topsquare"" ></div><img id = ""stim"" ><div class = green_square  id = ""bottomsquare"" ></div>",32,word_square,,1,,,,,SPACEBAR
html-keyboard-response,150,566687,null,"RIVER",null,word,,,,, 'RIVER',,
html-keyboard-response,151,567189,null,"FOSSIL<img id = ""stim"" ><div class = green_square id = ""topsquare"" ></div><img id = ""stim"" ><div class = green_square  id = ""bottomsquare"" ></div>",null,word_square,,1,,,,,SPACEBAR
html-keyboard-response,152,568691,null,"FOSSIL",null,word,,,,, 'FOSSIL',,
html-keyboard-response,153,569194,null,"FRAGRANCE<img id = ""stim"" ><div class = red_square id = ""topsquare"" ></div><img id = ""stim"" ><div class = red_square  id = ""bottomsquare"" ></div>",null,word_square,,0,,,,,SPACEBAR
html-keyboard-response,154,570696,null,"FRAGRANCE",null,word,,,,, 'FRAGRANCE',,
html-keyboard-response,155,571141,443.4499999624677,"CABIN<img id = ""stim"" ><div class = green_square id = ""topsquare"" ></div><img id = ""stim"" ><div class = green_square  id = ""bottomsquare"" ></div>",32,word_square,,1,,,,,SPACEBAR
html-keyboard-response,156,572643,null,"CABIN",null,word,,,,, 'CABIN',,
html-keyboard-response,157,573145,null,"BOXER<img id = ""stim"" ><div class = red_square id = ""topsquare"" ></div><img id = ""stim"" ><div class = red_square  id = ""bottomsquare"" ></div>",null,word_square,,0,,,,,SPACEBAR
html-keyboard-response,158,574648,null,"BOXER",null,word,,,,, 'BOXER',,
html-keyboard-response,159,575151,null,"PARTNER<img id = ""stim"" ><div class = red_square id = ""topsquare"" ></div><img id = ""stim"" ><div class = red_square  id = ""bottomsquare"" ></div>",null,word_square,,0,,,,,SPACEBAR
html-keyboard-response,160,576654,null,"PARTNER",null,word,,,,, 'PARTNER',,
html-keyboard-response,161,577065,409.4749999931082,"CATCHER<img id = ""stim"" ><div class = green_square id = ""topsquare"" ></div><img id = ""stim"" ><div class = green_square  id = ""bottomsquare"" ></div>",32,word_square,,1,,,,,SPACEBAR
html-keyboard-response,162,578567,null,"CATCHER",null,word,,,,, 'CATCHER',,
survey-text,163,583808,5237.100000027567,"",,,,,,,,{"Q0":"1"},
survey-text,164,586301,2488.000000012107,"",,,,,,,,{"Q0":"3"},
survey-text,165,591332,5025.450000015553,"",,,,,,,,{"Q0":"5"},
survey-text,166,592479,1142.6199999987148,"",,,,,,,,{"Q0":"6"},
survey-text,167,593696,1211.9800000218675,"",,,,,,,,{"Q0":"4"},
survey-text,168,594762,1062.4449999886565,"",,,,,,,,{"Q0":"3"},
survey-text,169,596908,2142.534999991767,"",,,,,,,,{"Q0":"0"},
survey-text,170,598300,1388.1499999552034,"",,,,,,,,{"Q0":"0"},
survey-text,171,600301,1996.225000009872,"",,,,,,,,{"Q0":"5"},
survey-text,172,601861,1555.4100000299513,"",,,,,,,,{"Q0":"4"},
survey-text,173,602871,1004.7200000262819,"",,,,,,,,{"Q0":"3"},
survey-text,174,606661,3785.8199999900535,"",,,,,,,,{"Q0":"taxi"},
survey-text,175,608389,1723.3999999589287,"",,,,,,,,{"Q0":"rust"},
survey-text,176,610052,1657.5300000258721,"",,,,,,,,{"Q0":"brick"},
survey-text,177,615690,5632.1450000396,"",,,,,,,,{"Q0":"cracker"},
survey-text,178,618041,2346.5849999920465,"",,,,,,,,{"Q0":"boyfriend"},
survey-text,179,631985,13938.070000032894,"",,,,,,,,{"Q0":"river"},
survey-text,180,633875,1886.214999947697,"",,,,,,,,{"Q0":"fossil"},
survey-text,181,638525,4645.424999995157,"",,,,,,,,{"Q0":"cabin"},
survey-text,182,649669,11138.685000012629,"",,,,,,,,{"Q0":"catcher"},
survey-text,183,691754,42079.69499996398,"",,,,,,,,{"Q0":"coral"},
html-keyboard-response,184,710177,18420.945000019856,"<p> Uh oh. You responded correctly on 78% of the GREEN squares.</p>
                  <p>We need you keep your accuracy above 80%</p>
                  <p>Press any key to continue the experiment. Thank you!</p>",32,,,,,,,,
html-keyboard-response,185,713020,2842.0200000400655,"<div style=""font-size:48px;"">Press any key to begin list 3 of 24 </div>",32,,,,,,,,
html-keyboard-response,186,715524,null,"<div style=""font-size:60px;"">+</div>",null,,,,,,,,
html-keyboard-response,187,716026,null,"DAD<img id = ""stim"" ><div class = green_square id = ""topsquare"" ></div><img id = ""stim"" ><div class = green_square  id = ""bottomsquare"" ></div>",null,word_square,,1,,,,,SPACEBAR
html-keyboard-response,188,717529,null,"DAD",null,word,,,,, 'DAD',,
html-keyboard-response,189,718031,null,"FLESH<img id = ""stim"" ><div class = red_square id = ""topsquare"" ></div><img id = ""stim"" ><div class = red_square  id = ""bottomsquare"" ></div>",null,word_square,,0,,,,,SPACEBAR
html-keyboard-response,190,719533,null,"FLESH",null,word,,,,, 'FLESH',,
html-keyboard-response,191,720035,null,"LANDSCAPE<img id = ""stim"" ><div class = red_square id = ""topsquare"" ></div><img id = ""stim"" ><div class = red_square  id = ""bottomsquare"" ></div>",null,word_square,,0,,,,,SPACEBAR
html-keyboard-response,192,721537,null,"LANDSCAPE",null,word,,,,, 'LANDSCAPE',,
html-keyboard-response,193,722040,null,"TOURIST<img id = ""stim"" ><div class = red_square id = ""topsquare"" ></div><img id = ""stim"" ><div class = red_square  id = ""bottomsquare"" ></div>",null,word_square,,0,,,,,SPACEBAR
html-keyboard-response,194,723542,null,"TOURIST",null,word,,,,, 'TOURIST',,
html-keyboard-response,195,723921,377.8300000121817,"CHICKEN<img id = ""stim"" ><div class = green_square id = ""topsquare"" ></div><img id = ""stim"" ><div class = green_square  id = ""bottomsquare"" ></div>",32,word_square,,1,,,,,SPACEBAR
html-keyboard-response,196,725424,null,"CHICKEN",null,word,,,,, 'CHICKEN',,
html-keyboard-response,197,725910,485.4499999783002,"COBWEB<img id = ""stim"" ><div class = green_square id = ""topsquare"" ></div><img id = ""stim"" ><div class = green_square  id = ""bottomsquare"" ></div>",32,word_square,,1,,,,,SPACEBAR
html-keyboard-response,198,727412,null,"COBWEB",null,word,,,,, 'COBWEB',,
html-keyboard-response,199,727915,null,"KETCHUP<img id = ""stim"" ><div class = red_square id = ""topsquare"" ></div><img id = ""stim"" ><div class = red_square  id = ""bottomsquare"" ></div>",null,word_square,,0,,,,,SPACEBAR
html-keyboard-response,200,729417,null,"KETCHUP",null,word,,,,, 'KETCHUP',,
html-keyboard-response,201,729803,385.2700000279583,"RELISH<img id = ""stim"" ><div class = green_square id = ""topsquare"" ></div><img id = ""stim"" ><div class = green_square  id = ""bottomsquare"" ></div>",32,word_square,,1,,,,,SPACEBAR
html-keyboard-response,202,731306,null,"RELISH",null,word,,,,, 'RELISH',,
html-keyboard-response,203,731808,null,"CABBAGE<img id = ""stim"" ><div class = red_square id = ""topsquare"" ></div><img id = ""stim"" ><div class = red_square  id = ""bottomsquare"" ></div>",null,word_square,,0,,,,,SPACEBAR
html-keyboard-response,204,733311,null,"CABBAGE",null,word,,,,, 'CABBAGE',,
html-keyboard-response,205,733714,401.1999999638647,"SCALLOP<img id = ""stim"" ><div class = green_square id = ""topsquare"" ></div><img id = ""stim"" ><div class = green_square  id = ""bottomsquare"" ></div>",32,word_square,,1,,,,,SPACEBAR
html-keyboard-response,206,735215,null,"SCALLOP",null,word,,,,, 'SCALLOP',,
html-keyboard-response,207,735717,null,"SUITCASE<img id = ""stim"" ><div class = green_square id = ""topsquare"" ></div><img id = ""stim"" ><div class = green_square  id = ""bottomsquare"" ></div>",null,word_square,,1,,,,,SPACEBAR
html-keyboard-response,208,737220,null,"SUITCASE",null,word,,,,, 'SUITCASE',,
html-keyboard-response,209,737723,null,"DASHBOARD<img id = ""stim"" ><div class = red_square id = ""topsquare"" ></div><img id = ""stim"" ><div class = red_square  id = ""bottomsquare"" ></div>",null,word_square,,0,,,,,SPACEBAR
html-keyboard-response,210,739226,null,"DASHBOARD",null,word,,,,, 'DASHBOARD',,
html-keyboard-response,211,739728,null,"EYELASH<img id = ""stim"" ><div class = red_square id = ""topsquare"" ></div><img id = ""stim"" ><div class = red_square  id = ""bottomsquare"" ></div>",null,word_square,,0,,,,,SPACEBAR
html-keyboard-response,212,741230,null,"EYELASH",null,word,,,,, 'EYELASH',,
html-keyboard-response,213,741621,388.76999996136874,"FRECKLE<img id = ""stim"" ><div class = green_square id = ""topsquare"" ></div><img id = ""stim"" ><div class = green_square  id = ""bottomsquare"" ></div>",32,word_square,,1,,,,,SPACEBAR
html-keyboard-response,214,743124,null,"FRECKLE",null,word,,,,, 'FRECKLE',,
html-keyboard-response,215,743626,null,"INFANT<img id = ""stim"" ><div class = red_square id = ""topsquare"" ></div><img id = ""stim"" ><div class = red_square  id = ""bottomsquare"" ></div>",null,word_square,,0,,,,,SPACEBAR
html-keyboard-response,216,745127,null,"INFANT",null,word,,,,, 'INFANT',,
html-keyboard-response,217,745478,349.3449999950826,"HAMPER<img id = ""stim"" ><div class = green_square id = ""topsquare"" ></div><img id = ""stim"" ><div class = green_square  id = ""bottomsquare"" ></div>",32,word_square,,1,,,,,SPACEBAR
html-keyboard-response,218,746980,null,"HAMPER",null,word,,,,, 'HAMPER',,
html-keyboard-response,219,747465,484.58000004757196,"NECKLACE<img id = ""stim"" ><div class = green_square id = ""topsquare"" ></div><img id = ""stim"" ><div class = green_square  id = ""bottomsquare"" ></div>",32,word_square,,1,,,,,SPACEBAR
html-keyboard-response,220,748968,null,"NECKLACE",null,word,,,,, 'NECKLACE',,
html-keyboard-response,221,749470,null,"WAREHOUSE<img id = ""stim"" ><div class = red_square id = ""topsquare"" ></div><img id = ""stim"" ><div class = red_square  id = ""bottomsquare"" ></div>",null,word_square,,0,,,,,SPACEBAR
html-keyboard-response,222,750972,null,"WAREHOUSE",null,word,,,,, 'WAREHOUSE',,
survey-text,223,755278,4301.514999999199,"",,,,,,,,{"Q0":"4"},
survey-text,224,757925,2642.664999992121,"",,,,,,,,{"Q0":"1"},
survey-text,225,759734,1804.4600000139326,"",,,,,,,,{"Q0":"1"},
survey-text,226,761276,1538.6249999864958,"",,,,,,,,{"Q0":"4"},
survey-text,227,763164,1885.3499999968335,"",,,,,,,,{"Q0":"5"},
survey-text,228,764597,1427.6250000111759,"",,,,,,,,{"Q0":"1"},
survey-text,229,765857,1254.7149999882095,"",,,,,,,,{"Q0":"3"},
survey-text,230,766942,1080.4550000466406,"",,,,,,,,{"Q0":"3"},
survey-text,231,768114,1168.8950000097975,"",,,,,,,,{"Q0":"3"},
survey-text,232,769639,1521.744999976363,"",,,,,,,,{"Q0":"0"},
survey-text,233,775384,5742.690000042785,"",,,,,,,,{"Q0":"1"},
survey-text,234,778228,2840.0200000032783,"",,,,,,,,{"Q0":"dad"},
survey-text,235,779470,1237.3449999722652,"",,,,,,,,{"Q0":"flesh"},
survey-text,236,781613,2138.6249999632128,"",,,,,,,,{"Q0":"cabbage"},
survey-text,237,783093,1475.1199999591336,"",,,,,,,,{"Q0":"scallop"},
survey-text,238,785626,2528.1649999669753,"",,,,,,,,{"Q0":"relish"},
survey-text,239,787353,1723.1550000142306,"",,,,,,,,{"Q0":"freckle"},
survey-text,240,796426,9068.149999948218,"",,,,,,,,{"Q0":"hamper"},
survey-text,241,799624,3192.9300000192598,"",,,,,,,,{"Q0":"necklace"},
survey-text,242,809300,9669.664999993984,"",,,,,,,,{"Q0":"chicken"},
survey-text,243,811198,1893.5949999722652,"",,,,,,,,{"Q0":"cobweb"},
survey-text,244,821621,10420.15000001993,"",,,,,,,,{"Q0":"suitcase"},
survey-text,245,997064,175438.58499999624,"",,,,,,,,{"Q0":"infant"},
html-keyboard-response,246,1004800,7733.295000041835,"<p> Uh oh. You responded correctly on 78% of the GREEN squares.</p>
                  <p>We need you keep your accuracy above 80%</p>
                  <p>Press any key to continue the experiment. Thank you!</p>",13,,,,,,,,
html-keyboard-response,247,1011270,6469.10999994725,"<div style=""font-size:48px;"">Press any key to begin list 4 of 24 </div>",32,,,,,,,,
html-keyboard-response,248,1013774,null,"<div style=""font-size:60px;"">+</div>",null,,,,,,,,
html-keyboard-response,249,1014276,null,"FLIPPER<img id = ""stim"" ><div class = green_square id = ""topsquare"" ></div><img id = ""stim"" ><div class = green_square  id = ""bottomsquare"" ></div>",null,word_square,,1,,,,,SPACEBAR
html-keyboard-response,250,1015779,null,"FLIPPER",null,word,,,,, 'FLIPPER',,
html-keyboard-response,251,1016282,null,"YARD<img id = ""stim"" ><div class = red_square id = ""topsquare"" ></div><img id = ""stim"" ><div class = red_square  id = ""bottomsquare"" ></div>",null,word_square,,0,,,,,SPACEBAR
html-keyboard-response,252,1017785,null,"YARD",null,word,,,,, 'YARD',,
html-keyboard-response,253,1018287,null,"CLAMP<img id = ""stim"" ><div class = red_square id = ""topsquare"" ></div><img id = ""stim"" ><div class = red_square  id = ""bottomsquare"" ></div>",null,word_square,,0,,,,,SPACEBAR
html-keyboard-response,254,1019789,null,"CLAMP",null,word,,,,, 'CLAMP',,
html-keyboard-response,255,1020291,null,"PEPPER<img id = ""stim"" ><div class = red_square id = ""topsquare"" ></div><img id = ""stim"" ><div class = red_square  id = ""bottomsquare"" ></div>",null,word_square,,0,,,,,SPACEBAR
html-keyboard-response,256,1021794,null,"PEPPER",null,word,,,,, 'PEPPER',,
html-keyboard-response,257,1022280,485.1050000288524,"PARCEL<img id = ""stim"" ><div class = green_square id = ""topsquare"" ></div><img id = ""stim"" ><div class = green_square  id = ""bottomsquare"" ></div>",32,word_square,,1,,,,,SPACEBAR
html-keyboard-response,258,1023783,null,"PARCEL",null,word,,,,, 'PARCEL',,
html-keyboard-response,259,1024285,null,"CLIFF<img id = ""stim"" ><div class = green_square id = ""topsquare"" ></div><img id = ""stim"" ><div class = green_square  id = ""bottomsquare"" ></div>",null,word_square,,1,,,,,SPACEBAR
html-keyboard-response,260,1025787,null,"CLIFF",null,word,,,,, 'CLIFF',,
html-keyboard-response,261,1026289,null,"SKUNK<img id = ""stim"" ><div class = red_square id = ""topsquare"" ></div><img id = ""stim"" ><div class = red_square  id = ""bottomsquare"" ></div>",null,word_square,,0,,,,,SPACEBAR
html-keyboard-response,262,1027790,null,"SKUNK",null,word,,,,, 'SKUNK',,
html-keyboard-response,263,1028251,459.33500002138317,"POSSUM<img id = ""stim"" ><div class = green_square id = ""topsquare"" ></div><img id = ""stim"" ><div class = green_square  id = ""bottomsquare"" ></div>",32,word_square,,1,,,,,SPACEBAR
html-keyboard-response,264,1029753,null,"POSSUM",null,word,,,,, 'POSSUM',,
html-keyboard-response,265,1030256,null,"SUGAR<img id = ""stim"" ><div class = red_square id = ""topsquare"" ></div><img id = ""stim"" ><div class = red_square  id = ""bottomsquare"" ></div>",null,word_square,,0,,,,,SPACEBAR
html-keyboard-response,266,1031758,null,"SUGAR",null,word,,,,, 'SUGAR',,
html-keyboard-response,267,1032261,null,"SKATE<img id = ""stim"" ><div class = green_square id = ""topsquare"" ></div><img id = ""stim"" ><div class = green_square  id = ""bottomsquare"" ></div>",null,word_square,,1,,,,,SPACEBAR
html-keyboard-response,268,1033763,null,"SKATE",null,word,,,,, 'SKATE',,
html-keyboard-response,269,1034265,null,"TRUCK<img id = ""stim"" ><div class = green_square id = ""topsquare"" ></div><img id = ""stim"" ><div class = green_square  id = ""bottomsquare"" ></div>",null,word_square,,1,,,,,SPACEBAR
html-keyboard-response,270,1035767,null,"TRUCK",null,word,,,,, 'TRUCK',,
html-keyboard-response,271,1036270,null,"HOOD<img id = ""stim"" ><div class = red_square id = ""topsquare"" ></div><img id = ""stim"" ><div class = red_square  id = ""bottomsquare"" ></div>",null,word_square,,0,,,,,SPACEBAR
html-keyboard-response,272,1037773,null,"HOOD",null,word,,,,, 'HOOD',,
html-keyboard-response,273,1038275,null,"EUROPE<img id = ""stim"" ><div class = red_square id = ""topsquare"" ></div><img id = ""stim"" ><div class = red_square  id = ""bottomsquare"" ></div>",null,word_square,,0,,,,,SPACEBAR
html-keyboard-response,274,1039778,null,"EUROPE",null,word,,,,, 'EUROPE',,
html-keyboard-response,275,1040269,489.27499999990687,"ASIA<img id = ""stim"" ><div class = green_square id = ""topsquare"" ></div><img id = ""stim"" ><div class = green_square  id = ""bottomsquare"" ></div>",32,word_square,,1,,,,,SPACEBAR
html-keyboard-response,276,1041772,null,"ASIA",null,word,,,,, 'ASIA',,
html-keyboard-response,277,1042274,null,"BEAST<img id = ""stim"" ><div class = red_square id = ""topsquare"" ></div><img id = ""stim"" ><div class = red_square  id = ""bottomsquare"" ></div>",null,word_square,,0,,,,,SPACEBAR
html-keyboard-response,278,1043776,null,"BEAST",null,word,,,,, 'BEAST',,
html-keyboard-response,279,1044220,442.86499998997897,"SHARK<img id = ""stim"" ><div class = green_square id = ""topsquare"" ></div><img id = ""stim"" ><div class = green_square  id = ""bottomsquare"" ></div>",32,word_square,,1,,,,,SPACEBAR
html-keyboard-response,280,1045723,null,"SHARK",null,word,,,,, 'SHARK',,
html-keyboard-response,281,1046225,null,"WAGON<img id = ""stim"" ><div class = green_square id = ""topsquare"" ></div><img id = ""stim"" ><div class = green_square  id = ""bottomsquare"" ></div>",null,word_square,,1,,,,,SPACEBAR
html-keyboard-response,282,1047727,null,"WAGON",null,word,,,,, 'WAGON',,
html-keyboard-response,283,1048230,null,"BRAKE<img id = ""stim"" ><div class = red_square id = ""topsquare"" ></div><img id = ""stim"" ><div class = red_square  id = ""bottomsquare"" ></div>",null,word_square,,0,,,,,SPACEBAR
html-keyboard-response,284,1049732,null,"BRAKE",null,word,,,,, 'BRAKE',,
survey-text,285,1054465,4728.52000000421,"",,,,,,,,{"Q0":"3"},
survey-text,286,1057069,2598.3850000193343,"",,,,,,,,{"Q0":"0"},
survey-text,287,1061015,3941.2299999967217,"",,,,,,,,{"Q0":"3"},
survey-text,288,1063037,2016.4999999688007,"",,,,,,,,{"Q0":"3"},
survey-text,289,1067749,4707.779999997001,"",,,,,,,,{"Q0":"1"},
survey-text,290,1069133,1378.7049999809824,"",,,,,,,,{"Q0":"6"},
survey-text,291,1072161,3023.8200000021607,"",,,,,,,,{"Q0":"3"},
survey-text,292,1073306,1139.5100000081584,"",,,,,,,,{"Q0":"5"},
survey-text,293,1074817,1506.9299999740906,"",,,,,,,,{"Q0":"3"},
survey-text,294,1077714,2894.075000018347,"",,,,,,,,{"Q0":"flipper"},
survey-text,295,1081166,3446.349999983795,"",,,,,,,,{"Q0":"parcel"},
survey-text,296,1083058,1887.3500000336207,"",,,,,,,,{"Q0":"cliff"},
survey-text,297,1086226,3163.3549999678507,"",,,,,,,,{"Q0":"skate"},
survey-text,298,1087227,996.2100000120699,"",,,,,,,,{"Q0":"truck"},
survey-text,299,1088543,1312.465000024531,"",,,,,,,,{"Q0":"asia "},
survey-text,300,1295812,207265.03500004765,"",,,,,,,,{"Q0":"apple"},
html-keyboard-response,301,1301299,5484.91500003729,"<p> Uh oh. You responded correctly on 78% of the GREEN squares.</p>
                  <p>We need you keep your accuracy above 80%</p>
                  <p>Press any key to continue the experiment. Thank you!</p>",13,,,,,,,,
html-keyboard-response,302,1307403,6102.239999978337,"<div style=""font-size:48px;"">Press any key to begin list 5 of 24 </div>",32,,,,,,,,
html-keyboard-response,303,1309907,null,"<div style=""font-size:60px;"">+</div>",null,,,,,,,,
html-keyboard-response,304,1310410,null,"SOFTBALL<img id = ""stim"" ><div class = red_square id = ""topsquare"" ></div><img id = ""stim"" ><div class = red_square  id = ""bottomsquare"" ></div>",null,word_square,,0,,,,,SPACEBAR
html-keyboard-response,305,1311913,null,"SOFTBALL",null,word,,,,, 'SOFTBALL',,
html-keyboard-response,306,1312404,488.6599999736063,"HEADBAND<img id = ""stim"" ><div class = green_square id = ""topsquare"" ></div><img id = ""stim"" ><div class = green_square  id = ""bottomsquare"" ></div>",32,word_square,,1,,,,,SPACEBAR
html-keyboard-response,307,1313907,null,"HEADBAND",null,word,,,,, 'HEADBAND',,
html-keyboard-response,308,1314410,null,"KIDNEY<img id = ""stim"" ><div class = red_square id = ""topsquare"" ></div><img id = ""stim"" ><div class = red_square  id = ""bottomsquare"" ></div>",null,word_square,,0,,,,,SPACEBAR
html-keyboard-response,309,1315915,null,"KIDNEY",null,word,,,,, 'KIDNEY',,
html-keyboard-response,310,1316418,null,"DUNGEON<img id = ""stim"" ><div class = red_square id = ""topsquare"" ></div><img id = ""stim"" ><div class = red_square  id = ""bottomsquare"" ></div>",null,word_square,,0,,,,,SPACEBAR
html-keyboard-response,311,1317921,null,"DUNGEON",null,word,,,,, 'DUNGEON',,
html-keyboard-response,312,1318380,457.1299999952316,"SERPENT<img id = ""stim"" ><div class = green_square id = ""topsquare"" ></div><img id = ""stim"" ><div class = green_square  id = ""bottomsquare"" ></div>",32,word_square,,1,,,,,SPACEBAR
html-keyboard-response,313,1319882,null,"SERPENT",null,word,,,,, 'SERPENT',,
html-keyboard-response,314,1320386,null,"SUNSET<img id = ""stim"" ><div class = green_square id = ""topsquare"" ></div><img id = ""stim"" ><div class = green_square  id = ""bottomsquare"" ></div>",null,word_square,,1,,,,,SPACEBAR
html-keyboard-response,315,1321889,null,"SUNSET",null,word,,,,, 'SUNSET',,
html-keyboard-response,316,1322392,null,"BEAKER<img id = ""stim"" ><div class = red_square id = ""topsquare"" ></div><img id = ""stim"" ><div class = red_square  id = ""bottomsquare"" ></div>",null,word_square,,0,,,,,SPACEBAR
html-keyboard-response,317,1323895,null,"BEAKER",null,word,,,,, 'BEAKER',,
html-keyboard-response,318,1324397,null,"LAMP<img id = ""stim"" ><div class = red_square id = ""topsquare"" ></div><img id = ""stim"" ><div class = red_square  id = ""bottomsquare"" ></div>",null,word_square,,0,,,,,SPACEBAR
html-keyboard-response,319,1325900,null,"LAMP",null,word,,,,, 'LAMP',,
html-keyboard-response,320,1326246,341.94000001298264,"WIDOW<img id = ""stim"" ><div class = green_square id = ""topsquare"" ></div><img id = ""stim"" ><div class = green_square  id = ""bottomsquare"" ></div>",32,word_square,,1,,,,,SPACEBAR
html-keyboard-response,321,1327748,null,"WIDOW",null,word,,,,, 'WIDOW',,
html-keyboard-response,322,1328252,null,"PEOPLE<img id = ""stim"" ><div class = red_square id = ""topsquare"" ></div><img id = ""stim"" ><div class = red_square  id = ""bottomsquare"" ></div>",null,word_square,,0,,,,,SPACEBAR
html-keyboard-response,323,1329755,null,"PEOPLE",null,word,,,,, 'PEOPLE',,
html-keyboard-response,324,1330248,491.039999993518,"CRICKET<img id = ""stim"" ><div class = green_square id = ""topsquare"" ></div><img id = ""stim"" ><div class = green_square  id = ""bottomsquare"" ></div>",32,word_square,,1,,,,,SPACEBAR
html-keyboard-response,325,1331751,null,"CRICKET",null,word,,,,, 'CRICKET',,
html-keyboard-response,326,1332256,null,"BANDIT<img id = ""stim"" ><div class = green_square id = ""topsquare"" ></div><img id = ""stim"" ><div class = green_square  id = ""bottomsquare"" ></div>",null,word_square,,1,,,,,SPACEBAR
html-keyboard-response,327,1333759,null,"BANDIT",null,word,,,,, 'BANDIT',,
html-keyboard-response,328,1334262,null,"SPHINX<img id = ""stim"" ><div class = red_square id = ""topsquare"" ></div><img id = ""stim"" ><div class = red_square  id = ""bottomsquare"" ></div>",null,word_square,,0,,,,,SPACEBAR
html-keyboard-response,329,1335765,null,"SPHINX",null,word,,,,, 'SPHINX',,
html-keyboard-response,330,1336260,492.97500000102445,"PANTHER<img id = ""stim"" ><div class = green_square id = ""topsquare"" ></div><img id = ""stim"" ><div class = green_square  id = ""bottomsquare"" ></div>",32,word_square,,1,,,,,SPACEBAR
html-keyboard-response,331,1337763,null,"PANTHER",null,word,,,,, 'PANTHER',,
html-keyboard-response,332,1338266,null,"BATHTUB<img id = ""stim"" ><div class = red_square id = ""topsquare"" ></div><img id = ""stim"" ><div class = red_square  id = ""bottomsquare"" ></div>",null,word_square,,0,,,,,SPACEBAR
html-keyboard-response,333,1339769,null,"BATHTUB",null,word,,,,, 'BATHTUB',,
html-keyboard-response,334,1340272,null,"CANAL<img id = ""stim"" ><div class = red_square id = ""topsquare"" ></div><img id = ""stim"" ><div class = red_square  id = ""bottomsquare"" ></div>",null,word_square,,0,,,,,SPACEBAR
html-keyboard-response,335,1341775,null,"CANAL",null,word,,,,, 'CANAL',,
html-keyboard-response,336,1342174,397.3250000271946,"QUARTER<img id = ""stim"" ><div class = green_square id = ""topsquare"" ></div><img id = ""stim"" ><div class = green_square  id = ""bottomsquare"" ></div>",32,word_square,,1,,,,,SPACEBAR
html-keyboard-response,337,1343677,null,"QUARTER",null,word,,,,, 'QUARTER',,
html-keyboard-response,338,1344150,471.3899999624118,"BANK<img id = ""stim"" ><div class = green_square id = ""topsquare"" ></div><img id = ""stim"" ><div class = green_square  id = ""bottomsquare"" ></div>",32,word_square,,1,,,,,SPACEBAR
html-keyboard-response,339,1345653,null,"BANK",null,word,,,,, 'BANK',,
survey-text,340,1349222,3564.220000000205,"",,,,,,,,{"Q0":"5"},
survey-text,341,1353244,4017.229999997653,"",,,,,,,,{"Q0":"5"},
survey-text,342,1355132,1881.9999999832362,"",,,,,,,,{"Q0":"0"},
survey-text,343,1356461,1321.9899999676272,"",,,,,,,,{"Q0":"5"},
survey-text,344,1358586,2120.0250000110827,"",,,,,,,,{"Q0":"1"},
survey-text,345,1359949,1357.5950000085868,"",,,,,,,,{"Q0":"3"},
survey-text,346,1360824,871.3550000102259,"",,,,,,,,{"Q0":"3"},
survey-text,347,1362862,2032.854999997653,"",,,,,,,,{"Q0":"4"},
survey-text,348,1363968,1099.950000003446,"",,,,,,,,{"Q0":"4"},
survey-text,349,1365934,1959.1500000096858,"",,,,,,,,{"Q0":"4"},
survey-text,350,1367105,1166.4549999986775,"",,,,,,,,{"Q0":"4"},
survey-text,351,1368758,1648.2299999915995,"",,,,,,,,{"Q0":"3"},
survey-text,352,1372480,3716.019999992568,"",,,,,,,,{"Q0":"5"},
survey-text,353,1379250,6764.150000002701,"",,,,,,,,{"Q0":"headband"},
survey-text,354,1406356,27099.719999998342,"",,,,,,,,{"Q0":"serpent"},
survey-text,355,1408174,1811.7349999956787,"",,,,,,,,{"Q0":"sunset"},
survey-text,356,1419957,11777.679999999236,"",,,,,,,,{"Q0":"widow"},
survey-text,357,1427906,7944.47000004584,"",,,,,,,,{"Q0":"cricket"},
survey-text,358,1432620,4709.749999979977,"",,,,,,,,{"Q0":"bandit"},
survey-text,359,1440148,7521.735000016633,"",,,,,,,,{"Q0":"panther"},
survey-text,360,1449670,9516.730000032112,"",,,,,,,,{"Q0":"quarter"},
html-keyboard-response,361,1459936,10263.190000026952,"<p> Uh oh. You responded correctly on 78% of the GREEN squares.</p>
                  <p>We need you keep your accuracy above 80%</p>
                  <p>Press any key to continue the experiment. Thank you!</p>",13,,,,,,,,
html-keyboard-response,362,1468167,8229.709999985062,"<div style=""font-size:48px;"">Press any key to begin list 6 of 24 </div>",32,,,,,,,,
html-keyboard-response,363,1470672,null,"<div style=""font-size:60px;"">+</div>",null,,,,,,,,
html-keyboard-response,364,1471174,null,"GREASE<img id = ""stim"" ><div class = red_square id = ""topsquare"" ></div><img id = ""stim"" ><div class = red_square  id = ""bottomsquare"" ></div>",null,word_square,,0,,,,,SPACEBAR
html-keyboard-response,365,1472677,null,"GREASE",null,word,,,,, 'GREASE',,
html-keyboard-response,366,1473179,null,"VALVE<img id = ""stim"" ><div class = green_square id = ""topsquare"" ></div><img id = ""stim"" ><div class = green_square  id = ""bottomsquare"" ></div>",null,word_square,,1,,,,,SPACEBAR
html-keyboard-response,367,1474682,null,"VALVE",null,word,,,,, 'VALVE',,
html-keyboard-response,368,1475186,null,"SCOTCH<img id = ""stim"" ><div class = red_square id = ""topsquare"" ></div><img id = ""stim"" ><div class = red_square  id = ""bottomsquare"" ></div>",null,word_square,,0,,,,,SPACEBAR
html-keyboard-response,369,1476688,null,"SCOTCH",null,word,,,,, 'SCOTCH',,
html-keyboard-response,370,1477191,null,"MONARCH<img id = ""stim"" ><div class = red_square id = ""topsquare"" ></div><img id = ""stim"" ><div class = red_square  id = ""bottomsquare"" ></div>",null,word_square,,0,,,,,SPACEBAR
html-keyboard-response,371,1478694,null,"MONARCH",null,word,,,,, 'MONARCH',,
html-keyboard-response,372,1479086,389.91000002715737,"SCAPEGOAT<img id = ""stim"" ><div class = green_square id = ""topsquare"" ></div><img id = ""stim"" ><div class = green_square  id = ""bottomsquare"" ></div>",32,word_square,,1,,,,,SPACEBAR
html-keyboard-response,373,1480589,null,"SCAPEGOAT",null,word,,,,, 'SCAPEGOAT',,
html-keyboard-response,374,1481091,null,"VIKING<img id = ""stim"" ><div class = green_square id = ""topsquare"" ></div><img id = ""stim"" ><div class = green_square  id = ""bottomsquare"" ></div>",null,word_square,,1,,,,,SPACEBAR
html-keyboard-response,375,1482595,null,"VIKING",null,word,,,,, 'VIKING',,
html-keyboard-response,376,1483098,null,"DRINK<img id = ""stim"" ><div class = red_square id = ""topsquare"" ></div><img id = ""stim"" ><div class = red_square  id = ""bottomsquare"" ></div>",null,word_square,,0,,,,,SPACEBAR
html-keyboard-response,377,1484601,null,"DRINK",null,word,,,,, 'DRINK',,
html-keyboard-response,378,1485105,null,"PEACH<img id = ""stim"" ><div class = red_square id = ""topsquare"" ></div><img id = ""stim"" ><div class = red_square  id = ""bottomsquare"" ></div>",null,word_square,,0,,,,,SPACEBAR
html-keyboard-response,379,1486608,null,"PEACH",null,word,,,,, 'PEACH',,
html-keyboard-response,380,1486935,325.3149999654852,"NAPKIN<img id = ""stim"" ><div class = green_square id = ""topsquare"" ></div><img id = ""stim"" ><div class = green_square  id = ""bottomsquare"" ></div>",32,word_square,,1,,,,,SPACEBAR
html-keyboard-response,381,1488439,null,"NAPKIN",null,word,,,,, 'NAPKIN',,
html-keyboard-response,382,1488941,null,"AUTHOR<img id = ""stim"" ><div class = red_square id = ""topsquare"" ></div><img id = ""stim"" ><div class = red_square  id = ""bottomsquare"" ></div>",null,word_square,,0,,,,,SPACEBAR
html-keyboard-response,383,1490443,null,"AUTHOR",null,word,,,,, 'AUTHOR',,
html-keyboard-response,384,1490824,378.1500000040978,"NOVEL<img id = ""stim"" ><div class = green_square id = ""topsquare"" ></div><img id = ""stim"" ><div class = green_square  id = ""bottomsquare"" ></div>",32,word_square,,1,,,,,SPACEBAR
html-keyboard-response,385,1492327,null,"NOVEL",null,word,,,,, 'NOVEL',,
html-keyboard-response,386,1492830,null,"HOUSE<img id = ""stim"" ><div class = green_square id = ""topsquare"" ></div><img id = ""stim"" ><div class = green_square  id = ""bottomsquare"" ></div>",null,word_square,,1,,,,,SPACEBAR
html-keyboard-response,387,1494333,null,"HOUSE",null,word,,,,, 'HOUSE',,
html-keyboard-response,388,1494837,null,"RECORD<img id = ""stim"" ><div class = red_square id = ""topsquare"" ></div><img id = ""stim"" ><div class = red_square  id = ""bottomsquare"" ></div>",null,word_square,,0,,,,,SPACEBAR
html-keyboard-response,389,1496340,null,"RECORD",null,word,,,,, 'RECORD',,
html-keyboard-response,390,1496752,408.4100000327453,"BUG<img id = ""stim"" ><div class = green_square id = ""topsquare"" ></div><img id = ""stim"" ><div class = green_square  id = ""bottomsquare"" ></div>",32,word_square,,1,,,,,SPACEBAR
html-keyboard-response,391,1498255,null,"BUG",null,word,,,,, 'BUG',,
html-keyboard-response,392,1498758,null,"WASP<img id = ""stim"" ><div class = red_square id = ""topsquare"" ></div><img id = ""stim"" ><div class = red_square  id = ""bottomsquare"" ></div>",null,word_square,,0,,,,,SPACEBAR
html-keyboard-response,393,1500260,null,"WASP",null,word,,,,, 'WASP',,
html-keyboard-response,394,1500763,null,"LODGE<img id = ""stim"" ><div class = red_square id = ""topsquare"" ></div><img id = ""stim"" ><div class = red_square  id = ""bottomsquare"" ></div>",null,word_square,,0,,,,,SPACEBAR
html-keyboard-response,395,1502266,null,"LODGE",null,word,,,,, 'LODGE',,
html-keyboard-response,396,1502596,328.87999998638406,"CIRCUS<img id = ""stim"" ><div class = green_square id = ""topsquare"" ></div><img id = ""stim"" ><div class = green_square  id = ""bottomsquare"" ></div>",32,word_square,,1,,,,,SPACEBAR
html-keyboard-response,397,1504099,null,"CIRCUS",null,word,,,,, 'CIRCUS',,
html-keyboard-response,398,1504603,null,"RULER<img id = ""stim"" ><div class = green_square id = ""topsquare"" ></div><img id = ""stim"" ><div class = green_square  id = ""bottomsquare"" ></div>",null,word_square,,1,,,,,SPACEBAR
html-keyboard-response,399,1506105,null,"RULER",null,word,,,,, 'RULER',,
survey-text,400,1510020,3911.2500000046566,"",,,,,,,,{"Q0":"5"},
survey-text,401,1512004,1976.7700000084005,"",,,,,,,,{"Q0":"5"},
survey-text,402,1513021,1012.1999999973923,"",,,,,,,,{"Q0":"3"},
survey-text,403,1515254,2226.60499997437,"",,,,,,,,{"Q0":"1"},
survey-text,404,1518488,3228.0050000408664,"",,,,,,,,{"Q0":"5"},
survey-text,405,1521333,2837.9800000111572,"",,,,,,,,{"Q0":"1"},
survey-text,406,1524519,3180.0849999999627,"",,,,,,,,{"Q0":"5"},
survey-text,407,1527931,3405.704999982845,"",,,,,,,,{"Q0":"2"},
survey-text,408,1529484,1547.6049999706447,"",,,,,,,,{"Q0":"5"},
survey-text,409,1530745,1251.7050000024028,"",,,,,,,,{"Q0":"3"},
survey-text,410,1536676,5926.594999968074,"",,,,,,,,{"Q0":"valve"},
survey-text,411,1546421,9738.945000048261,"",,,,,,,,{"Q0":"scapegoat"},
survey-text,412,1550608,4179.715000034776,"",,,,,,,,{"Q0":"viking"},
survey-text,413,1552544,1929.7650000080466,"",,,,,,,,{"Q0":"napkin"},
survey-text,414,1556638,4086.544999969192,"",,,,,,,,{"Q0":"novel"},
survey-text,415,1557834,1189.9149999953806,"",,,,,,,,{"Q0":"house"},
survey-text,416,1561391,3552.910000027623,"",,,,,,,,{"Q0":"bug"},
survey-text,417,1563424,2026.9549999502487,"",,,,,,,,{"Q0":"circus"},
survey-text,418,1571451,8020.255000039469,"",,,,,,,,{"Q0":"ruler"},
survey-text,419,1634897,63440.760000026785,"",,,,,,,,{"Q0":"drink"},
html-keyboard-response,420,1649926,15026.8100000103,"<p> Uh oh. You responded correctly on 78% of the GREEN squares.</p>
                  <p>We need you keep your accuracy above 80%</p>
                  <p>Press any key to continue the experiment. Thank you!</p>",32,,,,,,,,
html-keyboard-response,421,1652549,2621.5050000464544,"<div style=""font-size:48px;"">Press any key to begin list 7 of 24 </div>",32,,,,,,,,
html-keyboard-response,422,1655054,null,"<div style=""font-size:60px;"">+</div>",null,,,,,,,,
html-keyboard-response,423,1655466,409.2949999612756,"PENCIL<img id = ""stim"" ><div class = green_square id = ""topsquare"" ></div><img id = ""stim"" ><div class = green_square  id = ""bottomsquare"" ></div>",32,word_square,,1,,,,,SPACEBAR
html-keyboard-response,424,1656969,null,"PENCIL",null,word,,,,, 'PENCIL',,
html-keyboard-response,425,1657472,null,"TREAT<img id = ""stim"" ><div class = red_square id = ""topsquare"" ></div><img id = ""stim"" ><div class = red_square  id = ""bottomsquare"" ></div>",null,word_square,,0,,,,,SPACEBAR
html-keyboard-response,426,1658975,null,"TREAT",null,word,,,,, 'TREAT',,
html-keyboard-response,427,1659379,401.7749999766238,"FOX<img id = ""stim"" ><div class = green_square id = ""topsquare"" ></div><img id = ""stim"" ><div class = green_square  id = ""bottomsquare"" ></div>",32,word_square,,1,,,,,SPACEBAR
html-keyboard-response,428,1660881,null,"FOX",null,word,,,,, 'FOX',,
html-keyboard-response,429,1661287,403.46000000135973,"BRANDY<img id = ""stim"" ><div class = green_square id = ""topsquare"" ></div><img id = ""stim"" ><div class = green_square  id = ""bottomsquare"" ></div>",32,word_square,,1,,,,,SPACEBAR
html-keyboard-response,430,1662801,null,"BRANDY",null,word,,,,, 'BRANDY',,
html-keyboard-response,431,1663304,null,"BOARD<img id = ""stim"" ><div class = red_square id = ""topsquare"" ></div><img id = ""stim"" ><div class = red_square  id = ""bottomsquare"" ></div>",null,word_square,,0,,,,,SPACEBAR
html-keyboard-response,432,1664807,null,"BOARD",null,word,,,,, 'BOARD',,
html-keyboard-response,433,1665310,null,"BUTLER<img id = ""stim"" ><div class = red_square id = ""topsquare"" ></div><img id = ""stim"" ><div class = red_square  id = ""bottomsquare"" ></div>",null,word_square,,0,,,,,SPACEBAR
html-keyboard-response,434,1666813,null,"BUTLER",null,word,,,,, 'BUTLER',,
html-keyboard-response,435,1667205,390.59500000439584,"MOP<img id = ""stim"" ><div class = green_square id = ""topsquare"" ></div><img id = ""stim"" ><div class = green_square  id = ""bottomsquare"" ></div>",32,word_square,,1,,,,,SPACEBAR
html-keyboard-response,436,1668709,null,"MOP",null,word,,,,, 'MOP',,
html-keyboard-response,437,1669212,null,"RUG<img id = ""stim"" ><div class = green_square id = ""topsquare"" ></div><img id = ""stim"" ><div class = green_square  id = ""bottomsquare"" ></div>",null,word_square,,1,,,,,SPACEBAR
html-keyboard-response,438,1670715,null,"RUG",null,word,,,,, 'RUG',,
html-keyboard-response,439,1671219,null,"LITTER<img id = ""stim"" ><div class = red_square id = ""topsquare"" ></div><img id = ""stim"" ><div class = red_square  id = ""bottomsquare"" ></div>",null,word_square,,0,,,,,SPACEBAR
html-keyboard-response,440,1672721,null,"LITTER",null,word,,,,, 'LITTER',,
html-keyboard-response,441,1673224,null,"WRENCH<img id = ""stim"" ><div class = green_square id = ""topsquare"" ></div><img id = ""stim"" ><div class = green_square  id = ""bottomsquare"" ></div>",null,word_square,,1,,,,,SPACEBAR
html-keyboard-response,442,1674727,null,"WRENCH",null,word,,,,, 'WRENCH',,
html-keyboard-response,443,1675242,null,"COUNTRY<img id = ""stim"" ><div class = red_square id = ""topsquare"" ></div><img id = ""stim"" ><div class = red_square  id = ""bottomsquare"" ></div>",null,word_square,,0,,,,,SPACEBAR
html-keyboard-response,444,1676750,null,"COUNTRY",null,word,,,,, 'COUNTRY',,
html-keyboard-response,445,1677254,null,"JAPAN<img id = ""stim"" ><div class = red_square id = ""topsquare"" ></div><img id = ""stim"" ><div class = red_square  id = ""bottomsquare"" ></div>",null,word_square,,0,,,,,SPACEBAR
html-keyboard-response,446,1678756,null,"JAPAN",null,word,,,,, 'JAPAN',,
html-keyboard-response,447,1679259,null,"GAVEL<img id = ""stim"" ><div class = green_square id = ""topsquare"" ></div><img id = ""stim"" ><div class = green_square  id = ""bottomsquare"" ></div>",null,word_square,,1,,,,,SPACEBAR
html-keyboard-response,448,1680763,null,"GAVEL",null,word,,,,, 'GAVEL',,
html-keyboard-response,449,1681266,null,"CHAMPAGNE<img id = ""stim"" ><div class = red_square id = ""topsquare"" ></div><img id = ""stim"" ><div class = red_square  id = ""bottomsquare"" ></div>",null,word_square,,0,,,,,SPACEBAR
html-keyboard-response,450,1682769,null,"CHAMPAGNE",null,word,,,,, 'CHAMPAGNE',,
html-keyboard-response,451,1683272,null,"MILDEW<img id = ""stim"" ><div class = green_square id = ""topsquare"" ></div><img id = ""stim"" ><div class = green_square  id = ""bottomsquare"" ></div>",null,word_square,,1,,,,,SPACEBAR
html-keyboard-response,452,1684775,null,"MILDEW",null,word,,,,, 'MILDEW',,
html-keyboard-response,453,1685279,null,"VAGRANT<img id = ""stim"" ><div class = green_square id = ""topsquare"" ></div><img id = ""stim"" ><div class = green_square  id = ""bottomsquare"" ></div>",null,word_square,,1,,,,,SPACEBAR
html-keyboard-response,454,1686781,null,"VAGRANT",null,word,,,,, 'VAGRANT',,
html-keyboard-response,455,1687285,null,"SANDWICH<img id = ""stim"" ><div class = red_square id = ""topsquare"" ></div><img id = ""stim"" ><div class = red_square  id = ""bottomsquare"" ></div>",null,word_square,,0,,,,,SPACEBAR
html-keyboard-response,456,1688788,null,"SANDWICH",null,word,,,,, 'SANDWICH',,
html-keyboard-response,457,1689291,null,"BEETLE<img id = ""stim"" ><div class = red_square id = ""topsquare"" ></div><img id = ""stim"" ><div class = red_square  id = ""bottomsquare"" ></div>",null,word_square,,0,,,,,SPACEBAR
html-keyboard-response,458,1690795,null,"BEETLE",null,word,,,,, 'BEETLE',,
survey-text,459,1695536,4736.169999989215,"",,,,,,,,{"Q0":"4"},
survey-text,460,1696654,1111.3950000144541,"",,,,,,,,{"Q0":"6"},
survey-text,461,1700165,3505.5600000196137,"",,,,,,,,{"Q0":"3"},
survey-text,462,1703671,3499.7300000395626,"",,,,,,,,{"Q0":"2"},
survey-text,463,1706005,2328.7450000061654,"",,,,,,,,{"Q0":"4"},
survey-text,464,1707343,1332.6799999922514,"",,,,,,,,{"Q0":"5"},
survey-text,465,1710456,3108.0199999851175,"",,,,,,,,{"Q0":"1"},
survey-text,466,1718624,8164.440000022296,"",,,,,,,,{"Q0":"2"},
survey-text,467,1725471,6840.130000025965,"",,,,,,,,{"Q0":"pencil"},
survey-text,468,1730296,4818.594999960624,"",,,,,,,,{"Q0":"fox"},
survey-text,469,1734491,4189.710000006016,"",,,,,,,,{"Q0":"brandy"},
survey-text,470,1738231,3733.4050000063144,"",,,,,,,,{"Q0":"mop"},
survey-text,471,1740070,1832.7249999856576,"",,,,,,,,{"Q0":"rug"},
survey-text,472,1746239,6161.744999990333,"",,,,,,,,{"Q0":"wrench"},
survey-text,473,1751574,5329.714999999851,"",,,,,,,,{"Q0":"gavel"},
survey-text,474,1759134,7553.350000001956,"",,,,,,,,{"Q0":"mildew"},
survey-text,475,1762790,3649.909999978263,"",,,,,,,,{"Q0":"vagrant"},
survey-text,476,1768474,5677.500000048894,"",,,,,,,,{"Q0":"treat"},
survey-text,477,1868383,99902.82000001753,"",,,,,,,,{"Q0":"japan"},
html-keyboard-response,478,1869287,900.8649999741465,"<p> Uh oh. You responded correctly on 78% of the GREEN squares.</p>
                  <p>We need you keep your accuracy above 80%</p>
                  <p>Press any key to continue the experiment. Thank you!</p>",13,,,,,,,,
html-keyboard-response,479,1879900,10610.169999999925,"<div style=""font-size:48px;"">Press any key to begin list 8 of 24 </div>",32,,,,,,,,
html-keyboard-response,480,1882403,null,"<div style=""font-size:60px;"">+</div>",null,,,,,,,,
html-keyboard-response,481,1882906,null,"VAMPIRE<img id = ""stim"" ><div class = green_square id = ""topsquare"" ></div><img id = ""stim"" ><div class = green_square  id = ""bottomsquare"" ></div>",null,word_square,,1,,,,,SPACEBAR
html-keyboard-response,482,1884409,null,"VAMPIRE",null,word,,,,, 'VAMPIRE',,
html-keyboard-response,483,1884913,null,"INSECT<img id = ""stim"" ><div class = red_square id = ""topsquare"" ></div><img id = ""stim"" ><div class = red_square  id = ""bottomsquare"" ></div>",null,word_square,,0,,,,,SPACEBAR
html-keyboard-response,484,1886416,null,"INSECT",null,word,,,,, 'INSECT',,
html-keyboard-response,485,1886919,null,"TWIG<img id = ""stim"" ><div class = green_square id = ""topsquare"" ></div><img id = ""stim"" ><div class = green_square  id = ""bottomsquare"" ></div>",null,word_square,,1,,,,,SPACEBAR
html-keyboard-response,486,1888421,null,"TWIG",null,word,,,,, 'TWIG',,
html-keyboard-response,487,1888925,null,"SHRUB<img id = ""stim"" ><div class = green_square id = ""topsquare"" ></div><img id = ""stim"" ><div class = green_square  id = ""bottomsquare"" ></div>",null,word_square,,1,,,,,SPACEBAR
html-keyboard-response,488,1890427,null,"SHRUB",null,word,,,,, 'SHRUB',,
html-keyboard-response,489,1890930,null,"DRILL<img id = ""stim"" ><div class = red_square id = ""topsquare"" ></div><img id = ""stim"" ><div class = red_square  id = ""bottomsquare"" ></div>",null,word_square,,0,,,,,SPACEBAR
html-keyboard-response,490,1892432,null,"DRILL",null,word,,,,, 'DRILL',,
html-keyboard-response,491,1892936,null,"DIVER<img id = ""stim"" ><div class = red_square id = ""topsquare"" ></div><img id = ""stim"" ><div class = red_square  id = ""bottomsquare"" ></div>",null,word_square,,0,,,,,SPACEBAR
html-keyboard-response,492,1894438,null,"DIVER",null,word,,,,, 'DIVER',,
html-keyboard-response,493,1894881,440.9449999802746,"BUBBLE<img id = ""stim"" ><div class = green_square id = ""topsquare"" ></div><img id = ""stim"" ><div class = green_square  id = ""bottomsquare"" ></div>",32,word_square,,1,,,,,SPACEBAR
html-keyboard-response,494,1896384,null,"BUBBLE",null,word,,,,, 'BUBBLE',,
html-keyboard-response,495,1896844,457.4999999604188,"BREAST<img id = ""stim"" ><div class = green_square id = ""topsquare"" ></div><img id = ""stim"" ><div class = green_square  id = ""bottomsquare"" ></div>",32,word_square,,1,,,,,SPACEBAR
html-keyboard-response,496,1898347,null,"BREAST",null,word,,,,, 'BREAST',,
html-keyboard-response,497,1898851,null,"CREVICE<img id = ""stim"" ><div class = red_square id = ""topsquare"" ></div><img id = ""stim"" ><div class = red_square  id = ""bottomsquare"" ></div>",null,word_square,,0,,,,,SPACEBAR
html-keyboard-response,498,1900353,null,"CREVICE",null,word,,,,, 'CREVICE',,
html-keyboard-response,499,1900797,441.9849999831058,"DRUG<img id = ""stim"" ><div class = green_square id = ""topsquare"" ></div><img id = ""stim"" ><div class = green_square  id = ""bottomsquare"" ></div>",32,word_square,,1,,,,,SPACEBAR
html-keyboard-response,500,1902300,null,"DRUG",null,word,,,,, 'DRUG',,
html-keyboard-response,501,1902803,null,"FIGHTER<img id = ""stim"" ><div class = red_square id = ""topsquare"" ></div><img id = ""stim"" ><div class = red_square  id = ""bottomsquare"" ></div>",null,word_square,,0,,,,,SPACEBAR
html-keyboard-response,502,1904306,null,"FIGHTER",null,word,,,,, 'FIGHTER',,
html-keyboard-response,503,1904810,null,"GRILL<img id = ""stim"" ><div class = red_square id = ""topsquare"" ></div><img id = ""stim"" ><div class = red_square  id = ""bottomsquare"" ></div>",null,word_square,,0,,,,,SPACEBAR
html-keyboard-response,504,1906312,null,"GRILL",null,word,,,,, 'GRILL',,
html-keyboard-response,505,1906676,361.77999997744337,"SHAMPOO<img id = ""stim"" ><div class = green_square id = ""topsquare"" ></div><img id = ""stim"" ><div class = green_square  id = ""bottomsquare"" ></div>",32,word_square,,1,,,,,SPACEBAR
html-keyboard-response,506,1908178,null,"SHAMPOO",null,word,,,,, 'SHAMPOO',,
html-keyboard-response,507,1908681,null,"SKILLET<img id = ""stim"" ><div class = red_square id = ""topsquare"" ></div><img id = ""stim"" ><div class = red_square  id = ""bottomsquare"" ></div>",null,word_square,,0,,,,,SPACEBAR
html-keyboard-response,508,1910185,null,"SKILLET",null,word,,,,, 'SKILLET',,
html-keyboard-response,509,1910535,348.3299999497831,"PUPIL<img id = ""stim"" ><div class = green_square id = ""topsquare"" ></div><img id = ""stim"" ><div class = green_square  id = ""bottomsquare"" ></div>",32,word_square,,1,,,,,SPACEBAR
html-keyboard-response,510,1912038,null,"PUPIL",null,word,,,,, 'PUPIL',,
html-keyboard-response,511,1912404,364.850000012666,"FLOWER<img id = ""stim"" ><div class = green_square id = ""topsquare"" ></div><img id = ""stim"" ><div class = green_square  id = ""bottomsquare"" ></div>",32,word_square,,1,,,,,SPACEBAR
html-keyboard-response,512,1913907,null,"FLOWER",null,word,,,,, 'FLOWER',,
html-keyboard-response,513,1914410,null,"VALLEY<img id = ""stim"" ><div class = red_square id = ""topsquare"" ></div><img id = ""stim"" ><div class = red_square  id = ""bottomsquare"" ></div>",null,word_square,,0,,,,,SPACEBAR
html-keyboard-response,514,1915913,null,"VALLEY",null,word,,,,, 'VALLEY',,
html-keyboard-response,515,1916416,null,"FRIES<img id = ""stim"" ><div class = red_square id = ""topsquare"" ></div><img id = ""stim"" ><div class = red_square  id = ""bottomsquare"" ></div>",null,word_square,,0,,,,,SPACEBAR
html-keyboard-response,516,1917918,null,"FRIES",null,word,,,,, 'FRIES',,
survey-text,517,1924488,6564.925000013318,"",,,,,,,,{"Q0":"2"},
survey-text,518,1925620,1125.72499999078,"",,,,,,,,{"Q0":"3"},
survey-text,519,1927252,1625.8899999666028,"",,,,,,,,{"Q0":"2"},
survey-text,520,1929230,1970.125000050757,"",,,,,,,,{"Q0":"2"},
survey-text,521,1930940,1703.5550000146031,"",,,,,,,,{"Q0":"5"},
survey-text,522,1932910,1964.365000021644,"",,,,,,,,{"Q0":"5"},
survey-text,523,1933880,964.0650000073947,"",,,,,,,,{"Q0":"3"},
survey-text,524,1934910,1023.879999993369,"",,,,,,,,{"Q0":"4"},
survey-text,525,1937338,2421.5749999857508,"",,,,,,,,{"Q0":"4"},
survey-text,526,1939300,1954.1750000207685,"",,,,,,,,{"Q0":"3"},
survey-text,527,1940572,1269.159999967087,"",,,,,,,,{"Q0":"3"},
survey-text,528,1941596,1018.2050000294112,"",,,,,,,,{"Q0":"3"},
survey-text,529,1942461,859.5349999959581,"",,,,,,,,{"Q0":"3"},
survey-text,530,1947617,5149.749999982305,"",,,,,,,,{"Q0":"shampoo"},
survey-text,531,1950893,3268.9299999619834,"",,,,,,,,{"Q0":"pupil"},
survey-text,532,1952130,1231.2999999849126,"",,,,,,,,{"Q0":"flower"},
survey-text,533,1964535,12397.614999965299,"",,,,,,,,{"Q0":"twig"},
survey-text,534,1967620,3078.365000023041,"",,,,,,,,{"Q0":"shrub"},
survey-text,535,1971754,4128.154999983963,"",,,,,,,,{"Q0":"bubble"},
survey-text,536,1973445,1684.6699999878183,"",,,,,,,,{"Q0":"breast"},
survey-text,537,1975035,1583.8150000199676,"",,,,,,,,{"Q0":"drug"},
survey-text,538,2064669,89629.0250000311,"",,,,,,,,{"Q0":"crevice"},
html-keyboard-response,539,2065324,651.8200000282377,"<p> Uh oh. You responded correctly on 78% of the GREEN squares.</p>
                  <p>We need you keep your accuracy above 80%</p>
                  <p>Press any key to continue the experiment. Thank you!</p>",13,,,,,,,,
html-keyboard-response,540,2070221,4895.485000044573,"<div style=""font-size:48px;"">Press any key to begin list 9 of 24 </div>",32,,,,,,,,
html-keyboard-response,541,2072725,null,"<div style=""font-size:60px;"">+</div>",null,,,,,,,,
html-keyboard-response,542,2073228,null,"WATER<img id = ""stim"" ><div class = red_square id = ""topsquare"" ></div><img id = ""stim"" ><div class = red_square  id = ""bottomsquare"" ></div>",null,word_square,,0,,,,,SPACEBAR
html-keyboard-response,543,2074730,null,"WATER",null,word,,,,, 'WATER',,
html-keyboard-response,544,2075234,null,"BRIDGE<img id = ""stim"" ><div class = green_square id = ""topsquare"" ></div><img id = ""stim"" ><div class = green_square  id = ""bottomsquare"" ></div>",null,word_square,,1,,,,,SPACEBAR
html-keyboard-response,545,2076736,null,"BRIDGE",null,word,,,,, 'BRIDGE',,
html-keyboard-response,546,2077163,425.7550000329502,"PAVEMENT<img id = ""stim"" ><div class = green_square id = ""topsquare"" ></div><img id = ""stim"" ><div class = green_square  id = ""bottomsquare"" ></div>",32,word_square,,1,,,,,SPACEBAR
html-keyboard-response,547,2078666,null,"PAVEMENT",null,word,,,,, 'PAVEMENT',,
html-keyboard-response,548,2079169,null,"GAZELLE<img id = ""stim"" ><div class = red_square id = ""topsquare"" ></div><img id = ""stim"" ><div class = red_square  id = ""bottomsquare"" ></div>",null,word_square,,0,,,,,SPACEBAR
html-keyboard-response,549,2080672,null,"GAZELLE",null,word,,,,, 'GAZELLE',,
html-keyboard-response,550,2081122,447.6500000455417,"BROOK<img id = ""stim"" ><div class = green_square id = ""topsquare"" ></div><img id = ""stim"" ><div class = green_square  id = ""bottomsquare"" ></div>",32,word_square,,1,,,,,SPACEBAR
html-keyboard-response,551,2082625,null,"BROOK",null,word,,,,, 'BROOK',,
html-keyboard-response,552,2083132,null,"LAKE<img id = ""stim"" ><div class = red_square id = ""topsquare"" ></div><img id = ""stim"" ><div class = red_square  id = ""bottomsquare"" ></div>",null,word_square,,0,,,,,SPACEBAR
html-keyboard-response,553,2084634,null,"LAKE",null,word,,,,, 'LAKE',,
html-keyboard-response,554,2085137,null,"LUNCH<img id = ""stim"" ><div class = red_square id = ""topsquare"" ></div><img id = ""stim"" ><div class = red_square  id = ""bottomsquare"" ></div>",null,word_square,,0,,,,,SPACEBAR
html-keyboard-response,555,2086641,null,"LUNCH",null,word,,,,, 'LUNCH',,
html-keyboard-response,556,2087082,439.7400000016205,"KITCHEN<img id = ""stim"" ><div class = green_square id = ""topsquare"" ></div><img id = ""stim"" ><div class = green_square  id = ""bottomsquare"" ></div>",32,word_square,,1,,,,,SPACEBAR
html-keyboard-response,557,2088584,null,"KITCHEN",null,word,,,,, 'KITCHEN',,
html-keyboard-response,558,2089086,null,"GANGSTER<img id = ""stim"" ><div class = red_square id = ""topsquare"" ></div><img id = ""stim"" ><div class = red_square  id = ""bottomsquare"" ></div>",null,word_square,,0,,,,,SPACEBAR
html-keyboard-response,559,2090591,null,"GANGSTER",null,word,,,,, 'GANGSTER',,
html-keyboard-response,560,2091094,null,"ELK<img id = ""stim"" ><div class = red_square id = ""topsquare"" ></div><img id = ""stim"" ><div class = red_square  id = ""bottomsquare"" ></div>",null,word_square,,0,,,,,SPACEBAR
html-keyboard-response,561,2092597,null,"ELK",null,word,,,,, 'ELK',,
html-keyboard-response,562,2092957,356.95000004488975,"BEEF<img id = ""stim"" ><div class = green_square id = ""topsquare"" ></div><img id = ""stim"" ><div class = green_square  id = ""bottomsquare"" ></div>",32,word_square,,1,,,,,SPACEBAR
html-keyboard-response,563,2094459,null,"BEEF",null,word,,,,, 'BEEF',,
html-keyboard-response,564,2094963,null,"RIFLE<img id = ""stim"" ><div class = red_square id = ""topsquare"" ></div><img id = ""stim"" ><div class = red_square  id = ""bottomsquare"" ></div>",null,word_square,,0,,,,,SPACEBAR
html-keyboard-response,565,2096466,null,"RIFLE",null,word,,,,, 'RIFLE',,
html-keyboard-response,566,2096926,458.1599999801256,"PALACE<img id = ""stim"" ><div class = green_square id = ""topsquare"" ></div><img id = ""stim"" ><div class = green_square  id = ""bottomsquare"" ></div>",32,word_square,,1,,,,,SPACEBAR
html-keyboard-response,567,2098429,null,"PALACE",null,word,,,,, 'PALACE',,
html-keyboard-response,568,2098932,null,"PUMPKIN<img id = ""stim"" ><div class = red_square id = ""topsquare"" ></div><img id = ""stim"" ><div class = red_square  id = ""bottomsquare"" ></div>",null,word_square,,0,,,,,SPACEBAR
html-keyboard-response,569,2100435,null,"PUMPKIN",null,word,,,,, 'PUMPKIN',,
html-keyboard-response,570,2100939,null,"MEAT<img id = ""stim"" ><div class = red_square id = ""topsquare"" ></div><img id = ""stim"" ><div class = red_square  id = ""bottomsquare"" ></div>",null,word_square,,0,,,,,SPACEBAR
html-keyboard-response,571,2102443,null,"MEAT",null,word,,,,, 'MEAT',,
html-keyboard-response,572,2102892,447.02000002143905,"DOCTOR<img id = ""stim"" ><div class = green_square id = ""topsquare"" ></div><img id = ""stim"" ><div class = green_square  id = ""bottomsquare"" ></div>",32,word_square,,1,,,,,SPACEBAR
html-keyboard-response,573,2104395,null,"DOCTOR",null,word,,,,, 'DOCTOR',,
html-keyboard-response,574,2104899,null,"BUNNY<img id = ""stim"" ><div class = green_square id = ""topsquare"" ></div><img id = ""stim"" ><div class = green_square  id = ""bottomsquare"" ></div>",null,word_square,,1,,,,,SPACEBAR
html-keyboard-response,575,2106401,null,"BUNNY",null,word,,,,, 'BUNNY',,
html-keyboard-response,576,2106905,null,"EMPIRE<img id = ""stim"" ><div class = green_square id = ""topsquare"" ></div><img id = ""stim"" ><div class = green_square  id = ""bottomsquare"" ></div>",null,word_square,,1,,,,,SPACEBAR
html-keyboard-response,577,2108408,null,"EMPIRE",null,word,,,,, 'EMPIRE',,
survey-text,578,2112230,3816.0200000274926,"",,,,,,,,{"Q0":"2"},
survey-text,579,2113748,1511.1099999630824,"",,,,,,,,{"Q0":"4"},
survey-text,580,2116544,2790.774999943096,"",,,,,,,,{"Q0":"2"},
survey-text,581,2118283,1733.0000000074506,"",,,,,,,,{"Q0":"5"},
survey-text,582,2120518,2229.2000000015832,"",,,,,,,,{"Q0":"4"},
survey-text,583,2121979,1455.11500001885,"",,,,,,,,{"Q0":"3"},
survey-text,584,2124767,2783.2999999518506,"",,,,,,,,{"Q0":"4"},
survey-text,585,2126182,1411.4950000075623,"",,,,,,,,{"Q0":"4"},
survey-text,586,2127400,1212.4499999918044,"",,,,,,,,{"Q0":"4"},
survey-text,587,2129874,2468.4849999612197,"",,,,,,,,{"Q0":"3"},
survey-text,588,2132493,2611.894999979995,"",,,,,,,,{"Q0":"0"},
survey-text,589,2136412,3914.089999976568,"",,,,,,,,{"Q0":"bridge"},
survey-text,590,2138334,1915.854999970179,"",,,,,,,,{"Q0":"pavement"},
survey-text,591,2147824,9484.705000009853,"",,,,,,,,{"Q0":"palace"},
survey-text,592,2152257,4427.054999978282,"",,,,,,,,{"Q0":"kitchen"},
survey-text,593,2154886,2622.555000009015,"",,,,,,,,{"Q0":"beef"},
survey-text,594,2163165,8273.619999992661,"",,,,,,,,{"Q0":"doctor"},
survey-text,595,2164666,1495.7350000040606,"",,,,,,,,{"Q0":"bunny"},
survey-text,596,2166398,1725.4850000026636,"",,,,,,,,{"Q0":"empire"},
survey-text,597,2429282,262878.36999999126,"",,,,,,,,{"Q0":"house"},
html-keyboard-response,598,2431050,1765.4599999659695,"<p> Uh oh. You responded correctly on 78% of the GREEN squares.</p>
                  <p>We need you keep your accuracy above 80%</p>
                  <p>Press any key to continue the experiment. Thank you!</p>",13,,,,,,,,
html-keyboard-response,599,2431972,920.7000000169501,"<div style=""font-size:48px;"">Press any key to begin list 10 of 24 </div>",13,,,,,,,,
html-keyboard-response,600,2434482,null,"<div style=""font-size:60px;"">+</div>",null,,,,,,,,
html-keyboard-response,601,2434986,null,"NIGHTGOWN<img id = ""stim"" ><div class = red_square id = ""topsquare"" ></div><img id = ""stim"" ><div class = red_square  id = ""bottomsquare"" ></div>",null,word_square,,0,,,,,SPACEBAR
html-keyboard-response,602,2436488,null,"NIGHTGOWN",null,word,,,,, 'NIGHTGOWN',,
html-keyboard-response,603,2436901,410.62000003876165,"DUSTPAN<img id = ""stim"" ><div class = green_square id = ""topsquare"" ></div><img id = ""stim"" ><div class = green_square  id = ""bottomsquare"" ></div>",32,word_square,,1,,,,,SPACEBAR
html-keyboard-response,604,2438404,null,"DUSTPAN",null,word,,,,, 'DUSTPAN',,
html-keyboard-response,605,2438806,400.4649999551475,"ROACH<img id = ""stim"" ><div class = green_square id = ""topsquare"" ></div><img id = ""stim"" ><div class = green_square  id = ""bottomsquare"" ></div>",32,word_square,,1,,,,,SPACEBAR
html-keyboard-response,606,2440309,null,"ROACH",null,word,,,,, 'ROACH',,
html-keyboard-response,607,2440812,null,"CROOK<img id = ""stim"" ><div class = red_square id = ""topsquare"" ></div><img id = ""stim"" ><div class = red_square  id = ""bottomsquare"" ></div>",null,word_square,,0,,,,,SPACEBAR
html-keyboard-response,608,2442315,null,"CROOK",null,word,,,,, 'CROOK',,
html-keyboard-response,609,2442769,452.29500002460554,"DRAGON<img id = ""stim"" ><div class = green_square id = ""topsquare"" ></div><img id = ""stim"" ><div class = green_square  id = ""bottomsquare"" ></div>",32,word_square,,1,,,,,SPACEBAR
html-keyboard-response,610,2444273,null,"DRAGON",null,word,,,,, 'DRAGON',,
html-keyboard-response,611,2444777,null,"BLANKET<img id = ""stim"" ><div class = red_square id = ""topsquare"" ></div><img id = ""stim"" ><div class = red_square  id = ""bottomsquare"" ></div>",null,word_square,,0,,,,,SPACEBAR
html-keyboard-response,612,2446280,null,"BLANKET",null,word,,,,, 'BLANKET',,
html-keyboard-response,613,2446782,null,"GRAVE<img id = ""stim"" ><div class = red_square id = ""topsquare"" ></div><img id = ""stim"" ><div class = red_square  id = ""bottomsquare"" ></div>",null,word_square,,0,,,,,SPACEBAR
html-keyboard-response,614,2448285,null,"GRAVE",null,word,,,,, 'GRAVE',,
html-keyboard-response,615,2448689,401.0250000283122,"GUARD<img id = ""stim"" ><div class = green_square id = ""topsquare"" ></div><img id = ""stim"" ><div class = green_square  id = ""bottomsquare"" ></div>",32,word_square,,1,,,,,SPACEBAR
html-keyboard-response,616,2450192,null,"GUARD",null,word,,,,, 'GUARD',,
html-keyboard-response,617,2450695,null,"JACKET<img id = ""stim"" ><div class = red_square id = ""topsquare"" ></div><img id = ""stim"" ><div class = red_square  id = ""bottomsquare"" ></div>",null,word_square,,0,,,,,SPACEBAR
html-keyboard-response,618,2452198,null,"JACKET",null,word,,,,, 'JACKET',,
html-keyboard-response,619,2452710,null,"SILK<img id = ""stim"" ><div class = red_square id = ""topsquare"" ></div><img id = ""stim"" ><div class = red_square  id = ""bottomsquare"" ></div>",null,word_square,,0,,,,,SPACEBAR
html-keyboard-response,620,2454214,null,"SILK",null,word,,,,, 'SILK',,
html-keyboard-response,621,2454717,null,"VELVET<img id = ""stim"" ><div class = green_square id = ""topsquare"" ></div><img id = ""stim"" ><div class = green_square  id = ""bottomsquare"" ></div>",null,word_square,,1,,,,,SPACEBAR
html-keyboard-response,622,2456219,null,"VELVET",null,word,,,,, 'VELVET',,
html-keyboard-response,623,2456723,null,"MAGNET<img id = ""stim"" ><div class = red_square id = ""topsquare"" ></div><img id = ""stim"" ><div class = red_square  id = ""bottomsquare"" ></div>",null,word_square,,0,,,,,SPACEBAR
html-keyboard-response,624,2458225,null,"MAGNET",null,word,,,,, 'MAGNET',,
html-keyboard-response,625,2458730,null,"SCRIBBLE<img id = ""stim"" ><div class = green_square id = ""topsquare"" ></div><img id = ""stim"" ><div class = green_square  id = ""bottomsquare"" ></div>",null,word_square,,1,,,,,SPACEBAR
html-keyboard-response,626,2460234,null,"SCRIBBLE",null,word,,,,, 'SCRIBBLE',,
html-keyboard-response,627,2460738,null,"FRAME<img id = ""stim"" ><div class = red_square id = ""topsquare"" ></div><img id = ""stim"" ><div class = red_square  id = ""bottomsquare"" ></div>",null,word_square,,0,,,,,SPACEBAR
html-keyboard-response,628,2462240,null,"FRAME",null,word,,,,, 'FRAME',,
html-keyboard-response,629,2462744,null,"TURKEY<img id = ""stim"" ><div class = red_square id = ""topsquare"" ></div><img id = ""stim"" ><div class = red_square  id = ""bottomsquare"" ></div>",null,word_square,,0,,,,,SPACEBAR
html-keyboard-response,630,2464247,null,"TURKEY",null,word,,,,, 'TURKEY',,
html-keyboard-response,631,2464676,427.0050000050105,"FACE<img id = ""stim"" ><div class = green_square id = ""topsquare"" ></div><img id = ""stim"" ><div class = green_square  id = ""bottomsquare"" ></div>",32,word_square,,1,,,,,SPACEBAR
html-keyboard-response,632,2466179,null,"FACE",null,word,,,,, 'FACE',,
html-keyboard-response,633,2466682,null,"MATCH<img id = ""stim"" ><div class = green_square id = ""topsquare"" ></div><img id = ""stim"" ><div class = green_square  id = ""bottomsquare"" ></div>",null,word_square,,1,,,,,SPACEBAR
html-keyboard-response,634,2468186,null,"MATCH",null,word,,,,, 'MATCH',,
html-keyboard-response,635,2468618,431.01000000024214,"OMELET<img id = ""stim"" ><div class = green_square id = ""topsquare"" ></div><img id = ""stim"" ><div class = green_square  id = ""bottomsquare"" ></div>",32,word_square,,1,,,,,SPACEBAR
html-keyboard-response,636,2470123,null,"OMELET",null,word,,,,, 'OMELET',,
survey-text,637,2472586,2458.3950000233017,"",,,,,,,,{"Q0":"5"},
survey-text,638,2473969,1378.3549999934621,"",,,,,,,,{"Q0":"3"},
survey-text,639,2474952,977.3999999742955,"",,,,,,,,{"Q0":"4"},
survey-text,640,2478498,3540.495000022929,"",,,,,,,,{"Q0":"1"},
survey-text,641,2480565,2059.9200000287965,"",,,,,,,,{"Q0":"3"},
survey-text,642,2482415,1845.7349999807775,"",,,,,,,,{"Q0":"5"},
survey-text,643,2485668,3246.0050000227056,"",,,,,,,,{"Q0":"2"},
survey-text,644,2487943,2268.630000005942,"",,,,,,,,{"Q0":"3"},
survey-text,645,2490306,2357.47500002617,"",,,,,,,,{"Q0":"2"},
survey-text,646,2492289,1977.7400000020862,"",,,,,,,,{"Q0":"1"},
survey-text,647,2494831,2535.8499999856576,"",,,,,,,,{"Q0":"5"},
survey-text,648,2499859,5022.044999990612,"",,,,,,,,{"Q0":"dustpan"},
survey-text,649,2501005,1139.0999999712221,"",,,,,,,,{"Q0":"roach"},
survey-text,650,2502503,1491.4249999565072,"",,,,,,,,{"Q0":"dragon"},
survey-text,651,2507062,4553.335000004154,"",,,,,,,,{"Q0":"guard"},
survey-text,652,2510080,3011.115000001155,"",,,,,,,,{"Q0":"velvet"},
survey-text,653,2520617,10530.754999956116,"",,,,,,,,{"Q0":"omelet"},
survey-text,654,2549302,28677.98000003677,"",,,,,,,,{"Q0":"silk"},
survey-text,655,2625427,76119.78000000818,"",,,,,,,,{"Q0":"egg"},
html-keyboard-response,656,2626228,798.4749999595806,"<p> Uh oh. You responded correctly on 78% of the GREEN squares.</p>
                  <p>We need you keep your accuracy above 80%</p>
                  <p>Press any key to continue the experiment. Thank you!</p>",13,,,,,,,,
html-keyboard-response,657,2628413,2182.2900000261143,"<div style=""font-size:48px;"">Press any key to begin list 11 of 24 </div>",32,,,,,,,,
html-keyboard-response,658,2630916,null,"<div style=""font-size:60px;"">+</div>",null,,,,,,,,
html-keyboard-response,659,2631375,456.9300000439398,"SNACK<img id = ""stim"" ><div class = green_square id = ""topsquare"" ></div><img id = ""stim"" ><div class = green_square  id = ""bottomsquare"" ></div>",32,word_square,,1,,,,,SPACEBAR
html-keyboard-response,660,2632879,null,"SNACK",null,word,,,,, 'SNACK',,
html-keyboard-response,661,2633381,null,"LETTUCE<img id = ""stim"" ><div class = red_square id = ""topsquare"" ></div><img id = ""stim"" ><div class = red_square  id = ""bottomsquare"" ></div>",null,word_square,,0,,,,,SPACEBAR
html-keyboard-response,662,2634885,null,"LETTUCE",null,word,,,,, 'LETTUCE',,
html-keyboard-response,663,2635388,null,"AIRPLANE<img id = ""stim"" ><div class = red_square id = ""topsquare"" ></div><img id = ""stim"" ><div class = red_square  id = ""bottomsquare"" ></div>",null,word_square,,0,,,,,SPACEBAR
html-keyboard-response,664,2636891,null,"AIRPLANE",null,word,,,,, 'AIRPLANE',,
html-keyboard-response,665,2637384,491.26500001875684,"MARSH<img id = ""stim"" ><div class = green_square id = ""topsquare"" ></div><img id = ""stim"" ><div class = green_square  id = ""bottomsquare"" ></div>",32,word_square,,1,,,,,SPACEBAR
html-keyboard-response,666,2638888,null,"MARSH",null,word,,,,, 'MARSH',,
html-keyboard-response,667,2639392,null,"BACKBONE<img id = ""stim"" ><div class = red_square id = ""topsquare"" ></div><img id = ""stim"" ><div class = red_square  id = ""bottomsquare"" ></div>",null,word_square,,0,,,,,SPACEBAR
html-keyboard-response,668,2640895,null,"BACKBONE",null,word,,,,, 'BACKBONE',,
html-keyboard-response,669,2641399,null,"CLAM<img id = ""stim"" ><div class = green_square id = ""topsquare"" ></div><img id = ""stim"" ><div class = green_square  id = ""bottomsquare"" ></div>",null,word_square,,1,,,,,SPACEBAR
html-keyboard-response,670,2642902,null,"CLAM",null,word,,,,, 'CLAM',,
html-keyboard-response,671,2643405,null,"OYSTER<img id = ""stim"" ><div class = green_square id = ""topsquare"" ></div><img id = ""stim"" ><div class = green_square  id = ""bottomsquare"" ></div>",null,word_square,,1,,,,,SPACEBAR
html-keyboard-response,672,2644909,null,"OYSTER",null,word,,,,, 'OYSTER',,
html-keyboard-response,673,2645411,null,"SEAL<img id = ""stim"" ><div class = red_square id = ""topsquare"" ></div><img id = ""stim"" ><div class = red_square  id = ""bottomsquare"" ></div>",null,word_square,,0,,,,,SPACEBAR
html-keyboard-response,674,2646914,null,"SEAL",null,word,,,,, 'SEAL',,
html-keyboard-response,675,2647354,438.1099999882281,"FIREMAN<img id = ""stim"" ><div class = green_square id = ""topsquare"" ></div><img id = ""stim"" ><div class = green_square  id = ""bottomsquare"" ></div>",32,word_square,,1,,,,,SPACEBAR
html-keyboard-response,676,2648856,null,"FIREMAN",null,word,,,,, 'FIREMAN',,
html-keyboard-response,677,2649351,493.51000000024214,"LAVA<img id = ""stim"" ><div class = green_square id = ""topsquare"" ></div><img id = ""stim"" ><div class = green_square  id = ""bottomsquare"" ></div>",32,word_square,,1,,,,,SPACEBAR
html-keyboard-response,678,2650854,null,"LAVA",null,word,,,,, 'LAVA',,
html-keyboard-response,679,2651357,null,"MONKEY<img id = ""stim"" ><div class = red_square id = ""topsquare"" ></div><img id = ""stim"" ><div class = red_square  id = ""bottomsquare"" ></div>",null,word_square,,0,,,,,SPACEBAR
html-keyboard-response,680,2652859,null,"MONKEY",null,word,,,,, 'MONKEY',,
html-keyboard-response,681,2653329,467.00499998405576,"PUDDLE<img id = ""stim"" ><div class = green_square id = ""topsquare"" ></div><img id = ""stim"" ><div class = green_square  id = ""bottomsquare"" ></div>",32,word_square,,1,,,,,SPACEBAR
html-keyboard-response,682,2654831,null,"PUDDLE",null,word,,,,, 'PUDDLE',,
html-keyboard-response,683,2655333,null,"XEROX<img id = ""stim"" ><div class = red_square id = ""topsquare"" ></div><img id = ""stim"" ><div class = red_square  id = ""bottomsquare"" ></div>",null,word_square,,0,,,,,SPACEBAR
html-keyboard-response,684,2656836,null,"XEROX",null,word,,,,, 'XEROX',,
html-keyboard-response,685,2657258,420.39500002283603,"MACHINE<img id = ""stim"" ><div class = green_square id = ""topsquare"" ></div><img id = ""stim"" ><div class = green_square  id = ""bottomsquare"" ></div>",32,word_square,,1,,,,,SPACEBAR
html-keyboard-response,686,2658761,null,"MACHINE",null,word,,,,, 'MACHINE',,
html-keyboard-response,687,2659263,null,"WAIST<img id = ""stim"" ><div class = green_square id = ""topsquare"" ></div><img id = ""stim"" ><div class = green_square  id = ""bottomsquare"" ></div>",null,word_square,,1,,,,,SPACEBAR
html-keyboard-response,688,2660766,null,"WAIST",null,word,,,,, 'WAIST',,
html-keyboard-response,689,2661269,null,"MARROW<img id = ""stim"" ><div class = red_square id = ""topsquare"" ></div><img id = ""stim"" ><div class = red_square  id = ""bottomsquare"" ></div>",null,word_square,,0,,,,,SPACEBAR
html-keyboard-response,690,2662772,null,"MARROW",null,word,,,,, 'MARROW',,
html-keyboard-response,691,2663274,null,"INMATE<img id = ""stim"" ><div class = red_square id = ""topsquare"" ></div><img id = ""stim"" ><div class = red_square  id = ""bottomsquare"" ></div>",null,word_square,,0,,,,,SPACEBAR
html-keyboard-response,692,2664777,null,"INMATE",null,word,,,,, 'INMATE',,
html-keyboard-response,693,2665280,null,"BLOSSOM<img id = ""stim"" ><div class = red_square id = ""topsquare"" ></div><img id = ""stim"" ><div class = red_square  id = ""bottomsquare"" ></div>",null,word_square,,0,,,,,SPACEBAR
html-keyboard-response,694,2666784,null,"BLOSSOM",null,word,,,,, 'BLOSSOM',,
survey-text,695,2671653,4864.799999981187,"",,,,,,,,{"Q0":"1"},
survey-text,696,2674642,2982.570000051055,"",,,,,,,,{"Q0":"3"},
survey-text,697,2676521,1873.1700000353158,"",,,,,,,,{"Q0":"4"},
survey-text,698,2679239,2711.905000032857,"",,,,,,,,{"Q0":"0"},
survey-text,699,2682302,3056.8099999800324,"",,,,,,,,{"Q0":"4"},
survey-text,700,2684689,2381.935000012163,"",,,,,,,,{"Q0":"0"},
survey-text,701,2688643,3947.7499999920838,"",,,,,,,,{"Q0":"1"},
survey-text,702,2689850,1200.215000018943,"",,,,,,,,{"Q0":"2"},
survey-text,703,2690962,1106.4800000167452,"",,,,,,,,{"Q0":"3"},
survey-text,704,2693366,2397.5349999964237,"",,,,,,,,{"Q0":"snack"},
survey-text,705,2694890,1519.609999959357,"",,,,,,,,{"Q0":"marsh"},
survey-text,706,2703981,9085.885000007693,"",,,,,,,,{"Q0":"fireman"},
survey-text,707,2705065,1077.0999999949709,"",,,,,,,,{"Q0":"lava"},
survey-text,708,2794772,89700.24999999441,"",,,,,,,,{"Q0":"idk"},
html-keyboard-response,709,2796809,2034.369999950286,"<p> Uh oh. You responded correctly on 78% of the GREEN squares.</p>
                  <p>We need you keep your accuracy above 80%</p>
                  <p>Press any key to continue the experiment. Thank you!</p>",13,,,,,,,,
html-keyboard-response,710,2797968,1156.8199999746867,"<div style=""font-size:48px;"">Press any key to begin list 12 of 24 </div>",32,,,,,,,,
html-keyboard-response,711,2800473,null,"<div style=""font-size:60px;"">+</div>",null,,,,,,,,
html-keyboard-response,712,2800852,376.28999998560175,"ARMY<img id = ""stim"" ><div class = green_square id = ""topsquare"" ></div><img id = ""stim"" ><div class = green_square  id = ""bottomsquare"" ></div>",32,word_square,,1,,,,,SPACEBAR
html-keyboard-response,713,2802355,null,"ARMY",null,word,,,,, 'ARMY',,
html-keyboard-response,714,2802859,null,"NOMAD<img id = ""stim"" ><div class = red_square id = ""topsquare"" ></div><img id = ""stim"" ><div class = red_square  id = ""bottomsquare"" ></div>",null,word_square,,0,,,,,SPACEBAR
html-keyboard-response,715,2804361,null,"NOMAD",null,word,,,,, 'NOMAD',,
html-keyboard-response,716,2804866,null,"TOOTHBRUSH<img id = ""stim"" ><div class = red_square id = ""topsquare"" ></div><img id = ""stim"" ><div class = red_square  id = ""bottomsquare"" ></div>",null,word_square,,0,,,,,SPACEBAR
html-keyboard-response,717,2806369,null,"TOOTHBRUSH",null,word,,,,, 'TOOTHBRUSH',,
html-keyboard-response,718,2806872,null,"CROSS<img id = ""stim"" ><div class = green_square id = ""topsquare"" ></div><img id = ""stim"" ><div class = green_square  id = ""bottomsquare"" ></div>",null,word_square,,1,,,,,SPACEBAR
html-keyboard-response,719,2808375,null,"CROSS",null,word,,,,, 'CROSS',,
html-keyboard-response,720,2808878,null,"FLEET<img id = ""stim"" ><div class = red_square id = ""topsquare"" ></div><img id = ""stim"" ><div class = red_square  id = ""bottomsquare"" ></div>",null,word_square,,0,,,,,SPACEBAR
html-keyboard-response,721,2810381,null,"FLEET",null,word,,,,, 'FLEET',,
html-keyboard-response,722,2810885,null,"BATHROOM<img id = ""stim"" ><div class = green_square id = ""topsquare"" ></div><img id = ""stim"" ><div class = green_square  id = ""bottomsquare"" ></div>",null,word_square,,1,,,,,SPACEBAR
html-keyboard-response,723,2812387,null,"BATHROOM",null,word,,,,, 'BATHROOM',,
html-keyboard-response,724,2812890,null,"COD<img id = ""stim"" ><div class = green_square id = ""topsquare"" ></div><img id = ""stim"" ><div class = green_square  id = ""bottomsquare"" ></div>",null,word_square,,1,,,,,SPACEBAR
html-keyboard-response,725,2814393,null,"COD",null,word,,,,, 'COD',,
html-keyboard-response,726,2814896,null,"SIDEWALK<img id = ""stim"" ><div class = red_square id = ""topsquare"" ></div><img id = ""stim"" ><div class = red_square  id = ""bottomsquare"" ></div>",null,word_square,,0,,,,,SPACEBAR
html-keyboard-response,727,2816399,null,"SIDEWALK",null,word,,,,, 'SIDEWALK',,
html-keyboard-response,728,2816902,null,"TRIBE<img id = ""stim"" ><div class = green_square id = ""topsquare"" ></div><img id = ""stim"" ><div class = green_square  id = ""bottomsquare"" ></div>",null,word_square,,1,,,,,SPACEBAR
html-keyboard-response,729,2818405,null,"TRIBE",null,word,,,,, 'TRIBE',,
html-keyboard-response,730,2818908,null,"SIRLOIN<img id = ""stim"" ><div class = green_square id = ""topsquare"" ></div><img id = ""stim"" ><div class = green_square  id = ""bottomsquare"" ></div>",null,word_square,,1,,,,,SPACEBAR
html-keyboard-response,731,2820411,null,"SIRLOIN",null,word,,,,, 'SIRLOIN',,
html-keyboard-response,732,2820914,null,"PONY<img id = ""stim"" ><div class = red_square id = ""topsquare"" ></div><img id = ""stim"" ><div class = red_square  id = ""bottomsquare"" ></div>",null,word_square,,0,,,,,SPACEBAR
html-keyboard-response,733,2822417,null,"PONY",null,word,,,,, 'PONY',,
html-keyboard-response,734,2822812,393.9949999912642,"BASEBALL<img id = ""stim"" ><div class = green_square id = ""topsquare"" ></div><img id = ""stim"" ><div class = green_square  id = ""bottomsquare"" ></div>",32,word_square,,1,,,,,SPACEBAR
html-keyboard-response,735,2824315,null,"BASEBALL",null,word,,,,, 'BASEBALL',,
html-keyboard-response,736,2824819,null,"CANYON<img id = ""stim"" ><div class = red_square id = ""topsquare"" ></div><img id = ""stim"" ><div class = red_square  id = ""bottomsquare"" ></div>",null,word_square,,0,,,,,SPACEBAR
html-keyboard-response,737,2826322,null,"CANYON",null,word,,,,, 'CANYON',,
html-keyboard-response,738,2826772,447.35999999102205,"MAILBOX<img id = ""stim"" ><div class = green_square id = ""topsquare"" ></div><img id = ""stim"" ><div class = green_square  id = ""bottomsquare"" ></div>",32,word_square,,1,,,,,SPACEBAR
html-keyboard-response,739,2828275,null,"MAILBOX",null,word,,,,, 'MAILBOX',,
html-keyboard-response,740,2828693,416.29500000271946,"MESSAGE<img id = ""stim"" ><div class = green_square id = ""topsquare"" ></div><img id = ""stim"" ><div class = green_square  id = ""bottomsquare"" ></div>",32,word_square,,1,,,,,SPACEBAR
html-keyboard-response,741,2830196,null,"MESSAGE",null,word,,,,, 'MESSAGE',,
html-keyboard-response,742,2830700,null,"HATCHET<img id = ""stim"" ><div class = red_square id = ""topsquare"" ></div><img id = ""stim"" ><div class = red_square  id = ""bottomsquare"" ></div>",null,word_square,,0,,,,,SPACEBAR
html-keyboard-response,743,2832202,null,"HATCHET",null,word,,,,, 'HATCHET',,
html-keyboard-response,744,2832705,null,"SALAD<img id = ""stim"" ><div class = red_square id = ""topsquare"" ></div><img id = ""stim"" ><div class = red_square  id = ""bottomsquare"" ></div>",null,word_square,,0,,,,,SPACEBAR
html-keyboard-response,745,2834208,null,"SALAD",null,word,,,,, 'SALAD',,
html-keyboard-response,746,2834548,338.37499999208376,"LEMON<img id = ""stim"" ><div class = red_square id = ""topsquare"" ></div><img id = ""stim"" ><div class = red_square  id = ""bottomsquare"" ></div>",32,word_square,,0,,,,,SPACEBAR
html-keyboard-response,747,2836051,null,"LEMON",null,word,,,,, 'LEMON',,
survey-text,748,2842163,6106.4100000076,"",,,,,,,,{"Q0":"1"},
survey-text,749,2843953,1784.3649999704212,"",,,,,,,,{"Q0":"3"},
survey-text,750,2846006,2046.7049999861047,"",,,,,,,,{"Q0":"1"},
survey-text,751,2847840,1828.5000000032596,"",,,,,,,,{"Q0":"4"},
survey-text,752,2849005,1158.1700000097044,"",,,,,,,,{"Q0":"2"},
survey-text,753,2850886,1874.7600000351667,"",,,,,,,,{"Q0":"1"},
survey-text,754,2853295,2403.279999969527,"",,,,,,,,{"Q0":"0"},
survey-text,755,2855906,2604.0049999719486,"",,,,,,,,{"Q0":"2"},
survey-text,756,2857446,1534.2250000103377,"",,,,,,,,{"Q0":"5"},
survey-text,757,2859425,1972.6749999681488,"",,,,,,,,{"Q0":"0"},
survey-text,758,2863397,3967.8299999795854,"",,,,,,,,{"Q0":"5"},
survey-text,759,2866405,3001.044999982696,"",,,,,,,,{"Q0":"army"},
survey-text,760,2872746,6334.434999967925,"",,,,,,,,{"Q0":"bathroom"},
survey-text,761,2873919,1167.864999966696,"",,,,,,,,{"Q0":"cod"},
survey-text,762,2875743,1817.2299999860115,"",,,,,,,,{"Q0":"tribe"},
survey-text,763,2919394,43644.97000002302,"",,,,,,,,{"Q0":"cross"},
survey-text,764,2930944,11543.204999994487,"",,,,,,,,{"Q0":"sirloin"},
survey-text,765,2962015,31064.67499997234,"",,,,,,,,{"Q0":"ldk"},
html-keyboard-response,766,2968054,6037.445000023581,"<p> Uh oh. You responded correctly on 78% of the GREEN squares.</p>
                  <p>We need you keep your accuracy above 80%</p>
                  <p>Press any key to continue the experiment. Thank you!</p>",32,,,,,,,,
html-keyboard-response,767,2972382,4326.765000005253,"<div style=""font-size:48px;"">Press any key to begin list 13 of 24 </div>",32,,,,,,,,
html-keyboard-response,768,2974885,null,"<div style=""font-size:60px;"">+</div>",null,,,,,,,,
html-keyboard-response,769,2975388,null,"POISON<img id = ""stim"" ><div class = red_square id = ""topsquare"" ></div><img id = ""stim"" ><div class = red_square  id = ""bottomsquare"" ></div>",null,word_square,,0,,,,,SPACEBAR
html-keyboard-response,770,2976891,null,"POISON",null,word,,,,, 'POISON',,
html-keyboard-response,771,2977394,null,"DESSERT<img id = ""stim"" ><div class = green_square id = ""topsquare"" ></div><img id = ""stim"" ><div class = green_square  id = ""bottomsquare"" ></div>",null,word_square,,1,,,,,SPACEBAR
html-keyboard-response,772,2978898,null,"DESSERT",null,word,,,,, 'DESSERT',,
html-keyboard-response,773,2979401,null,"LEADER<img id = ""stim"" ><div class = red_square id = ""topsquare"" ></div><img id = ""stim"" ><div class = red_square  id = ""bottomsquare"" ></div>",null,word_square,,0,,,,,SPACEBAR
html-keyboard-response,774,2980904,null,"LEADER",null,word,,,,, 'LEADER',,
html-keyboard-response,775,2981407,null,"MUSHROOM<img id = ""stim"" ><div class = red_square id = ""topsquare"" ></div><img id = ""stim"" ><div class = red_square  id = ""bottomsquare"" ></div>",null,word_square,,0,,,,,SPACEBAR
html-keyboard-response,776,2982910,null,"MUSHROOM",null,word,,,,, 'MUSHROOM',,
html-keyboard-response,777,2983414,null,"SARDINE<img id = ""stim"" ><div class = green_square id = ""topsquare"" ></div><img id = ""stim"" ><div class = green_square  id = ""bottomsquare"" ></div>",null,word_square,,1,,,,,SPACEBAR
html-keyboard-response,778,2984917,null,"SARDINE",null,word,,,,, 'SARDINE',,
html-keyboard-response,779,2985419,null,"GLOVE<img id = ""stim"" ><div class = green_square id = ""topsquare"" ></div><img id = ""stim"" ><div class = green_square  id = ""bottomsquare"" ></div>",null,word_square,,1,,,,,SPACEBAR
html-keyboard-response,780,2986924,null,"GLOVE",null,word,,,,, 'GLOVE',,
html-keyboard-response,781,2987427,null,"BAKER<img id = ""stim"" ><div class = green_square id = ""topsquare"" ></div><img id = ""stim"" ><div class = green_square  id = ""bottomsquare"" ></div>",null,word_square,,1,,,,,SPACEBAR
html-keyboard-response,782,2988929,null,"BAKER",null,word,,,,, 'BAKER',,
html-keyboard-response,783,2989432,null,"BELLY<img id = ""stim"" ><div class = red_square id = ""topsquare"" ></div><img id = ""stim"" ><div class = red_square  id = ""bottomsquare"" ></div>",null,word_square,,0,,,,,SPACEBAR
html-keyboard-response,784,2990935,null,"BELLY",null,word,,,,, 'BELLY',,
html-keyboard-response,785,2991437,null,"LUGGAGE<img id = ""stim"" ><div class = red_square id = ""topsquare"" ></div><img id = ""stim"" ><div class = red_square  id = ""bottomsquare"" ></div>",null,word_square,,0,,,,,SPACEBAR
html-keyboard-response,786,2992941,null,"LUGGAGE",null,word,,,,, 'LUGGAGE',,
html-keyboard-response,787,2993400,455.8800000231713,"TROUSERS<img id = ""stim"" ><div class = green_square id = ""topsquare"" ></div><img id = ""stim"" ><div class = green_square  id = ""bottomsquare"" ></div>",32,word_square,,1,,,,,SPACEBAR
html-keyboard-response,788,2994902,null,"TROUSERS",null,word,,,,, 'TROUSERS',,
html-keyboard-response,789,2995405,null,"SLACKS<img id = ""stim"" ><div class = red_square id = ""topsquare"" ></div><img id = ""stim"" ><div class = red_square  id = ""bottomsquare"" ></div>",null,word_square,,0,,,,,SPACEBAR
