trial_type,trial_index,time_elapsed,rt,stimulus,key_press,test_part,task,targ_cond,correctKeyCode,correct,word,value,response
pavlovia,0,1053,,"",,,,,,,,,
external-html,1,54174,52998.00000000001,"",,,,,,,,,
html-keyboard-response,2,57301,3121.0000000000073,"Welcome to the experiment. Press any key to begin.",70,,,,,,,,
html-keyboard-response,3,70731,13427,"<p>You will see a list of words and colored squares in the following task.<p><p>Press the spacebar whenever you see a GREEN square.<p><p>Do not press a key if the square is RED<p><p>Press the spacebar to continue.</p>",32,,,,,,,,
html-keyboard-response,4,82576,11341,"<p>Please try to remember as many of the words as you can, and try to think about the meaning of each word as it appears.<p><p>After the detection and encoding task you will be asked to solve some math problems for 24 seconds.<p> Please solve as many problems as you can in the time given. <p>",32,,,,,,,,
html-keyboard-response,5,94769,11689.000000000015,"After solving the math problems, you will be asked to type in as many words <p>from the previous list as you can remember for 75 seconds.<p> If you finish recalling before the 75 seconds are up,<p> just sit tight and try to think of any more words you could have missed. <p><p>We will begin with a brief practice session<p>Press the spacebar to begin the practice.</p>",32,,,,,,,,
html-keyboard-response,6,97275,null,"<div style=""font-size:60px;"">+</div>",null,,,,,,,,
html-keyboard-response,7,97779,null,"HAPPY<img id = ""stim"" ><div class = red_square id = ""topsquare"" ></div><img id = ""stim"" ><div class = red_square  id = ""bottomsquare"" ></div>",null,word_square,prac_response,0,none,true,,,
html-keyboard-response,8,99283,null,"HAPPY",null,word,,,,,HAPPY,,
html-keyboard-response,9,99787,null,"COLD<img id = ""stim"" ><div class = green_square id = ""topsquare"" ></div><img id = ""stim"" ><div class = green_square  id = ""bottomsquare"" ></div>",null,word_square,prac_response,1,Space,false,,,
html-keyboard-response,10,101291,null,"COLD",null,word,,,,,COLD,,
html-keyboard-response,11,101795,451.00000000001455,"HEAVY<img id = ""stim"" ><div class = green_square id = ""topsquare"" ></div><img id = ""stim"" ><div class = green_square  id = ""bottomsquare"" ></div>",32,word_square,prac_response,1,Space,true,,,
html-keyboard-response,12,103298,null,"HEAVY",null,word,,,,,HEAVY,,
html-keyboard-response,13,103802,null,"FUNNY<img id = ""stim"" ><div class = red_square id = ""topsquare"" ></div><img id = ""stim"" ><div class = red_square  id = ""bottomsquare"" ></div>",null,word_square,prac_response,0,none,true,,,
html-keyboard-response,14,105306,null,"FUNNY",null,word,,,,,FUNNY,,
html-keyboard-response,15,105810,null,"SCARY<img id = ""stim"" ><div class = green_square id = ""topsquare"" ></div><img id = ""stim"" ><div class = green_square  id = ""bottomsquare"" ></div>",null,word_square,prac_response,1,Space,false,,,
html-keyboard-response,16,107314,null,"SCARY",null,word,,,,,SCARY,,
html-keyboard-response,17,107817,483,"PEACEFUL<img id = ""stim"" ><div class = green_square id = ""topsquare"" ></div><img id = ""stim"" ><div class = green_square  id = ""bottomsquare"" ></div>",32,word_square,prac_response,1,Space,true,,,
html-keyboard-response,18,109321,null,"PEACEFUL",null,word,,,,,PEACEFUL,,
html-keyboard-response,19,109825,null,"LITTLE<img id = ""stim"" ><div class = red_square id = ""topsquare"" ></div><img id = ""stim"" ><div class = red_square  id = ""bottomsquare"" ></div>",null,word_square,prac_response,0,none,true,,,
html-keyboard-response,20,111327,null,"LITTLE",null,word,,,,,LITTLE,,
html-keyboard-response,21,111829,null,"TIRED<img id = ""stim"" ><div class = red_square id = ""topsquare"" ></div><img id = ""stim"" ><div class = red_square  id = ""bottomsquare"" ></div>",null,word_square,prac_response,0,none,true,,,
html-keyboard-response,22,113332,null,"TIRED",null,word,,,,,TIRED,,
html-keyboard-response,23,113837,null,"ENTERTAINING<img id = ""stim"" ><div class = red_square id = ""topsquare"" ></div><img id = ""stim"" ><div class = red_square  id = ""bottomsquare"" ></div>",null,word_square,prac_response,0,none,true,,,
html-keyboard-response,24,115340,null,"ENTERTAINING",null,word,,,,,ENTERTAINING,,
html-keyboard-response,25,115844,null,"GRATEFUL<img id = ""stim"" ><div class = green_square id = ""topsquare"" ></div><img id = ""stim"" ><div class = green_square  id = ""bottomsquare"" ></div>",null,word_square,prac_response,1,Space,false,,,
html-keyboard-response,26,117348,null,"GRATEFUL",null,word,,,,,GRATEFUL,,
html-keyboard-response,27,117852,null,"LOUD<img id = ""stim"" ><div class = red_square id = ""topsquare"" ></div><img id = ""stim"" ><div class = red_square  id = ""bottomsquare"" ></div>",null,word_square,prac_response,0,none,true,,,
html-keyboard-response,28,119356,null,"LOUD",null,word,,,,,LOUD,,
html-keyboard-response,29,119860,null,"SMART<img id = ""stim"" ><div class = green_square id = ""topsquare"" ></div><img id = ""stim"" ><div class = green_square  id = ""bottomsquare"" ></div>",null,word_square,prac_response,1,Space,false,,,
html-keyboard-response,30,121364,null,"SMART",null,word,,,,,SMART,,
html-keyboard-response,31,121867,null,"SMOOTH<img id = ""stim"" ><div class = green_square id = ""topsquare"" ></div><img id = ""stim"" ><div class = green_square  id = ""bottomsquare"" ></div>",null,word_square,prac_response,1,Space,false,,,
html-keyboard-response,32,123371,null,"SMOOTH",null,word,,,,,SMOOTH,,
html-keyboard-response,33,123875,null,"DISHONEST<img id = ""stim"" ><div class = red_square id = ""topsquare"" ></div><img id = ""stim"" ><div class = red_square  id = ""bottomsquare"" ></div>",null,word_square,prac_response,0,none,true,,,
html-keyboard-response,34,125379,null,"DISHONEST",null,word,,,,,DISHONEST,,
html-keyboard-response,35,125883,null,"WEALTHY<img id = ""stim"" ><div class = green_square id = ""topsquare"" ></div><img id = ""stim"" ><div class = green_square  id = ""bottomsquare"" ></div>",null,word_square,prac_response,1,Space,false,,,
html-keyboard-response,36,127386,null,"WEALTHY",null,word,,,,,WEALTHY,,
html-keyboard-response,37,127890,null,"BEAUTIFUL<img id = ""stim"" ><div class = red_square id = ""topsquare"" ></div><img id = ""stim"" ><div class = red_square  id = ""bottomsquare"" ></div>",null,word_square,prac_response,0,none,true,,,
html-keyboard-response,38,129393,null,"BEAUTIFUL",null,word,,,,,BEAUTIFUL,,
html-keyboard-response,39,129897,null,"DREARY<img id = ""stim"" ><div class = red_square id = ""topsquare"" ></div><img id = ""stim"" ><div class = red_square  id = ""bottomsquare"" ></div>",null,word_square,prac_response,0,none,true,,,
html-keyboard-response,40,131401,null,"DREARY",null,word,,,,,DREARY,,
html-keyboard-response,41,131905,460,"PLAYFUL<img id = ""stim"" ><div class = green_square id = ""topsquare"" ></div><img id = ""stim"" ><div class = green_square  id = ""bottomsquare"" ></div>",32,word_square,prac_response,1,Space,true,,,
html-keyboard-response,42,133409,null,"PLAYFUL",null,word,,,,,PLAYFUL,,
html-keyboard-response,43,138784,5371,"<p> Uh oh. You responded correctly on 67% of the GREEN squares.</p>
                  <p>We need you keep your accuracy above 80%</p>
                  <p>We're going to try once more to make sure you understand the task. press any key to continue.</p>",32,,,,,,,,
html-keyboard-response,44,153614,14828,"<p>You will see a list of words and colored squares in the following task.<p><p>Press the spacebar whenever you see a GREEN square.<p><p>Do not press a key if the square is RED<p><p>Press the spacebar to continue.</p>",32,,,,,,,,
html-keyboard-response,45,156118,null,"<div style=""font-size:60px;"">+</div>",null,,,,,,,,
html-keyboard-response,46,156622,null,"HAPPY<img id = ""stim"" ><div class = red_square id = ""topsquare"" ></div><img id = ""stim"" ><div class = red_square  id = ""bottomsquare"" ></div>",null,word_square,response,0,none,true,,,
html-keyboard-response,47,158126,null,"HAPPY",null,word,,,,,HAPPY,,
html-keyboard-response,48,158630,null,"COLD<img id = ""stim"" ><div class = green_square id = ""topsquare"" ></div><img id = ""stim"" ><div class = green_square  id = ""bottomsquare"" ></div>",null,word_square,response,1,Space,false,,,
html-keyboard-response,49,160134,null,"COLD",null,word,,,,,COLD,,
html-keyboard-response,50,160487,351,"HEAVY<img id = ""stim"" ><div class = green_square id = ""topsquare"" ></div><img id = ""stim"" ><div class = green_square  id = ""bottomsquare"" ></div>",32,word_square,response,1,Space,true,,,
html-keyboard-response,51,161990,null,"HEAVY",null,word,,,,,HEAVY,,
html-keyboard-response,52,162494,null,"FUNNY<img id = ""stim"" ><div class = red_square id = ""topsquare"" ></div><img id = ""stim"" ><div class = red_square  id = ""bottomsquare"" ></div>",null,word_square,response,0,none,true,,,
html-keyboard-response,53,163998,null,"FUNNY",null,word,,,,,FUNNY,,
html-keyboard-response,54,164502,null,"SCARY<img id = ""stim"" ><div class = green_square id = ""topsquare"" ></div><img id = ""stim"" ><div class = green_square  id = ""bottomsquare"" ></div>",null,word_square,response,1,Space,false,,,
html-keyboard-response,55,166005,null,"SCARY",null,word,,,,,SCARY,,
html-keyboard-response,56,166385,377,"PEACEFUL<img id = ""stim"" ><div class = green_square id = ""topsquare"" ></div><img id = ""stim"" ><div class = green_square  id = ""bottomsquare"" ></div>",32,word_square,response,1,Space,true,,,
html-keyboard-response,57,167889,null,"PEACEFUL",null,word,,,,,PEACEFUL,,
html-keyboard-response,58,168392,null,"LITTLE<img id = ""stim"" ><div class = red_square id = ""topsquare"" ></div><img id = ""stim"" ><div class = red_square  id = ""bottomsquare"" ></div>",null,word_square,response,0,none,true,,,
html-keyboard-response,59,169896,null,"LITTLE",null,word,,,,,LITTLE,,
html-keyboard-response,60,170399,null,"TIRED<img id = ""stim"" ><div class = red_square id = ""topsquare"" ></div><img id = ""stim"" ><div class = red_square  id = ""bottomsquare"" ></div>",null,word_square,response,0,none,true,,,
html-keyboard-response,61,171902,null,"TIRED",null,word,,,,,TIRED,,
html-keyboard-response,62,172404,null,"ENTERTAINING<img id = ""stim"" ><div class = red_square id = ""topsquare"" ></div><img id = ""stim"" ><div class = red_square  id = ""bottomsquare"" ></div>",null,word_square,response,0,none,true,,,
html-keyboard-response,63,173908,null,"ENTERTAINING",null,word,,,,,ENTERTAINING,,
html-keyboard-response,64,174217,307,"GRATEFUL<img id = ""stim"" ><div class = green_square id = ""topsquare"" ></div><img id = ""stim"" ><div class = green_square  id = ""bottomsquare"" ></div>",32,word_square,response,1,Space,true,,,
html-keyboard-response,65,175721,null,"GRATEFUL",null,word,,,,,GRATEFUL,,
html-keyboard-response,66,176224,null,"LOUD<img id = ""stim"" ><div class = red_square id = ""topsquare"" ></div><img id = ""stim"" ><div class = red_square  id = ""bottomsquare"" ></div>",null,word_square,response,0,none,true,,,
html-keyboard-response,67,177727,null,"LOUD",null,word,,,,,LOUD,,
html-keyboard-response,68,178056,327,"SMART<img id = ""stim"" ><div class = green_square id = ""topsquare"" ></div><img id = ""stim"" ><div class = green_square  id = ""bottomsquare"" ></div>",32,word_square,response,1,Space,true,,,
html-keyboard-response,69,179560,null,"SMART",null,word,,,,,SMART,,
html-keyboard-response,70,179895,333,"SMOOTH<img id = ""stim"" ><div class = green_square id = ""topsquare"" ></div><img id = ""stim"" ><div class = green_square  id = ""bottomsquare"" ></div>",32,word_square,response,1,Space,true,,,
html-keyboard-response,71,181399,null,"SMOOTH",null,word,,,,,SMOOTH,,
html-keyboard-response,72,181901,null,"DISHONEST<img id = ""stim"" ><div class = red_square id = ""topsquare"" ></div><img id = ""stim"" ><div class = red_square  id = ""bottomsquare"" ></div>",null,word_square,response,0,none,true,,,
html-keyboard-response,73,183405,null,"DISHONEST",null,word,,,,,DISHONEST,,
html-keyboard-response,74,183810,403,"WEALTHY<img id = ""stim"" ><div class = green_square id = ""topsquare"" ></div><img id = ""stim"" ><div class = green_square  id = ""bottomsquare"" ></div>",32,word_square,response,1,Space,true,,,
html-keyboard-response,75,185314,null,"WEALTHY",null,word,,,,,WEALTHY,,
html-keyboard-response,76,185818,null,"BEAUTIFUL<img id = ""stim"" ><div class = red_square id = ""topsquare"" ></div><img id = ""stim"" ><div class = red_square  id = ""bottomsquare"" ></div>",null,word_square,response,0,none,true,,,
html-keyboard-response,77,187322,null,"BEAUTIFUL",null,word,,,,,BEAUTIFUL,,
html-keyboard-response,78,187825,null,"DREARY<img id = ""stim"" ><div class = red_square id = ""topsquare"" ></div><img id = ""stim"" ><div class = red_square  id = ""bottomsquare"" ></div>",null,word_square,response,0,none,true,,,
html-keyboard-response,79,189329,null,"DREARY",null,word,,,,,DREARY,,
html-keyboard-response,80,189695,365,"PLAYFUL<img id = ""stim"" ><div class = green_square id = ""topsquare"" ></div><img id = ""stim"" ><div class = green_square  id = ""bottomsquare"" ></div>",32,word_square,response,1,Space,true,,,
html-keyboard-response,81,191199,null,"PLAYFUL",null,word,,,,,PLAYFUL,,
html-keyboard-response,82,198576,7373.999999999971,"<p> Good job! You responded correctly to 89% of the GREEN squares.</p>
                  <p>Be sure to keep your accuracy above 80%</p>
                  <p>Press any key to begin the math and recall sections. Thank you!</p>",32,,,,,,,,
call-function,83,198577,,"",,,,,,,,,
html-keyboard-response,84,198680,null,"",null,,,,,,,,
math-period,85,203215,8856,"",,,,,,,,,2
html-keyboard-response,86,203318,null,"",null,,,,,,,,
math-period,87,205246,3637.999999999942,"",,,,,,,,,4
html-keyboard-response,88,205349,null,"",null,,,,,,,,
math-period,89,207543,4216,"",,,,,,,,,0
html-keyboard-response,90,207644,null,"",null,,,,,,,,
math-period,91,209495,3546,"",,,,,,,,,3
html-keyboard-response,92,209597,null,"",null,,,,,,,,
math-period,93,211614,3904.000000000029,"",,,,,,,,,4
html-keyboard-response,94,211717,null,"",null,,,,,,,,
math-period,95,213407,3224.999999999942,"",,,,,,,,,2
html-keyboard-response,96,213509,null,"",null,,,,,,,,
math-period,97,215903,4614,"",,,,,,,,,2
html-keyboard-response,98,216005,null,"",null,,,,,,,,
math-period,99,217759,3312,"",,,,,,,,,1
html-keyboard-response,100,217861,null,"",null,,,,,,,,
math-period,101,220015,4152,"",,,,,,,,,0
html-keyboard-response,102,220117,null,"",null,,,,,,,,
math-period,103,221479,2598,"",,,,,,,,,4
html-keyboard-response,104,221581,null,"",null,,,,,,,,
math-period,105,222579,927.0000000000291,"",,,,,,,,,4
html-keyboard-response,106,223584,null,"Recall Period!",null,,,,,,,,
call-function,107,223585,,"",,,,,,,,,
html-keyboard-response,108,223687,null,"",null,,,,,,,,
recall-period,109,231152,61383.00000000006,"",,,,,,,,,little
html-keyboard-response,110,231255,null,"",null,,,,,,,,
recall-period,111,234040,12524,"",,,,,,,,,happy
html-keyboard-response,112,234142,null,"",null,,,,,,,,
recall-period,113,298585,64621,"",,,,,,,,,
html-keyboard-response,114,299089,null,"Time's Up!",null,,,,,,,,
html-keyboard-response,115,306802,7709.999999999942,"<p>We will now begin the experiment!<p><p>Please try to remember all words from each list.<p><p>Press the spacebar whenever you see a GREEN square.<p><p><p><p>Press the spacebar to begin.</p>",32,,,,,,,,
html-keyboard-response,116,310016,2711,"<div style=""font-size:48px;"">Press any key to begin list 1 of 24 </div>",32,,,,,,,,
html-keyboard-response,117,312520,null,"<div style=""font-size:60px;"">+</div>",null,,,,,,,,
html-keyboard-response,118,313024,null,"VICTOR<img id = ""stim"" ><div class = red_square id = ""topsquare"" ></div><img id = ""stim"" ><div class = red_square  id = ""bottomsquare"" ></div>",null,word_square,response,0,none,true,,,
html-keyboard-response,119,314528,null,"VICTOR",null,word,,,,, 'VICTOR',,
html-keyboard-response,120,315032,null,"CACTUS<img id = ""stim"" ><div class = red_square id = ""topsquare"" ></div><img id = ""stim"" ><div class = red_square  id = ""bottomsquare"" ></div>",null,word_square,response,0,none,true,,,
html-keyboard-response,121,316535,null,"CACTUS",null,word,,,,, 'CACTUS',,
html-keyboard-response,122,316881,342.9999999999418,"FLASHLIGHT<img id = ""stim"" ><div class = green_square id = ""topsquare"" ></div><img id = ""stim"" ><div class = green_square  id = ""bottomsquare"" ></div>",32,word_square,response,1,Space,true,,,
html-keyboard-response,123,318385,null,"FLASHLIGHT",null,word,,,,, 'FLASHLIGHT',,
html-keyboard-response,124,318888,null,"BOXER<img id = ""stim"" ><div class = red_square id = ""topsquare"" ></div><img id = ""stim"" ><div class = red_square  id = ""bottomsquare"" ></div>",null,word_square,response,0,none,true,,,
html-keyboard-response,125,320392,null,"BOXER",null,word,,,,, 'BOXER',,
html-keyboard-response,126,320896,null,"AIRCRAFT<img id = ""stim"" ><div class = red_square id = ""topsquare"" ></div><img id = ""stim"" ><div class = red_square  id = ""bottomsquare"" ></div>",null,word_square,response,0,none,true,,,
html-keyboard-response,127,322400,null,"AIRCRAFT",null,word,,,,, 'AIRCRAFT',,
html-keyboard-response,128,322903,null,"FLASK<img id = ""stim"" ><div class = green_square id = ""topsquare"" ></div><img id = ""stim"" ><div class = green_square  id = ""bottomsquare"" ></div>",null,word_square,response,1,Space,false,,,
html-keyboard-response,129,324407,null,"FLASK",null,word,,,,, 'FLASK',,
html-keyboard-response,130,324911,null,"MARINE<img id = ""stim"" ><div class = green_square id = ""topsquare"" ></div><img id = ""stim"" ><div class = green_square  id = ""bottomsquare"" ></div>",null,word_square,response,1,Space,false,,,
html-keyboard-response,131,326415,null,"MARINE",null,word,,,,, 'MARINE',,
html-keyboard-response,132,326872,454,"BOUQUET<img id = ""stim"" ><div class = green_square id = ""topsquare"" ></div><img id = ""stim"" ><div class = green_square  id = ""bottomsquare"" ></div>",32,word_square,response,1,Space,true,,,
html-keyboard-response,133,328376,null,"BOUQUET",null,word,,,,, 'BOUQUET',,
html-keyboard-response,134,328879,null,"CHICKEN<img id = ""stim"" ><div class = red_square id = ""topsquare"" ></div><img id = ""stim"" ><div class = red_square  id = ""bottomsquare"" ></div>",null,word_square,response,0,none,true,,,
html-keyboard-response,135,330383,null,"CHICKEN",null,word,,,,, 'CHICKEN',,
html-keyboard-response,136,330808,422,"SHIRT<img id = ""stim"" ><div class = green_square id = ""topsquare"" ></div><img id = ""stim"" ><div class = green_square  id = ""bottomsquare"" ></div>",32,word_square,response,1,Space,true,,,
html-keyboard-response,137,332312,null,"SHIRT",null,word,,,,, 'SHIRT',,
html-keyboard-response,138,332816,null,"NEPHEW<img id = ""stim"" ><div class = red_square id = ""topsquare"" ></div><img id = ""stim"" ><div class = red_square  id = ""bottomsquare"" ></div>",null,word_square,response,0,none,true,,,
html-keyboard-response,139,334320,null,"NEPHEW",null,word,,,,, 'NEPHEW',,
html-keyboard-response,140,334687,365.0000000000582,"BLUEJAY<img id = ""stim"" ><div class = green_square id = ""topsquare"" ></div><img id = ""stim"" ><div class = green_square  id = ""bottomsquare"" ></div>",32,word_square,response,1,Space,true,,,
html-keyboard-response,141,336191,null,"BLUEJAY",null,word,,,,, 'BLUEJAY',,
html-keyboard-response,142,336624,430,"WRIST<img id = ""stim"" ><div class = green_square id = ""topsquare"" ></div><img id = ""stim"" ><div class = green_square  id = ""bottomsquare"" ></div>",32,word_square,response,1,Space,true,,,
html-keyboard-response,143,338128,null,"WRIST",null,word,,,,, 'WRIST',,
html-keyboard-response,144,338632,null,"LASER<img id = ""stim"" ><div class = red_square id = ""topsquare"" ></div><img id = ""stim"" ><div class = red_square  id = ""bottomsquare"" ></div>",null,word_square,response,0,none,true,,,
html-keyboard-response,145,340135,null,"LASER",null,word,,,,, 'LASER',,
html-keyboard-response,146,340600,462,"EGYPT<img id = ""stim"" ><div class = green_square id = ""topsquare"" ></div><img id = ""stim"" ><div class = green_square  id = ""bottomsquare"" ></div>",32,word_square,response,1,Space,true,,,
html-keyboard-response,147,342104,null,"EGYPT",null,word,,,,, 'EGYPT',,
html-keyboard-response,148,342608,null,"BACON<img id = ""stim"" ><div class = red_square id = ""topsquare"" ></div><img id = ""stim"" ><div class = red_square  id = ""bottomsquare"" ></div>",null,word_square,response,0,none,true,,,
html-keyboard-response,149,344110,null,"BACON",null,word,,,,, 'BACON',,
html-keyboard-response,150,344613,null,"DRESS<img id = ""stim"" ><div class = red_square id = ""topsquare"" ></div><img id = ""stim"" ><div class = red_square  id = ""bottomsquare"" ></div>",null,word_square,response,0,none,true,,,
html-keyboard-response,151,346117,null,"DRESS",null,word,,,,, 'DRESS',,
html-keyboard-response,152,346620,null,"NOTEBOOK<img id = ""stim"" ><div class = green_square id = ""topsquare"" ></div><img id = ""stim"" ><div class = green_square  id = ""bottomsquare"" ></div>",null,word_square,response,1,Space,false,,,
html-keyboard-response,153,348124,null,"NOTEBOOK",null,word,,,,, 'NOTEBOOK',,
call-function,154,348125,,"",,,,,,,,,
html-keyboard-response,155,348227,null,"",null,,,,,,,,
math-period,156,350759,4716,"",,,,,,,,,0
html-keyboard-response,157,350861,null,"",null,,,,,,,,
math-period,158,352719,3576,"",,,,,,,,,1
html-keyboard-response,159,352821,null,"",null,,,,,,,,
math-period,160,355127,4484.000000000058,"",,,,,,,,,1
html-keyboard-response,161,355228,null,"",null,,,,,,,,
math-period,162,356573,2563.000000000058,"",,,,,,,,,6
html-keyboard-response,163,356675,null,"",null,,,,,,,,
math-period,164,357805,2160,"",,,,,,,,,5
html-keyboard-response,165,357906,null,"",null,,,,,,,,
math-period,166,359503,3082,"",,,,,,,,,1
html-keyboard-response,167,359605,null,"",null,,,,,,,,
math-period,168,362335,5296.000000000058,"",,,,,,,,,1
html-keyboard-response,169,362437,null,"",null,,,,,,,,
math-period,170,363864,2690.000000000058,"",,,,,,,,,1
html-keyboard-response,171,363966,null,"",null,,,,,,,,
math-period,172,366120,4090,"",,,,,,,,,1
html-keyboard-response,173,366222,null,"",null,,,,,,,,
math-period,174,367591,2566.000000000058,"",,,,,,,,,1
html-keyboard-response,175,367692,null,"",null,,,,,,,,
math-period,176,369143,2682,"",,,,,,,,,4
html-keyboard-response,177,369245,null,"",null,,,,,,,,
math-period,178,370591,2519.999999999942,"",,,,,,,,,3
html-keyboard-response,179,370693,null,"",null,,,,,,,,
math-period,180,371975,2360,"",,,,,,,,,5
html-keyboard-response,181,372077,null,"",null,,,,,,,,
math-period,182,372128,null,"",,,,,,,,,
html-keyboard-response,183,373132,null,"Recall Period!",null,,,,,,,,
call-function,184,373133,,"",,,,,,,,,
html-keyboard-response,185,373235,null,"",null,,,,,,,,
recall-period,186,379048,30798,"",,,,,,,,,victor
html-keyboard-response,187,379151,null,"",null,,,,,,,,
recall-period,188,381271,10402.000000000058,"",,,,,,,,,cactus
html-keyboard-response,189,381373,null,"",null,,,,,,,,
recall-period,190,389856,40280.00000000006,"",,,,,,,,,machine
html-keyboard-response,191,389959,null,"",null,,,,,,,,
recall-period,192,398487,46310.99999999965,"",,,,,,,,,egypt
html-keyboard-response,193,398589,null,"",null,,,,,,,,
recall-period,194,448136,null,"",,,,,,,,,
html-keyboard-response,195,448640,null,"Time's Up!",null,,,,,,,,
html-keyboard-response,196,455523,6879,"<p> Good job! You responded correctly to 86% of the GREEN squares.</p>
                  <p>Be sure to keep your accuracy above 80%</p>
                  <p>Press any key to continue the experiment. Thank you!</p>",32,,,,,,,,
html-keyboard-response,197,457312,1787.0000000000582,"<div style=""font-size:48px;"">Press any key to begin list 2 of 24 </div>",32,,,,,,,,
html-keyboard-response,198,459817,null,"<div style=""font-size:60px;"">+</div>",null,,,,,,,,
html-keyboard-response,199,460320,null,"LILY<img id = ""stim"" ><div class = red_square id = ""topsquare"" ></div><img id = ""stim"" ><div class = red_square  id = ""bottomsquare"" ></div>",null,word_square,response,0,none,true,,,
html-keyboard-response,200,461822,null,"LILY",null,word,,,,, 'LILY',,
html-keyboard-response,201,462325,null,"COUNTRY<img id = ""stim"" ><div class = red_square id = ""topsquare"" ></div><img id = ""stim"" ><div class = red_square  id = ""bottomsquare"" ></div>",null,word_square,response,0,none,true,,,
html-keyboard-response,202,463829,null,"COUNTRY",null,word,,,,, 'COUNTRY',,
html-keyboard-response,203,464323,492,"TOOTHBRUSH<img id = ""stim"" ><div class = green_square id = ""topsquare"" ></div><img id = ""stim"" ><div class = green_square  id = ""bottomsquare"" ></div>",32,word_square,response,1,Space,true,,,
html-keyboard-response,204,465827,null,"TOOTHBRUSH",null,word,,,,, 'TOOTHBRUSH',,
html-keyboard-response,205,466331,null,"COBWEB<img id = ""stim"" ><div class = red_square id = ""topsquare"" ></div><img id = ""stim"" ><div class = red_square  id = ""bottomsquare"" ></div>",null,word_square,response,0,none,true,,,
html-keyboard-response,206,467835,null,"COBWEB",null,word,,,,, 'COBWEB',,
html-keyboard-response,207,468338,null,"BRAKE<img id = ""stim"" ><div class = red_square id = ""topsquare"" ></div><img id = ""stim"" ><div class = red_square  id = ""bottomsquare"" ></div>",null,word_square,response,0,none,true,,,
html-keyboard-response,208,469842,null,"BRAKE",null,word,,,,, 'BRAKE',,
html-keyboard-response,209,470320,475,"ONION<img id = ""stim"" ><div class = green_square id = ""topsquare"" ></div><img id = ""stim"" ><div class = green_square  id = ""bottomsquare"" ></div>",32,word_square,response,1,Space,true,,,
html-keyboard-response,210,471824,null,"ONION",null,word,,,,, 'ONION',,
html-keyboard-response,211,472327,null,"HANDBAG<img id = ""stim"" ><div class = green_square id = ""topsquare"" ></div><img id = ""stim"" ><div class = green_square  id = ""bottomsquare"" ></div>",null,word_square,response,1,Space,false,,,
html-keyboard-response,212,473830,null,"HANDBAG",null,word,,,,, 'HANDBAG',,
html-keyboard-response,213,474334,null,"KNAPSACK<img id = ""stim"" ><div class = green_square id = ""topsquare"" ></div><img id = ""stim"" ><div class = green_square  id = ""bottomsquare"" ></div>",null,word_square,response,1,Space,false,,,
html-keyboard-response,214,475838,null,"KNAPSACK",null,word,,,,, 'KNAPSACK',,
html-keyboard-response,215,476342,null,"WAX<img id = ""stim"" ><div class = red_square id = ""topsquare"" ></div><img id = ""stim"" ><div class = red_square  id = ""bottomsquare"" ></div>",null,word_square,response,0,none,true,,,
html-keyboard-response,216,477845,null,"WAX",null,word,,,,, 'WAX',,
html-keyboard-response,217,478349,null,"CHAMPAGNE<img id = ""stim"" ><div class = green_square id = ""topsquare"" ></div><img id = ""stim"" ><div class = green_square  id = ""bottomsquare"" ></div>",null,word_square,response,1,Space,false,,,
html-keyboard-response,218,479852,null,"CHAMPAGNE",null,word,,,,, 'CHAMPAGNE',,
html-keyboard-response,219,480356,null,"DIVER<img id = ""stim"" ><div class = red_square id = ""topsquare"" ></div><img id = ""stim"" ><div class = red_square  id = ""bottomsquare"" ></div>",null,word_square,response,0,none,true,,,
html-keyboard-response,220,481858,null,"DIVER",null,word,,,,, 'DIVER',,
html-keyboard-response,221,482361,null,"PLAYGROUND<img id = ""stim"" ><div class = green_square id = ""topsquare"" ></div><img id = ""stim"" ><div class = green_square  id = ""bottomsquare"" ></div>",null,word_square,response,1,Space,false,,,
html-keyboard-response,222,483864,null,"PLAYGROUND",null,word,,,,, 'PLAYGROUND',,
html-keyboard-response,223,484232,365,"BABY<img id = ""stim"" ><div class = green_square id = ""topsquare"" ></div><img id = ""stim"" ><div class = green_square  id = ""bottomsquare"" ></div>",32,word_square,response,1,Space,true,,,
html-keyboard-response,224,485736,null,"BABY",null,word,,,,, 'BABY',,
html-keyboard-response,225,486240,null,"HAMMOCK<img id = ""stim"" ><div class = red_square id = ""topsquare"" ></div><img id = ""stim"" ><div class = red_square  id = ""bottomsquare"" ></div>",null,word_square,response,0,none,true,,,
html-keyboard-response,226,487743,null,"HAMMOCK",null,word,,,,, 'HAMMOCK',,
html-keyboard-response,227,488208,462,"EAGLE<img id = ""stim"" ><div class = green_square id = ""topsquare"" ></div><img id = ""stim"" ><div class = green_square  id = ""bottomsquare"" ></div>",32,word_square,response,1,Space,true,,,
html-keyboard-response,228,489712,null,"EAGLE",null,word,,,,, 'EAGLE',,
html-keyboard-response,229,490216,null,"BRIDE<img id = ""stim"" ><div class = red_square id = ""topsquare"" ></div><img id = ""stim"" ><div class = red_square  id = ""bottomsquare"" ></div>",null,word_square,response,0,none,true,,,
html-keyboard-response,230,491720,null,"BRIDE",null,word,,,,, 'BRIDE',,
html-keyboard-response,231,492223,null,"BLOCKADE<img id = ""stim"" ><div class = red_square id = ""topsquare"" ></div><img id = ""stim"" ><div class = red_square  id = ""bottomsquare"" ></div>",null,word_square,response,0,none,true,,,
html-keyboard-response,232,493727,null,"BLOCKADE",null,word,,,,, 'BLOCKADE',,
html-keyboard-response,233,494072,343,"CRYSTAL<img id = ""stim"" ><div class = green_square id = ""topsquare"" ></div><img id = ""stim"" ><div class = green_square  id = ""bottomsquare"" ></div>",32,word_square,response,1,Space,true,,,
html-keyboard-response,234,495576,null,"CRYSTAL",null,word,,,,, 'CRYSTAL',,
call-function,235,495577,,"",,,,,,,,,
html-keyboard-response,236,495679,null,"",null,,,,,,,,
math-period,237,498399,5144,"",,,,,,,,,3
html-keyboard-response,238,498501,null,"",null,,,,,,,,
math-period,239,499591,1984.0000000000582,"",,,,,,,,,3
html-keyboard-response,240,499693,null,"",null,,,,,,,,
math-period,241,500927,2336,"",,,,,,,,,6
html-keyboard-response,242,501030,null,"",null,,,,,,,,
math-period,243,502287,2366,"",,,,,,,,,2
html-keyboard-response,244,502389,null,"",null,,,,,,,,
math-period,245,503519,2140.000000000058,"",,,,,,,,,3
html-keyboard-response,246,503621,null,"",null,,,,,,,,
math-period,247,505135,2881.9999999998836,"",,,,,,,,,4
html-keyboard-response,248,505238,null,"",null,,,,,,,,
math-period,249,507357,4086,"",,,,,,,,,0
html-keyboard-response,250,507458,null,"",null,,,,,,,,
math-period,251,509943,4794,"",,,,,,,,,2
html-keyboard-response,252,510046,null,"",null,,,,,,,,
math-period,253,511374,2488.000000000058,"",,,,,,,,,4
html-keyboard-response,254,511476,null,"",null,,,,,,,,
math-period,255,513143,3172,"",,,,,,,,,5
html-keyboard-response,256,513246,null,"",null,,,,,,,,
math-period,257,514255,1824,"",,,,,,,,,5
html-keyboard-response,258,514358,null,"",null,,,,,,,,
math-period,259,516087,3287.9999999998836,"",,,,,,,,,3
html-keyboard-response,260,516190,null,"",null,,,,,,,,
math-period,261,517023,1463.9999999999418,"",,,,,,,,,3
html-keyboard-response,262,517126,null,"",null,,,,,,,,
math-period,263,519580,2000,"",,,,,,,,,5
html-keyboard-response,264,520584,null,"Recall Period!",null,,,,,,,,
call-function,265,520585,,"",,,,,,,,,
html-keyboard-response,266,520687,null,"",null,,,,,,,,
recall-period,267,528064,55271.00000000012,"",,,,,,,,,crystal
html-keyboard-response,268,528166,null,"",null,,,,,,,,
recall-period,269,531296,15928,"",,,,,,,,,knapsack
html-keyboard-response,270,531398,null,"",null,,,,,,,,
recall-period,271,533992,12487,"",,,,,,,,,backpack
html-keyboard-response,272,534095,null,"",null,,,,,,,,
recall-period,273,535687,6554,"",,,,,,,,,eagle
html-keyboard-response,274,535790,null,"",null,,,,,,,,
recall-period,275,540408,29568.000000000116,"",,,,,,,,,playground
html-keyboard-response,276,540511,null,"",null,,,,,,,,
recall-period,277,542951,10266,"",,,,,,,,,lily
html-keyboard-response,278,543054,null,"",null,,,,,,,,
recall-period,279,595588,384605.99999999895,"",,,,,,,,,
html-keyboard-response,280,596092,null,"Time's Up!",null,,,,,,,,
html-keyboard-response,281,605019,8924,"<p> Good job! You responded correctly to 83% of the GREEN squares.</p>
                  <p>Be sure to keep your accuracy above 80%</p>
                  <p>Press any key to continue the experiment. Thank you!</p>",32,,,,,,,,
html-keyboard-response,282,605929,906,"<div style=""font-size:48px;"">Press any key to begin list 3 of 24 </div>",32,,,,,,,,
html-keyboard-response,283,608433,null,"<div style=""font-size:60px;"">+</div>",null,,,,,,,,
html-keyboard-response,284,608937,null,"COLESLAW<img id = ""stim"" ><div class = green_square id = ""topsquare"" ></div><img id = ""stim"" ><div class = green_square  id = ""bottomsquare"" ></div>",null,word_square,response,1,Space,false,,,
html-keyboard-response,285,610441,null,"COLESLAW",null,word,,,,, 'COLESLAW',,
html-keyboard-response,286,610939,495,"PORK<img id = ""stim"" ><div class = green_square id = ""topsquare"" ></div><img id = ""stim"" ><div class = green_square  id = ""bottomsquare"" ></div>",32,word_square,response,1,Space,true,,,
html-keyboard-response,287,612442,null,"PORK",null,word,,,,, 'PORK',,
html-keyboard-response,288,612946,null,"FIDDLE<img id = ""stim"" ><div class = red_square id = ""topsquare"" ></div><img id = ""stim"" ><div class = red_square  id = ""bottomsquare"" ></div>",null,word_square,response,0,none,true,,,
html-keyboard-response,289,614450,null,"FIDDLE",null,word,,,,, 'FIDDLE',,
html-keyboard-response,290,614849,396,"RECORD<img id = ""stim"" ><div class = green_square id = ""topsquare"" ></div><img id = ""stim"" ><div class = green_square  id = ""bottomsquare"" ></div>",32,word_square,response,1,Space,true,,,
html-keyboard-response,291,616352,null,"RECORD",null,word,,,,, 'RECORD',,
html-keyboard-response,292,616737,380.9999999998836,"BRANDY<img id = ""stim"" ><div class = green_square id = ""topsquare"" ></div><img id = ""stim"" ><div class = green_square  id = ""bottomsquare"" ></div>",32,word_square,response,1,Space,true,,,
html-keyboard-response,293,618240,null,"BRANDY",null,word,,,,, 'BRANDY',,
html-keyboard-response,294,618744,null,"MEAT<img id = ""stim"" ><div class = red_square id = ""topsquare"" ></div><img id = ""stim"" ><div class = red_square  id = ""bottomsquare"" ></div>",null,word_square,response,0,none,true,,,
html-keyboard-response,295,620247,null,"MEAT",null,word,,,,, 'MEAT',,
html-keyboard-response,296,620751,null,"GLOVE<img id = ""stim"" ><div class = red_square id = ""topsquare"" ></div><img id = ""stim"" ><div class = red_square  id = ""bottomsquare"" ></div>",null,word_square,response,0,none,true,,,
html-keyboard-response,297,622255,null,"GLOVE",null,word,,,,, 'GLOVE',,
html-keyboard-response,298,622759,null,"SAUSAGE<img id = ""stim"" ><div class = red_square id = ""topsquare"" ></div><img id = ""stim"" ><div class = red_square  id = ""bottomsquare"" ></div>",null,word_square,response,0,none,true,,,
html-keyboard-response,299,624262,null,"SAUSAGE",null,word,,,,, 'SAUSAGE',,
html-keyboard-response,300,624766,null,"HIGHWAY<img id = ""stim"" ><div class = green_square id = ""topsquare"" ></div><img id = ""stim"" ><div class = green_square  id = ""bottomsquare"" ></div>",null,word_square,response,1,Space,false,,,
html-keyboard-response,301,626270,null,"HIGHWAY",null,word,,,,, 'HIGHWAY',,
html-keyboard-response,302,626774,null,"BOULDER<img id = ""stim"" ><div class = red_square id = ""topsquare"" ></div><img id = ""stim"" ><div class = red_square  id = ""bottomsquare"" ></div>",null,word_square,response,0,none,true,,,
html-keyboard-response,303,628278,null,"BOULDER",null,word,,,,, 'BOULDER',,
html-keyboard-response,304,628689,408,"LEMON<img id = ""stim"" ><div class = green_square id = ""topsquare"" ></div><img id = ""stim"" ><div class = green_square  id = ""bottomsquare"" ></div>",32,word_square,response,1,Space,true,,,
html-keyboard-response,305,630192,null,"LEMON",null,word,,,,, 'LEMON',,
html-keyboard-response,306,630696,null,"SQUIRREL<img id = ""stim"" ><div class = red_square id = ""topsquare"" ></div><img id = ""stim"" ><div class = red_square  id = ""bottomsquare"" ></div>",null,word_square,response,0,none,true,,,
html-keyboard-response,307,632200,null,"SQUIRREL",null,word,,,,, 'SQUIRREL',,
html-keyboard-response,308,632657,454,"DASHBOARD<img id = ""stim"" ><div class = red_square id = ""topsquare"" ></div><img id = ""stim"" ><div class = red_square  id = ""bottomsquare"" ></div>",32,word_square,response,0,none,false,,,
html-keyboard-response,309,634160,null,"DASHBOARD",null,word,,,,, 'DASHBOARD',,
html-keyboard-response,310,634487,325,"CHAUFFEUR<img id = ""stim"" ><div class = green_square id = ""topsquare"" ></div><img id = ""stim"" ><div class = green_square  id = ""bottomsquare"" ></div>",32,word_square,response,1,Space,true,,,
html-keyboard-response,311,635991,null,"CHAUFFEUR",null,word,,,,, 'CHAUFFEUR',,
html-keyboard-response,312,636495,null,"COBRA<img id = ""stim"" ><div class = red_square id = ""topsquare"" ></div><img id = ""stim"" ><div class = red_square  id = ""bottomsquare"" ></div>",null,word_square,response,0,none,true,,,
html-keyboard-response,313,637999,null,"COBRA",null,word,,,,, 'COBRA',,
html-keyboard-response,314,638336,335,"SCOUT<img id = ""stim"" ><div class = green_square id = ""topsquare"" ></div><img id = ""stim"" ><div class = green_square  id = ""bottomsquare"" ></div>",32,word_square,response,1,Space,true,,,
html-keyboard-response,315,639839,null,"SCOUT",null,word,,,,, 'SCOUT',,
html-keyboard-response,316,640343,null,"LIVER<img id = ""stim"" ><div class = green_square id = ""topsquare"" ></div><img id = ""stim"" ><div class = green_square  id = ""bottomsquare"" ></div>",null,word_square,response,1,Space,false,,,
html-keyboard-response,317,641847,null,"LIVER",null,word,,,,, 'LIVER',,
html-keyboard-response,318,642351,null,"BREAST<img id = ""stim"" ><div class = red_square id = ""topsquare"" ></div><img id = ""stim"" ><div class = red_square  id = ""bottomsquare"" ></div>",null,word_square,response,0,none,true,,,
html-keyboard-response,319,643854,null,"BREAST",null,word,,,,, 'BREAST',,
call-function,320,643856,,"",,,,,,,,,
html-keyboard-response,321,643957,null,"",null,,,,,,,,
math-period,322,645647,3186.0000000001164,"",,,,,,,,,2
html-keyboard-response,323,645749,null,"",null,,,,,,,,
math-period,324,646999,2341,"",,,,,,,,,2
html-keyboard-response,325,647102,null,"",null,,,,,,,,
math-period,326,649607,4805.999999999884,"",,,,,,,,,3
html-keyboard-response,327,649710,null,"",null,,,,,,,,
math-period,328,651599,3618.0000000001164,"",,,,,,,,,2
html-keyboard-response,329,651701,null,"",null,,,,,,,,
math-period,330,653183,2785,"",,,,,,,,,2
html-keyboard-response,331,653285,null,"",null,,,,,,,,
math-period,332,654527,2322.0000000001164,"",,,,,,,,,5
html-keyboard-response,333,654630,null,"",null,,,,,,,,
math-period,334,655895,2367,"",,,,,,,,,4
html-keyboard-response,335,655998,null,"",null,,,,,,,,
math-period,336,658175,4200,"",,,,,,,,,3
html-keyboard-response,337,658278,null,"",null,,,,,,,,
math-period,338,660024,3344,"",,,,,,,,,2
html-keyboard-response,339,660126,null,"",null,,,,,,,,
math-period,340,661941,3462,"",,,,,,,,,0
html-keyboard-response,341,662042,null,"",null,,,,,,,,
math-period,342,663191,2176,"",,,,,,,,,5
html-keyboard-response,343,663294,null,"",null,,,,,,,,
math-period,344,664526,2343.0000000001164,"",,,,,,,,,4
html-keyboard-response,345,664627,null,"",null,,,,,,,,
math-period,346,665295,1198.9999999997672,"",,,,,,,,,4
html-keyboard-response,347,665398,null,"",null,,,,,,,,
math-period,348,667857,2280,"",,,,,,,,,2
html-keyboard-response,349,668861,null,"Recall Period!",null,,,,,,,,
call-function,350,668862,,"",,,,,,,,,
html-keyboard-response,351,668964,null,"",null,,,,,,,,
recall-period,352,671657,7549,"",,,,,,,,,pork
html-keyboard-response,353,671759,null,"",null,,,,,,,,
recall-period,354,673448,4574.000000000116,"",,,,,,,,,meat
html-keyboard-response,355,673551,null,"",null,,,,,,,,
recall-period,356,676472,14000.000000000116,"",,,,,,,,,sausage
html-keyboard-response,357,676574,null,"",null,,,,,,,,
recall-period,358,678721,6871.9999999993015,"",,,,,,,,,liver
html-keyboard-response,359,678823,null,"",null,,,,,,,,
recall-period,360,685001,20066.000000000116,"",,,,,,,,,chicken
html-keyboard-response,361,685104,null,"",null,,,,,,,,
recall-period,362,700561,160359.00000000012,"",,,,,,,,,lemon
html-keyboard-response,363,700663,null,"",null,,,,,,,,
recall-period,364,731921,210632.00000000012,"",,,,,,,,,breast
html-keyboard-response,365,732023,null,"",null,,,,,,,,
recall-period,366,743865,null,"",,,,,,,,,
html-keyboard-response,367,744369,null,"Time's Up!",null,,,,,,,,
html-keyboard-response,368,748809,4438,"<p> Good job! You responded correctly to 82% of the GREEN squares.</p>
                  <p>Be sure to keep your accuracy above 80%</p>
                  <p>Press any key to continue the experiment. Thank you!</p>",32,,,,,,,,
html-keyboard-response,369,749929,1117,"<div style=""font-size:48px;"">Press any key to begin list 4 of 24 </div>",32,,,,,,,,
html-keyboard-response,370,752433,null,"<div style=""font-size:60px;"">+</div>",null,,,,,,,,
html-keyboard-response,371,752937,null,"TORCH<img id = ""stim"" ><div class = green_square id = ""topsquare"" ></div><img id = ""stim"" ><div class = green_square  id = ""bottomsquare"" ></div>",null,word_square,response,1,Space,false,,,
html-keyboard-response,372,754441,null,"TORCH",null,word,,,,, 'TORCH',,
html-keyboard-response,373,754777,335.0000000001164,"HAMPER<img id = ""stim"" ><div class = green_square id = ""topsquare"" ></div><img id = ""stim"" ><div class = green_square  id = ""bottomsquare"" ></div>",32,word_square,response,1,Space,true,,,
html-keyboard-response,374,756281,null,"HAMPER",null,word,,,,, 'HAMPER',,
html-keyboard-response,375,756785,null,"SUBURB<img id = ""stim"" ><div class = red_square id = ""topsquare"" ></div><img id = ""stim"" ><div class = red_square  id = ""bottomsquare"" ></div>",null,word_square,response,0,none,true,,,
html-keyboard-response,376,758288,null,"SUBURB",null,word,,,,, 'SUBURB',,
html-keyboard-response,377,758609,319.0000000001164,"PECAN<img id = ""stim"" ><div class = green_square id = ""topsquare"" ></div><img id = ""stim"" ><div class = green_square  id = ""bottomsquare"" ></div>",32,word_square,response,1,Space,true,,,
html-keyboard-response,378,760113,null,"PECAN",null,word,,,,, 'PECAN',,
html-keyboard-response,379,760545,429,"MAPLE<img id = ""stim"" ><div class = green_square id = ""topsquare"" ></div><img id = ""stim"" ><div class = green_square  id = ""bottomsquare"" ></div>",32,word_square,response,1,Space,true,,,
html-keyboard-response,380,762048,null,"MAPLE",null,word,,,,, 'MAPLE',,
html-keyboard-response,381,762552,null,"TUTU<img id = ""stim"" ><div class = red_square id = ""topsquare"" ></div><img id = ""stim"" ><div class = red_square  id = ""bottomsquare"" ></div>",null,word_square,response,0,none,true,,,
html-keyboard-response,382,764056,null,"TUTU",null,word,,,,, 'TUTU',,
html-keyboard-response,383,764559,null,"SKIRT<img id = ""stim"" ><div class = red_square id = ""topsquare"" ></div><img id = ""stim"" ><div class = red_square  id = ""bottomsquare"" ></div>",null,word_square,response,0,none,true,,,
html-keyboard-response,384,766063,null,"SKIRT",null,word,,,,, 'SKIRT',,
html-keyboard-response,385,766567,null,"CABLE<img id = ""stim"" ><div class = red_square id = ""topsquare"" ></div><img id = ""stim"" ><div class = red_square  id = ""bottomsquare"" ></div>",null,word_square,response,0,none,true,,,
html-keyboard-response,386,768071,null,"CABLE",null,word,,,,, 'CABLE',,
html-keyboard-response,387,768441,369,"DART<img id = ""stim"" ><div class = green_square id = ""topsquare"" ></div><img id = ""stim"" ><div class = green_square  id = ""bottomsquare"" ></div>",32,word_square,response,1,Space,true,,,
html-keyboard-response,388,769945,null,"DART",null,word,,,,, 'DART',,
html-keyboard-response,389,770448,null,"RATTLE<img id = ""stim"" ><div class = red_square id = ""topsquare"" ></div><img id = ""stim"" ><div class = red_square  id = ""bottomsquare"" ></div>",null,word_square,response,0,none,true,,,
html-keyboard-response,390,771952,null,"RATTLE",null,word,,,,, 'RATTLE',,
html-keyboard-response,391,772385,430.0000000001164,"HEART<img id = ""stim"" ><div class = green_square id = ""topsquare"" ></div><img id = ""stim"" ><div class = green_square  id = ""bottomsquare"" ></div>",32,word_square,response,1,Space,true,,,
html-keyboard-response,392,773888,null,"HEART",null,word,,,,, 'HEART',,
html-keyboard-response,393,774392,null,"CRADLE<img id = ""stim"" ><div class = red_square id = ""topsquare"" ></div><img id = ""stim"" ><div class = red_square  id = ""bottomsquare"" ></div>",null,word_square,response,0,none,true,,,
html-keyboard-response,394,775894,null,"CRADLE",null,word,,,,, 'CRADLE',,
html-keyboard-response,395,776397,null,"CHIPMUNK<img id = ""stim"" ><div class = red_square id = ""topsquare"" ></div><img id = ""stim"" ><div class = red_square  id = ""bottomsquare"" ></div>",null,word_square,response,0,none,true,,,
html-keyboard-response,396,777901,null,"CHIPMUNK",null,word,,,,, 'CHIPMUNK',,
html-keyboard-response,397,778252,348.9999999998836,"VICTIM<img id = ""stim"" ><div class = green_square id = ""topsquare"" ></div><img id = ""stim"" ><div class = green_square  id = ""bottomsquare"" ></div>",32,word_square,response,1,Space,true,,,
html-keyboard-response,398,779755,null,"VICTIM",null,word,,,,, 'VICTIM',,
html-keyboard-response,399,780259,null,"STRING<img id = ""stim"" ><div class = red_square id = ""topsquare"" ></div><img id = ""stim"" ><div class = red_square  id = ""bottomsquare"" ></div>",null,word_square,response,0,none,true,,,
html-keyboard-response,400,781762,null,"STRING",null,word,,,,, 'STRING',,
html-keyboard-response,401,782128,365.0000000001164,"MARROW<img id = ""stim"" ><div class = green_square id = ""topsquare"" ></div><img id = ""stim"" ><div class = green_square  id = ""bottomsquare"" ></div>",32,word_square,response,1,Space,true,,,
html-keyboard-response,402,783632,null,"MARROW",null,word,,,,, 'MARROW',,
html-keyboard-response,403,784041,405.9999999998836,"MAMMAL<img id = ""stim"" ><div class = green_square id = ""topsquare"" ></div><img id = ""stim"" ><div class = green_square  id = ""bottomsquare"" ></div>",32,word_square,response,1,Space,true,,,
html-keyboard-response,404,785545,null,"MAMMAL",null,word,,,,, 'MAMMAL',,
html-keyboard-response,405,786048,null,"WASHER<img id = ""stim"" ><div class = red_square id = ""topsquare"" ></div><img id = ""stim"" ><div class = red_square  id = ""bottomsquare"" ></div>",null,word_square,response,0,none,true,,,
html-keyboard-response,406,787552,null,"WASHER",null,word,,,,, 'WASHER',,
call-function,407,787552,,"",,,,,,,,,
html-keyboard-response,408,787655,null,"",null,,,,,,,,
math-period,409,789551,3574.0000000001164,"",,,,,,,,,1
html-keyboard-response,410,789655,null,"",null,,,,,,,,
math-period,411,790959,2454,"",,,,,,,,,4
html-keyboard-response,412,791061,null,"",null,,,,,,,,
math-period,413,792942,3529,"",,,,,,,,,3
html-keyboard-response,414,793044,null,"",null,,,,,,,,
math-period,415,794871,3461,"",,,,,,,,,4
html-keyboard-response,416,794974,null,"",null,,,,,,,,
math-period,417,796074,2018,"",,,,,,,,,3
html-keyboard-response,418,796176,null,"",null,,,,,,,,
math-period,419,796991,1444,"",,,,,,,,,3
html-keyboard-response,420,797094,null,"",null,,,,,,,,
math-period,421,798159,1944,"",,,,,,,,,4
html-keyboard-response,422,798262,null,"",null,,,,,,,,
math-period,423,799359,1896.0000000001164,"",,,,,,,,,3
html-keyboard-response,424,799462,null,"",null,,,,,,,,
math-period,425,801183,3280,"",,,,,,,,,1
html-keyboard-response,426,801286,null,"",null,,,,,,,,
math-period,427,802296,1849.0000000001164,"",,,,,,,,,3
html-keyboard-response,428,802399,null,"",null,,,,,,,,
math-period,429,803583,2254,"",,,,,,,,,5
html-keyboard-response,430,803686,null,"",null,,,,,,,,
math-period,431,805951,4360,"",,,,,,,,,2
html-keyboard-response,432,806054,null,"",null,,,,,,,,
math-period,433,807167,2072,"",,,,,,,,,3
html-keyboard-response,434,807270,null,"",null,,,,,,,,
math-period,435,808103,1472,"",,,,,,,,,3
html-keyboard-response,436,808206,null,"",null,,,,,,,,
math-period,437,809919,3272,"",,,,,,,,,2
html-keyboard-response,438,810022,null,"",null,,,,,,,,
math-period,439,811556,null,"",,,,,,,,,
html-keyboard-response,440,812560,null,"Recall Period!",null,,,,,,,,
call-function,441,812561,,"",,,,,,,,,
html-keyboard-response,442,812663,null,"",null,,,,,,,,
recall-period,443,815696,12491.000000000466,"",,,,,,,,,maple
html-keyboard-response,444,815798,null,"",null,,,,,,,,
recall-period,445,819033,11238,"",,,,,,,,,pecan
html-keyboard-response,446,819136,null,"",null,,,,,,,,
recall-period,447,830696,98918.00000000023,"",,,,,,,,,skirt
html-keyboard-response,448,830797,null,"",null,,,,,,,,
recall-period,449,870688,470473.00000000035,"",,,,,,,,,victim
html-keyboard-response,450,870790,null,"",null,,,,,,,,
recall-period,451,887566,null,"",,,,,,,,,
html-keyboard-response,452,888069,null,"Time's Up!",null,,,,,,,,
html-keyboard-response,453,900921,12848,"<p> Good job! You responded correctly to 84% of the GREEN squares.</p>
                  <p>Be sure to keep your accuracy above 80%</p>
                  <p>Press any key to continue the experiment. Thank you!</p>",32,,,,,,,,
html-keyboard-response,454,903125,2201.0000000001164,"<div style=""font-size:48px;"">Press any key to begin list 5 of 24 </div>",32,,,,,,,,
html-keyboard-response,455,905630,null,"<div style=""font-size:60px;"">+</div>",null,,,,,,,,
html-keyboard-response,456,906133,null,"CABOOSE<img id = ""stim"" ><div class = red_square id = ""topsquare"" ></div><img id = ""stim"" ><div class = red_square  id = ""bottomsquare"" ></div>",null,word_square,response,0,none,true,,,
html-keyboard-response,457,907637,null,"CABOOSE",null,word,,,,, 'CABOOSE',,
html-keyboard-response,458,908141,null,"GUARD<img id = ""stim"" ><div class = red_square id = ""topsquare"" ></div><img id = ""stim"" ><div class = red_square  id = ""bottomsquare"" ></div>",null,word_square,response,0,none,true,,,
html-keyboard-response,459,909644,null,"GUARD",null,word,,,,, 'GUARD',,
html-keyboard-response,460,910081,433,"COLONEL<img id = ""stim"" ><div class = green_square id = ""topsquare"" ></div><img id = ""stim"" ><div class = green_square  id = ""bottomsquare"" ></div>",32,word_square,response,1,Space,true,,,
html-keyboard-response,461,911585,null,"COLONEL",null,word,,,,, 'COLONEL',,
html-keyboard-response,462,912088,null,"FOLDER<img id = ""stim"" ><div class = red_square id = ""topsquare"" ></div><img id = ""stim"" ><div class = red_square  id = ""bottomsquare"" ></div>",null,word_square,response,0,none,true,,,
html-keyboard-response,463,913592,null,"FOLDER",null,word,,,,, 'FOLDER',,
html-keyboard-response,464,914095,null,"CASKET<img id = ""stim"" ><div class = red_square id = ""topsquare"" ></div><img id = ""stim"" ><div class = red_square  id = ""bottomsquare"" ></div>",null,word_square,response,0,none,true,,,
html-keyboard-response,465,915599,null,"CASKET",null,word,,,,, 'CASKET',,
html-keyboard-response,466,915950,350.0000000001164,"POISON<img id = ""stim"" ><div class = green_square id = ""topsquare"" ></div><img id = ""stim"" ><div class = green_square  id = ""bottomsquare"" ></div>",32,word_square,response,1,Space,true,,,
html-keyboard-response,467,917454,null,"POISON",null,word,,,,, 'POISON',,
html-keyboard-response,468,917937,479.9999999998836,"FLESH<img id = ""stim"" ><div class = green_square id = ""topsquare"" ></div><img id = ""stim"" ><div class = green_square  id = ""bottomsquare"" ></div>",32,word_square,response,1,Space,true,,,
html-keyboard-response,469,919441,null,"FLESH",null,word,,,,, 'FLESH',,
html-keyboard-response,470,919944,null,"RECEIPT<img id = ""stim"" ><div class = red_square id = ""topsquare"" ></div><img id = ""stim"" ><div class = red_square  id = ""bottomsquare"" ></div>",null,word_square,response,0,none,true,,,
html-keyboard-response,471,921448,null,"RECEIPT",null,word,,,,, 'RECEIPT',,
html-keyboard-response,472,921857,406,"RODENT<img id = ""stim"" ><div class = green_square id = ""topsquare"" ></div><img id = ""stim"" ><div class = green_square  id = ""bottomsquare"" ></div>",32,word_square,response,1,Space,true,,,
html-keyboard-response,473,923360,null,"RODENT",null,word,,,,, 'RODENT',,
html-keyboard-response,474,923810,447,"DENIM<img id = ""stim"" ><div class = green_square id = ""topsquare"" ></div><img id = ""stim"" ><div class = green_square  id = ""bottomsquare"" ></div>",32,word_square,response,1,Space,true,,,
html-keyboard-response,475,925314,null,"DENIM",null,word,,,,, 'DENIM',,
html-keyboard-response,476,925818,null,"JEANS<img id = ""stim"" ><div class = red_square id = ""topsquare"" ></div><img id = ""stim"" ><div class = red_square  id = ""bottomsquare"" ></div>",null,word_square,response,0,none,true,,,
html-keyboard-response,477,927322,null,"JEANS",null,word,,,,, 'JEANS',,
html-keyboard-response,478,927825,null,"NAPKIN<img id = ""stim"" ><div class = red_square id = ""topsquare"" ></div><img id = ""stim"" ><div class = red_square  id = ""bottomsquare"" ></div>",null,word_square,response,0,none,true,,,
html-keyboard-response,479,929329,null,"NAPKIN",null,word,,,,, 'NAPKIN',,
html-keyboard-response,480,929801,468.9999999998836,"LITTER<img id = ""stim"" ><div class = green_square id = ""topsquare"" ></div><img id = ""stim"" ><div class = green_square  id = ""bottomsquare"" ></div>",32,word_square,response,1,Space,true,,,
html-keyboard-response,481,931305,null,"LITTER",null,word,,,,, 'LITTER',,
html-keyboard-response,482,931809,null,"SMOG<img id = ""stim"" ><div class = red_square id = ""topsquare"" ></div><img id = ""stim"" ><div class = red_square  id = ""bottomsquare"" ></div>",null,word_square,response,0,none,true,,,
html-keyboard-response,483,933313,null,"SMOG",null,word,,,,, 'SMOG',,
html-keyboard-response,484,933664,348,"CURTAIN<img id = ""stim"" ><div class = green_square id = ""topsquare"" ></div><img id = ""stim"" ><div class = green_square  id = ""bottomsquare"" ></div>",32,word_square,response,1,Space,true,,,
html-keyboard-response,485,935168,null,"CURTAIN",null,word,,,,, 'CURTAIN',,
html-keyboard-response,486,935577,406.0000000001164,"GROUND<img id = ""stim"" ><div class = green_square id = ""topsquare"" ></div><img id = ""stim"" ><div class = green_square  id = ""bottomsquare"" ></div>",32,word_square,response,1,Space,true,,,
html-keyboard-response,487,937081,null,"GROUND",null,word,,,,, 'GROUND',,
html-keyboard-response,488,937584,null,"DOCTOR<img id = ""stim"" ><div class = red_square id = ""topsquare"" ></div><img id = ""stim"" ><div class = red_square  id = ""bottomsquare"" ></div>",null,word_square,response,0,none,true,,,
html-keyboard-response,489,939088,null,"DOCTOR",null,word,,,,, 'DOCTOR',,
html-keyboard-response,490,939592,null,"NEWSSTAND<img id = ""stim"" ><div class = green_square id = ""topsquare"" ></div><img id = ""stim"" ><div class = green_square  id = ""bottomsquare"" ></div>",null,word_square,response,1,Space,false,,,
html-keyboard-response,491,941095,null,"NEWSSTAND",null,word,,,,, 'NEWSSTAND',,
call-function,492,941096,,"",,,,,,,,,
html-keyboard-response,493,941198,null,"",null,,,,,,,,
math-period,494,943113,3521,"",,,,,,,,,4
html-keyboard-response,495,943216,null,"",null,,,,,,,,
math-period,496,944000,1364,"",,,,,,,,,4
html-keyboard-response,497,944101,null,"",null,,,,,,,,
math-period,498,945200,2016,"",,,,,,,,,2
html-keyboard-response,499,945302,null,"",null,,,,,,,,
math-period,500,946376,2008,"",,,,,,,,,2
html-keyboard-response,501,946478,null,"",null,,,,,,,,
math-period,502,947688,2287.999999999767,"",,,,,,,,,4
html-keyboard-response,503,947790,null,"",null,,,,,,,,
math-period,504,948512,1303.9999999997672,"",,,,,,,,,4
html-keyboard-response,505,948614,null,"",null,,,,,,,,
math-period,506,949528,1734.0000000001164,"",,,,,,,,,4
html-keyboard-response,507,949630,null,"",null,,,,,,,,
math-period,508,951440,3504,"",,,,,,,,,2
html-keyboard-response,509,951542,null,"",null,,,,,,,,
math-period,510,953350,3173,"",,,,,,,,,2
html-keyboard-response,511,953452,null,"",null,,,,,,,,
math-period,512,954927,2789,"",,,,,,,,,6
html-keyboard-response,513,955030,null,"",null,,,,,,,,
math-period,514,956758,3304.0000000001164,"",,,,,,,,,1
html-keyboard-response,515,956858,null,"",null,,,,,,,,
math-period,516,958072,2296.999999999767,"",,,,,,,,,4
html-keyboard-response,517,958174,null,"",null,,,,,,,,
math-period,518,958976,1416.0000000001164,"",,,,,,,,,4
html-keyboard-response,519,959078,null,"",null,,,,,,,,
math-period,520,960320,2261.999999999767,"",,,,,,,,,3
html-keyboard-response,521,960422,null,"",null,,,,,,,,
math-period,522,962072,3128,"",,,,,,,,,1
html-keyboard-response,523,962173,null,"",null,,,,,,,,
math-period,524,963255,2044,"",,,,,,,,,5
html-keyboard-response,525,963357,null,"",null,,,,,,,,
math-period,526,964504,2154.0000000001164,"",,,,,,,,,2
html-keyboard-response,527,964606,null,"",null,,,,,,,,
math-period,528,965100,null,"",,,,,,,,,
html-keyboard-response,529,966104,null,"Recall Period!",null,,,,,,,,
call-function,530,966105,,"",,,,,,,,,
html-keyboard-response,531,966207,null,"",null,,,,,,,,
recall-period,532,968889,11017.000000000116,"",,,,,,,,,doctor
html-keyboard-response,533,968991,null,"",null,,,,,,,,
recall-period,534,970657,5244,"",,,,,,,,,rats
html-keyboard-response,535,970759,null,"",null,,,,,,,,
recall-period,536,971960,3382,"",,,,,,,,,smog
html-keyboard-response,537,972062,null,"",null,,,,,,,,
recall-period,538,976489,11746.000000000116,"",,,,,,,,,poison
html-keyboard-response,539,976592,null,"",null,,,,,,,,
recall-period,540,978985,10760.000000000116,"",,,,,,,,,caboose
html-keyboard-response,541,979087,null,"",null,,,,,,,,
recall-period,542,995937,212592.00000000035,"",,,,,,,,,jeans
html-keyboard-response,543,996040,null,"",null,,,,,,,,
recall-period,544,1004185,52444.99999999872,"",,,,,,,,,denim
html-keyboard-response,545,1004287,null,"",null,,,,,,,,
recall-period,546,1016793,90427.00000000023,"",,,,,,,,,colonel
html-keyboard-response,547,1016895,null,"",null,,,,,,,,
recall-period,548,1041108,null,"",,,,,,,,,
html-keyboard-response,549,1041612,null,"Time's Up!",null,,,,,,,,
html-keyboard-response,550,1056544,14929.999999999884,"<p> Good job! You responded correctly to 86% of the GREEN squares.</p>
                  <p>Be sure to keep your accuracy above 80%</p>
                  <p>Press any key to continue the experiment. Thank you!</p>",32,,,,,,,,
html-keyboard-response,551,1063945,7398,"<div style=""font-size:48px;"">Press any key to begin list 6 of 24 </div>",32,,,,,,,,
html-keyboard-response,552,1066450,null,"<div style=""font-size:60px;"">+</div>",null,,,,,,,,
html-keyboard-response,553,1066954,null,"COFFIN<img id = ""stim"" ><div class = red_square id = ""topsquare"" ></div><img id = ""stim"" ><div class = red_square  id = ""bottomsquare"" ></div>",null,word_square,response,0,none,true,,,
html-keyboard-response,554,1068457,null,"COFFIN",null,word,,,,, 'COFFIN',,
html-keyboard-response,555,1068961,null,"BLACKBOARD<img id = ""stim"" ><div class = red_square id = ""topsquare"" ></div><img id = ""stim"" ><div class = red_square  id = ""bottomsquare"" ></div>",null,word_square,response,0,none,true,,,
html-keyboard-response,556,1070464,null,"BLACKBOARD",null,word,,,,, 'BLACKBOARD',,
html-keyboard-response,557,1070816,351,"HOUND<img id = ""stim"" ><div class = green_square id = ""topsquare"" ></div><img id = ""stim"" ><div class = green_square  id = ""bottomsquare"" ></div>",32,word_square,response,1,Space,true,,,
html-keyboard-response,558,1072320,null,"HOUND",null,word,,,,, 'HOUND',,
html-keyboard-response,559,1072824,null,"CHISEL<img id = ""stim"" ><div class = red_square id = ""topsquare"" ></div><img id = ""stim"" ><div class = red_square  id = ""bottomsquare"" ></div>",null,word_square,response,0,none,true,,,
html-keyboard-response,560,1074327,null,"CHISEL",null,word,,,,, 'CHISEL',,
html-keyboard-response,561,1074831,null,"BOUILLON<img id = ""stim"" ><div class = red_square id = ""topsquare"" ></div><img id = ""stim"" ><div class = red_square  id = ""bottomsquare"" ></div>",null,word_square,response,0,none,true,,,
html-keyboard-response,562,1076334,null,"BOUILLON",null,word,,,,, 'BOUILLON',,
html-keyboard-response,563,1076838,null,"TART<img id = ""stim"" ><div class = green_square id = ""topsquare"" ></div><img id = ""stim"" ><div class = green_square  id = ""bottomsquare"" ></div>",null,word_square,response,1,Space,false,,,
html-keyboard-response,564,1078342,null,"TART",null,word,,,,, 'TART',,
html-keyboard-response,565,1078723,378,"PRIEST<img id = ""stim"" ><div class = green_square id = ""topsquare"" ></div><img id = ""stim"" ><div class = green_square  id = ""bottomsquare"" ></div>",32,word_square,response,1,Space,true,,,
html-keyboard-response,566,1080226,null,"PRIEST",null,word,,,,, 'PRIEST',,
html-keyboard-response,567,1080730,null,"PRAIRIE<img id = ""stim"" ><div class = red_square id = ""topsquare"" ></div><img id = ""stim"" ><div class = red_square  id = ""bottomsquare"" ></div>",null,word_square,response,0,none,true,,,
html-keyboard-response,568,1082234,null,"PRAIRIE",null,word,,,,, 'PRAIRIE',,
html-keyboard-response,569,1082584,348,"TEMPLE<img id = ""stim"" ><div class = green_square id = ""topsquare"" ></div><img id = ""stim"" ><div class = green_square  id = ""bottomsquare"" ></div>",32,word_square,response,1,Space,true,,,
html-keyboard-response,570,1084088,null,"TEMPLE",null,word,,,,, 'TEMPLE',,
html-keyboard-response,571,1084456,366,"IDOL<img id = ""stim"" ><div class = green_square id = ""topsquare"" ></div><img id = ""stim"" ><div class = green_square  id = ""bottomsquare"" ></div>",32,word_square,response,1,Space,true,,,
html-keyboard-response,572,1085960,null,"IDOL",null,word,,,,, 'IDOL',,
html-keyboard-response,573,1086463,null,"OUTFIT<img id = ""stim"" ><div class = red_square id = ""topsquare"" ></div><img id = ""stim"" ><div class = red_square  id = ""bottomsquare"" ></div>",null,word_square,response,0,none,true,,,
html-keyboard-response,574,1087967,null,"OUTFIT",null,word,,,,, 'OUTFIT',,
html-keyboard-response,575,1088471,null,"SNACK<img id = ""stim"" ><div class = red_square id = ""topsquare"" ></div><img id = ""stim"" ><div class = red_square  id = ""bottomsquare"" ></div>",null,word_square,response,0,none,true,,,
html-keyboard-response,576,1089974,null,"SNACK",null,word,,,,, 'SNACK',,
html-keyboard-response,577,1090345,368,"TURKEY<img id = ""stim"" ><div class = green_square id = ""topsquare"" ></div><img id = ""stim"" ><div class = green_square  id = ""bottomsquare"" ></div>",32,word_square,response,1,Space,true,,,
html-keyboard-response,578,1091849,null,"TURKEY",null,word,,,,, 'TURKEY',,
html-keyboard-response,579,1092353,null,"SKETCH<img id = ""stim"" ><div class = red_square id = ""topsquare"" ></div><img id = ""stim"" ><div class = red_square  id = ""bottomsquare"" ></div>",null,word_square,response,0,none,true,,,
html-keyboard-response,580,1093856,null,"SKETCH",null,word,,,,, 'SKETCH',,
html-keyboard-response,581,1094297,438,"HAND<img id = ""stim"" ><div class = green_square id = ""topsquare"" ></div><img id = ""stim"" ><div class = green_square  id = ""bottomsquare"" ></div>",32,word_square,response,1,Space,true,,,
html-keyboard-response,582,1095801,null,"HAND",null,word,,,,, 'HAND',,
html-keyboard-response,583,1096190,388,"FINGER<img id = ""stim"" ><div class = green_square id = ""topsquare"" ></div><img id = ""stim"" ><div class = green_square  id = ""bottomsquare"" ></div>",32,word_square,response,1,Space,true,,,
html-keyboard-response,584,1097694,null,"FINGER",null,word,,,,, 'FINGER',,
html-keyboard-response,585,1098198,null,"TREAT<img id = ""stim"" ><div class = red_square id = ""topsquare"" ></div><img id = ""stim"" ><div class = red_square  id = ""bottomsquare"" ></div>",null,word_square,response,0,none,true,,,
html-keyboard-response,586,1099701,null,"TREAT",null,word,,,,, 'TREAT',,
html-keyboard-response,587,1100074,371,"OINTMENT<img id = ""stim"" ><div class = green_square id = ""topsquare"" ></div><img id = ""stim"" ><div class = green_square  id = ""bottomsquare"" ></div>",32,word_square,response,1,Space,true,,,
html-keyboard-response,588,1101578,null,"OINTMENT",null,word,,,,, 'OINTMENT',,
call-function,589,1101579,,"",,,,,,,,,
html-keyboard-response,590,1101680,null,"",null,,,,,,,,
math-period,591,1103600,3658,"",,,,,,,,,3
html-keyboard-response,592,1103701,null,"",null,,,,,,,,
math-period,593,1105512,3532,"",,,,,,,,,0
html-keyboard-response,594,1105613,null,"",null,,,,,,,,
math-period,595,1106592,1844.0000000002328,"",,,,,,,,,4
html-keyboard-response,596,1106694,null,"",null,,,,,,,,
math-period,597,1107649,1833,"",,,,,,,,,5
html-keyboard-response,598,1107751,null,"",null,,,,,,,,
math-period,599,1109152,2644,"",,,,,,,,,1
html-keyboard-response,600,1109254,null,"",null,,,,,,,,
math-period,601,1110951,2846.9999999995343,"",,,,,,,,,2
html-keyboard-response,602,1111054,null,"",null,,,,,,,,
math-period,603,1112159,2064.0000000004657,"",,,,,,,,,4
html-keyboard-response,604,1112262,null,"",null,,,,,,,,
math-period,605,1113824,2976,"",,,,,,,,,0
html-keyboard-response,606,1113926,null,"",null,,,,,,,,
math-period,607,1115232,2469.9999999995343,"",,,,,,,,,1
html-keyboard-response,608,1115334,null,"",null,,,,,,,,
math-period,609,1116360,1912,"",,,,,,,,,4
html-keyboard-response,610,1116463,null,"",null,,,,,,,,
math-period,611,1117976,2902,"",,,,,,,,,0
html-keyboard-response,612,1118078,null,"",null,,,,,,,,
math-period,613,1119480,2704,"",,,,,,,,,5
html-keyboard-response,614,1119582,null,"",null,,,,,,,,
math-period,615,1120592,1918,"",,,,,,,,,5
html-keyboard-response,616,1120694,null,"",null,,,,,,,,
math-period,617,1122136,2792,"",,,,,,,,,2
html-keyboard-response,618,1122238,null,"",null,,,,,,,,
math-period,619,1123620,3897,"",,,,,,,,,12
html-keyboard-response,620,1123722,null,"",null,,,,,,,,
math-period,621,1125542,3519,"",,,,,,,,,3
html-keyboard-response,622,1125644,null,"",null,,,,,,,,
math-period,623,1125646,null,"",,,,,,,,,
html-keyboard-response,624,1126649,null,"Recall Period!",null,,,,,,,,
call-function,625,1126650,,"",,,,,,,,,
html-keyboard-response,626,1126752,null,"",null,,,,,,,,
recall-period,627,1130161,11754.000000000466,"",,,,,,,,,priest
html-keyboard-response,628,1130263,null,"",null,,,,,,,,
recall-period,629,1133008,8593.000000000466,"",,,,,,,,,temple
html-keyboard-response,630,1133111,null,"",null,,,,,,,,
recall-period,631,1135137,7787,"",,,,,,,,,hand
html-keyboard-response,632,1135239,null,"",null,,,,,,,,
recall-period,633,1141696,67271.00000000023,"",,,,,,,,,idol
html-keyboard-response,634,1141798,null,"",null,,,,,,,,
recall-period,635,1150417,44081,"",,,,,,,,,finger
html-keyboard-response,636,1150520,null,"",null,,,,,,,,
recall-period,637,1201654,null,"",,,,,,,,,
html-keyboard-response,638,1202157,null,"Time's Up!",null,,,,,,,,
html-keyboard-response,639,1205051,2889.999999999767,"<p> Good job! You responded correctly to 87% of the GREEN squares.</p>
                  <p>Be sure to keep your accuracy above 80%</p>
                  <p>Press any key to continue the experiment. Thank you!</p>",32,,,,,,,,
html-keyboard-response,640,1207683,2629,"<div style=""font-size:48px;"">Press any key to begin list 7 of 24 </div>",32,,,,,,,,
html-keyboard-response,641,1210188,null,"<div style=""font-size:60px;"">+</div>",null,,,,,,,,
html-keyboard-response,642,1210601,410,"PAVEMENT<img id = ""stim"" ><div class = green_square id = ""topsquare"" ></div><img id = ""stim"" ><div class = green_square  id = ""bottomsquare"" ></div>",32,word_square,response,1,Space,true,,,
html-keyboard-response,643,1212105,null,"PAVEMENT",null,word,,,,, 'PAVEMENT',,
html-keyboard-response,644,1212481,374,"CANDY<img id = ""stim"" ><div class = green_square id = ""topsquare"" ></div><img id = ""stim"" ><div class = green_square  id = ""bottomsquare"" ></div>",32,word_square,response,1,Space,true,,,
html-keyboard-response,645,1213985,null,"CANDY",null,word,,,,, 'CANDY',,
html-keyboard-response,646,1214489,null,"BISON<img id = ""stim"" ><div class = red_square id = ""topsquare"" ></div><img id = ""stim"" ><div class = red_square  id = ""bottomsquare"" ></div>",null,word_square,response,0,none,true,,,
html-keyboard-response,647,1215992,null,"BISON",null,word,,,,, 'BISON',,
html-keyboard-response,648,1216336,342,"PISTOL<img id = ""stim"" ><div class = green_square id = ""topsquare"" ></div><img id = ""stim"" ><div class = green_square  id = ""bottomsquare"" ></div>",32,word_square,response,1,Space,true,,,
html-keyboard-response,649,1217840,null,"PISTOL",null,word,,,,, 'PISTOL',,
html-keyboard-response,650,1218343,null,"RIFLE<img id = ""stim"" ><div class = green_square id = ""topsquare"" ></div><img id = ""stim"" ><div class = green_square  id = ""bottomsquare"" ></div>",null,word_square,response,1,Space,false,,,
html-keyboard-response,651,1219847,null,"RIFLE",null,word,,,,, 'RIFLE',,
html-keyboard-response,652,1220351,null,"CLERK<img id = ""stim"" ><div class = red_square id = ""topsquare"" ></div><img id = ""stim"" ><div class = red_square  id = ""bottomsquare"" ></div>",null,word_square,response,0,none,true,,,
html-keyboard-response,653,1221855,null,"CLERK",null,word,,,,, 'CLERK',,
html-keyboard-response,654,1222358,null,"TRIBE<img id = ""stim"" ><div class = red_square id = ""topsquare"" ></div><img id = ""stim"" ><div class = red_square  id = ""bottomsquare"" ></div>",null,word_square,response,0,none,true,,,
html-keyboard-response,655,1223862,null,"TRIBE",null,word,,,,, 'TRIBE',,
html-keyboard-response,656,1224194,330,"TIGER<img id = ""stim"" ><div class = green_square id = ""topsquare"" ></div><img id = ""stim"" ><div class = green_square  id = ""bottomsquare"" ></div>",32,word_square,response,1,Space,true,,,
html-keyboard-response,657,1225698,null,"TIGER",null,word,,,,, 'TIGER',,
html-keyboard-response,658,1226201,null,"VILLAIN<img id = ""stim"" ><div class = red_square id = ""topsquare"" ></div><img id = ""stim"" ><div class = red_square  id = ""bottomsquare"" ></div>",null,word_square,response,0,none,true,,,
html-keyboard-response,659,1227705,null,"VILLAIN",null,word,,,,, 'VILLAIN',,
html-keyboard-response,660,1228209,null,"GARDEN<img id = ""stim"" ><div class = red_square id = ""topsquare"" ></div><img id = ""stim"" ><div class = red_square  id = ""bottomsquare"" ></div>",null,word_square,response,0,none,true,,,
html-keyboard-response,661,1229713,null,"GARDEN",null,word,,,,, 'GARDEN',,
html-keyboard-response,662,1230105,390,"MASK<img id = ""stim"" ><div class = green_square id = ""topsquare"" ></div><img id = ""stim"" ><div class = green_square  id = ""bottomsquare"" ></div>",32,word_square,response,1,Space,true,,,
html-keyboard-response,663,1231609,null,"MASK",null,word,,,,, 'MASK',,
html-keyboard-response,664,1232065,453.00000000023283,"LOVER<img id = ""stim"" ><div class = green_square id = ""topsquare"" ></div><img id = ""stim"" ><div class = green_square  id = ""bottomsquare"" ></div>",32,word_square,response,1,Space,true,,,
html-keyboard-response,665,1233569,null,"LOVER",null,word,,,,, 'LOVER',,
html-keyboard-response,666,1234073,null,"FLOWER<img id = ""stim"" ><div class = red_square id = ""topsquare"" ></div><img id = ""stim"" ><div class = red_square  id = ""bottomsquare"" ></div>",null,word_square,response,0,none,true,,,
html-keyboard-response,667,1235576,null,"FLOWER",null,word,,,,, 'FLOWER',,
html-keyboard-response,668,1235880,302,"RUST<img id = ""stim"" ><div class = green_square id = ""topsquare"" ></div><img id = ""stim"" ><div class = green_square  id = ""bottomsquare"" ></div>",32,word_square,response,1,Space,true,,,
html-keyboard-response,669,1237384,null,"RUST",null,word,,,,, 'RUST',,
html-keyboard-response,670,1237887,null,"PEDAL<img id = ""stim"" ><div class = red_square id = ""topsquare"" ></div><img id = ""stim"" ><div class = red_square  id = ""bottomsquare"" ></div>",null,word_square,response,0,none,true,,,
html-keyboard-response,671,1239391,null,"PEDAL",null,word,,,,, 'PEDAL',,
html-keyboard-response,672,1239895,null,"SCALLOP<img id = ""stim"" ><div class = red_square id = ""topsquare"" ></div><img id = ""stim"" ><div class = red_square  id = ""bottomsquare"" ></div>",null,word_square,response,0,none,true,,,
html-keyboard-response,673,1241399,null,"SCALLOP",null,word,,,,, 'SCALLOP',,
html-keyboard-response,674,1241688,287,"HOOK<img id = ""stim"" ><div class = green_square id = ""topsquare"" ></div><img id = ""stim"" ><div class = green_square  id = ""bottomsquare"" ></div>",32,word_square,response,1,Space,true,,,
html-keyboard-response,675,1243192,null,"HOOK",null,word,,,,, 'HOOK',,
html-keyboard-response,676,1243695,null,"SPARROW<img id = ""stim"" ><div class = red_square id = ""topsquare"" ></div><img id = ""stim"" ><div class = red_square  id = ""bottomsquare"" ></div>",null,word_square,response,0,none,true,,,
html-keyboard-response,677,1245199,null,"SPARROW",null,word,,,,, 'SPARROW',,
call-function,678,1245200,,"",,,,,,,,,
html-keyboard-response,679,1245302,null,"",null,,,,,,,,
math-period,680,1246840,2839.9999999995343,"",,,,,,,,,4
html-keyboard-response,681,1246943,null,"",null,,,,,,,,
math-period,682,1247536,1030,"",,,,,,,,,4
html-keyboard-response,683,1247638,null,"",null,,,,,,,,
math-period,684,1250664,5920,"",,,,,,,,,1
html-keyboard-response,685,1250767,null,"",null,,,,,,,,
math-period,686,1251912,2182,"",,,,,,,,,5
html-keyboard-response,687,1252014,null,"",null,,,,,,,,
math-period,688,1253790,3446.9999999995343,"",,,,,,,,,2
html-keyboard-response,689,1253891,null,"",null,,,,,,,,
math-period,690,1254904,1873,"",,,,,,,,,4
html-keyboard-response,691,1255007,null,"",null,,,,,,,,
math-period,692,1255968,1774.0000000002328,"",,,,,,,,,3
html-keyboard-response,693,1256071,null,"",null,,,,,,,,
math-period,694,1257040,1821.9999999995343,"",,,,,,,,,4
html-keyboard-response,695,1257142,null,"",null,,,,,,,,
math-period,696,1258648,2920,"",,,,,,,,,0
html-keyboard-response,697,1258761,null,"",null,,,,,,,,
math-period,698,1259742,1844,"",,,,,,,,,0
html-keyboard-response,699,1259844,null,"",null,,,,,,,,
math-period,700,1261032,2268,"",,,,,,,,,1
html-keyboard-response,701,1261134,null,"",null,,,,,,,,
math-period,702,1262048,1720,"",,,,,,,,,4
html-keyboard-response,703,1262150,null,"",null,,,,,,,,
math-period,704,1262816,1174,"",,,,,,,,,4
html-keyboard-response,705,1262919,null,"",null,,,,,,,,
math-period,706,1264040,2118.000000000233,"",,,,,,,,,1
html-keyboard-response,707,1264142,null,"",null,,,,,,,,
math-period,708,1265616,2824.000000000233,"",,,,,,,,,2
html-keyboard-response,709,1265719,null,"",null,,,,,,,,
math-period,710,1266440,1350.0000000002328,"",,,,,,,,,2
html-keyboard-response,711,1266543,null,"",null,,,,,,,,
math-period,712,1267696,2189.9999999995343,"",,,,,,,,,5
html-keyboard-response,713,1267798,null,"",null,,,,,,,,
math-period,714,1268944,2174,"",,,,,,,,,4
html-keyboard-response,715,1269047,null,"",null,,,,,,,,
math-period,716,1269202,null,"",,,,,,,,,
html-keyboard-response,717,1270207,null,"Recall Period!",null,,,,,,,,
call-function,718,1270208,,"",,,,,,,,,
html-keyboard-response,719,1270310,null,"",null,,,,,,,,
recall-period,720,1272881,7553.000000000233,"",,,,,,,,,hook
html-keyboard-response,721,1272984,null,"",null,,,,,,,,
recall-period,722,1274665,8096,"",,,,,,,,,sparrow
html-keyboard-response,723,1274768,null,"",null,,,,,,,,
recall-period,724,1275880,3798,"",,,,,,,,,mask
html-keyboard-response,725,1275984,null,"",null,,,,,,,,
recall-period,726,1277440,6450,"",,,,,,,,,garden
html-keyboard-response,727,1277543,null,"",null,,,,,,,,
recall-period,728,1345211,null,"",,,,,,,,,
html-keyboard-response,729,1345715,null,"Time's Up!",null,,,,,,,,
html-keyboard-response,730,1350185,4467,"<p> Good job! You responded correctly to 88% of the GREEN squares.</p>
                  <p>Be sure to keep your accuracy above 80%</p>
                  <p>Press any key to continue the experiment. Thank you!</p>",32,,,,,,,,
html-keyboard-response,731,1354274,4085,"<div style=""font-size:48px;"">Press any key to begin list 8 of 24 </div>",32,,,,,,,,
html-keyboard-response,732,1356778,null,"<div style=""font-size:60px;"">+</div>",null,,,,,,,,
html-keyboard-response,733,1357161,380.00000000023283,"SLUG<img id = ""stim"" ><div class = green_square id = ""topsquare"" ></div><img id = ""stim"" ><div class = green_square  id = ""bottomsquare"" ></div>",32,word_square,response,1,Space,true,,,
html-keyboard-response,734,1358663,null,"SLUG",null,word,,,,, 'SLUG',,
html-keyboard-response,735,1359030,365,"TORTOISE<img id = ""stim"" ><div class = green_square id = ""topsquare"" ></div><img id = ""stim"" ><div class = green_square  id = ""bottomsquare"" ></div>",32,word_square,response,1,Space,true,,,
html-keyboard-response,736,1360534,null,"TORTOISE",null,word,,,,, 'TORTOISE',,
html-keyboard-response,737,1361037,null,"BASEBALL<img id = ""stim"" ><div class = red_square id = ""topsquare"" ></div><img id = ""stim"" ><div class = red_square  id = ""bottomsquare"" ></div>",null,word_square,response,0,none,true,,,
html-keyboard-response,738,1362542,null,"BASEBALL",null,word,,,,, 'BASEBALL',,
html-keyboard-response,739,1362871,327.99999999976717,"PERFUME<img id = ""stim"" ><div class = green_square id = ""topsquare"" ></div><img id = ""stim"" ><div class = green_square  id = ""bottomsquare"" ></div>",32,word_square,response,1,Space,true,,,
html-keyboard-response,740,1364375,null,"PERFUME",null,word,,,,, 'PERFUME',,
html-keyboard-response,741,1364736,359,"MILDEW<img id = ""stim"" ><div class = green_square id = ""topsquare"" ></div><img id = ""stim"" ><div class = green_square  id = ""bottomsquare"" ></div>",32,word_square,response,1,Space,true,,,
html-keyboard-response,742,1366239,null,"MILDEW",null,word,,,,, 'MILDEW',,
html-keyboard-response,743,1366743,null,"BEDROOM<img id = ""stim"" ><div class = red_square id = ""topsquare"" ></div><img id = ""stim"" ><div class = red_square  id = ""bottomsquare"" ></div>",null,word_square,response,0,none,true,,,
html-keyboard-response,744,1368246,null,"BEDROOM",null,word,,,,, 'BEDROOM',,
html-keyboard-response,745,1368749,null,"GODDESS<img id = ""stim"" ><div class = red_square id = ""topsquare"" ></div><img id = ""stim"" ><div class = red_square  id = ""bottomsquare"" ></div>",null,word_square,response,0,none,true,,,
html-keyboard-response,746,1370252,null,"GODDESS",null,word,,,,, 'GODDESS',,
html-keyboard-response,747,1370552,298,"SHAMPOO<img id = ""stim"" ><div class = green_square id = ""topsquare"" ></div><img id = ""stim"" ><div class = green_square  id = ""bottomsquare"" ></div>",32,word_square,response,1,Space,true,,,
html-keyboard-response,748,1372056,null,"SHAMPOO",null,word,,,,, 'SHAMPOO',,
html-keyboard-response,749,1372497,438.00000000023283,"PEOPLE<img id = ""stim"" ><div class = red_square id = ""topsquare"" ></div><img id = ""stim"" ><div class = red_square  id = ""bottomsquare"" ></div>",32,word_square,response,0,none,false,,,
html-keyboard-response,750,1374001,null,"PEOPLE",null,word,,,,, 'PEOPLE',,
html-keyboard-response,751,1374507,null,"CLIMBER<img id = ""stim"" ><div class = red_square id = ""topsquare"" ></div><img id = ""stim"" ><div class = red_square  id = ""bottomsquare"" ></div>",null,word_square,response,0,none,true,,,
html-keyboard-response,752,1376011,null,"CLIMBER",null,word,,,,, 'CLIMBER',,
html-keyboard-response,753,1376344,332,"BUREAU<img id = ""stim"" ><div class = green_square id = ""topsquare"" ></div><img id = ""stim"" ><div class = green_square  id = ""bottomsquare"" ></div>",32,word_square,response,1,Space,true,,,
html-keyboard-response,754,1377849,null,"BUREAU",null,word,,,,, 'BUREAU',,
html-keyboard-response,755,1378144,294,"FRIES<img id = ""stim"" ><div class = green_square id = ""topsquare"" ></div><img id = ""stim"" ><div class = green_square  id = ""bottomsquare"" ></div>",32,word_square,response,1,Space,true,,,
html-keyboard-response,756,1379648,null,"FRIES",null,word,,,,, 'FRIES',,
html-keyboard-response,757,1380152,null,"BRIEFCASE<img id = ""stim"" ><div class = red_square id = ""topsquare"" ></div><img id = ""stim"" ><div class = red_square  id = ""bottomsquare"" ></div>",null,word_square,response,0,none,true,,,
html-keyboard-response,758,1381655,null,"BRIEFCASE",null,word,,,,, 'BRIEFCASE',,
html-keyboard-response,759,1382128,470,"PUDDLE<img id = ""stim"" ><div class = green_square id = ""topsquare"" ></div><img id = ""stim"" ><div class = green_square  id = ""bottomsquare"" ></div>",32,word_square,response,1,Space,true,,,
html-keyboard-response,760,1383631,null,"PUDDLE",null,word,,,,, 'PUDDLE',,
html-keyboard-response,761,1384135,null,"PONY<img id = ""stim"" ><div class = red_square id = ""topsquare"" ></div><img id = ""stim"" ><div class = red_square  id = ""bottomsquare"" ></div>",null,word_square,response,0,none,true,,,
html-keyboard-response,762,1385638,null,"PONY",null,word,,,,, 'PONY',,
html-keyboard-response,763,1386142,null,"ZIPPER<img id = ""stim"" ><div class = red_square id = ""topsquare"" ></div><img id = ""stim"" ><div class = red_square  id = ""bottomsquare"" ></div>",null,word_square,response,0,none,true,,,
html-keyboard-response,764,1387645,null,"ZIPPER",null,word,,,,, 'ZIPPER',,
html-keyboard-response,765,1387976,329,"THIEF<img id = ""stim"" ><div class = green_square id = ""topsquare"" ></div><img id = ""stim"" ><div class = green_square  id = ""bottomsquare"" ></div>",32,word_square,response,1,Space,true,,,
html-keyboard-response,766,1389479,null,"THIEF",null,word,,,,, 'THIEF',,
html-keyboard-response,767,1389982,null,"BISCUIT<img id = ""stim"" ><div class = red_square id = ""topsquare"" ></div><img id = ""stim"" ><div class = red_square  id = ""bottomsquare"" ></div>",null,word_square,response,0,none,true,,,
html-keyboard-response,768,1391486,null,"BISCUIT",null,word,,,,, 'BISCUIT',,
call-function,769,1391487,,"",,,,,,,,,
html-keyboard-response,770,1391589,null,"",null,,,,,,,,
math-period,771,1393032,2682,"",,,,,,,,,4
html-keyboard-response,772,1393135,null,"",null,,,,,,,,
math-period,773,1394264,2150.000000000233,"",,,,,,,,,6
html-keyboard-response,774,1394366,null,"",null,,,,,,,,
math-period,775,1396984,8340,"",,,,,,,,,2
html-keyboard-response,776,1397088,null,"",null,,,,,,,,
math-period,777,1398094,1867,"",,,,,,,,,3
html-keyboard-response,778,1398195,null,"",null,,,,,,,,
math-period,779,1399576,2334,"",,,,,,,,,4
html-keyboard-response,780,1399679,null,"",null,,,,,,,,
math-period,781,1400680,1886,"",,,,,,,,,5
html-keyboard-response,782,1400783,null,"",null,,,,,,,,
math-period,783,1402040,2368,"",,,,,,,,,2
html-keyboard-response,784,1402143,null,"",null,,,,,,,,
math-period,785,1403456,2456,"",,,,,,,,,1
html-keyboard-response,786,1403557,null,"",null,,,,,,,,
math-period,787,1404496,1706.0000000002328,"",,,,,,,,,2
html-keyboard-response,788,1404599,null,"",null,,,,,,,,
math-period,789,1405872,2406,"",,,,,,,,,3
html-keyboard-response,790,1405974,null,"",null,,,,,,,,
math-period,791,1406888,1704,"",,,,,,,,,4
html-keyboard-response,792,1406991,null,"",null,,,,,,,,
math-period,793,1407960,1798,"",,,,,,,,,2
html-keyboard-response,794,1408063,null,"",null,,,,,,,,
math-period,795,1410200,4134.000000000233,"",,,,,,,,,2
html-keyboard-response,796,1410303,null,"",null,,,,,,,,
math-period,797,1411296,1871.9999999995343,"",,,,,,,,,3
html-keyboard-response,798,1411399,null,"",null,,,,,,,,
math-period,799,1413236,3097,"",,,,,,,,,5
html-keyboard-response,800,1413337,null,"",null,,,,,,,,
math-period,801,1414960,3066,"",,,,,,,,,3
html-keyboard-response,802,1415063,null,"",null,,,,,,,,
math-period,803,1415489,null,"",,,,,,,,,
html-keyboard-response,804,1416495,null,"Recall Period!",null,,,,,,,,
call-function,805,1416496,,"",,,,,,,,,
html-keyboard-response,806,1416598,null,"",null,,,,,,,,
recall-period,807,1418417,6481,"",,,,,,,,,slug
html-keyboard-response,808,1418519,null,"",null,,,,,,,,
recall-period,809,1421473,16112,"",,,,,,,,,tortoise
html-keyboard-response,810,1421576,null,"",null,,,,,,,,
recall-period,811,1423664,11372.000000000233,"",,,,,,,,,baseball
html-keyboard-response,812,1423766,null,"",null,,,,,,,,
recall-period,813,1425688,6296,"",,,,,,,,,fries
html-keyboard-response,814,1425791,null,"",null,,,,,,,,
recall-period,815,1427592,6194.000000000466,"",,,,,,,,,theif
html-keyboard-response,816,1427695,null,"",null,,,,,,,,
recall-period,817,1432929,39906.00000000023,"",,,,,,,,,breifcase
html-keyboard-response,818,1433032,null,"",null,,,,,,,,
recall-period,819,1438135,23414,"",,,,,,,,,pony
html-keyboard-response,820,1438238,null,"",null,,,,,,,,
recall-period,821,1491499,null,"",,,,,,,,,
html-keyboard-response,822,1492003,null,"Time's Up!",null,,,,,,,,
html-keyboard-response,823,1494930,2921,"<p> Good job! You responded correctly to 89% of the GREEN squares.</p>
                  <p>Be sure to keep your accuracy above 80%</p>
                  <p>Press any key to continue the experiment. Thank you!</p>",32,,,,,,,,
html-keyboard-response,824,1496536,1604,"<div style=""font-size:48px;"">Press any key to begin list 9 of 24 </div>",32,,,,,,,,
html-keyboard-response,825,1499040,null,"<div style=""font-size:60px;"">+</div>",null,,,,,,,,
html-keyboard-response,826,1499544,null,"RAISIN<img id = ""stim"" ><div class = red_square id = ""topsquare"" ></div><img id = ""stim"" ><div class = red_square  id = ""bottomsquare"" ></div>",null,word_square,response,0,none,true,,,
html-keyboard-response,827,1501048,null,"RAISIN",null,word,,,,, 'RAISIN',,
html-keyboard-response,828,1501552,null,"SCARECROW<img id = ""stim"" ><div class = green_square id = ""topsquare"" ></div><img id = ""stim"" ><div class = green_square  id = ""bottomsquare"" ></div>",null,word_square,response,1,Space,false,,,
html-keyboard-response,829,1503055,null,"SCARECROW",null,word,,,,, 'SCARECROW',,
html-keyboard-response,830,1503559,null,"LIZARD<img id = ""stim"" ><div class = red_square id = ""topsquare"" ></div><img id = ""stim"" ><div class = red_square  id = ""bottomsquare"" ></div>",null,word_square,response,0,none,true,,,
html-keyboard-response,831,1505063,null,"LIZARD",null,word,,,,, 'LIZARD',,
html-keyboard-response,832,1505440,374,"SOCKET<img id = ""stim"" ><div class = green_square id = ""topsquare"" ></div><img id = ""stim"" ><div class = green_square  id = ""bottomsquare"" ></div>",32,word_square,response,1,Space,true,,,
html-keyboard-response,833,1506944,null,"SOCKET",null,word,,,,, 'SOCKET',,
html-keyboard-response,834,1507287,341,"PORT<img id = ""stim"" ><div class = green_square id = ""topsquare"" ></div><img id = ""stim"" ><div class = green_square  id = ""bottomsquare"" ></div>",32,word_square,response,1,Space,true,,,
html-keyboard-response,835,1508790,null,"PORT",null,word,,,,, 'PORT',,
html-keyboard-response,836,1509176,383,"MAILMAN<img id = ""stim"" ><div class = green_square id = ""topsquare"" ></div><img id = ""stim"" ><div class = green_square  id = ""bottomsquare"" ></div>",32,word_square,response,1,Space,true,,,
html-keyboard-response,837,1510680,null,"MAILMAN",null,word,,,,, 'MAILMAN',,
html-keyboard-response,838,1511088,405,"BUBBLE<img id = ""stim"" ><div class = green_square id = ""topsquare"" ></div><img id = ""stim"" ><div class = green_square  id = ""bottomsquare"" ></div>",32,word_square,response,1,Space,true,,,
html-keyboard-response,839,1512592,null,"BUBBLE",null,word,,,,, 'BUBBLE',,
html-keyboard-response,840,1513024,429,"BUCKET<img id = ""stim"" ><div class = red_square id = ""topsquare"" ></div><img id = ""stim"" ><div class = red_square  id = ""bottomsquare"" ></div>",32,word_square,response,0,none,false,,,
html-keyboard-response,841,1514528,null,"BUCKET",null,word,,,,, 'BUCKET',,
html-keyboard-response,842,1514863,333,"SLACKS<img id = ""stim"" ><div class = green_square id = ""topsquare"" ></div><img id = ""stim"" ><div class = green_square  id = ""bottomsquare"" ></div>",32,word_square,response,1,Space,true,,,
html-keyboard-response,843,1516367,null,"SLACKS",null,word,,,,, 'SLACKS',,
html-keyboard-response,844,1516870,null,"VIRUS<img id = ""stim"" ><div class = red_square id = ""topsquare"" ></div><img id = ""stim"" ><div class = red_square  id = ""bottomsquare"" ></div>",null,word_square,response,0,none,true,,,
html-keyboard-response,845,1518374,null,"VIRUS",null,word,,,,, 'VIRUS',,
html-keyboard-response,846,1518878,null,"FOSSIL<img id = ""stim"" ><div class = red_square id = ""topsquare"" ></div><img id = ""stim"" ><div class = red_square  id = ""bottomsquare"" ></div>",null,word_square,response,0,none,true,,,
html-keyboard-response,847,1520382,null,"FOSSIL",null,word,,,,, 'FOSSIL',,
html-keyboard-response,848,1520769,384,"TRENCH<img id = ""stim"" ><div class = green_square id = ""topsquare"" ></div><img id = ""stim"" ><div class = green_square  id = ""bottomsquare"" ></div>",32,word_square,response,1,Space,true,,,
html-keyboard-response,849,1522273,null,"TRENCH",null,word,,,,, 'TRENCH',,
html-keyboard-response,850,1522777,null,"MUSTARD<img id = ""stim"" ><div class = red_square id = ""topsquare"" ></div><img id = ""stim"" ><div class = red_square  id = ""bottomsquare"" ></div>",null,word_square,response,0,none,true,,,
html-keyboard-response,851,1524280,null,"MUSTARD",null,word,,,,, 'MUSTARD',,
html-keyboard-response,852,1524784,null,"MONSTER<img id = ""stim"" ><div class = red_square id = ""topsquare"" ></div><img id = ""stim"" ><div class = red_square  id = ""bottomsquare"" ></div>",null,word_square,response,0,none,true,,,
html-keyboard-response,853,1526288,null,"MONSTER",null,word,,,,, 'MONSTER',,
html-keyboard-response,854,1526745,454,"BEAST<img id = ""stim"" ><div class = green_square id = ""topsquare"" ></div><img id = ""stim"" ><div class = green_square  id = ""bottomsquare"" ></div>",32,word_square,response,1,Space,true,,,
html-keyboard-response,855,1528249,null,"BEAST",null,word,,,,, 'BEAST',,
html-keyboard-response,856,1528753,null,"SKUNK<img id = ""stim"" ><div class = red_square id = ""topsquare"" ></div><img id = ""stim"" ><div class = red_square  id = ""bottomsquare"" ></div>",null,word_square,response,0,none,true,,,
html-keyboard-response,857,1530257,null,"SKUNK",null,word,,,,, 'SKUNK',,
html-keyboard-response,858,1530760,null,"SLIDE<img id = ""stim"" ><div class = red_square id = ""topsquare"" ></div><img id = ""stim"" ><div class = red_square  id = ""bottomsquare"" ></div>",null,word_square,response,0,none,true,,,
html-keyboard-response,859,1532264,null,"SLIDE",null,word,,,,, 'SLIDE',,
html-keyboard-response,860,1532603,338,"SNAKE<img id = ""stim"" ><div class = green_square id = ""topsquare"" ></div><img id = ""stim"" ><div class = green_square  id = ""bottomsquare"" ></div>",32,word_square,response,1,Space,true,,,
html-keyboard-response,861,1534107,null,"SNAKE",null,word,,,,, 'SNAKE',,
call-function,862,1534108,,"",,,,,,,,,
html-keyboard-response,863,1534211,null,"",null,,,,,,,,
math-period,864,1535815,2940,"",,,,,,,,,3
html-keyboard-response,865,1535917,null,"",null,,,,,,,,
math-period,866,1537183,2374,"",,,,,,,,,6
html-keyboard-response,867,1537285,null,"",null,,,,,,,,
math-period,868,1538951,3198,"",,,,,,,,,1
html-keyboard-response,869,1539054,null,"",null,,,,,,,,
math-period,870,1540093,1997.0000000002328,"",,,,,,,,,5
html-keyboard-response,871,1540194,null,"",null,,,,,,,,
math-period,872,1540999,1519,"",,,,,,,,,3
html-keyboard-response,873,1541101,null,"",null,,,,,,,,
math-period,874,1542127,1945,"",,,,,,,,,5
html-keyboard-response,875,1542230,null,"",null,,,,,,,,
math-period,876,1543087,1582,"",,,,,,,,,2
html-keyboard-response,877,1543189,null,"",null,,,,,,,,
math-period,878,1544703,2932,"",,,,,,,,,0
html-keyboard-response,879,1544805,null,"",null,,,,,,,,
math-period,880,1546639,3566.0000000004657,"",,,,,,,,,4
html-keyboard-response,881,1546741,null,"",null,,,,,,,,
math-period,882,1549007,4366,"",,,,,,,,,6
html-keyboard-response,883,1549109,null,"",null,,,,,,,,
math-period,884,1550111,1912.9999999995343,"",,,,,,,,,5
html-keyboard-response,885,1550214,null,"",null,,,,,,,,
math-period,886,1550927,1341.9999999995343,"",,,,,,,,,5
html-keyboard-response,887,1551029,null,"",null,,,,,,,,
math-period,888,1552375,2550,"",,,,,,,,,1
html-keyboard-response,889,1552477,null,"",null,,,,,,,,
math-period,890,1554254,3431.000000000233,"",,,,,,,,,3
html-keyboard-response,891,1554357,null,"",null,,,,,,,,
math-period,892,1555982,3145.000000000233,"",,,,,,,,,1
html-keyboard-response,893,1556086,null,"",null,,,,,,,,
math-period,894,1556669,1069,"",,,,,,,,,1
html-keyboard-response,895,1556771,null,"",null,,,,,,,,
math-period,896,1557807,1970.9999999995343,"",,,,,,,,,3
html-keyboard-response,897,1557909,null,"",null,,,,,,,,
math-period,898,1558110,null,"",,,,,,,,,
html-keyboard-response,899,1559114,null,"Recall Period!",null,,,,,,,,
call-function,900,1559115,,"",,,,,,,,,
html-keyboard-response,901,1559218,null,"",null,,,,,,,,
recall-period,902,1566912,35778.000000000466,"",,,,,,,,,rasions
html-keyboard-response,903,1567015,null,"",null,,,,,,,,
recall-period,904,1568752,6788.0000000006985,"",,,,,,,,,beast
html-keyboard-response,905,1568854,null,"",null,,,,,,,,
recall-period,906,1570478,5090,"",,,,,,,,,slide
html-keyboard-response,907,1570581,null,"",null,,,,,,,,
recall-period,908,1579064,64752.00000000023,"",,,,,,,,,mailman
html-keyboard-response,909,1579167,null,"",null,,,,,,,,
recall-period,910,1590279,61119.999999998836,"",,,,,,,,,skunk
html-keyboard-response,911,1590381,null,"",null,,,,,,,,
recall-period,912,1592632,11216.000000000466,"",,,,,,,,,monster
html-keyboard-response,913,1592734,null,"",null,,,,,,,,
recall-period,914,1608849,78208.99999999907,"",,,,,,,,,port
html-keyboard-response,915,1608952,null,"",null,,,,,,,,
recall-period,916,1631600,130637.00000000047,"",,,,,,,,,beast
html-keyboard-response,917,1631702,null,"",null,,,,,,,,
recall-period,918,1634118,null,"",,,,,,,,,
html-keyboard-response,919,1634622,null,"Time's Up!",null,,,,,,,,
html-keyboard-response,920,1637464,2838,"<p> Good job! You responded correctly to 89% of the GREEN squares.</p>
                  <p>Be sure to keep your accuracy above 80%</p>
                  <p>Press any key to continue the experiment. Thank you!</p>",32,,,,,,,,
html-keyboard-response,921,1638504,1036.9999999997672,"<div style=""font-size:48px;"">Press any key to begin list 10 of 24 </div>",32,,,,,,,,
html-keyboard-response,922,1641009,null,"<div style=""font-size:60px;"">+</div>",null,,,,,,,,
html-keyboard-response,923,1641512,null,"RAILROAD<img id = ""stim"" ><div class = red_square id = ""topsquare"" ></div><img id = ""stim"" ><div class = red_square  id = ""bottomsquare"" ></div>",null,word_square,response,0,none,true,,,
html-keyboard-response,924,1643016,null,"RAILROAD",null,word,,,,, 'RAILROAD',,
html-keyboard-response,925,1643343,325,"LOFT<img id = ""stim"" ><div class = green_square id = ""topsquare"" ></div><img id = ""stim"" ><div class = green_square  id = ""bottomsquare"" ></div>",32,word_square,response,1,Space,true,,,
html-keyboard-response,926,1644847,null,"LOFT",null,word,,,,, 'LOFT',,
html-keyboard-response,927,1645350,null,"SERVANT<img id = ""stim"" ><div class = red_square id = ""topsquare"" ></div><img id = ""stim"" ><div class = red_square  id = ""bottomsquare"" ></div>",null,word_square,response,0,none,true,,,
html-keyboard-response,928,1646854,null,"SERVANT",null,word,,,,, 'SERVANT',,
html-keyboard-response,929,1647191,335,"POSTAGE<img id = ""stim"" ><div class = green_square id = ""topsquare"" ></div><img id = ""stim"" ><div class = green_square  id = ""bottomsquare"" ></div>",32,word_square,response,1,Space,true,,,
html-keyboard-response,930,1648696,null,"POSTAGE",null,word,,,,, 'POSTAGE',,
html-keyboard-response,931,1649072,373,"CAPTIVE<img id = ""stim"" ><div class = green_square id = ""topsquare"" ></div><img id = ""stim"" ><div class = green_square  id = ""bottomsquare"" ></div>",32,word_square,response,1,Space,true,,,
html-keyboard-response,932,1650576,null,"CAPTIVE",null,word,,,,, 'CAPTIVE',,
html-keyboard-response,933,1650919,341.00000000023283,"PATIENT<img id = ""stim"" ><div class = green_square id = ""topsquare"" ></div><img id = ""stim"" ><div class = green_square  id = ""bottomsquare"" ></div>",32,word_square,response,1,Space,true,,,
html-keyboard-response,934,1652423,null,"PATIENT",null,word,,,,, 'PATIENT',,
html-keyboard-response,935,1652865,439,"HAYSTACK<img id = ""stim"" ><div class = green_square id = ""topsquare"" ></div><img id = ""stim"" ><div class = green_square  id = ""bottomsquare"" ></div>",32,word_square,response,1,Space,true,,,
html-keyboard-response,936,1654369,null,"HAYSTACK",null,word,,,,, 'HAYSTACK',,
html-keyboard-response,937,1654873,null,"CAMEL<img id = ""stim"" ><div class = red_square id = ""topsquare"" ></div><img id = ""stim"" ><div class = red_square  id = ""bottomsquare"" ></div>",null,word_square,response,0,none,true,,,
html-keyboard-response,938,1656376,null,"CAMEL",null,word,,,,, 'CAMEL',,
html-keyboard-response,939,1656872,493,"CIGAR<img id = ""stim"" ><div class = green_square id = ""topsquare"" ></div><img id = ""stim"" ><div class = green_square  id = ""bottomsquare"" ></div>",32,word_square,response,1,Space,true,,,
html-keyboard-response,940,1658376,null,"CIGAR",null,word,,,,, 'CIGAR',,
html-keyboard-response,941,1658880,null,"WINDSHIELD<img id = ""stim"" ><div class = red_square id = ""topsquare"" ></div><img id = ""stim"" ><div class = red_square  id = ""bottomsquare"" ></div>",null,word_square,response,0,none,true,,,
html-keyboard-response,942,1660384,null,"WINDSHIELD",null,word,,,,, 'WINDSHIELD',,
html-keyboard-response,943,1660888,null,"ROBIN<img id = ""stim"" ><div class = red_square id = ""topsquare"" ></div><img id = ""stim"" ><div class = red_square  id = ""bottomsquare"" ></div>",null,word_square,response,0,none,true,,,
html-keyboard-response,944,1662390,null,"ROBIN",null,word,,,,, 'ROBIN',,
html-keyboard-response,945,1662808,415,"FIGHTER<img id = ""stim"" ><div class = green_square id = ""topsquare"" ></div><img id = ""stim"" ><div class = green_square  id = ""bottomsquare"" ></div>",32,word_square,response,1,Space,true,,,
html-keyboard-response,946,1664312,null,"FIGHTER",null,word,,,,, 'FIGHTER',,
html-keyboard-response,947,1664816,null,"WAIST<img id = ""stim"" ><div class = red_square id = ""topsquare"" ></div><img id = ""stim"" ><div class = red_square  id = ""bottomsquare"" ></div>",null,word_square,response,0,none,true,,,
html-keyboard-response,948,1666320,null,"WAIST",null,word,,,,, 'WAIST',,
html-keyboard-response,949,1666823,null,"SCAPEGOAT<img id = ""stim"" ><div class = red_square id = ""topsquare"" ></div><img id = ""stim"" ><div class = red_square  id = ""bottomsquare"" ></div>",null,word_square,response,0,none,true,,,
html-keyboard-response,950,1668327,null,"SCAPEGOAT",null,word,,,,, 'SCAPEGOAT',,
html-keyboard-response,951,1668736,406,"DORM<img id = ""stim"" ><div class = green_square id = ""topsquare"" ></div><img id = ""stim"" ><div class = green_square  id = ""bottomsquare"" ></div>",32,word_square,response,1,Space,true,,,
html-keyboard-response,952,1670240,null,"DORM",null,word,,,,, 'DORM',,
html-keyboard-response,953,1670743,null,"PLASTER<img id = ""stim"" ><div class = red_square id = ""topsquare"" ></div><img id = ""stim"" ><div class = red_square  id = ""bottomsquare"" ></div>",null,word_square,response,0,none,true,,,
html-keyboard-response,954,1672248,null,"PLASTER",null,word,,,,, 'PLASTER',,
html-keyboard-response,955,1672752,null,"ZEBRA<img id = ""stim"" ><div class = red_square id = ""topsquare"" ></div><img id = ""stim"" ><div class = red_square  id = ""bottomsquare"" ></div>",null,word_square,response,0,none,true,,,
html-keyboard-response,956,1674256,null,"ZEBRA",null,word,,,,, 'ZEBRA',,
html-keyboard-response,957,1674648,389,"OX<img id = ""stim"" ><div class = green_square id = ""topsquare"" ></div><img id = ""stim"" ><div class = green_square  id = ""bottomsquare"" ></div>",32,word_square,response,1,Space,true,,,
html-keyboard-response,958,1676152,null,"OX",null,word,,,,, 'OX',,
call-function,959,1676153,,"",,,,,,,,,
html-keyboard-response,960,1676255,null,"",null,,,,,,,,
math-period,961,1678205,3729,"",,,,,,,,,4
html-keyboard-response,962,1678308,null,"",null,,,,,,,,
math-period,963,1679559,2396.000000000233,"",,,,,,,,,3
