trial_type,trial_index,time_elapsed,rt,stimulus,key_press,test_part,task,targ_cond,correctKeyCode,correct,word,value,response
pavlovia,0,1070,,"",,,,,,,,,
external-html,1,97912,96934.14500006475,"",,,,,,,,,
html-keyboard-response,2,99637,1714.5800000289455,"Welcome to the experiment. Press any key to begin.",32,,,,,,,,
html-keyboard-response,3,114360,14721.344999969006,"<p>You will see a list of words and colored squares in the following task.<p><p>Press the spacebar whenever you see a GREEN square.<p><p>Do not press a key if the square is RED<p><p>Press the spacebar to continue.</p>",32,,,,,,,,
html-keyboard-response,4,123099,8236.095000058413,"<p>Please try to remember as many of the words as you can, and try to think about the meaning of each word as it appears.<p><p>After the detection and encoding task you will be asked to solve some math problems for 24 seconds.<p> Please solve as many problems as you can in the time given. <p>",32,,,,,,,,
html-keyboard-response,5,135344,11742.194999940693,"After solving the math problems, you will be asked to type in as many words <p>from the previous list as you can remember for 75 seconds.<p> If you finish recalling before the 75 seconds are up,<p> just sit tight and try to think of any more words you could have missed. <p><p>We will begin with a brief practice session<p>Press the spacebar to begin the practice.</p>",32,,,,,,,,
html-keyboard-response,6,137850,null,"<div style=""font-size:60px;"">+</div>",null,,,,,,,,
html-keyboard-response,7,138355,null,"HAPPY<img id = ""stim"" ><div class = red_square id = ""topsquare"" ></div><img id = ""stim"" ><div class = red_square  id = ""bottomsquare"" ></div>",null,word_square,prac_response,0,none,true,,,
html-keyboard-response,8,139858,null,"HAPPY",null,word,,,,,HAPPY,,
html-keyboard-response,9,140363,null,"COLD<img id = ""stim"" ><div class = green_square id = ""topsquare"" ></div><img id = ""stim"" ><div class = green_square  id = ""bottomsquare"" ></div>",null,word_square,prac_response,1,Space,false,,,
html-keyboard-response,10,141866,null,"COLD",null,word,,,,,COLD,,
html-keyboard-response,11,142371,null,"HEAVY<img id = ""stim"" ><div class = green_square id = ""topsquare"" ></div><img id = ""stim"" ><div class = green_square  id = ""bottomsquare"" ></div>",null,word_square,prac_response,1,Space,false,,,
html-keyboard-response,12,143878,null,"HEAVY",null,word,,,,,HEAVY,,
html-keyboard-response,13,144384,null,"FUNNY<img id = ""stim"" ><div class = red_square id = ""topsquare"" ></div><img id = ""stim"" ><div class = red_square  id = ""bottomsquare"" ></div>",null,word_square,prac_response,0,none,true,,,
html-keyboard-response,14,145888,null,"FUNNY",null,word,,,,,FUNNY,,
html-keyboard-response,15,146395,null,"SCARY<img id = ""stim"" ><div class = green_square id = ""topsquare"" ></div><img id = ""stim"" ><div class = green_square  id = ""bottomsquare"" ></div>",null,word_square,prac_response,1,Space,false,,,
html-keyboard-response,16,147900,null,"SCARY",null,word,,,,,SCARY,,
html-keyboard-response,17,148405,null,"PEACEFUL<img id = ""stim"" ><div class = green_square id = ""topsquare"" ></div><img id = ""stim"" ><div class = green_square  id = ""bottomsquare"" ></div>",null,word_square,prac_response,1,Space,false,,,
html-keyboard-response,18,149910,null,"PEACEFUL",null,word,,,,,PEACEFUL,,
html-keyboard-response,19,150414,null,"LITTLE<img id = ""stim"" ><div class = red_square id = ""topsquare"" ></div><img id = ""stim"" ><div class = red_square  id = ""bottomsquare"" ></div>",null,word_square,prac_response,0,none,true,,,
html-keyboard-response,20,151917,null,"LITTLE",null,word,,,,,LITTLE,,
html-keyboard-response,21,152427,null,"TIRED<img id = ""stim"" ><div class = red_square id = ""topsquare"" ></div><img id = ""stim"" ><div class = red_square  id = ""bottomsquare"" ></div>",null,word_square,prac_response,0,none,true,,,
html-keyboard-response,22,153929,null,"TIRED",null,word,,,,,TIRED,,
html-keyboard-response,23,154432,null,"ENTERTAINING<img id = ""stim"" ><div class = red_square id = ""topsquare"" ></div><img id = ""stim"" ><div class = red_square  id = ""bottomsquare"" ></div>",null,word_square,prac_response,0,none,true,,,
html-keyboard-response,24,155937,null,"ENTERTAINING",null,word,,,,,ENTERTAINING,,
html-keyboard-response,25,156441,482.06000006757677,"GRATEFUL<img id = ""stim"" ><div class = green_square id = ""topsquare"" ></div><img id = ""stim"" ><div class = green_square  id = ""bottomsquare"" ></div>",32,word_square,prac_response,1,Space,true,,,
html-keyboard-response,26,157950,null,"GRATEFUL",null,word,,,,,GRATEFUL,,
html-keyboard-response,27,158459,null,"LOUD<img id = ""stim"" ><div class = red_square id = ""topsquare"" ></div><img id = ""stim"" ><div class = red_square  id = ""bottomsquare"" ></div>",null,word_square,prac_response,0,none,true,,,
html-keyboard-response,28,159961,null,"LOUD",null,word,,,,,LOUD,,
html-keyboard-response,29,160468,null,"SMART<img id = ""stim"" ><div class = green_square id = ""topsquare"" ></div><img id = ""stim"" ><div class = green_square  id = ""bottomsquare"" ></div>",null,word_square,prac_response,1,Space,false,,,
html-keyboard-response,30,161971,null,"SMART",null,word,,,,,SMART,,
html-keyboard-response,31,162478,null,"SMOOTH<img id = ""stim"" ><div class = green_square id = ""topsquare"" ></div><img id = ""stim"" ><div class = green_square  id = ""bottomsquare"" ></div>",null,word_square,prac_response,1,Space,false,,,
html-keyboard-response,32,163981,null,"SMOOTH",null,word,,,,,SMOOTH,,
html-keyboard-response,33,164489,null,"DISHONEST<img id = ""stim"" ><div class = red_square id = ""topsquare"" ></div><img id = ""stim"" ><div class = red_square  id = ""bottomsquare"" ></div>",null,word_square,prac_response,0,none,true,,,
html-keyboard-response,34,165995,null,"DISHONEST",null,word,,,,,DISHONEST,,
html-keyboard-response,35,166502,null,"WEALTHY<img id = ""stim"" ><div class = green_square id = ""topsquare"" ></div><img id = ""stim"" ><div class = green_square  id = ""bottomsquare"" ></div>",null,word_square,prac_response,1,Space,false,,,
html-keyboard-response,36,168005,null,"WEALTHY",null,word,,,,,WEALTHY,,
html-keyboard-response,37,168508,null,"BEAUTIFUL<img id = ""stim"" ><div class = red_square id = ""topsquare"" ></div><img id = ""stim"" ><div class = red_square  id = ""bottomsquare"" ></div>",null,word_square,prac_response,0,none,true,,,
html-keyboard-response,38,170011,null,"BEAUTIFUL",null,word,,,,,BEAUTIFUL,,
html-keyboard-response,39,170514,498.8349999766797,"DREARY<img id = ""stim"" ><div class = red_square id = ""topsquare"" ></div><img id = ""stim"" ><div class = red_square  id = ""bottomsquare"" ></div>",32,word_square,prac_response,0,none,true,,,
html-keyboard-response,40,172016,null,"DREARY",null,word,,,,,DREARY,,
html-keyboard-response,41,172521,484.3849999597296,"PLAYFUL<img id = ""stim"" ><div class = green_square id = ""topsquare"" ></div><img id = ""stim"" ><div class = green_square  id = ""bottomsquare"" ></div>",32,word_square,prac_response,1,Space,true,,,
html-keyboard-response,42,174024,null,"PLAYFUL",null,word,,,,,PLAYFUL,,
html-keyboard-response,43,181638,7610.714999958873,"<p> Uh oh. You responded correctly on 61% of the GREEN squares.</p>
                  <p>We need you keep your accuracy above 80%</p>
                  <p>We're going to try once more to make sure you understand the task. press any key to continue.</p>",32,,,,,,,,
html-keyboard-response,44,183966,2327.0100000081584,"<p>You will see a list of words and colored squares in the following task.<p><p>Press the spacebar whenever you see a GREEN square.<p><p>Do not press a key if the square is RED<p><p>Press the spacebar to continue.</p>",32,,,,,,,,
html-keyboard-response,45,186474,null,"<div style=""font-size:60px;"">+</div>",null,,,,,,,,
html-keyboard-response,46,186982,null,"HAPPY<img id = ""stim"" ><div class = red_square id = ""topsquare"" ></div><img id = ""stim"" ><div class = red_square  id = ""bottomsquare"" ></div>",null,word_square,response,0,none,true,,,
html-keyboard-response,47,188486,null,"HAPPY",null,word,,,,,HAPPY,,
html-keyboard-response,48,188840,351.2849999824539,"COLD<img id = ""stim"" ><div class = green_square id = ""topsquare"" ></div><img id = ""stim"" ><div class = green_square  id = ""bottomsquare"" ></div>",32,word_square,response,1,Space,true,,,
html-keyboard-response,49,190346,null,"COLD",null,word,,,,,COLD,,
html-keyboard-response,50,190792,443.67499998770654,"HEAVY<img id = ""stim"" ><div class = green_square id = ""topsquare"" ></div><img id = ""stim"" ><div class = green_square  id = ""bottomsquare"" ></div>",32,word_square,response,1,Space,true,,,
html-keyboard-response,51,192295,null,"HEAVY",null,word,,,,,HEAVY,,
html-keyboard-response,52,192802,null,"FUNNY<img id = ""stim"" ><div class = red_square id = ""topsquare"" ></div><img id = ""stim"" ><div class = red_square  id = ""bottomsquare"" ></div>",null,word_square,response,0,none,true,,,
html-keyboard-response,53,194310,null,"FUNNY",null,word,,,,,FUNNY,,
html-keyboard-response,54,194649,337.1849999530241,"SCARY<img id = ""stim"" ><div class = green_square id = ""topsquare"" ></div><img id = ""stim"" ><div class = green_square  id = ""bottomsquare"" ></div>",32,word_square,response,1,Space,true,,,
html-keyboard-response,55,196155,null,"SCARY",null,word,,,,,SCARY,,
html-keyboard-response,56,196664,null,"PEACEFUL<img id = ""stim"" ><div class = green_square id = ""topsquare"" ></div><img id = ""stim"" ><div class = green_square  id = ""bottomsquare"" ></div>",null,word_square,response,1,Space,false,,,
html-keyboard-response,57,198167,null,"PEACEFUL",null,word,,,,,PEACEFUL,,
html-keyboard-response,58,198670,null,"LITTLE<img id = ""stim"" ><div class = red_square id = ""topsquare"" ></div><img id = ""stim"" ><div class = red_square  id = ""bottomsquare"" ></div>",null,word_square,response,0,none,true,,,
html-keyboard-response,59,200178,null,"LITTLE",null,word,,,,,LITTLE,,
html-keyboard-response,60,200683,null,"TIRED<img id = ""stim"" ><div class = red_square id = ""topsquare"" ></div><img id = ""stim"" ><div class = red_square  id = ""bottomsquare"" ></div>",null,word_square,response,0,none,true,,,
html-keyboard-response,61,202189,null,"TIRED",null,word,,,,,TIRED,,
html-keyboard-response,62,202692,null,"ENTERTAINING<img id = ""stim"" ><div class = red_square id = ""topsquare"" ></div><img id = ""stim"" ><div class = red_square  id = ""bottomsquare"" ></div>",null,word_square,response,0,none,true,,,
html-keyboard-response,63,204196,null,"ENTERTAINING",null,word,,,,,ENTERTAINING,,
html-keyboard-response,64,204558,359.5500000519678,"GRATEFUL<img id = ""stim"" ><div class = green_square id = ""topsquare"" ></div><img id = ""stim"" ><div class = green_square  id = ""bottomsquare"" ></div>",32,word_square,response,1,Space,true,,,
html-keyboard-response,65,206060,null,"GRATEFUL",null,word,,,,,GRATEFUL,,
html-keyboard-response,66,206570,null,"LOUD<img id = ""stim"" ><div class = red_square id = ""topsquare"" ></div><img id = ""stim"" ><div class = red_square  id = ""bottomsquare"" ></div>",null,word_square,response,0,none,true,,,
html-keyboard-response,67,208076,null,"LOUD",null,word,,,,,LOUD,,
html-keyboard-response,68,208437,359.41999999340624,"SMART<img id = ""stim"" ><div class = green_square id = ""topsquare"" ></div><img id = ""stim"" ><div class = green_square  id = ""bottomsquare"" ></div>",32,word_square,response,1,Space,true,,,
html-keyboard-response,69,209941,null,"SMART",null,word,,,,,SMART,,
html-keyboard-response,70,210335,390.7650000182912,"SMOOTH<img id = ""stim"" ><div class = green_square id = ""topsquare"" ></div><img id = ""stim"" ><div class = green_square  id = ""bottomsquare"" ></div>",32,word_square,response,1,Space,true,,,
html-keyboard-response,71,211843,null,"SMOOTH",null,word,,,,,SMOOTH,,
html-keyboard-response,72,212350,null,"DISHONEST<img id = ""stim"" ><div class = red_square id = ""topsquare"" ></div><img id = ""stim"" ><div class = red_square  id = ""bottomsquare"" ></div>",null,word_square,response,0,none,true,,,
html-keyboard-response,73,213854,null,"DISHONEST",null,word,,,,,DISHONEST,,
html-keyboard-response,74,214328,471.55999997630715,"WEALTHY<img id = ""stim"" ><div class = green_square id = ""topsquare"" ></div><img id = ""stim"" ><div class = green_square  id = ""bottomsquare"" ></div>",32,word_square,response,1,Space,true,,,
html-keyboard-response,75,215830,null,"WEALTHY",null,word,,,,,WEALTHY,,
html-keyboard-response,76,216338,null,"BEAUTIFUL<img id = ""stim"" ><div class = red_square id = ""topsquare"" ></div><img id = ""stim"" ><div class = red_square  id = ""bottomsquare"" ></div>",null,word_square,response,0,none,true,,,
html-keyboard-response,77,217843,null,"BEAUTIFUL",null,word,,,,,BEAUTIFUL,,
html-keyboard-response,78,218351,null,"DREARY<img id = ""stim"" ><div class = red_square id = ""topsquare"" ></div><img id = ""stim"" ><div class = red_square  id = ""bottomsquare"" ></div>",null,word_square,response,0,none,true,,,
html-keyboard-response,79,219859,null,"DREARY",null,word,,,,,DREARY,,
html-keyboard-response,80,220189,326.17999997455627,"PLAYFUL<img id = ""stim"" ><div class = green_square id = ""topsquare"" ></div><img id = ""stim"" ><div class = green_square  id = ""bottomsquare"" ></div>",32,word_square,response,1,Space,true,,,
html-keyboard-response,81,221696,null,"PLAYFUL",null,word,,,,,PLAYFUL,,
html-keyboard-response,82,227443,5744.859999977052,"<p> Good job! You responded correctly to 94% of the GREEN squares.</p>
                  <p>Be sure to keep your accuracy above 80%</p>
                  <p>Press any key to begin the math and recall sections. Thank you!</p>",32,,,,,,,,
call-function,83,227445,,"",,,,,,,,,
html-keyboard-response,84,227548,null,"",null,,,,,,,,
math-period,85,232850,10077.980000060052,"",,,,,,,,,1
html-keyboard-response,86,232956,null,"",null,,,,,,,,
math-period,87,235624,4913.185000070371,"",,,,,,,,,3
html-keyboard-response,88,235728,null,"",null,,,,,,,,
math-period,89,237822,3526.280000107363,"",,,,,,,,,5
html-keyboard-response,90,237928,null,"",null,,,,,,,,
math-period,91,240172,4037.349999998696,"",,,,,,,,,1
html-keyboard-response,92,240276,null,"",null,,,,,,,,
math-period,93,242084,3151.8450001021847,"",,,,,,,,,1
html-keyboard-response,94,242188,null,"",null,,,,,,,,
math-period,95,244189,3495.930000091903,"",,,,,,,,,5
html-keyboard-response,96,244293,null,"",null,,,,,,,,
math-period,97,245699,2416.8549998430535,"",,,,,,,,,5
html-keyboard-response,98,245802,null,"",null,,,,,,,,
math-period,99,247447,2784.9649999989197,"",,,,,,,,,2
html-keyboard-response,100,247553,null,"",null,,,,,,,,
math-period,101,249022,2494.274999946356,"",,,,,,,,,3
html-keyboard-response,102,249128,null,"",null,,,,,,,,
math-period,103,250709,2592.0400001341477,"",,,,,,,,,3
html-keyboard-response,104,250812,null,"",null,,,,,,,,
math-period,105,251451,null,"",,,,,,,,,
html-keyboard-response,106,252454,null,"Recall Period!",null,,,,,,,,
call-function,107,252456,,"",,,,,,,,,
html-keyboard-response,108,252559,null,"",null,,,,,,,,
recall-period,109,327459,851730.0900012488,"",,,,,,,,,dreary heavy funny entertaining beautiful happy smooth 
html-keyboard-response,110,327964,null,"Time's Up!",null,,,,,,,,
html-keyboard-response,111,334342,6376.7050000606105,"<p>We will now begin the experiment!<p><p>Please try to remember all words from each list.<p><p>Press the spacebar whenever you see a GREEN square.<p><p><p><p>Press the spacebar to begin.</p>",32,,,,,,,,
html-keyboard-response,112,338916,4072.160000097938,"<div style=""font-size:48px;"">Press any key to begin list 1 of 24 </div>",32,,,,,,,,
html-keyboard-response,113,341422,null,"<div style=""font-size:60px;"">+</div>",null,,,,,,,,
html-keyboard-response,114,341927,null,"COMET<img id = ""stim"" ><div class = red_square id = ""topsquare"" ></div><img id = ""stim"" ><div class = red_square  id = ""bottomsquare"" ></div>",null,word_square,response,0,none,true,,,
html-keyboard-response,115,343430,null,"COMET",null,word,,,,, 'COMET',,
html-keyboard-response,116,343824,391.6299999691546,"STAR<img id = ""stim"" ><div class = green_square id = ""topsquare"" ></div><img id = ""stim"" ><div class = green_square  id = ""bottomsquare"" ></div>",32,word_square,response,1,Space,true,,,
html-keyboard-response,117,345333,null,"STAR",null,word,,,,, 'STAR',,
html-keyboard-response,118,345754,418.8599999761209,"CREATURE<img id = ""stim"" ><div class = green_square id = ""topsquare"" ></div><img id = ""stim"" ><div class = green_square  id = ""bottomsquare"" ></div>",32,word_square,response,1,Space,true,,,
html-keyboard-response,119,347260,null,"CREATURE",null,word,,,,, 'CREATURE',,
html-keyboard-response,120,347767,null,"TWIG<img id = ""stim"" ><div class = red_square id = ""topsquare"" ></div><img id = ""stim"" ><div class = red_square  id = ""bottomsquare"" ></div>",null,word_square,response,0,none,true,,,
html-keyboard-response,121,349275,null,"TWIG",null,word,,,,, 'TWIG',,
html-keyboard-response,122,349779,null,"LETTER<img id = ""stim"" ><div class = red_square id = ""topsquare"" ></div><img id = ""stim"" ><div class = red_square  id = ""bottomsquare"" ></div>",null,word_square,response,0,none,true,,,
html-keyboard-response,123,351282,null,"LETTER",null,word,,,,, 'LETTER',,
html-keyboard-response,124,351785,500.60000002849847,"CEILING<img id = ""stim"" ><div class = green_square id = ""topsquare"" ></div><img id = ""stim"" ><div class = green_square  id = ""bottomsquare"" ></div>",32,word_square,response,1,Space,true,,,
html-keyboard-response,125,353293,null,"CEILING",null,word,,,,, 'CEILING',,
html-keyboard-response,126,353731,436.1100000096485,"MOP<img id = ""stim"" ><div class = green_square id = ""topsquare"" ></div><img id = ""stim"" ><div class = green_square  id = ""bottomsquare"" ></div>",32,word_square,response,1,Space,true,,,
html-keyboard-response,127,355239,null,"MOP",null,word,,,,, 'MOP',,
html-keyboard-response,128,355747,null,"GUARD<img id = ""stim"" ><div class = red_square id = ""topsquare"" ></div><img id = ""stim"" ><div class = red_square  id = ""bottomsquare"" ></div>",null,word_square,response,0,none,true,,,
html-keyboard-response,129,357252,null,"GUARD",null,word,,,,, 'GUARD',,
html-keyboard-response,130,357758,null,"CONSOLE<img id = ""stim"" ><div class = red_square id = ""topsquare"" ></div><img id = ""stim"" ><div class = red_square  id = ""bottomsquare"" ></div>",null,word_square,response,0,none,true,,,
html-keyboard-response,131,359267,null,"CONSOLE",null,word,,,,, 'CONSOLE',,
html-keyboard-response,132,359596,326.2150000082329,"ROACH<img id = ""stim"" ><div class = green_square id = ""topsquare"" ></div><img id = ""stim"" ><div class = green_square  id = ""bottomsquare"" ></div>",32,word_square,response,1,Space,true,,,
html-keyboard-response,133,361103,null,"ROACH",null,word,,,,, 'ROACH',,
html-keyboard-response,134,361610,null,"HOSTESS<img id = ""stim"" ><div class = red_square id = ""topsquare"" ></div><img id = ""stim"" ><div class = red_square  id = ""bottomsquare"" ></div>",null,word_square,response,0,none,true,,,
html-keyboard-response,135,363119,null,"HOSTESS",null,word,,,,, 'HOSTESS',,
html-keyboard-response,136,363495,374.50000003445894,"GUITAR<img id = ""stim"" ><div class = green_square id = ""topsquare"" ></div><img id = ""stim"" ><div class = green_square  id = ""bottomsquare"" ></div>",32,word_square,response,1,Space,true,,,
html-keyboard-response,137,365004,null,"GUITAR",null,word,,,,, 'GUITAR',,
html-keyboard-response,138,365513,null,"WHISTLE<img id = ""stim"" ><div class = red_square id = ""topsquare"" ></div><img id = ""stim"" ><div class = red_square  id = ""bottomsquare"" ></div>",null,word_square,response,0,none,true,,,
html-keyboard-response,139,367016,null,"WHISTLE",null,word,,,,, 'WHISTLE',,
html-keyboard-response,140,367524,null,"SERVER<img id = ""stim"" ><div class = red_square id = ""topsquare"" ></div><img id = ""stim"" ><div class = red_square  id = ""bottomsquare"" ></div>",null,word_square,response,0,none,true,,,
html-keyboard-response,141,369031,null,"SERVER",null,word,,,,, 'SERVER',,
html-keyboard-response,142,369459,425.9600000223145,"MAPLE<img id = ""stim"" ><div class = green_square id = ""topsquare"" ></div><img id = ""stim"" ><div class = green_square  id = ""bottomsquare"" ></div>",32,word_square,response,1,Space,true,,,
html-keyboard-response,143,370965,null,"MAPLE",null,word,,,,, 'MAPLE',,
html-keyboard-response,144,371353,386.57500001136214,"DAGGER<img id = ""stim"" ><div class = green_square id = ""topsquare"" ></div><img id = ""stim"" ><div class = green_square  id = ""bottomsquare"" ></div>",32,word_square,response,1,Space,true,,,
html-keyboard-response,145,372856,null,"DAGGER",null,word,,,,, 'DAGGER',,
html-keyboard-response,146,373358,null,"GERM<img id = ""stim"" ><div class = red_square id = ""topsquare"" ></div><img id = ""stim"" ><div class = red_square  id = ""bottomsquare"" ></div>",null,word_square,response,0,none,true,,,
html-keyboard-response,147,374868,null,"GERM",null,word,,,,, 'GERM',,
html-keyboard-response,148,375339,469.0499999560416,"SNAKE<img id = ""stim"" ><div class = green_square id = ""topsquare"" ></div><img id = ""stim"" ><div class = green_square  id = ""bottomsquare"" ></div>",32,word_square,response,1,Space,true,,,
html-keyboard-response,149,376844,null,"SNAKE",null,word,,,,, 'SNAKE',,
call-function,150,376845,,"",,,,,,,,,
html-keyboard-response,151,376948,null,"",null,,,,,,,,
math-period,152,379076,3880.4950000485405,"",,,,,,,,,5
html-keyboard-response,153,379184,null,"",null,,,,,,,,
math-period,154,380584,2538.9699999941513,"",,,,,,,,,3
html-keyboard-response,155,380687,null,"",null,,,,,,,,
math-period,156,381682,1716.9250000733882,"",,,,,,,,,2
html-keyboard-response,157,381786,null,"",null,,,,,,,,
math-period,158,383399,2797.0799998147413,"",,,,,,,,,6
html-keyboard-response,159,383503,null,"",null,,,,,,,,
math-period,160,385109,2969.334999914281,"",,,,,,,,,3
html-keyboard-response,161,385213,null,"",null,,,,,,,,
math-period,162,386812,2656.3900001347065,"",,,,,,,,,4
html-keyboard-response,163,386917,null,"",null,,,,,,,,
math-period,164,388007,1858.7149999802932,"",,,,,,,,,3
html-keyboard-response,165,388110,null,"",null,,,,,,,,
math-period,166,390605,7526.764999842271,"",,,,,,,,,4
html-keyboard-response,167,390711,null,"",null,,,,,,,,
math-period,168,392151,2538.844999973662,"",,,,,,,,,5
html-keyboard-response,169,392256,null,"",null,,,,,,,,
math-period,170,394914,4886.524999979883,"",,,,,,,,,2
html-keyboard-response,171,395018,null,"",null,,,,,,,,
math-period,172,397010,3589.0950000612065,"",,,,,,,,,2
html-keyboard-response,173,397114,null,"",null,,,,,,,,
math-period,174,398193,1843.3550000190735,"",,,,,,,,,2
html-keyboard-response,175,398297,null,"",null,,,,,,,,
math-period,176,399687,2546.6150001157075,"",,,,,,,,,6
html-keyboard-response,177,399791,null,"",null,,,,,,,,
math-period,178,400853,null,"",,,,,,,,,
html-keyboard-response,179,401859,null,"Recall Period!",null,,,,,,,,
call-function,180,401860,,"",,,,,,,,,
html-keyboard-response,181,401969,null,"",null,,,,,,,,
recall-period,182,405440,14808.31999971997,"",,,,,,,,,star
html-keyboard-response,183,405544,null,"",null,,,,,,,,
recall-period,184,408230,12933.199999737553,"",,,,,,,,,comet
html-keyboard-response,185,408335,null,"",null,,,,,,,,
recall-period,186,410389,8912.229999899864,"",,,,,,,,,germ
html-keyboard-response,187,410492,null,"",null,,,,,,,,
recall-period,188,412520,10323.144999914803,"",,,,,,,,,maple
html-keyboard-response,189,412625,null,"",null,,,,,,,,
recall-period,190,416200,25466.14000038244,"",,,,,,,,,dagger
html-keyboard-response,191,416305,null,"",null,,,,,,,,
recall-period,192,421355,27785.740000079386,"",,,,,,,,,snake
html-keyboard-response,193,421459,null,"",null,,,,,,,,
recall-period,194,455115,297064.1650002217,"",,,,,,,,,creature
html-keyboard-response,195,455218,null,"",null,,,,,,,,
recall-period,196,476861,null,"",,,,,,,,,
html-keyboard-response,197,477365,null,"Time's Up!",null,,,,,,,,
html-keyboard-response,198,479737,2369.590000016615,"<p> Good job! You responded correctly to 97% of the GREEN squares.</p>
                  <p>Be sure to keep your accuracy above 80%</p>
                  <p>Press any key to continue the experiment. Thank you!</p>",32,,,,,,,,
html-keyboard-response,199,483610,3871.6749999439344,"<div style=""font-size:48px;"">Press any key to begin list 2 of 24 </div>",32,,,,,,,,
html-keyboard-response,200,486118,null,"<div style=""font-size:60px;"">+</div>",null,,,,,,,,
html-keyboard-response,201,486625,null,"SIDING<img id = ""stim"" ><div class = red_square id = ""topsquare"" ></div><img id = ""stim"" ><div class = red_square  id = ""bottomsquare"" ></div>",null,word_square,response,0,none,true,,,
html-keyboard-response,202,488132,null,"SIDING",null,word,,,,, 'SIDING',,
html-keyboard-response,203,488569,434.7600000910461,"CUPBOARD<img id = ""stim"" ><div class = green_square id = ""topsquare"" ></div><img id = ""stim"" ><div class = green_square  id = ""bottomsquare"" ></div>",32,word_square,response,1,Space,true,,,
html-keyboard-response,204,490073,null,"CUPBOARD",null,word,,,,, 'CUPBOARD',,
html-keyboard-response,205,490534,459.7749999957159,"CRACKER<img id = ""stim"" ><div class = green_square id = ""topsquare"" ></div><img id = ""stim"" ><div class = green_square  id = ""bottomsquare"" ></div>",32,word_square,response,1,Space,true,,,
html-keyboard-response,206,492040,null,"CRACKER",null,word,,,,, 'CRACKER',,
html-keyboard-response,207,492542,null,"STAMP<img id = ""stim"" ><div class = red_square id = ""topsquare"" ></div><img id = ""stim"" ><div class = red_square  id = ""bottomsquare"" ></div>",null,word_square,response,0,none,true,,,
html-keyboard-response,208,494049,null,"STAMP",null,word,,,,, 'STAMP',,
html-keyboard-response,209,494553,null,"DRAGON<img id = ""stim"" ><div class = red_square id = ""topsquare"" ></div><img id = ""stim"" ><div class = red_square  id = ""bottomsquare"" ></div>",null,word_square,response,0,none,true,,,
html-keyboard-response,210,496062,null,"DRAGON",null,word,,,,, 'DRAGON',,
html-keyboard-response,211,496571,null,"PACKAGE<img id = ""stim"" ><div class = green_square id = ""topsquare"" ></div><img id = ""stim"" ><div class = green_square  id = ""bottomsquare"" ></div>",null,word_square,response,1,Space,false,,,
html-keyboard-response,212,498074,null,"PACKAGE",null,word,,,,, 'PACKAGE',,
html-keyboard-response,213,498446,369.3999999668449,"POSTAGE<img id = ""stim"" ><div class = green_square id = ""topsquare"" ></div><img id = ""stim"" ><div class = green_square  id = ""bottomsquare"" ></div>",32,word_square,response,1,Space,true,,,
html-keyboard-response,214,499951,null,"POSTAGE",null,word,,,,, 'POSTAGE',,
html-keyboard-response,215,500459,null,"VICTIM<img id = ""stim"" ><div class = red_square id = ""topsquare"" ></div><img id = ""stim"" ><div class = red_square  id = ""bottomsquare"" ></div>",null,word_square,response,0,none,true,,,
html-keyboard-response,216,501963,null,"VICTIM",null,word,,,,, 'VICTIM',,
html-keyboard-response,217,502467,null,"SUSPECT<img id = ""stim"" ><div class = red_square id = ""topsquare"" ></div><img id = ""stim"" ><div class = red_square  id = ""bottomsquare"" ></div>",null,word_square,response,0,none,true,,,
html-keyboard-response,218,503975,null,"SUSPECT",null,word,,,,, 'SUSPECT',,
html-keyboard-response,219,504353,375.8050000760704,"WAITER<img id = ""stim"" ><div class = green_square id = ""topsquare"" ></div><img id = ""stim"" ><div class = green_square  id = ""bottomsquare"" ></div>",32,word_square,response,1,Space,true,,,
html-keyboard-response,220,505856,null,"WAITER",null,word,,,,, 'WAITER',,
html-keyboard-response,221,506363,null,"CABOOSE<img id = ""stim"" ><div class = red_square id = ""topsquare"" ></div><img id = ""stim"" ><div class = red_square  id = ""bottomsquare"" ></div>",null,word_square,response,0,none,true,,,
html-keyboard-response,222,507870,null,"CABOOSE",null,word,,,,, 'CABOOSE',,
html-keyboard-response,223,508300,427.6000000536442,"PEACH<img id = ""stim"" ><div class = green_square id = ""topsquare"" ></div><img id = ""stim"" ><div class = green_square  id = ""bottomsquare"" ></div>",32,word_square,response,1,Space,true,,,
html-keyboard-response,224,509809,null,"PEACH",null,word,,,,, 'PEACH',,
html-keyboard-response,225,510314,null,"SHORTCAKE<img id = ""stim"" ><div class = red_square id = ""topsquare"" ></div><img id = ""stim"" ><div class = red_square  id = ""bottomsquare"" ></div>",null,word_square,response,0,none,true,,,
html-keyboard-response,226,511822,null,"SHORTCAKE",null,word,,,,, 'SHORTCAKE',,
html-keyboard-response,227,512327,null,"GRIZZLY<img id = ""stim"" ><div class = red_square id = ""topsquare"" ></div><img id = ""stim"" ><div class = red_square  id = ""bottomsquare"" ></div>",null,word_square,response,0,none,true,,,
html-keyboard-response,228,513831,null,"GRIZZLY",null,word,,,,, 'GRIZZLY',,
html-keyboard-response,229,514339,null,"WORLD<img id = ""stim"" ><div class = green_square id = ""topsquare"" ></div><img id = ""stim"" ><div class = green_square  id = ""bottomsquare"" ></div>",null,word_square,response,1,Space,false,,,
html-keyboard-response,230,515847,null,"WORLD",null,word,,,,, 'WORLD',,
html-keyboard-response,231,516254,404.5400000177324,"MAILBOX<img id = ""stim"" ><div class = green_square id = ""topsquare"" ></div><img id = ""stim"" ><div class = green_square  id = ""bottomsquare"" ></div>",32,word_square,response,1,Space,true,,,
html-keyboard-response,232,517759,null,"MAILBOX",null,word,,,,, 'MAILBOX',,
html-keyboard-response,233,518269,null,"CAPE<img id = ""stim"" ><div class = red_square id = ""topsquare"" ></div><img id = ""stim"" ><div class = red_square  id = ""bottomsquare"" ></div>",null,word_square,response,0,none,true,,,
html-keyboard-response,234,519773,null,"CAPE",null,word,,,,, 'CAPE',,
html-keyboard-response,235,520128,353.17499993834645,"STAIRS<img id = ""stim"" ><div class = green_square id = ""topsquare"" ></div><img id = ""stim"" ><div class = green_square  id = ""bottomsquare"" ></div>",32,word_square,response,1,Space,true,,,
html-keyboard-response,236,521635,null,"STAIRS",null,word,,,,, 'STAIRS',,
call-function,237,521637,,"",,,,,,,,,
html-keyboard-response,238,521741,null,"",null,,,,,,,,
math-period,239,524343,4744.0700001316145,"",,,,,,,,,3
html-keyboard-response,240,524448,null,"",null,,,,,,,,
math-period,241,526239,3206.944999983534,"",,,,,,,,,6
html-keyboard-response,242,526342,null,"",null,,,,,,,,
math-period,243,529315,9443.050000118092,"",,,,,,,,,2
html-keyboard-response,244,529419,null,"",null,,,,,,,,
math-period,245,531618,3752.3400000063702,"",,,,,,,,,1
html-keyboard-response,246,531722,null,"",null,,,,,,,,
math-period,247,533071,2379.14999993518,"",,,,,,,,,3
html-keyboard-response,248,533176,null,"",null,,,,,,,,
math-period,249,534546,2458.9249999262393,"",,,,,,,,,5
html-keyboard-response,250,534648,null,"",null,,,,,,,,
math-period,251,538770,7979.519999935292,"",,,,,,,,,3
html-keyboard-response,252,538874,null,"",null,,,,,,,,
math-period,253,540130,2257.0550000527874,"",,,,,,,,,2
html-keyboard-response,254,540234,null,"",null,,,,,,,,
math-period,255,541789,2814.699999988079,"",,,,,,,,,2
html-keyboard-response,256,541892,null,"",null,,,,,,,,
math-period,257,543439,2833.775000064634,"",,,,,,,,,5
html-keyboard-response,258,543544,null,"",null,,,,,,,,
math-period,259,545640,null,"",,,,,,,,,
html-keyboard-response,260,546644,null,"Recall Period!",null,,,,,,,,
call-function,261,546646,,"",,,,,,,,,
html-keyboard-response,262,546751,null,"",null,,,,,,,,
recall-period,263,555058,71420.31000019051,"",,,,,,,,,postage
html-keyboard-response,264,555164,null,"",null,,,,,,,,
recall-period,265,556888,5878.959999768995,"",,,,,,,,,package
html-keyboard-response,266,556995,null,"",null,,,,,,,,
recall-period,267,559424,14146.715000388213,"",,,,,,,,,cupboard
html-keyboard-response,268,559527,null,"",null,,,,,,,,
recall-period,269,561548,11971.840000362135,"",,,,,,,,,cracker
html-keyboard-response,270,561653,null,"",null,,,,,,,,
recall-period,271,564880,20762.519999523647,"",,,,,,,,,suspect
html-keyboard-response,272,564986,null,"",null,,,,,,,,
recall-period,273,566223,4224.720000289381,"",,,,,,,,,victim
html-keyboard-response,274,566326,null,"",null,,,,,,,,
recall-period,275,621645,null,"",,,,,,,,,
html-keyboard-response,276,622154,null,"Time's Up!",null,,,,,,,,
html-keyboard-response,277,628615,6458.785000024363,"<p> Good job! You responded correctly to 94% of the GREEN squares.</p>
                  <p>Be sure to keep your accuracy above 80%</p>
                  <p>Press any key to continue the experiment. Thank you!</p>",32,,,,,,,,
html-keyboard-response,278,629325,708.9350000023842,"<div style=""font-size:48px;"">Press any key to begin list 3 of 24 </div>",32,,,,,,,,
html-keyboard-response,279,631829,null,"<div style=""font-size:60px;"">+</div>",null,,,,,,,,
html-keyboard-response,280,632339,null,"CHAMBER<img id = ""stim"" ><div class = green_square id = ""topsquare"" ></div><img id = ""stim"" ><div class = green_square  id = ""bottomsquare"" ></div>",null,word_square,response,1,Space,false,,,
html-keyboard-response,281,633842,null,"CHAMBER",null,word,,,,, 'CHAMBER',,
html-keyboard-response,282,634351,null,"RAFT<img id = ""stim"" ><div class = red_square id = ""topsquare"" ></div><img id = ""stim"" ><div class = red_square  id = ""bottomsquare"" ></div>",null,word_square,response,0,none,true,,,
html-keyboard-response,283,635855,null,"RAFT",null,word,,,,, 'RAFT',,
html-keyboard-response,284,636358,null,"SEAL<img id = ""stim"" ><div class = red_square id = ""topsquare"" ></div><img id = ""stim"" ><div class = red_square  id = ""bottomsquare"" ></div>",null,word_square,response,0,none,true,,,
html-keyboard-response,285,637864,null,"SEAL",null,word,,,,, 'SEAL',,
html-keyboard-response,286,638233,367.6900001009926,"GLASSES<img id = ""stim"" ><div class = green_square id = ""topsquare"" ></div><img id = ""stim"" ><div class = green_square  id = ""bottomsquare"" ></div>",32,word_square,response,1,Space,true,,,
html-keyboard-response,287,639738,null,"GLASSES",null,word,,,,, 'GLASSES',,
html-keyboard-response,288,640122,382.20499991439283,"CYCLONE<img id = ""stim"" ><div class = green_square id = ""topsquare"" ></div><img id = ""stim"" ><div class = green_square  id = ""bottomsquare"" ></div>",32,word_square,response,1,Space,true,,,
html-keyboard-response,289,641626,null,"CYCLONE",null,word,,,,, 'CYCLONE',,
html-keyboard-response,290,642131,null,"ULCER<img id = ""stim"" ><div class = red_square id = ""topsquare"" ></div><img id = ""stim"" ><div class = red_square  id = ""bottomsquare"" ></div>",null,word_square,response,0,none,true,,,
html-keyboard-response,291,643634,null,"ULCER",null,word,,,,, 'ULCER',,
html-keyboard-response,292,644142,null,"SHARK<img id = ""stim"" ><div class = red_square id = ""topsquare"" ></div><img id = ""stim"" ><div class = red_square  id = ""bottomsquare"" ></div>",null,word_square,response,0,none,true,,,
html-keyboard-response,293,645645,null,"SHARK",null,word,,,,, 'SHARK',,
html-keyboard-response,294,645999,352.4650000035763,"SEAFOOD<img id = ""stim"" ><div class = green_square id = ""topsquare"" ></div><img id = ""stim"" ><div class = green_square  id = ""bottomsquare"" ></div>",32,word_square,response,1,Space,true,,,
html-keyboard-response,295,647506,null,"SEAFOOD",null,word,,,,, 'SEAFOOD',,
html-keyboard-response,296,648015,null,"ICING<img id = ""stim"" ><div class = green_square id = ""topsquare"" ></div><img id = ""stim"" ><div class = green_square  id = ""bottomsquare"" ></div>",null,word_square,response,1,Space,false,,,
html-keyboard-response,297,649519,null,"ICING",null,word,,,,, 'ICING',,
html-keyboard-response,298,650027,null,"MATCH<img id = ""stim"" ><div class = red_square id = ""topsquare"" ></div><img id = ""stim"" ><div class = red_square  id = ""bottomsquare"" ></div>",null,word_square,response,0,none,true,,,
html-keyboard-response,299,651531,null,"MATCH",null,word,,,,, 'MATCH',,
html-keyboard-response,300,651929,396.04500005953014,"SMOG<img id = ""stim"" ><div class = green_square id = ""topsquare"" ></div><img id = ""stim"" ><div class = green_square  id = ""bottomsquare"" ></div>",32,word_square,response,1,Space,true,,,
html-keyboard-response,301,653435,null,"SMOG",null,word,,,,, 'SMOG',,
html-keyboard-response,302,653938,null,"WITNESS<img id = ""stim"" ><div class = red_square id = ""topsquare"" ></div><img id = ""stim"" ><div class = red_square  id = ""bottomsquare"" ></div>",null,word_square,response,0,none,true,,,
html-keyboard-response,303,655448,null,"WITNESS",null,word,,,,, 'WITNESS',,
html-keyboard-response,304,655771,320.8849999355152,"BELLY<img id = ""stim"" ><div class = green_square id = ""topsquare"" ></div><img id = ""stim"" ><div class = green_square  id = ""bottomsquare"" ></div>",32,word_square,response,1,Space,true,,,
html-keyboard-response,305,657276,null,"BELLY",null,word,,,,, 'BELLY',,
html-keyboard-response,306,657672,393.18499993532896,"CACTUS<img id = ""stim"" ><div class = green_square id = ""topsquare"" ></div><img id = ""stim"" ><div class = green_square  id = ""bottomsquare"" ></div>",32,word_square,response,1,Space,true,,,
html-keyboard-response,307,659174,null,"CACTUS",null,word,,,,, 'CACTUS',,
html-keyboard-response,308,659679,null,"SPICE<img id = ""stim"" ><div class = red_square id = ""topsquare"" ></div><img id = ""stim"" ><div class = red_square  id = ""bottomsquare"" ></div>",null,word_square,response,0,none,true,,,
html-keyboard-response,309,661183,null,"SPICE",null,word,,,,, 'SPICE',,
html-keyboard-response,310,661686,null,"WAX<img id = ""stim"" ><div class = red_square id = ""topsquare"" ></div><img id = ""stim"" ><div class = red_square  id = ""bottomsquare"" ></div>",null,word_square,response,0,none,true,,,
html-keyboard-response,311,663189,null,"WAX",null,word,,,,, 'WAX',,
html-keyboard-response,312,663540,349.93499994743615,"LAGOON<img id = ""stim"" ><div class = green_square id = ""topsquare"" ></div><img id = ""stim"" ><div class = green_square  id = ""bottomsquare"" ></div>",32,word_square,response,1,Space,true,,,
html-keyboard-response,313,665043,null,"LAGOON",null,word,,,,, 'LAGOON',,
html-keyboard-response,314,665545,null,"FIREMAN<img id = ""stim"" ><div class = red_square id = ""topsquare"" ></div><img id = ""stim"" ><div class = red_square  id = ""bottomsquare"" ></div>",null,word_square,response,0,none,true,,,
html-keyboard-response,315,667053,null,"FIREMAN",null,word,,,,, 'FIREMAN',,
call-function,316,667055,,"",,,,,,,,,
html-keyboard-response,317,667158,null,"",null,,,,,,,,
math-period,318,669487,4101.555000059307,"",,,,,,,,,1
html-keyboard-response,319,669590,null,"",null,,,,,,,,
math-period,320,670926,2374.859999981709,"",,,,,,,,,5
html-keyboard-response,321,671033,null,"",null,,,,,,,,
math-period,322,672498,2352.3449999047443,"",,,,,,,,,4
html-keyboard-response,323,672603,null,"",null,,,,,,,,
math-period,324,673887,2295.490000047721,"",,,,,,,,,5
html-keyboard-response,325,673994,null,"",null,,,,,,,,
math-period,326,675160,2040.9499999368563,"",,,,,,,,,5
html-keyboard-response,327,675264,null,"",null,,,,,,,,
math-period,328,676713,2490.2850000653416,"",,,,,,,,,5
html-keyboard-response,329,676815,null,"",null,,,,,,,,
math-period,330,678458,2993.8849998870865,"",,,,,,,,,3
html-keyboard-response,331,678562,null,"",null,,,,,,,,
math-period,332,679950,2409.114999929443,"",,,,,,,,,5
html-keyboard-response,333,680053,null,"",null,,,,,,,,
math-period,334,685520,7091.86500008218,"",,,,,,,,,1
html-keyboard-response,335,685624,null,"",null,,,,,,,,
math-period,336,687804,3935.2799999760464,"",,,,,,,,,4
html-keyboard-response,337,687907,null,"",null,,,,,,,,
math-period,338,690728,4424.844999914058,"",,,,,,,,,0
html-keyboard-response,339,690832,null,"",null,,,,,,,,
math-period,340,691059,null,"",,,,,,,,,
html-keyboard-response,341,692062,null,"Recall Period!",null,,,,,,,,
call-function,342,692065,,"",,,,,,,,,
html-keyboard-response,343,692167,null,"",null,,,,,,,,
recall-period,344,694862,13316.835000063293,"",,,,,,,,,lagoon
html-keyboard-response,345,694964,null,"",null,,,,,,,,
recall-period,346,696106,4766.690000426024,"",,,,,,,,,fireman
html-keyboard-response,347,696211,null,"",null,,,,,,,,
recall-period,348,697102,3276.609999826178,"",,,,,,,,,icing
html-keyboard-response,349,697205,null,"",null,,,,,,,,
recall-period,350,698282,3028.44499994535,"",,,,,,,,,match
html-keyboard-response,351,698386,null,"",null,,,,,,,,
recall-period,352,703613,43835.12000052724,"",,,,,,,,,witness
html-keyboard-response,353,703717,null,"",null,,,,,,,,
recall-period,354,716334,96843.96000043489,"",,,,,,,,,cyclone
html-keyboard-response,355,716436,null,"",null,,,,,,,,
recall-period,356,723450,38849.07999960706,"",,,,,,,,,ulcer
html-keyboard-response,357,723553,null,"",null,,,,,,,,
recall-period,358,732170,64155.0199999474,"",,,,,,,,,chamber
html-keyboard-response,359,732275,null,"",null,,,,,,,,
recall-period,360,767069,null,"",,,,,,,,,
html-keyboard-response,361,767579,null,"Time's Up!",null,,,,,,,,
html-keyboard-response,362,770098,2516.90500008408,"<p> Good job! You responded correctly to 93% of the GREEN squares.</p>
                  <p>Be sure to keep your accuracy above 80%</p>
                  <p>Press any key to continue the experiment. Thank you!</p>",32,,,,,,,,
html-keyboard-response,363,770680,580.0299999536946,"<div style=""font-size:48px;"">Press any key to begin list 4 of 24 </div>",32,,,,,,,,
html-keyboard-response,364,773189,null,"<div style=""font-size:60px;"">+</div>",null,,,,,,,,
html-keyboard-response,365,773695,null,"VICTOR<img id = ""stim"" ><div class = green_square id = ""topsquare"" ></div><img id = ""stim"" ><div class = green_square  id = ""bottomsquare"" ></div>",null,word_square,response,1,Space,false,,,
html-keyboard-response,366,775197,null,"VICTOR",null,word,,,,, 'VICTOR',,
html-keyboard-response,367,775704,null,"SLACKS<img id = ""stim"" ><div class = red_square id = ""topsquare"" ></div><img id = ""stim"" ><div class = red_square  id = ""bottomsquare"" ></div>",null,word_square,response,0,none,true,,,
html-keyboard-response,368,777207,null,"SLACKS",null,word,,,,, 'SLACKS',,
html-keyboard-response,369,777712,null,"ELK<img id = ""stim"" ><div class = red_square id = ""topsquare"" ></div><img id = ""stim"" ><div class = red_square  id = ""bottomsquare"" ></div>",null,word_square,response,0,none,true,,,
html-keyboard-response,370,779218,null,"ELK",null,word,,,,, 'ELK',,
html-keyboard-response,371,779588,368.43000003136694,"RIFLE<img id = ""stim"" ><div class = green_square id = ""topsquare"" ></div><img id = ""stim"" ><div class = green_square  id = ""bottomsquare"" ></div>",32,word_square,response,1,Space,true,,,
html-keyboard-response,372,781093,null,"RIFLE",null,word,,,,, 'RIFLE',,
html-keyboard-response,373,781458,362.859999993816,"WALNUT<img id = ""stim"" ><div class = green_square id = ""topsquare"" ></div><img id = ""stim"" ><div class = green_square  id = ""bottomsquare"" ></div>",32,word_square,response,1,Space,true,,,
html-keyboard-response,374,782964,null,"WALNUT",null,word,,,,, 'WALNUT',,
html-keyboard-response,375,783467,null,"CRIB<img id = ""stim"" ><div class = red_square id = ""topsquare"" ></div><img id = ""stim"" ><div class = red_square  id = ""bottomsquare"" ></div>",null,word_square,response,0,none,true,,,
html-keyboard-response,376,784972,null,"CRIB",null,word,,,,, 'CRIB',,
html-keyboard-response,377,785483,null,"GIRAFFE<img id = ""stim"" ><div class = red_square id = ""topsquare"" ></div><img id = ""stim"" ><div class = red_square  id = ""bottomsquare"" ></div>",null,word_square,response,0,none,true,,,
html-keyboard-response,378,786986,null,"GIRAFFE",null,word,,,,, 'GIRAFFE',,
html-keyboard-response,379,787327,338.86499993968755,"LUNCH<img id = ""stim"" ><div class = green_square id = ""topsquare"" ></div><img id = ""stim"" ><div class = green_square  id = ""bottomsquare"" ></div>",32,word_square,response,1,Space,true,,,
html-keyboard-response,380,788832,null,"LUNCH",null,word,,,,, 'LUNCH',,
html-keyboard-response,381,789209,374.5249999919906,"COOKBOOK<img id = ""stim"" ><div class = green_square id = ""topsquare"" ></div><img id = ""stim"" ><div class = green_square  id = ""bottomsquare"" ></div>",32,word_square,response,1,Space,true,,,
html-keyboard-response,382,790716,null,"COOKBOOK",null,word,,,,, 'COOKBOOK',,
html-keyboard-response,383,791222,null,"STRANGER<img id = ""stim"" ><div class = red_square id = ""topsquare"" ></div><img id = ""stim"" ><div class = red_square  id = ""bottomsquare"" ></div>",null,word_square,response,0,none,true,,,
html-keyboard-response,384,792729,null,"STRANGER",null,word,,,,, 'STRANGER',,
html-keyboard-response,385,793068,336.8000000482425,"COLLEGE<img id = ""stim"" ><div class = green_square id = ""topsquare"" ></div><img id = ""stim"" ><div class = green_square  id = ""bottomsquare"" ></div>",32,word_square,response,1,Space,true,,,
html-keyboard-response,386,794575,null,"COLLEGE",null,word,,,,, 'COLLEGE',,
html-keyboard-response,387,795084,null,"KIDNEY<img id = ""stim"" ><div class = red_square id = ""topsquare"" ></div><img id = ""stim"" ><div class = red_square  id = ""bottomsquare"" ></div>",null,word_square,response,0,none,true,,,
html-keyboard-response,388,796587,null,"KIDNEY",null,word,,,,, 'KIDNEY',,
html-keyboard-response,389,797097,null,"WAITRESS<img id = ""stim"" ><div class = green_square id = ""topsquare"" ></div><img id = ""stim"" ><div class = green_square  id = ""bottomsquare"" ></div>",null,word_square,response,1,Space,false,,,
html-keyboard-response,390,798601,null,"WAITRESS",null,word,,,,, 'WAITRESS',,
html-keyboard-response,391,799013,410.01500003039837,"DOCK<img id = ""stim"" ><div class = green_square id = ""topsquare"" ></div><img id = ""stim"" ><div class = green_square  id = ""bottomsquare"" ></div>",32,word_square,response,1,Space,true,,,
html-keyboard-response,392,800519,null,"DOCK",null,word,,,,, 'DOCK',,
html-keyboard-response,393,801022,null,"COURSE<img id = ""stim"" ><div class = red_square id = ""topsquare"" ></div><img id = ""stim"" ><div class = red_square  id = ""bottomsquare"" ></div>",null,word_square,response,0,none,true,,,
html-keyboard-response,394,802527,null,"COURSE",null,word,,,,, 'COURSE',,
html-keyboard-response,395,803036,null,"DASHBOARD<img id = ""stim"" ><div class = red_square id = ""topsquare"" ></div><img id = ""stim"" ><div class = red_square  id = ""bottomsquare"" ></div>",null,word_square,response,0,none,true,,,
html-keyboard-response,396,804540,null,"DASHBOARD",null,word,,,,, 'DASHBOARD',,
html-keyboard-response,397,804989,447.42999994196,"BUGGY<img id = ""stim"" ><div class = green_square id = ""topsquare"" ></div><img id = ""stim"" ><div class = green_square  id = ""bottomsquare"" ></div>",32,word_square,response,1,Space,true,,,
html-keyboard-response,398,806499,null,"BUGGY",null,word,,,,, 'BUGGY',,
html-keyboard-response,399,807006,null,"TABLET<img id = ""stim"" ><div class = red_square id = ""topsquare"" ></div><img id = ""stim"" ><div class = red_square  id = ""bottomsquare"" ></div>",null,word_square,response,0,none,true,,,
html-keyboard-response,400,808513,null,"TABLET",null,word,,,,, 'TABLET',,
call-function,401,808515,,"",,,,,,,,,
html-keyboard-response,402,808625,null,"",null,,,,,,,,
math-period,403,810202,2802.659999928437,"",,,,,,,,,3
html-keyboard-response,404,810306,null,"",null,,,,,,,,
math-period,405,811482,2074.305000016466,"",,,,,,,,,4
html-keyboard-response,406,811587,null,"",null,,,,,,,,
math-period,407,812909,2241.0900000249967,"",,,,,,,,,5
html-keyboard-response,408,813013,null,"",null,,,,,,,,
math-period,409,814119,1831.8149999249727,"",,,,,,,,,5
html-keyboard-response,410,814222,null,"",null,,,,,,,,
math-period,411,815696,2669.9599999701604,"",,,,,,,,,2
html-keyboard-response,412,815799,null,"",null,,,,,,,,
math-period,413,817104,2261.530000017956,"",,,,,,,,,4
html-keyboard-response,414,817209,null,"",null,,,,,,,,
math-period,415,818691,2605.4550000699237,"",,,,,,,,,5
html-keyboard-response,416,818795,null,"",null,,,,,,,,
math-period,417,819950,1972.5549998693168,"",,,,,,,,,2
html-keyboard-response,418,820054,null,"",null,,,,,,,,
math-period,419,821773,3142.42499996908,"",,,,,,,,,4
html-keyboard-response,420,821877,null,"",null,,,,,,,,
math-period,421,823314,2446.839999873191,"",,,,,,,,,3
html-keyboard-response,422,823418,null,"",null,,,,,,,,
math-period,423,824906,2618.900000001304,"",,,,,,,,,5
html-keyboard-response,424,825010,null,"",null,,,,,,,,
math-period,425,826304,2193.2200000155717,"",,,,,,,,,4
html-keyboard-response,426,826408,null,"",null,,,,,,,,
math-period,427,828404,3593.514999956824,"",,,,,,,,,2
html-keyboard-response,428,828509,null,"",null,,,,,,,,
math-period,429,829990,2592.0850000111386,"",,,,,,,,,4
html-keyboard-response,430,830094,null,"",null,,,,,,,,
math-period,431,831927,3070.4600000754,"",,,,,,,,,2
html-keyboard-response,432,832032,null,"",null,,,,,,,,
math-period,433,832519,null,"",,,,,,,,,
html-keyboard-response,434,833523,null,"Recall Period!",null,,,,,,,,
call-function,435,833525,,"",,,,,,,,,
html-keyboard-response,436,833630,null,"",null,,,,,,,,
recall-period,437,836258,8659.600000013597,"",,,,,,,,,buggy
html-keyboard-response,438,836363,null,"",null,,,,,,,,
recall-period,439,838704,15358.380000456236,"",,,,,,,,,waitress
html-keyboard-response,440,838809,null,"",null,,,,,,,,
recall-period,441,839718,3113.9099998399615,"",,,,,,,,,course
html-keyboard-response,442,839823,null,"",null,,,,,,,,
recall-period,443,840976,4291.085000149906,"",,,,,,,,,tablet
html-keyboard-response,444,841080,null,"",null,,,,,,,,
recall-period,445,845525,41575.58999978937,"",,,,,,,,,dashboard
html-keyboard-response,446,845629,null,"",null,,,,,,,,
recall-period,447,853986,69802.4949998362,"",,,,,,,,,cookbook
html-keyboard-response,448,854090,null,"",null,,,,,,,,
recall-period,449,855453,5131.22499990277,"",,,,,,,,,lunch
html-keyboard-response,450,855556,null,"",null,,,,,,,,
recall-period,451,908529,null,"",,,,,,,,,
html-keyboard-response,452,909036,null,"Time's Up!",null,,,,,,,,
html-keyboard-response,453,911319,2280.6100000161678,"<p> Good job! You responded correctly to 92% of the GREEN squares.</p>
                  <p>Be sure to keep your accuracy above 80%</p>
                  <p>Press any key to continue the experiment. Thank you!</p>",32,,,,,,,,
html-keyboard-response,454,913455,2133.3850000519305,"<div style=""font-size:48px;"">Press any key to begin list 5 of 24 </div>",32,,,,,,,,
html-keyboard-response,455,915959,null,"<div style=""font-size:60px;"">+</div>",null,,,,,,,,
html-keyboard-response,456,916462,null,"FREEZER<img id = ""stim"" ><div class = red_square id = ""topsquare"" ></div><img id = ""stim"" ><div class = red_square  id = ""bottomsquare"" ></div>",null,word_square,response,0,none,true,,,
html-keyboard-response,457,917968,null,"FREEZER",null,word,,,,, 'FREEZER',,
html-keyboard-response,458,918362,391.9149999273941,"SUITCASE<img id = ""stim"" ><div class = green_square id = ""topsquare"" ></div><img id = ""stim"" ><div class = green_square  id = ""bottomsquare"" ></div>",32,word_square,response,1,Space,true,,,
html-keyboard-response,459,919873,null,"SUITCASE",null,word,,,,, 'SUITCASE',,
html-keyboard-response,460,920255,380.45500009320676,"KEYBOARD<img id = ""stim"" ><div class = green_square id = ""topsquare"" ></div><img id = ""stim"" ><div class = green_square  id = ""bottomsquare"" ></div>",32,word_square,response,1,Space,true,,,
html-keyboard-response,461,921762,null,"KEYBOARD",null,word,,,,, 'KEYBOARD',,
html-keyboard-response,462,922267,null,"CITRUS<img id = ""stim"" ><div class = red_square id = ""topsquare"" ></div><img id = ""stim"" ><div class = red_square  id = ""bottomsquare"" ></div>",null,word_square,response,0,none,true,,,
html-keyboard-response,463,923777,null,"CITRUS",null,word,,,,, 'CITRUS',,
html-keyboard-response,464,924287,null,"RADISH<img id = ""stim"" ><div class = red_square id = ""topsquare"" ></div><img id = ""stim"" ><div class = red_square  id = ""bottomsquare"" ></div>",null,word_square,response,0,none,true,,,
html-keyboard-response,465,925790,null,"RADISH",null,word,,,,, 'RADISH',,
html-keyboard-response,466,926215,423.0299999471754,"BATHROOM<img id = ""stim"" ><div class = green_square id = ""topsquare"" ></div><img id = ""stim"" ><div class = green_square  id = ""bottomsquare"" ></div>",32,word_square,response,1,Space,true,,,
html-keyboard-response,467,927718,null,"BATHROOM",null,word,,,,, 'BATHROOM',,
html-keyboard-response,468,928226,null,"COSTUME<img id = ""stim"" ><div class = red_square id = ""topsquare"" ></div><img id = ""stim"" ><div class = red_square  id = ""bottomsquare"" ></div>",null,word_square,response,0,none,true,,,
html-keyboard-response,469,929736,null,"COSTUME",null,word,,,,, 'COSTUME',,
html-keyboard-response,470,930246,null,"RECEIPT<img id = ""stim"" ><div class = red_square id = ""topsquare"" ></div><img id = ""stim"" ><div class = red_square  id = ""bottomsquare"" ></div>",null,word_square,response,0,none,true,,,
html-keyboard-response,471,931756,null,"RECEIPT",null,word,,,,, 'RECEIPT',,
html-keyboard-response,472,932110,351.75999999046326,"MONKEY<img id = ""stim"" ><div class = green_square id = ""topsquare"" ></div><img id = ""stim"" ><div class = green_square  id = ""bottomsquare"" ></div>",32,word_square,response,1,Space,true,,,
html-keyboard-response,473,933619,null,"MONKEY",null,word,,,,, 'MONKEY',,
html-keyboard-response,474,934127,null,"HELMET<img id = ""stim"" ><div class = red_square id = ""topsquare"" ></div><img id = ""stim"" ><div class = red_square  id = ""bottomsquare"" ></div>",null,word_square,response,0,none,true,,,
html-keyboard-response,475,935637,null,"HELMET",null,word,,,,, 'HELMET',,
html-keyboard-response,476,936146,null,"PEDAL<img id = ""stim"" ><div class = red_square id = ""topsquare"" ></div><img id = ""stim"" ><div class = red_square  id = ""bottomsquare"" ></div>",null,word_square,response,0,none,true,,,
html-keyboard-response,477,937654,null,"PEDAL",null,word,,,,, 'PEDAL',,
html-keyboard-response,478,938062,406.01000003516674,"TUNNEL<img id = ""stim"" ><div class = green_square id = ""topsquare"" ></div><img id = ""stim"" ><div class = green_square  id = ""bottomsquare"" ></div>",32,word_square,response,1,Space,true,,,
html-keyboard-response,479,939572,null,"TUNNEL",null,word,,,,, 'TUNNEL',,
html-keyboard-response,480,940079,null,"SUBWAY<img id = ""stim"" ><div class = red_square id = ""topsquare"" ></div><img id = ""stim"" ><div class = red_square  id = ""bottomsquare"" ></div>",null,word_square,response,0,none,true,,,
html-keyboard-response,481,941583,null,"SUBWAY",null,word,,,,, 'SUBWAY',,
html-keyboard-response,482,942088,null,"CHECKERS<img id = ""stim"" ><div class = green_square id = ""topsquare"" ></div><img id = ""stim"" ><div class = green_square  id = ""bottomsquare"" ></div>",null,word_square,response,1,Space,false,,,
html-keyboard-response,483,943598,null,"CHECKERS",null,word,,,,, 'CHECKERS',,
html-keyboard-response,484,944107,null,"FACE<img id = ""stim"" ><div class = red_square id = ""topsquare"" ></div><img id = ""stim"" ><div class = red_square  id = ""bottomsquare"" ></div>",null,word_square,response,0,none,true,,,
html-keyboard-response,485,945613,null,"FACE",null,word,,,,, 'FACE',,
html-keyboard-response,486,946016,401.28500002902,"CONCRETE<img id = ""stim"" ><div class = green_square id = ""topsquare"" ></div><img id = ""stim"" ><div class = green_square  id = ""bottomsquare"" ></div>",32,word_square,response,1,Space,true,,,
html-keyboard-response,487,947519,null,"CONCRETE",null,word,,,,, 'CONCRETE',,
html-keyboard-response,488,947982,461.11500007100403,"MACHINE<img id = ""stim"" ><div class = green_square id = ""topsquare"" ></div><img id = ""stim"" ><div class = green_square  id = ""bottomsquare"" ></div>",32,word_square,response,1,Space,true,,,
html-keyboard-response,489,949486,null,"MACHINE",null,word,,,,, 'MACHINE',,
html-keyboard-response,490,949953,464.8499999893829,"BATHTUB<img id = ""stim"" ><div class = green_square id = ""topsquare"" ></div><img id = ""stim"" ><div class = green_square  id = ""bottomsquare"" ></div>",32,word_square,response,1,Space,true,,,
html-keyboard-response,491,951460,null,"BATHTUB",null,word,,,,, 'BATHTUB',,
call-function,492,951462,,"",,,,,,,,,
html-keyboard-response,493,951568,null,"",null,,,,,,,,
math-period,494,953834,3606.3650001306087,"",,,,,,,,,6
html-keyboard-response,495,953937,null,"",null,,,,,,,,
math-period,496,955513,2738.3799998788163,"",,,,,,,,,5
html-keyboard-response,497,955617,null,"",null,,,,,,,,
math-period,498,956971,2372.844999888912,"",,,,,,,,,5
html-keyboard-response,499,957075,null,"",null,,,,,,,,
math-period,500,959405,3954.759999993257,"",,,,,,,,,3
html-keyboard-response,501,959508,null,"",null,,,,,,,,
math-period,502,961386,3188.1800000555813,"",,,,,,,,,5
html-keyboard-response,503,961490,null,"",null,,,,,,,,
math-period,504,963222,2982.789999921806,"",,,,,,,,,5
html-keyboard-response,505,963326,null,"",null,,,,,,,,
math-period,506,964795,2581.609999993816,"",,,,,,,,,4
html-keyboard-response,507,964899,null,"",null,,,,,,,,
math-period,508,968150,6107.795000076294,"",,,,,,,,,2
html-keyboard-response,509,968253,null,"",null,,,,,,,,
math-period,510,971311,5551.145000034012,"",,,,,,,,,3
html-keyboard-response,511,971415,null,"",null,,,,,,,,
math-period,512,973702,4279.824999975972,"",,,,,,,,,2
html-keyboard-response,513,973805,null,"",null,,,,,,,,
math-period,514,975273,2498.535000020638,"",,,,,,,,,5
html-keyboard-response,515,975377,null,"",null,,,,,,,,
math-period,516,975466,null,"",,,,,,,,,
html-keyboard-response,517,976469,null,"Recall Period!",null,,,,,,,,
call-function,518,976472,,"",,,,,,,,,
html-keyboard-response,519,976576,null,"",null,,,,,,,,
recall-period,520,979026,11930.869999574497,"",,,,,,,,,machine
html-keyboard-response,521,979130,null,"",null,,,,,,,,
recall-period,522,980912,7862.0200001169,"",,,,,,,,,bathtub
html-keyboard-response,523,981016,null,"",null,,,,,,,,
recall-period,524,982464,7108.919999678619,"",,,,,,,,,concrete
html-keyboard-response,525,982566,null,"",null,,,,,,,,
recall-period,526,997431,113583.78500002436,"",,,,,,,,,freezer
html-keyboard-response,527,997535,null,"",null,,,,,,,,
recall-period,528,1034601,327284.44999968633,"",,,,,,,,,bathroom
html-keyboard-response,529,1034705,null,"",null,,,,,,,,
recall-period,530,1047158,102576.2750004651,"",,,,,,,,,subway
html-keyboard-response,531,1047262,null,"",null,,,,,,,,
recall-period,532,1051474,null,"",,,,,,,,,
html-keyboard-response,533,1051977,null,"Time's Up!",null,,,,,,,,
html-keyboard-response,534,1053020,1041.815000004135,"<p> Good job! You responded correctly to 93% of the GREEN squares.</p>
                  <p>Be sure to keep your accuracy above 80%</p>
                  <p>Press any key to continue the experiment. Thank you!</p>",32,,,,,,,,
html-keyboard-response,535,1053672,650.3549999324605,"<div style=""font-size:48px;"">Press any key to begin list 6 of 24 </div>",32,,,,,,,,
html-keyboard-response,536,1056180,null,"<div style=""font-size:60px;"">+</div>",null,,,,,,,,
html-keyboard-response,537,1056683,null,"PRAIRIE<img id = ""stim"" ><div class = red_square id = ""topsquare"" ></div><img id = ""stim"" ><div class = red_square  id = ""bottomsquare"" ></div>",null,word_square,response,0,none,true,,,
html-keyboard-response,538,1058186,null,"PRAIRIE",null,word,,,,, 'PRAIRIE',,
html-keyboard-response,539,1058640,452.1100000711158,"CIRCUS<img id = ""stim"" ><div class = green_square id = ""topsquare"" ></div><img id = ""stim"" ><div class = green_square  id = ""bottomsquare"" ></div>",32,word_square,response,1,Space,true,,,
html-keyboard-response,540,1060145,null,"CIRCUS",null,word,,,,, 'CIRCUS',,
html-keyboard-response,541,1060557,409.79500010143965,"STRING<img id = ""stim"" ><div class = green_square id = ""topsquare"" ></div><img id = ""stim"" ><div class = green_square  id = ""bottomsquare"" ></div>",32,word_square,response,1,Space,true,,,
html-keyboard-response,542,1062064,null,"STRING",null,word,,,,, 'STRING',,
html-keyboard-response,543,1062567,null,"TORTOISE<img id = ""stim"" ><div class = red_square id = ""topsquare"" ></div><img id = ""stim"" ><div class = red_square  id = ""bottomsquare"" ></div>",null,word_square,response,0,none,true,,,
html-keyboard-response,544,1064076,null,"TORTOISE",null,word,,,,, 'TORTOISE',,
html-keyboard-response,545,1064586,null,"BUNNY<img id = ""stim"" ><div class = red_square id = ""topsquare"" ></div><img id = ""stim"" ><div class = red_square  id = ""bottomsquare"" ></div>",null,word_square,response,0,none,true,,,
html-keyboard-response,546,1066091,null,"BUNNY",null,word,,,,, 'BUNNY',,
html-keyboard-response,547,1066477,383.8449999457225,"NEUTRON<img id = ""stim"" ><div class = green_square id = ""topsquare"" ></div><img id = ""stim"" ><div class = green_square  id = ""bottomsquare"" ></div>",32,word_square,response,1,Space,true,,,
html-keyboard-response,548,1067987,null,"NEUTRON",null,word,,,,, 'NEUTRON',,
html-keyboard-response,549,1068493,null,"ATOM<img id = ""stim"" ><div class = red_square id = ""topsquare"" ></div><img id = ""stim"" ><div class = red_square  id = ""bottomsquare"" ></div>",null,word_square,response,0,none,true,,,
html-keyboard-response,550,1070000,null,"ATOM",null,word,,,,, 'ATOM',,
html-keyboard-response,551,1070510,null,"CELLAR<img id = ""stim"" ><div class = red_square id = ""topsquare"" ></div><img id = ""stim"" ><div class = red_square  id = ""bottomsquare"" ></div>",null,word_square,response,0,none,true,,,
html-keyboard-response,552,1072018,null,"CELLAR",null,word,,,,, 'CELLAR',,
html-keyboard-response,553,1072528,null,"JUNGLE<img id = ""stim"" ><div class = green_square id = ""topsquare"" ></div><img id = ""stim"" ><div class = green_square  id = ""bottomsquare"" ></div>",null,word_square,response,1,Space,false,,,
html-keyboard-response,554,1074038,null,"JUNGLE",null,word,,,,, 'JUNGLE',,
html-keyboard-response,555,1074544,null,"ANCHOR<img id = ""stim"" ><div class = red_square id = ""topsquare"" ></div><img id = ""stim"" ><div class = red_square  id = ""bottomsquare"" ></div>",null,word_square,response,0,none,true,,,
html-keyboard-response,556,1076054,null,"ANCHOR",null,word,,,,, 'ANCHOR',,
html-keyboard-response,557,1076563,null,"PICNIC<img id = ""stim"" ><div class = red_square id = ""topsquare"" ></div><img id = ""stim"" ><div class = red_square  id = ""bottomsquare"" ></div>",null,word_square,response,0,none,true,,,
html-keyboard-response,558,1078073,null,"PICNIC",null,word,,,,, 'PICNIC',,
html-keyboard-response,559,1078514,438.1600000197068,"BARLEY<img id = ""stim"" ><div class = green_square id = ""topsquare"" ></div><img id = ""stim"" ><div class = green_square  id = ""bottomsquare"" ></div>",32,word_square,response,1,Space,true,,,
html-keyboard-response,560,1080023,null,"BARLEY",null,word,,,,, 'BARLEY',,
html-keyboard-response,561,1080529,null,"DAISY<img id = ""stim"" ><div class = red_square id = ""topsquare"" ></div><img id = ""stim"" ><div class = red_square  id = ""bottomsquare"" ></div>",null,word_square,response,0,none,true,,,
html-keyboard-response,562,1082037,null,"DAISY",null,word,,,,, 'DAISY',,
html-keyboard-response,563,1082509,469.8399999178946,"HAWK<img id = ""stim"" ><div class = green_square id = ""topsquare"" ></div><img id = ""stim"" ><div class = green_square  id = ""bottomsquare"" ></div>",32,word_square,response,1,Space,true,,,
html-keyboard-response,564,1084019,null,"HAWK",null,word,,,,, 'HAWK',,
html-keyboard-response,565,1084525,null,"CIGAR<img id = ""stim"" ><div class = red_square id = ""topsquare"" ></div><img id = ""stim"" ><div class = red_square  id = ""bottomsquare"" ></div>",null,word_square,response,0,none,true,,,
html-keyboard-response,566,1086032,null,"CIGAR",null,word,,,,, 'CIGAR',,
html-keyboard-response,567,1086395,360.92000000644475,"GARLIC<img id = ""stim"" ><div class = green_square id = ""topsquare"" ></div><img id = ""stim"" ><div class = green_square  id = ""bottomsquare"" ></div>",32,word_square,response,1,Space,true,,,
html-keyboard-response,568,1087898,null,"GARLIC",null,word,,,,, 'GARLIC',,
html-keyboard-response,569,1088381,479.87499996088445,"LEAF<img id = ""stim"" ><div class = green_square id = ""topsquare"" ></div><img id = ""stim"" ><div class = green_square  id = ""bottomsquare"" ></div>",32,word_square,response,1,Space,true,,,
html-keyboard-response,570,1089887,null,"LEAF",null,word,,,,, 'LEAF',,
html-keyboard-response,571,1090322,432.9200000502169,"BASEMENT<img id = ""stim"" ><div class = green_square id = ""topsquare"" ></div><img id = ""stim"" ><div class = green_square  id = ""bottomsquare"" ></div>",32,word_square,response,1,Space,true,,,
html-keyboard-response,572,1091831,null,"BASEMENT",null,word,,,,, 'BASEMENT',,
call-function,573,1091833,,"",,,,,,,,,
html-keyboard-response,574,1091940,null,"",null,,,,,,,,
math-period,575,1094285,3525.9599999990314,"",,,,,,,,,4
html-keyboard-response,576,1094392,null,"",null,,,,,,,,
math-period,577,1096082,2849.2400001268834,"",,,,,,,,,4
html-keyboard-response,578,1096187,null,"",null,,,,,,,,
math-period,579,1097305,1928.2599999569356,"",,,,,,,,,2
html-keyboard-response,580,1097410,null,"",null,,,,,,,,
math-period,581,1100859,6566.019999911077,"",,,,,,,,,1
html-keyboard-response,582,1100963,null,"",null,,,,,,,,
math-period,583,1102958,3480.3700001211837,"",,,,,,,,,3
html-keyboard-response,584,1103062,null,"",null,,,,,,,,
math-period,585,1104780,2996.9399998662993,"",,,,,,,,,4
html-keyboard-response,586,1104886,null,"",null,,,,,,,,
math-period,587,1106410,2632.865000050515,"",,,,,,,,,4
html-keyboard-response,588,1106514,null,"",null,,,,,,,,
math-period,589,1107889,2345.2099999412894,"",,,,,,,,,4
html-keyboard-response,590,1107993,null,"",null,,,,,,,,
math-period,591,1109194,1984.9949999479577,"",,,,,,,,,4
html-keyboard-response,592,1109298,null,"",null,,,,,,,,
math-period,593,1110626,2325.9850000031292,"",,,,,,,,,5
html-keyboard-response,594,1110731,null,"",null,,,,,,,,
math-period,595,1112863,4068.295000004582,"",,,,,,,,,1
html-keyboard-response,596,1112967,null,"",null,,,,,,,,
math-period,597,1114356,2560.8000000938773,"",,,,,,,,,1
html-keyboard-response,598,1114460,null,"",null,,,,,,,,
math-period,599,1115663,2074.824999901466,"",,,,,,,,,3
html-keyboard-response,600,1115767,null,"",null,,,,,,,,
math-period,601,1115835,null,"",,,,,,,,,
html-keyboard-response,602,1116839,null,"Recall Period!",null,,,,,,,,
call-function,603,1116841,,"",,,,,,,,,
html-keyboard-response,604,1116946,null,"",null,,,,,,,,
recall-period,605,1118614,8556.214999873191,"",,,,,,,,,garlic
html-keyboard-response,606,1118718,null,"",null,,,,,,,,
recall-period,607,1119397,1798.1000000145286,"",,,,,,,,,leaf
html-keyboard-response,608,1119501,null,"",null,,,,,,,,
recall-period,609,1120947,7363.950000028126,"",,,,,,,,,basement
html-keyboard-response,610,1121051,null,"",null,,,,,,,,
recall-period,611,1122198,4501.329999649897,"",,,,,,,,,cigar
html-keyboard-response,612,1122301,null,"",null,,,,,,,,
recall-period,613,1124614,10283.335000276566,"",,,,,,,,,bunny
html-keyboard-response,614,1124717,null,"",null,,,,,,,,
recall-period,615,1126885,10057.490000268444,"",,,,,,,,,tortoise
html-keyboard-response,616,1126989,null,"",null,,,,,,,,
recall-period,617,1136936,62638.50500015542,"",,,,,,,,,circus
html-keyboard-response,618,1137040,null,"",null,,,,,,,,
recall-period,619,1191840,null,"",,,,,,,,,
html-keyboard-response,620,1192349,null,"Time's Up!",null,,,,,,,,
html-keyboard-response,621,1194019,1667.7550000604242,"<p> Good job! You responded correctly to 93% of the GREEN squares.</p>
                  <p>Be sure to keep your accuracy above 80%</p>
                  <p>Press any key to continue the experiment. Thank you!</p>",32,,,,,,,,
html-keyboard-response,622,1194859,837.9650000715628,"<div style=""font-size:48px;"">Press any key to begin list 7 of 24 </div>",32,,,,,,,,
html-keyboard-response,623,1197361,null,"<div style=""font-size:60px;"">+</div>",null,,,,,,,,
html-keyboard-response,624,1197864,null,"BLOUSE<img id = ""stim"" ><div class = green_square id = ""topsquare"" ></div><img id = ""stim"" ><div class = green_square  id = ""bottomsquare"" ></div>",null,word_square,response,1,Space,false,,,
html-keyboard-response,625,1199370,null,"BLOUSE",null,word,,,,, 'BLOUSE',,
html-keyboard-response,626,1199878,null,"COBRA<img id = ""stim"" ><div class = red_square id = ""topsquare"" ></div><img id = ""stim"" ><div class = red_square  id = ""bottomsquare"" ></div>",null,word_square,response,0,none,true,,,
html-keyboard-response,627,1201381,null,"COBRA",null,word,,,,, 'COBRA',,
html-keyboard-response,628,1201890,null,"LAUNDRY<img id = ""stim"" ><div class = red_square id = ""topsquare"" ></div><img id = ""stim"" ><div class = red_square  id = ""bottomsquare"" ></div>",null,word_square,response,0,none,true,,,
html-keyboard-response,629,1203394,null,"LAUNDRY",null,word,,,,, 'LAUNDRY',,
html-keyboard-response,630,1203801,404.52999994158745,"DRESS<img id = ""stim"" ><div class = green_square id = ""topsquare"" ></div><img id = ""stim"" ><div class = green_square  id = ""bottomsquare"" ></div>",32,word_square,response,1,Space,true,,,
html-keyboard-response,631,1205308,null,"DRESS",null,word,,,,, 'DRESS',,
html-keyboard-response,632,1205795,484.51000009663403,"REPORT<img id = ""stim"" ><div class = green_square id = ""topsquare"" ></div><img id = ""stim"" ><div class = green_square  id = ""bottomsquare"" ></div>",32,word_square,response,1,Space,true,,,
html-keyboard-response,633,1207298,null,"REPORT",null,word,,,,, 'REPORT',,
html-keyboard-response,634,1207809,null,"SPIDER<img id = ""stim"" ><div class = red_square id = ""topsquare"" ></div><img id = ""stim"" ><div class = red_square  id = ""bottomsquare"" ></div>",null,word_square,response,0,none,true,,,
html-keyboard-response,635,1209316,null,"SPIDER",null,word,,,,, 'SPIDER',,
html-keyboard-response,636,1209671,352.625000057742,"FINGER<img id = ""stim"" ><div class = green_square id = ""topsquare"" ></div><img id = ""stim"" ><div class = green_square  id = ""bottomsquare"" ></div>",32,word_square,response,1,Space,true,,,
html-keyboard-response,637,1211178,null,"FINGER",null,word,,,,, 'FINGER',,
html-keyboard-response,638,1211557,377.18999991193414,"BISCUIT<img id = ""stim"" ><div class = green_square id = ""topsquare"" ></div><img id = ""stim"" ><div class = green_square  id = ""bottomsquare"" ></div>",32,word_square,response,1,Space,true,,,
html-keyboard-response,639,1213064,null,"BISCUIT",null,word,,,,, 'BISCUIT',,
html-keyboard-response,640,1213569,null,"SHOULDER<img id = ""stim"" ><div class = red_square id = ""topsquare"" ></div><img id = ""stim"" ><div class = red_square  id = ""bottomsquare"" ></div>",null,word_square,response,0,none,true,,,
html-keyboard-response,641,1215076,null,"SHOULDER",null,word,,,,, 'SHOULDER',,
html-keyboard-response,642,1215466,388.28499999362975,"LEG<img id = ""stim"" ><div class = green_square id = ""topsquare"" ></div><img id = ""stim"" ><div class = green_square  id = ""bottomsquare"" ></div>",32,word_square,response,1,Space,true,,,
html-keyboard-response,643,1216973,null,"LEG",null,word,,,,, 'LEG',,
html-keyboard-response,644,1217394,418.06000005453825,"HOUSE<img id = ""stim"" ><div class = green_square id = ""topsquare"" ></div><img id = ""stim"" ><div class = green_square  id = ""bottomsquare"" ></div>",32,word_square,response,1,Space,true,,,
html-keyboard-response,645,1218901,null,"HOUSE",null,word,,,,, 'HOUSE',,
html-keyboard-response,646,1219412,null,"LUMBER<img id = ""stim"" ><div class = red_square id = ""topsquare"" ></div><img id = ""stim"" ><div class = red_square  id = ""bottomsquare"" ></div>",null,word_square,response,0,none,true,,,
html-keyboard-response,647,1220915,null,"LUMBER",null,word,,,,, 'LUMBER',,
html-keyboard-response,648,1221281,363.5350000113249,"REINDEER<img id = ""stim"" ><div class = green_square id = ""topsquare"" ></div><img id = ""stim"" ><div class = green_square  id = ""bottomsquare"" ></div>",32,word_square,response,1,Space,true,,,
html-keyboard-response,649,1222792,null,"REINDEER",null,word,,,,, 'REINDEER',,
html-keyboard-response,650,1223302,null,"LIZARD<img id = ""stim"" ><div class = red_square id = ""topsquare"" ></div><img id = ""stim"" ><div class = red_square  id = ""bottomsquare"" ></div>",null,word_square,response,0,none,true,,,
html-keyboard-response,651,1224812,null,"LIZARD",null,word,,,,, 'LIZARD',,
html-keyboard-response,652,1225225,410.38999997545034,"SERPENT<img id = ""stim"" ><div class = green_square id = ""topsquare"" ></div><img id = ""stim"" ><div class = green_square  id = ""bottomsquare"" ></div>",32,word_square,response,1,Space,true,,,
html-keyboard-response,653,1226727,null,"SERPENT",null,word,,,,, 'SERPENT',,
html-keyboard-response,654,1227236,null,"TYPIST<img id = ""stim"" ><div class = red_square id = ""topsquare"" ></div><img id = ""stim"" ><div class = red_square  id = ""bottomsquare"" ></div>",null,word_square,response,0,none,true,,,
html-keyboard-response,655,1228744,null,"TYPIST",null,word,,,,, 'TYPIST',,
html-keyboard-response,656,1229223,476.68999992311,"ROBOT<img id = ""stim"" ><div class = red_square id = ""topsquare"" ></div><img id = ""stim"" ><div class = red_square  id = ""bottomsquare"" ></div>",32,word_square,response,0,none,false,,,
html-keyboard-response,657,1230728,null,"ROBOT",null,word,,,,, 'ROBOT',,
html-keyboard-response,658,1231236,null,"BLACKBOARD<img id = ""stim"" ><div class = red_square id = ""topsquare"" ></div><img id = ""stim"" ><div class = red_square  id = ""bottomsquare"" ></div>",null,word_square,response,0,none,true,,,
html-keyboard-response,659,1232740,null,"BLACKBOARD",null,word,,,,, 'BLACKBOARD',,
call-function,660,1232741,,"",,,,,,,,,
html-keyboard-response,661,1232849,null,"",null,,,,,,,,
math-period,662,1236855,7694.684999994934,"",,,,,,,,,0
html-keyboard-response,663,1236959,null,"",null,,,,,,,,
math-period,664,1238247,2313.5349999647588,"",,,,,,,,,4
html-keyboard-response,665,1238351,null,"",null,,,,,,,,
math-period,666,1240195,3381.9900000235066,"",,,,,,,,,2
html-keyboard-response,667,1240299,null,"",null,,,,,,,,
math-period,668,1244073,6876.28000008408,"",,,,,,,,,0
html-keyboard-response,669,1244177,null,"",null,,,,,,,,
math-period,670,1248723,8190.245000063442,"",,,,,,,,,1
html-keyboard-response,671,1248827,null,"",null,,,,,,,,
math-period,672,1249965,1935.9750001458451,"",,,,,,,,,2
html-keyboard-response,673,1250070,null,"",null,,,,,,,,
math-period,674,1256744,30338.789999717847,"",,,,,,,,,undefi
html-keyboard-response,675,1257748,null,"Recall Period!",null,,,,,,,,
call-function,676,1257750,,"",,,,,,,,,
html-keyboard-response,677,1257860,null,"",null,,,,,,,,
recall-period,678,1260034,11520.609999774024,"",,,,,,,,,typist
html-keyboard-response,679,1260138,null,"",null,,,,,,,,
recall-period,680,1262121,9484.51499955263,"",,,,,,,,,blouse
html-keyboard-response,681,1262226,null,"",null,,,,,,,,
recall-period,682,1263476,4014.1349997138605,"",,,,,,,,,leg
html-keyboard-response,683,1263580,null,"",null,,,,,,,,
recall-period,684,1265313,7748.319999664091,"",,,,,,,,,shoulder
html-keyboard-response,685,1265418,null,"",null,,,,,,,,
recall-period,686,1266756,4740.950000239536,"",,,,,,,,,dress
html-keyboard-response,687,1266859,null,"",null,,,,,,,,
recall-period,688,1267746,3110.42499972973,"",,,,,,,,,house
html-keyboard-response,689,1267850,null,"",null,,,,,,,,
recall-period,690,1269326,5930.78999966383,"",,,,,,,,,lumber
html-keyboard-response,691,1269434,null,"",null,,,,,,,,
recall-period,692,1277001,43541.97000025306,"",,,,,,,,,robot
html-keyboard-response,693,1277105,null,"",null,,,,,,,,
recall-period,694,1279046,11192.965000052936,"",,,,,,,,,blackboard
html-keyboard-response,695,1279152,null,"",null,,,,,,,,
recall-period,696,1297960,159300.49999977928,"",,,,,,,,,reindeer
html-keyboard-response,697,1298064,null,"",null,,,,,,,,
recall-period,698,1332750,null,"",,,,,,,,,
html-keyboard-response,699,1333257,null,"Time's Up!",null,,,,,,,,
html-keyboard-response,700,1345241,11981.430000043474,"<p> Good job! You responded correctly to 92% of the GREEN squares.</p>
                  <p>Be sure to keep your accuracy above 80%</p>
                  <p>Press any key to continue the experiment. Thank you!</p>",32,,,,,,,,
html-keyboard-response,701,1346045,802.4800000712276,"<div style=""font-size:48px;"">Press any key to begin list 8 of 24 </div>",32,,,,,,,,
html-keyboard-response,702,1348551,null,"<div style=""font-size:60px;"">+</div>",null,,,,,,,,
html-keyboard-response,703,1349037,483.16500009968877,"ROCKET<img id = ""stim"" ><div class = green_square id = ""topsquare"" ></div><img id = ""stim"" ><div class = green_square  id = ""bottomsquare"" ></div>",32,word_square,response,1,Space,true,,,
html-keyboard-response,704,1350545,null,"ROCKET",null,word,,,,, 'ROCKET',,
html-keyboard-response,705,1351055,null,"VILLAIN<img id = ""stim"" ><div class = red_square id = ""topsquare"" ></div><img id = ""stim"" ><div class = red_square  id = ""bottomsquare"" ></div>",null,word_square,response,0,none,true,,,
html-keyboard-response,706,1352561,null,"VILLAIN",null,word,,,,, 'VILLAIN',,
html-keyboard-response,707,1353069,null,"SICKLE<img id = ""stim"" ><div class = red_square id = ""topsquare"" ></div><img id = ""stim"" ><div class = red_square  id = ""bottomsquare"" ></div>",null,word_square,response,0,none,true,,,
html-keyboard-response,708,1354572,null,"SICKLE",null,word,,,,, 'SICKLE',,
html-keyboard-response,709,1354970,395.48499998636544,"PORCH<img id = ""stim"" ><div class = green_square id = ""topsquare"" ></div><img id = ""stim"" ><div class = green_square  id = ""bottomsquare"" ></div>",32,word_square,response,1,Space,true,,,
html-keyboard-response,710,1356478,null,"PORCH",null,word,,,,, 'PORCH',,
html-keyboard-response,711,1356887,406.6449999809265,"HIGHWAY<img id = ""stim"" ><div class = green_square id = ""topsquare"" ></div><img id = ""stim"" ><div class = green_square  id = ""bottomsquare"" ></div>",32,word_square,response,1,Space,true,,,
html-keyboard-response,712,1358394,null,"HIGHWAY",null,word,,,,, 'HIGHWAY',,
html-keyboard-response,713,1358897,null,"CURTAIN<img id = ""stim"" ><div class = red_square id = ""topsquare"" ></div><img id = ""stim"" ><div class = red_square  id = ""bottomsquare"" ></div>",null,word_square,response,0,none,true,,,
html-keyboard-response,714,1360401,null,"CURTAIN",null,word,,,,, 'CURTAIN',,
html-keyboard-response,715,1360838,434.7800000105053,"WINDOW<img id = ""stim"" ><div class = green_square id = ""topsquare"" ></div><img id = ""stim"" ><div class = green_square  id = ""bottomsquare"" ></div>",32,word_square,response,1,Space,true,,,
html-keyboard-response,716,1362347,null,"WINDOW",null,word,,,,, 'WINDOW',,
html-keyboard-response,717,1362794,445.26499998755753,"MISSILE<img id = ""stim"" ><div class = green_square id = ""topsquare"" ></div><img id = ""stim"" ><div class = green_square  id = ""bottomsquare"" ></div>",32,word_square,response,1,Space,true,,,
html-keyboard-response,718,1364304,null,"MISSILE",null,word,,,,, 'MISSILE',,
html-keyboard-response,719,1364807,null,"PIRATE<img id = ""stim"" ><div class = red_square id = ""topsquare"" ></div><img id = ""stim"" ><div class = red_square  id = ""bottomsquare"" ></div>",null,word_square,response,0,none,true,,,
html-keyboard-response,720,1366313,null,"PIRATE",null,word,,,,, 'PIRATE',,
html-keyboard-response,721,1366815,500.43999997433275,"RULER<img id = ""stim"" ><div class = green_square id = ""topsquare"" ></div><img id = ""stim"" ><div class = green_square  id = ""bottomsquare"" ></div>",32,word_square,response,1,Space,true,,,
html-keyboard-response,722,1368325,null,"RULER",null,word,,,,, 'RULER',,
html-keyboard-response,723,1368721,394.4749999791384,"PEANUT<img id = ""stim"" ><div class = green_square id = ""topsquare"" ></div><img id = ""stim"" ><div class = green_square  id = ""bottomsquare"" ></div>",32,word_square,response,1,Space,true,,,
html-keyboard-response,724,1370231,null,"PEANUT",null,word,,,,, 'PEANUT',,
html-keyboard-response,725,1370734,null,"TEACHER<img id = ""stim"" ><div class = red_square id = ""topsquare"" ></div><img id = ""stim"" ><div class = red_square  id = ""bottomsquare"" ></div>",null,word_square,response,0,none,true,,,
html-keyboard-response,726,1372238,null,"TEACHER",null,word,,,,, 'TEACHER',,
html-keyboard-response,727,1372656,415.099999983795,"DINER<img id = ""stim"" ><div class = green_square id = ""topsquare"" ></div><img id = ""stim"" ><div class = green_square  id = ""bottomsquare"" ></div>",32,word_square,response,1,Space,true,,,
html-keyboard-response,728,1374163,null,"DINER",null,word,,,,, 'DINER',,
html-keyboard-response,729,1374667,null,"CRAYON<img id = ""stim"" ><div class = red_square id = ""topsquare"" ></div><img id = ""stim"" ><div class = red_square  id = ""bottomsquare"" ></div>",null,word_square,response,0,none,true,,,
html-keyboard-response,730,1376175,null,"CRAYON",null,word,,,,, 'CRAYON',,
html-keyboard-response,731,1376631,453.28000001609325,"SNEAKER<img id = ""stim"" ><div class = green_square id = ""topsquare"" ></div><img id = ""stim"" ><div class = green_square  id = ""bottomsquare"" ></div>",32,word_square,response,1,Space,true,,,
html-keyboard-response,732,1378134,null,"SNEAKER",null,word,,,,, 'SNEAKER',,
html-keyboard-response,733,1378642,null,"DRESSER<img id = ""stim"" ><div class = red_square id = ""topsquare"" ></div><img id = ""stim"" ><div class = red_square  id = ""bottomsquare"" ></div>",null,word_square,response,0,none,true,,,
html-keyboard-response,734,1380149,null,"DRESSER",null,word,,,,, 'DRESSER',,
html-keyboard-response,735,1380659,null,"PUMPKIN<img id = ""stim"" ><div class = red_square id = ""topsquare"" ></div><img id = ""stim"" ><div class = red_square  id = ""bottomsquare"" ></div>",null,word_square,response,0,none,true,,,
html-keyboard-response,736,1382163,null,"PUMPKIN",null,word,,,,, 'PUMPKIN',,
html-keyboard-response,737,1382668,null,"DENIM<img id = ""stim"" ><div class = red_square id = ""topsquare"" ></div><img id = ""stim"" ><div class = red_square  id = ""bottomsquare"" ></div>",null,word_square,response,0,none,true,,,
html-keyboard-response,738,1384172,null,"DENIM",null,word,,,,, 'DENIM',,
call-function,739,1384174,,"",,,,,,,,,
html-keyboard-response,740,1384280,null,"",null,,,,,,,,
math-period,741,1386072,2993.855000124313,"",,,,,,,,,4
html-keyboard-response,742,1386176,null,"",null,,,,,,,,
math-period,743,1388395,4066.370000015013,"",,,,,,,,,0
html-keyboard-response,744,1388499,null,"",null,,,,,,,,
math-period,745,1391070,7383.9049998205155,"",,,,,,,,,6
html-keyboard-response,746,1391174,null,"",null,,,,,,,,
math-period,747,1393101,3282.8450000379235,"",,,,,,,,,1
html-keyboard-response,748,1393206,null,"",null,,,,,,,,
math-period,749,1394485,2238.6100000003353,"",,,,,,,,,4
html-keyboard-response,750,1394590,null,"",null,,,,,,,,
math-period,751,1396505,3572.825000039302,"",,,,,,,,,0
html-keyboard-response,752,1396608,null,"",null,,,,,,,,
math-period,753,1397934,2388.980000047013,"",,,,,,,,,5
html-keyboard-response,754,1398039,null,"",null,,,,,,,,
math-period,755,1399257,2169.4450000068173,"",,,,,,,,,4
html-keyboard-response,756,1399362,null,"",null,,,,,,,,
math-period,757,1400319,1640.239999978803,"",,,,,,,,,4
html-keyboard-response,758,1400423,null,"",null,,,,,,,,
math-period,759,1401585,2074.0249999798834,"",,,,,,,,,3
html-keyboard-response,760,1401688,null,"",null,,,,,,,,
math-period,761,1403573,3486.0350000672042,"",,,,,,,,,1
html-keyboard-response,762,1403677,null,"",null,,,,,,,,
math-period,763,1404799,1995.6799999345094,"",,,,,,,,,3
html-keyboard-response,764,1404902,null,"",null,,,,,,,,
math-period,765,1408179,null,"",,,,,,,,,
html-keyboard-response,766,1409183,null,"Recall Period!",null,,,,,,,,
call-function,767,1409185,,"",,,,,,,,,
html-keyboard-response,768,1409294,null,"",null,,,,,,,,
recall-period,769,1412040,12668.434999650344,"",,,,,,,,,pumpkin
html-keyboard-response,770,1412144,null,"",null,,,,,,,,
recall-period,771,1413844,5454.339999821968,"",,,,,,,,,denim
html-keyboard-response,772,1413947,null,"",null,,,,,,,,
recall-period,773,1415496,6441.485000075772,"",,,,,,,,,dresser
html-keyboard-response,774,1415597,null,"",null,,,,,,,,
recall-period,775,1435939,156717.2999997856,"",,,,,,,,,curtain
html-keyboard-response,776,1436043,null,"",null,,,,,,,,
recall-period,777,1443904,44477.93499997351,"",,,,,,,,,ruler
html-keyboard-response,778,1444008,null,"",null,,,,,,,,
recall-period,779,1445852,9778.565000509843,"",,,,,,,,,teacher
html-keyboard-response,780,1445954,null,"",null,,,,,,,,
recall-period,781,1447856,10212.204999523237,"",,,,,,,,,pirate
html-keyboard-response,782,1447959,null,"",null,,,,,,,,
recall-period,783,1484189,null,"",,,,,,,,,
html-keyboard-response,784,1484694,null,"Time's Up!",null,,,,,,,,
html-keyboard-response,785,1485828,1131.8250000476837,"<p> Good job! You responded correctly to 93% of the GREEN squares.</p>
                  <p>Be sure to keep your accuracy above 80%</p>
                  <p>Press any key to continue the experiment. Thank you!</p>",32,,,,,,,,
html-keyboard-response,786,1486903,1072.565000038594,"<div style=""font-size:48px;"">Press any key to begin list 9 of 24 </div>",32,,,,,,,,
html-keyboard-response,787,1489411,null,"<div style=""font-size:60px;"">+</div>",null,,,,,,,,
html-keyboard-response,788,1489918,null,"NICKEL<img id = ""stim"" ><div class = green_square id = ""topsquare"" ></div><img id = ""stim"" ><div class = green_square  id = ""bottomsquare"" ></div>",null,word_square,response,1,Space,false,,,
html-keyboard-response,789,1491424,null,"NICKEL",null,word,,,,, 'NICKEL',,
html-keyboard-response,790,1491932,null,"CHAUFFEUR<img id = ""stim"" ><div class = red_square id = ""topsquare"" ></div><img id = ""stim"" ><div class = red_square  id = ""bottomsquare"" ></div>",null,word_square,response,0,none,true,,,
html-keyboard-response,791,1493434,null,"CHAUFFEUR",null,word,,,,, 'CHAUFFEUR',,
html-keyboard-response,792,1493861,424.32500002905726,"PRIEST<img id = ""stim"" ><div class = green_square id = ""topsquare"" ></div><img id = ""stim"" ><div class = green_square  id = ""bottomsquare"" ></div>",32,word_square,response,1,Space,true,,,
html-keyboard-response,793,1495370,null,"PRIEST",null,word,,,,, 'PRIEST',,
html-keyboard-response,794,1495880,null,"CANAL<img id = ""stim"" ><div class = red_square id = ""topsquare"" ></div><img id = ""stim"" ><div class = red_square  id = ""bottomsquare"" ></div>",null,word_square,response,0,none,true,,,
html-keyboard-response,795,1497383,null,"CANAL",null,word,,,,, 'CANAL',,
html-keyboard-response,796,1497791,404.19500006828457,"CRYSTAL<img id = ""stim"" ><div class = green_square id = ""topsquare"" ></div><img id = ""stim"" ><div class = green_square  id = ""bottomsquare"" ></div>",32,word_square,response,1,Space,true,,,
html-keyboard-response,797,1499300,null,"CRYSTAL",null,word,,,,, 'CRYSTAL',,
html-keyboard-response,798,1499804,null,"PUPPY<img id = ""stim"" ><div class = red_square id = ""topsquare"" ></div><img id = ""stim"" ><div class = red_square  id = ""bottomsquare"" ></div>",null,word_square,response,0,none,true,,,
html-keyboard-response,799,1501308,null,"PUPPY",null,word,,,,, 'PUPPY',,
html-keyboard-response,800,1501817,null,"HOUND<img id = ""stim"" ><div class = red_square id = ""topsquare"" ></div><img id = ""stim"" ><div class = red_square  id = ""bottomsquare"" ></div>",null,word_square,response,0,none,true,,,
html-keyboard-response,801,1503326,null,"HOUND",null,word,,,,, 'HOUND',,
html-keyboard-response,802,1503836,null,"CRUTCH<img id = ""stim"" ><div class = green_square id = ""topsquare"" ></div><img id = ""stim"" ><div class = green_square  id = ""bottomsquare"" ></div>",null,word_square,response,1,Space,false,,,
html-keyboard-response,803,1505346,null,"CRUTCH",null,word,,,,, 'CRUTCH',,
html-keyboard-response,804,1505856,null,"JELLO<img id = ""stim"" ><div class = red_square id = ""topsquare"" ></div><img id = ""stim"" ><div class = red_square  id = ""bottomsquare"" ></div>",null,word_square,response,0,none,true,,,
html-keyboard-response,805,1507359,null,"JELLO",null,word,,,,, 'JELLO',,
html-keyboard-response,806,1507865,null,"CHURCH<img id = ""stim"" ><div class = red_square id = ""topsquare"" ></div><img id = ""stim"" ><div class = red_square  id = ""bottomsquare"" ></div>",null,word_square,response,0,none,true,,,
html-keyboard-response,807,1509372,null,"CHURCH",null,word,,,,, 'CHURCH',,
html-keyboard-response,808,1509782,407.3199999984354,"LOBBY<img id = ""stim"" ><div class = green_square id = ""topsquare"" ></div><img id = ""stim"" ><div class = green_square  id = ""bottomsquare"" ></div>",32,word_square,response,1,Space,true,,,
html-keyboard-response,809,1511290,null,"LOBBY",null,word,,,,, 'LOBBY',,
html-keyboard-response,810,1511793,null,"GYMNAST<img id = ""stim"" ><div class = green_square id = ""topsquare"" ></div><img id = ""stim"" ><div class = green_square  id = ""bottomsquare"" ></div>",null,word_square,response,1,Space,false,,,
html-keyboard-response,811,1513296,null,"GYMNAST",null,word,,,,, 'GYMNAST',,
html-keyboard-response,812,1513803,null,"FLASHLIGHT<img id = ""stim"" ><div class = red_square id = ""topsquare"" ></div><img id = ""stim"" ><div class = red_square  id = ""bottomsquare"" ></div>",null,word_square,response,0,none,true,,,
html-keyboard-response,813,1515312,null,"FLASHLIGHT",null,word,,,,, 'FLASHLIGHT',,
html-keyboard-response,814,1515795,480.8349999366328,"SWITCH<img id = ""stim"" ><div class = green_square id = ""topsquare"" ></div><img id = ""stim"" ><div class = green_square  id = ""bottomsquare"" ></div>",32,word_square,response,1,Space,true,,,
html-keyboard-response,815,1517304,null,"SWITCH",null,word,,,,, 'SWITCH',,
html-keyboard-response,816,1517814,null,"PADDING<img id = ""stim"" ><div class = red_square id = ""topsquare"" ></div><img id = ""stim"" ><div class = red_square  id = ""bottomsquare"" ></div>",null,word_square,response,0,none,true,,,
html-keyboard-response,817,1519324,null,"PADDING",null,word,,,,, 'PADDING',,
html-keyboard-response,818,1519834,null,"NIGHTGOWN<img id = ""stim"" ><div class = red_square id = ""topsquare"" ></div><img id = ""stim"" ><div class = red_square  id = ""bottomsquare"" ></div>",null,word_square,response,0,none,true,,,
html-keyboard-response,819,1521344,null,"NIGHTGOWN",null,word,,,,, 'NIGHTGOWN',,
html-keyboard-response,820,1521851,null,"FRIES<img id = ""stim"" ><div class = green_square id = ""topsquare"" ></div><img id = ""stim"" ><div class = green_square  id = ""bottomsquare"" ></div>",null,word_square,response,1,Space,false,,,
html-keyboard-response,821,1523354,null,"FRIES",null,word,,,,, 'FRIES',,
html-keyboard-response,822,1523780,423.4599999617785,"SCOTCH<img id = ""stim"" ><div class = green_square id = ""topsquare"" ></div><img id = ""stim"" ><div class = green_square  id = ""bottomsquare"" ></div>",32,word_square,response,1,Space,true,,,
html-keyboard-response,823,1525289,null,"SCOTCH",null,word,,,,, 'SCOTCH',,
call-function,824,1525292,,"",,,,,,,,,
html-keyboard-response,825,1525394,null,"",null,,,,,,,,
math-period,826,1527334,3065.6299999682233,"",,,,,,,,,4
html-keyboard-response,827,1527437,null,"",null,,,,,,,,
math-period,828,1529245,3177.284999983385,"",,,,,,,,,1
html-keyboard-response,829,1529349,null,"",null,,,,,,,,
math-period,830,1530753,2483.434999943711,"",,,,,,,,,4
html-keyboard-response,831,1530858,null,"",null,,,,,,,,
math-period,832,1532501,2953.2549999421462,"",,,,,,,,,1
html-keyboard-response,833,1532605,null,"",null,,,,,,,,
math-period,834,1534575,3554.3899999465793,"",,,,,,,,,3
html-keyboard-response,835,1534680,null,"",null,,,,,,,,
math-period,836,1536739,3784.944999963045,"",,,,,,,,,6
html-keyboard-response,837,1536842,null,"",null,,,,,,,,
math-period,838,1540078,6107.760000159033,"",,,,,,,,,3
html-keyboard-response,839,1540183,null,"",null,,,,,,,,
math-period,840,1541654,2545.4599999357015,"",,,,,,,,,3
html-keyboard-response,841,1541759,null,"",null,,,,,,,,
math-period,842,1543418,2954.2399998754263,"",,,,,,,,,3
html-keyboard-response,843,1543522,null,"",null,,,,,,,,
math-period,844,1545114,2847.660000086762,"",,,,,,,,,5
html-keyboard-response,845,1545218,null,"",null,,,,,,,,
math-period,846,1547834,4743.039999855682,"",,,,,,,,,0
html-keyboard-response,847,1547939,null,"",null,,,,,,,,
math-period,848,1549293,1261.354999965988,"",,,,,,,,,4
html-keyboard-response,849,1550297,null,"Recall Period!",null,,,,,,,,
call-function,850,1550299,,"",,,,,,,,,
html-keyboard-response,851,1550402,null,"",null,,,,,,,,
recall-period,852,1552514,8757.89500004612,"",,,,,,,,,fries
html-keyboard-response,853,1552619,null,"",null,,,,,,,,
recall-period,854,1555852,21800.6899994798,"",,,,,,,,,nightgown
html-keyboard-response,855,1555955,null,"",null,,,,,,,,
recall-period,856,1559272,30354.910000693053,"",,,,,,,,,canal
html-keyboard-response,857,1559376,null,"",null,,,,,,,,
recall-period,858,1567232,65862.98500036355,"",,,,,,,,,chauffeur
html-keyboard-response,859,1567335,null,"",null,,,,,,,,
recall-period,860,1615390,331967.9750002688,"",,,,,,,,,switch
html-keyboard-response,861,1615495,null,"",null,,,,,,,,
recall-period,862,1625303,null,"",,,,,,,,,
html-keyboard-response,863,1625813,null,"Time's Up!",null,,,,,,,,
html-keyboard-response,864,1627185,1368.4399999910966,"<p> Good job! You responded correctly to 92% of the GREEN squares.</p>
                  <p>Be sure to keep your accuracy above 80%</p>
                  <p>Press any key to continue the experiment. Thank you!</p>",32,,,,,,,,
html-keyboard-response,865,1628206,1018.2450000429526,"<div style=""font-size:48px;"">Press any key to begin list 10 of 24 </div>",32,,,,,,,,
html-keyboard-response,866,1630715,null,"<div style=""font-size:60px;"">+</div>",null,,,,,,,,
html-keyboard-response,867,1631088,370.89999997988343,"SATURN<img id = ""stim"" ><div class = green_square id = ""topsquare"" ></div><img id = ""stim"" ><div class = green_square  id = ""bottomsquare"" ></div>",32,word_square,response,1,Space,true,,,
html-keyboard-response,868,1632592,null,"SATURN",null,word,,,,, 'SATURN',,
html-keyboard-response,869,1633095,null,"MEDAL<img id = ""stim"" ><div class = red_square id = ""topsquare"" ></div><img id = ""stim"" ><div class = red_square  id = ""bottomsquare"" ></div>",null,word_square,response,0,none,true,,,
html-keyboard-response,870,1634599,null,"MEDAL",null,word,,,,, 'MEDAL',,
html-keyboard-response,871,1635032,430.33500004094094,"JAPAN<img id = ""stim"" ><div class = green_square id = ""topsquare"" ></div><img id = ""stim"" ><div class = green_square  id = ""bottomsquare"" ></div>",32,word_square,response,1,Space,true,,,
html-keyboard-response,872,1636537,null,"JAPAN",null,word,,,,, 'JAPAN',,
html-keyboard-response,873,1637046,null,"COUNTRY<img id = ""stim"" ><div class = red_square id = ""topsquare"" ></div><img id = ""stim"" ><div class = red_square  id = ""bottomsquare"" ></div>",null,word_square,response,0,none,true,,,
html-keyboard-response,874,1638549,null,"COUNTRY",null,word,,,,, 'COUNTRY',,
html-keyboard-response,875,1638916,364.8599999723956,"PIANO<img id = ""stim"" ><div class = green_square id = ""topsquare"" ></div><img id = ""stim"" ><div class = green_square  id = ""bottomsquare"" ></div>",32,word_square,response,1,Space,true,,,
html-keyboard-response,876,1640422,null,"PIANO",null,word,,,,, 'PIANO',,
html-keyboard-response,877,1640929,null,"PISTOL<img id = ""stim"" ><div class = red_square id = ""topsquare"" ></div><img id = ""stim"" ><div class = red_square  id = ""bottomsquare"" ></div>",null,word_square,response,0,none,true,,,
html-keyboard-response,878,1642433,null,"PISTOL",null,word,,,,, 'PISTOL',,
html-keyboard-response,879,1642938,null,"ORANGE<img id = ""stim"" ><div class = red_square id = ""topsquare"" ></div><img id = ""stim"" ><div class = red_square  id = ""bottomsquare"" ></div>",null,word_square,response,0,none,true,,,
html-keyboard-response,880,1644442,null,"ORANGE",null,word,,,,, 'ORANGE',,
html-keyboard-response,881,1644947,null,"OUTDOORS<img id = ""stim"" ><div class = green_square id = ""topsquare"" ></div><img id = ""stim"" ><div class = green_square  id = ""bottomsquare"" ></div>",null,word_square,response,1,Space,false,,,
html-keyboard-response,882,1646457,null,"OUTDOORS",null,word,,,,, 'OUTDOORS',,
html-keyboard-response,883,1646963,null,"FOREST<img id = ""stim"" ><div class = red_square id = ""topsquare"" ></div><img id = ""stim"" ><div class = red_square  id = ""bottomsquare"" ></div>",null,word_square,response,0,none,true,,,
html-keyboard-response,884,1648466,null,"FOREST",null,word,,,,, 'FOREST',,
html-keyboard-response,885,1648974,null,"PARTY<img id = ""stim"" ><div class = red_square id = ""topsquare"" ></div><img id = ""stim"" ><div class = red_square  id = ""bottomsquare"" ></div>",null,word_square,response,0,none,true,,,
html-keyboard-response,886,1650477,null,"PARTY",null,word,,,,, 'PARTY',,
html-keyboard-response,887,1650970,491.0999999847263,"SCHOOL<img id = ""stim"" ><div class = green_square id = ""topsquare"" ></div><img id = ""stim"" ><div class = green_square  id = ""bottomsquare"" ></div>",32,word_square,response,1,Space,true,,,
html-keyboard-response,888,1652472,null,"SCHOOL",null,word,,,,, 'SCHOOL',,
html-keyboard-response,889,1652967,493.4099999954924,"PICTURE<img id = ""stim"" ><div class = green_square id = ""topsquare"" ></div><img id = ""stim"" ><div class = green_square  id = ""bottomsquare"" ></div>",32,word_square,response,1,Space,true,,,
html-keyboard-response,890,1654474,null,"PICTURE",null,word,,,,, 'PICTURE',,
html-keyboard-response,891,1654982,null,"TRUMPET<img id = ""stim"" ><div class = red_square id = ""topsquare"" ></div><img id = ""stim"" ><div class = red_square  id = ""bottomsquare"" ></div>",null,word_square,response,0,none,true,,,
html-keyboard-response,892,1656492,null,"TRUMPET",null,word,,,,, 'TRUMPET',,
html-keyboard-response,893,1656897,403.25500001199543,"BODY<img id = ""stim"" ><div class = green_square id = ""topsquare"" ></div><img id = ""stim"" ><div class = green_square  id = ""bottomsquare"" ></div>",32,word_square,response,1,Space,true,,,
html-keyboard-response,894,1658403,null,"BODY",null,word,,,,, 'BODY',,
html-keyboard-response,895,1658913,null,"DRIVER<img id = ""stim"" ><div class = red_square id = ""topsquare"" ></div><img id = ""stim"" ><div class = red_square  id = ""bottomsquare"" ></div>",null,word_square,response,0,none,true,,,
html-keyboard-response,896,1660423,null,"DRIVER",null,word,,,,, 'DRIVER',,
html-keyboard-response,897,1660931,null,"RECORD<img id = ""stim"" ><div class = red_square id = ""topsquare"" ></div><img id = ""stim"" ><div class = red_square  id = ""bottomsquare"" ></div>",null,word_square,response,0,none,true,,,
html-keyboard-response,898,1662441,null,"RECORD",null,word,,,,, 'RECORD',,
html-keyboard-response,899,1662826,382.4049999238923,"TAVERN<img id = ""stim"" ><div class = green_square id = ""topsquare"" ></div><img id = ""stim"" ><div class = green_square  id = ""bottomsquare"" ></div>",32,word_square,response,1,Space,true,,,
html-keyboard-response,900,1664330,null,"TAVERN",null,word,,,,, 'TAVERN',,
html-keyboard-response,901,1664796,463.6699999682605,"SHRIMP<img id = ""stim"" ><div class = green_square id = ""topsquare"" ></div><img id = ""stim"" ><div class = green_square  id = ""bottomsquare"" ></div>",32,word_square,response,1,Space,true,,,
html-keyboard-response,902,1666299,null,"SHRIMP",null,word,,,,, 'SHRIMP',,
call-function,903,1666301,,"",,,,,,,,,
html-keyboard-response,904,1666406,null,"",null,,,,,,,,
math-period,905,1668210,2997.105000074953,"",,,,,,,,,2
html-keyboard-response,906,1668313,null,"",null,,,,,,,,
math-period,907,1671358,5826.639999984764,"",,,,,,,,,0
html-keyboard-response,908,1671462,null,"",null,,,,,,,,
math-period,909,1672765,2274.324999889359,"",,,,,,,,,4
html-keyboard-response,910,1672869,null,"",null,,,,,,,,
math-period,911,1674725,3364.8049999028444,"",,,,,,,,,0
