trial_type,trial_index,time_elapsed,rt,stimulus,key_press,test_part,task,targ_cond,correctKeyCode,correct,word,value,response
pavlovia,0,870,,"",,,,,,,,,
external-html,1,4388,3367.2549999901094,"",,,,,,,,,
html-keyboard-response,2,5970,1579.7599999932572,"Welcome to the experiment. Press any key to begin.",71,,,,,,,,
html-keyboard-response,3,10550,4578.64999998128,"<p>You will see a list of words and colored squares in the following task.<p><p>Press the spacebar whenever you see a red square.<p><p>Do not press a key if the square is green<p><p>Press the spacebar to continue.</p>",71,,,,,,,,
html-keyboard-response,4,18242,7190.28999999864,"<p>Please try to remember as many of the words as you can, and try to think about the meaning of each word as it appears.<p><p>After the detection and encoding task you will be asked to solve some math problems for 24 seconds.<p> Please solve as many problems as you can in the time given. <p>",70,,,,,,,,
html-keyboard-response,5,28600,9855.265000020154,"After solving the math problems, you will be asked to type in as many words <p>from the previous list as you can remember for 75 seconds.<p> If you finish recalling before the 75 seconds are up,<p> just sit tight and try to think of any more words you could have missed. <p><p>We will begin with a brief practice session<p>Press the spacebar to begin the practice.</p>",32,,,,,,,,
html-keyboard-response,6,31103,null,"<div style=""font-size:60px;"">+</div>",null,,,,,,,,
html-keyboard-response,7,31606,null,"HAPPY<img id = ""stim"" ><div class = green_square id = ""topsquare"" ></div><img id = ""stim"" ><div class = green_square  id = ""bottomsquare"" ></div>",null,word_square,prac_response,0,none,true,,,
html-keyboard-response,8,33108,null,"HAPPY",null,word,,,,,HAPPY,,
html-keyboard-response,9,33614,413.14499999862164,"COLD<img id = ""stim"" ><div class = red_square id = ""topsquare"" ></div><img id = ""stim"" ><div class = red_square  id = ""bottomsquare"" ></div>",32,word_square,prac_response,1,Space,true,,,
html-keyboard-response,10,35117,null,"COLD",null,word,,,,,COLD,,
html-keyboard-response,11,35627,335.07000003010035,"HEAVY<img id = ""stim"" ><div class = red_square id = ""topsquare"" ></div><img id = ""stim"" ><div class = red_square  id = ""bottomsquare"" ></div>",32,word_square,prac_response,1,Space,true,,,
html-keyboard-response,12,37128,null,"HEAVY",null,word,,,,,HEAVY,,
html-keyboard-response,13,37630,null,"FUNNY<img id = ""stim"" ><div class = green_square id = ""topsquare"" ></div><img id = ""stim"" ><div class = green_square  id = ""bottomsquare"" ></div>",null,word_square,prac_response,0,none,true,,,
html-keyboard-response,14,39132,null,"FUNNY",null,word,,,,,FUNNY,,
html-keyboard-response,15,39633,423.81000000750646,"SCARY<img id = ""stim"" ><div class = red_square id = ""topsquare"" ></div><img id = ""stim"" ><div class = red_square  id = ""bottomsquare"" ></div>",32,word_square,prac_response,1,Space,true,,,
html-keyboard-response,16,41135,null,"SCARY",null,word,,,,,SCARY,,
html-keyboard-response,17,41637,420.174999977462,"PEACEFUL<img id = ""stim"" ><div class = red_square id = ""topsquare"" ></div><img id = ""stim"" ><div class = red_square  id = ""bottomsquare"" ></div>",32,word_square,prac_response,1,Space,true,,,
html-keyboard-response,18,43152,null,"PEACEFUL",null,word,,,,,PEACEFUL,,
html-keyboard-response,19,43655,null,"LITTLE<img id = ""stim"" ><div class = green_square id = ""topsquare"" ></div><img id = ""stim"" ><div class = green_square  id = ""bottomsquare"" ></div>",null,word_square,prac_response,0,none,true,,,
html-keyboard-response,20,45170,null,"LITTLE",null,word,,,,,LITTLE,,
html-keyboard-response,21,45672,null,"TIRED<img id = ""stim"" ><div class = green_square id = ""topsquare"" ></div><img id = ""stim"" ><div class = green_square  id = ""bottomsquare"" ></div>",null,word_square,prac_response,0,none,true,,,
html-keyboard-response,22,47174,null,"TIRED",null,word,,,,,TIRED,,
html-keyboard-response,23,47676,null,"ENTERTAINING<img id = ""stim"" ><div class = green_square id = ""topsquare"" ></div><img id = ""stim"" ><div class = green_square  id = ""bottomsquare"" ></div>",null,word_square,prac_response,0,none,true,,,
html-keyboard-response,24,49178,null,"ENTERTAINING",null,word,,,,,ENTERTAINING,,
html-keyboard-response,25,49681,409.9150000256486,"GRATEFUL<img id = ""stim"" ><div class = red_square id = ""topsquare"" ></div><img id = ""stim"" ><div class = red_square  id = ""bottomsquare"" ></div>",32,word_square,prac_response,1,Space,true,,,
html-keyboard-response,26,51182,null,"GRATEFUL",null,word,,,,,GRATEFUL,,
html-keyboard-response,27,51684,null,"LOUD<img id = ""stim"" ><div class = green_square id = ""topsquare"" ></div><img id = ""stim"" ><div class = green_square  id = ""bottomsquare"" ></div>",null,word_square,prac_response,0,none,true,,,
html-keyboard-response,28,53186,null,"LOUD",null,word,,,,,LOUD,,
html-keyboard-response,29,53688,397.44500000961125,"SMART<img id = ""stim"" ><div class = red_square id = ""topsquare"" ></div><img id = ""stim"" ><div class = red_square  id = ""bottomsquare"" ></div>",32,word_square,prac_response,1,Space,true,,,
html-keyboard-response,30,55190,null,"SMART",null,word,,,,,SMART,,
html-keyboard-response,31,55692,466.3750000181608,"SMOOTH<img id = ""stim"" ><div class = red_square id = ""topsquare"" ></div><img id = ""stim"" ><div class = red_square  id = ""bottomsquare"" ></div>",32,word_square,prac_response,1,Space,true,,,
html-keyboard-response,32,57194,null,"SMOOTH",null,word,,,,,SMOOTH,,
html-keyboard-response,33,57696,null,"DISHONEST<img id = ""stim"" ><div class = green_square id = ""topsquare"" ></div><img id = ""stim"" ><div class = green_square  id = ""bottomsquare"" ></div>",null,word_square,prac_response,0,none,true,,,
html-keyboard-response,34,59198,null,"DISHONEST",null,word,,,,,DISHONEST,,
html-keyboard-response,35,59709,324.22999996924773,"WEALTHY<img id = ""stim"" ><div class = red_square id = ""topsquare"" ></div><img id = ""stim"" ><div class = red_square  id = ""bottomsquare"" ></div>",32,word_square,prac_response,1,Space,true,,,
html-keyboard-response,36,61211,null,"WEALTHY",null,word,,,,,WEALTHY,,
html-keyboard-response,37,61713,null,"BEAUTIFUL<img id = ""stim"" ><div class = green_square id = ""topsquare"" ></div><img id = ""stim"" ><div class = green_square  id = ""bottomsquare"" ></div>",null,word_square,prac_response,0,none,true,,,
html-keyboard-response,38,63215,null,"BEAUTIFUL",null,word,,,,,BEAUTIFUL,,
html-keyboard-response,39,63717,null,"DREARY<img id = ""stim"" ><div class = green_square id = ""topsquare"" ></div><img id = ""stim"" ><div class = green_square  id = ""bottomsquare"" ></div>",null,word_square,prac_response,0,none,true,,,
html-keyboard-response,40,65219,null,"DREARY",null,word,,,,,DREARY,,
html-keyboard-response,41,65720,499.70499996561557,"PLAYFUL<img id = ""stim"" ><div class = red_square id = ""topsquare"" ></div><img id = ""stim"" ><div class = red_square  id = ""bottomsquare"" ></div>",32,word_square,prac_response,1,Space,true,,,
html-keyboard-response,42,67222,null,"PLAYFUL",null,word,,,,,PLAYFUL,,
html-keyboard-response,43,117907,50682.13500001002,"<p> Good job! You responded correctly to 100% of the red squares.</p>
                  <p>Be sure to keep your accuracy above 80%</p>
                  <p>We're going to try once more to make sure you understand  the task. press any key to continue. </p>",32,,,,,,,,
html-keyboard-response,44,122605,4697.065000014845,"<p>You will see a list of words and colored squares in the following task.<p><p>Press the spacebar whenever you see a red square.<p><p>Do not press a key if the square is green<p><p>Press the spacebar to continue.</p>",32,,,,,,,,
html-keyboard-response,45,125109,null,"<div style=""font-size:60px;"">+</div>",null,,,,,,,,
html-keyboard-response,46,125611,null,"HAPPY<img id = ""stim"" ><div class = green_square id = ""topsquare"" ></div><img id = ""stim"" ><div class = green_square  id = ""bottomsquare"" ></div>",null,word_square,response,0,none,true,,,
html-keyboard-response,47,127112,null,"HAPPY",null,word,,,,,HAPPY,,
html-keyboard-response,48,127447,333.37499998742715,"COLD<img id = ""stim"" ><div class = red_square id = ""topsquare"" ></div><img id = ""stim"" ><div class = red_square  id = ""bottomsquare"" ></div>",32,word_square,response,1,Space,true,,,
html-keyboard-response,49,128949,null,"COLD",null,word,,,,,COLD,,
html-keyboard-response,50,129286,336.5099999937229,"HEAVY<img id = ""stim"" ><div class = red_square id = ""topsquare"" ></div><img id = ""stim"" ><div class = red_square  id = ""bottomsquare"" ></div>",32,word_square,response,1,Space,true,,,
html-keyboard-response,51,130793,null,"HEAVY",null,word,,,,,HEAVY,,
html-keyboard-response,52,131295,null,"FUNNY<img id = ""stim"" ><div class = green_square id = ""topsquare"" ></div><img id = ""stim"" ><div class = green_square  id = ""bottomsquare"" ></div>",null,word_square,response,0,none,true,,,
html-keyboard-response,53,132797,null,"FUNNY",null,word,,,,,FUNNY,,
html-keyboard-response,54,133121,323.35500000044703,"SCARY<img id = ""stim"" ><div class = red_square id = ""topsquare"" ></div><img id = ""stim"" ><div class = red_square  id = ""bottomsquare"" ></div>",32,word_square,response,1,Space,true,,,
html-keyboard-response,55,134623,null,"SCARY",null,word,,,,,SCARY,,
html-keyboard-response,56,135091,467.38500002538785,"PEACEFUL<img id = ""stim"" ><div class = red_square id = ""topsquare"" ></div><img id = ""stim"" ><div class = red_square  id = ""bottomsquare"" ></div>",32,word_square,response,1,Space,true,,,
html-keyboard-response,57,136594,null,"PEACEFUL",null,word,,,,,PEACEFUL,,
html-keyboard-response,58,137095,null,"LITTLE<img id = ""stim"" ><div class = green_square id = ""topsquare"" ></div><img id = ""stim"" ><div class = green_square  id = ""bottomsquare"" ></div>",null,word_square,response,0,none,true,,,
html-keyboard-response,59,138598,null,"LITTLE",null,word,,,,,LITTLE,,
html-keyboard-response,60,139100,null,"TIRED<img id = ""stim"" ><div class = green_square id = ""topsquare"" ></div><img id = ""stim"" ><div class = green_square  id = ""bottomsquare"" ></div>",null,word_square,response,0,none,true,,,
html-keyboard-response,61,140601,null,"TIRED",null,word,,,,,TIRED,,
html-keyboard-response,62,141103,null,"ENTERTAINING<img id = ""stim"" ><div class = green_square id = ""topsquare"" ></div><img id = ""stim"" ><div class = green_square  id = ""bottomsquare"" ></div>",null,word_square,response,0,none,true,,,
html-keyboard-response,63,142605,null,"ENTERTAINING",null,word,,,,,ENTERTAINING,,
html-keyboard-response,64,142905,299.3349999887869,"GRATEFUL<img id = ""stim"" ><div class = red_square id = ""topsquare"" ></div><img id = ""stim"" ><div class = red_square  id = ""bottomsquare"" ></div>",32,word_square,response,1,Space,true,,,
html-keyboard-response,65,144407,null,"GRATEFUL",null,word,,,,,GRATEFUL,,
html-keyboard-response,66,144910,null,"LOUD<img id = ""stim"" ><div class = green_square id = ""topsquare"" ></div><img id = ""stim"" ><div class = green_square  id = ""bottomsquare"" ></div>",null,word_square,response,0,none,true,,,
html-keyboard-response,67,146412,null,"LOUD",null,word,,,,,LOUD,,
html-keyboard-response,68,146850,436.59000005573034,"SMART<img id = ""stim"" ><div class = red_square id = ""topsquare"" ></div><img id = ""stim"" ><div class = red_square  id = ""bottomsquare"" ></div>",32,word_square,response,1,Space,true,,,
html-keyboard-response,69,148352,null,"SMART",null,word,,,,,SMART,,
html-keyboard-response,70,148770,417.2699999762699,"SMOOTH<img id = ""stim"" ><div class = red_square id = ""topsquare"" ></div><img id = ""stim"" ><div class = red_square  id = ""bottomsquare"" ></div>",32,word_square,response,1,Space,true,,,
html-keyboard-response,71,150272,null,"SMOOTH",null,word,,,,,SMOOTH,,
html-keyboard-response,72,150775,null,"DISHONEST<img id = ""stim"" ><div class = green_square id = ""topsquare"" ></div><img id = ""stim"" ><div class = green_square  id = ""bottomsquare"" ></div>",null,word_square,response,0,none,true,,,
html-keyboard-response,73,152277,null,"DISHONEST",null,word,,,,,DISHONEST,,
html-keyboard-response,74,152604,326.824999996461,"WEALTHY<img id = ""stim"" ><div class = red_square id = ""topsquare"" ></div><img id = ""stim"" ><div class = red_square  id = ""bottomsquare"" ></div>",32,word_square,response,1,Space,true,,,
html-keyboard-response,75,154106,null,"WEALTHY",null,word,,,,,WEALTHY,,
html-keyboard-response,76,154608,null,"BEAUTIFUL<img id = ""stim"" ><div class = green_square id = ""topsquare"" ></div><img id = ""stim"" ><div class = green_square  id = ""bottomsquare"" ></div>",null,word_square,response,0,none,true,,,
html-keyboard-response,77,156110,null,"BEAUTIFUL",null,word,,,,,BEAUTIFUL,,
html-keyboard-response,78,156611,null,"DREARY<img id = ""stim"" ><div class = green_square id = ""topsquare"" ></div><img id = ""stim"" ><div class = green_square  id = ""bottomsquare"" ></div>",null,word_square,response,0,none,true,,,
html-keyboard-response,79,158113,null,"DREARY",null,word,,,,,DREARY,,
html-keyboard-response,80,158484,367.3549999948591,"PLAYFUL<img id = ""stim"" ><div class = red_square id = ""topsquare"" ></div><img id = ""stim"" ><div class = red_square  id = ""bottomsquare"" ></div>",32,word_square,response,1,Space,true,,,
html-keyboard-response,81,159985,null,"PLAYFUL",null,word,,,,,PLAYFUL,,
html-keyboard-response,82,162725,2738.5099999955855,"<p> Good job! You responded correctly to 100% of the red squares.</p>
                  <p>Be sure to keep your accuracy above 80%</p>
                  <p>Press any key to begin the math and recall sections. Thank you!</p>",32,,,,,,,,
call-function,83,162726,,"",,,,,,,,,
html-keyboard-response,84,162827,null,"",null,,,,,,,,
math-period,85,166322,8206.589999957941,"",,,,,,,,,2 
html-keyboard-response,86,166423,null,"",null,,,,,,,,
math-period,87,169223,5313.270000042394,"",,,,,,,,,6
html-keyboard-response,88,169325,null,"",null,,,,,,,,
math-period,89,171258,3586.8150000460446,"",,,,,,,,,1
html-keyboard-response,90,171363,null,"",null,,,,,,,,
math-period,91,172870,2817.1350000193343,"",,,,,,,,,3
html-keyboard-response,92,172971,null,"",null,,,,,,,,
math-period,93,174572,2919.1399999544956,"",,,,,,,,,3
html-keyboard-response,94,174687,null,"",null,,,,,,,,
math-period,95,175788,1983.0900001106784,"",,,,,,,,,2
html-keyboard-response,96,175890,null,"",null,,,,,,,,
math-period,97,178131,6399.975000007544,"",,,,,,,,,5
html-keyboard-response,98,178233,null,"",null,,,,,,,,
math-period,99,180065,4408.775000018068,"",,,,,,,,,3 
html-keyboard-response,100,180166,null,"",null,,,,,,,,
math-period,101,182384,4144.985000020824,"",,,,,,,,,4
html-keyboard-response,102,182487,null,"",null,,,,,,,,
math-period,103,184347,3449.7599999886006,"",,,,,,,,,5
html-keyboard-response,104,184449,null,"",null,,,,,,,,
math-period,105,185509,1827.4850000161678,"",,,,,,,,,5
html-keyboard-response,106,185610,null,"",null,,,,,,,,
math-period,107,186728,null,"",,,,,,,,,
html-keyboard-response,108,187730,null,"Recall Period!",null,,,,,,,,
call-function,109,187731,,"",,,,,,,,,
html-keyboard-response,110,187833,null,"",null,,,,,,,,
recall-period,111,191664,17442.695000150707,"",,,,,,,,,happy
html-keyboard-response,112,191766,null,"",null,,,,,,,,
recall-period,113,194069,17680.79500022577,"",,,,,,,,,dishonest
html-keyboard-response,114,194171,null,"",null,,,,,,,,
recall-period,115,195069,2946.2200000416487,"",,,,,,,,,heavy
html-keyboard-response,116,195171,null,"",null,,,,,,,,
recall-period,117,199304,19562.520000035875,"",,,,,,,,,cold
html-keyboard-response,118,199410,null,"",null,,,,,,,,
recall-period,119,209243,143735.83000065992,"",,,,,,,,,beautiful
html-keyboard-response,120,209345,null,"",null,,,,,,,,
recall-period,121,262733,null,"",,,,,,,,,
html-keyboard-response,122,263235,null,"Time's Up!",null,,,,,,,,
html-keyboard-response,123,267336,4099.664999986999,"<p>We will now begin the experiment!<p><p>Please try to remember all words from each list.<p><p>Press the spacebar whenever you see a red square.<p><p><p><p>Press the spacebar to begin.</p>",32,,,,,,,,
html-keyboard-response,124,269328,1486.4999999990687,"<div style=""font-size:48px;"">Press any key to begin list 1 of 24 </div>",32,,,,,,,,
html-keyboard-response,125,271830,null,"<div style=""font-size:60px;"">+</div>",null,,,,,,,,
html-keyboard-response,126,272332,null,"GHETTO<img id = ""stim"" ><div class = red_square id = ""topsquare"" ></div><img id = ""stim"" ><div class = red_square  id = ""bottomsquare"" ></div>",null,word_square,response,1,Space,false,,,
html-keyboard-response,127,273834,null,"GHETTO",null,word,,,,, 'GHETTO',,
html-keyboard-response,128,274337,null,"TEAPOT<img id = ""stim"" ><div class = green_square id = ""topsquare"" ></div><img id = ""stim"" ><div class = green_square  id = ""bottomsquare"" ></div>",null,word_square,response,0,none,true,,,
html-keyboard-response,129,275838,null,"TEAPOT",null,word,,,,, 'TEAPOT',,
html-keyboard-response,130,276194,354.73000002093613,"STOCKING<img id = ""stim"" ><div class = red_square id = ""topsquare"" ></div><img id = ""stim"" ><div class = red_square  id = ""bottomsquare"" ></div>",32,word_square,response,1,Space,true,,,
html-keyboard-response,131,277697,null,"STOCKING",null,word,,,,, 'STOCKING',,
html-keyboard-response,132,278199,null,"BROTHER<img id = ""stim"" ><div class = green_square id = ""topsquare"" ></div><img id = ""stim"" ><div class = green_square  id = ""bottomsquare"" ></div>",null,word_square,response,0,none,true,,,
html-keyboard-response,133,279701,null,"BROTHER",null,word,,,,, 'BROTHER',,
html-keyboard-response,134,280203,null,"CONVICT<img id = ""stim"" ><div class = green_square id = ""topsquare"" ></div><img id = ""stim"" ><div class = green_square  id = ""bottomsquare"" ></div>",null,word_square,response,0,none,true,,,
html-keyboard-response,135,281705,null,"CONVICT",null,word,,,,, 'CONVICT',,
html-keyboard-response,136,282047,340.24499997030944,"CAPTIVE<img id = ""stim"" ><div class = red_square id = ""topsquare"" ></div><img id = ""stim"" ><div class = red_square  id = ""bottomsquare"" ></div>",32,word_square,response,1,Space,true,,,
html-keyboard-response,137,283550,null,"CAPTIVE",null,word,,,,, 'CAPTIVE',,
html-keyboard-response,138,284051,null,"LAPEL<img id = ""stim"" ><div class = green_square id = ""topsquare"" ></div><img id = ""stim"" ><div class = green_square  id = ""bottomsquare"" ></div>",null,word_square,response,0,none,true,,,
html-keyboard-response,139,285553,null,"LAPEL",null,word,,,,, 'LAPEL',,
html-keyboard-response,140,286055,null,"CURTAIN<img id = ""stim"" ><div class = green_square id = ""topsquare"" ></div><img id = ""stim"" ><div class = green_square  id = ""bottomsquare"" ></div>",null,word_square,response,0,none,true,,,
html-keyboard-response,141,287557,null,"CURTAIN",null,word,,,,, 'CURTAIN',,
html-keyboard-response,142,287910,351.5400000032969,"ROD<img id = ""stim"" ><div class = red_square id = ""topsquare"" ></div><img id = ""stim"" ><div class = red_square  id = ""bottomsquare"" ></div>",32,word_square,response,1,Space,true,,,
html-keyboard-response,143,289411,null,"ROD",null,word,,,,, 'ROD',,
html-keyboard-response,144,289913,null,"JACKET<img id = ""stim"" ><div class = green_square id = ""topsquare"" ></div><img id = ""stim"" ><div class = green_square  id = ""bottomsquare"" ></div>",null,word_square,response,0,none,true,,,
html-keyboard-response,145,291414,null,"JACKET",null,word,,,,, 'JACKET',,
html-keyboard-response,146,291836,420.64500000560656,"SWIMMER<img id = ""stim"" ><div class = red_square id = ""topsquare"" ></div><img id = ""stim"" ><div class = red_square  id = ""bottomsquare"" ></div>",32,word_square,response,1,Space,true,,,
html-keyboard-response,147,293338,null,"SWIMMER",null,word,,,,, 'SWIMMER',,
html-keyboard-response,148,293840,null,"SLIDE<img id = ""stim"" ><div class = green_square id = ""topsquare"" ></div><img id = ""stim"" ><div class = green_square  id = ""bottomsquare"" ></div>",null,word_square,response,0,none,true,,,
html-keyboard-response,149,295341,null,"SLIDE",null,word,,,,, 'SLIDE',,
html-keyboard-response,150,295843,null,"FRANCE<img id = ""stim"" ><div class = green_square id = ""topsquare"" ></div><img id = ""stim"" ><div class = green_square  id = ""bottomsquare"" ></div>",null,word_square,response,0,none,true,,,
html-keyboard-response,151,297346,null,"FRANCE",null,word,,,,, 'FRANCE',,
html-keyboard-response,152,297737,389.3349999561906,"PLAID<img id = ""stim"" ><div class = red_square id = ""topsquare"" ></div><img id = ""stim"" ><div class = red_square  id = ""bottomsquare"" ></div>",32,word_square,response,1,Space,true,,,
html-keyboard-response,153,299239,null,"PLAID",null,word,,,,, 'PLAID',,
html-keyboard-response,154,299752,null,"ATHLETE<img id = ""stim"" ><div class = green_square id = ""topsquare"" ></div><img id = ""stim"" ><div class = green_square  id = ""bottomsquare"" ></div>",null,word_square,response,0,none,true,,,
html-keyboard-response,155,301253,null,"ATHLETE",null,word,,,,, 'ATHLETE',,
html-keyboard-response,156,301755,null,"SIBLING<img id = ""stim"" ><div class = red_square id = ""topsquare"" ></div><img id = ""stim"" ><div class = red_square  id = ""bottomsquare"" ></div>",null,word_square,response,1,Space,false,,,
html-keyboard-response,157,303257,null,"SIBLING",null,word,,,,, 'SIBLING',,
html-keyboard-response,158,303724,465.6200000317767,"COUNTRY<img id = ""stim"" ><div class = red_square id = ""topsquare"" ></div><img id = ""stim"" ><div class = red_square  id = ""bottomsquare"" ></div>",32,word_square,response,1,Space,true,,,
html-keyboard-response,159,305226,null,"COUNTRY",null,word,,,,, 'COUNTRY',,
html-keyboard-response,160,305630,402.52000000327826,"CASHIER<img id = ""stim"" ><div class = red_square id = ""topsquare"" ></div><img id = ""stim"" ><div class = red_square  id = ""bottomsquare"" ></div>",32,word_square,response,1,Space,true,,,
html-keyboard-response,161,307131,null,"CASHIER",null,word,,,,, 'CASHIER',,
call-function,162,307132,,"",,,,,,,,,
html-keyboard-response,163,307234,null,"",null,,,,,,,,
math-period,164,308969,3170.555000018794,"",,,,,,,,,3
html-keyboard-response,165,309082,null,"",null,,,,,,,,
math-period,166,310097,1777.7500000665896,"",,,,,,,,,2
html-keyboard-response,167,310199,null,"",null,,,,,,,,
math-period,168,312286,7035.440000181552,"",,,,,,,,,1
html-keyboard-response,169,312388,null,"",null,,,,,,,,
math-period,170,314287,6053.895000077318,"",,,,,,,,,5
html-keyboard-response,171,314389,null,"",null,,,,,,,,
math-period,172,315502,2089.845000067726,"",,,,,,,,,6
html-keyboard-response,173,315605,null,"",null,,,,,,,,
math-period,174,318081,4709.830000007059,"",,,,,,,,,2
html-keyboard-response,175,318182,null,"",null,,,,,,,,
math-period,176,319131,1688.6600000434555,"",,,,,,,,,2
html-keyboard-response,177,319233,null,"",null,,,,,,,,
math-period,178,322321,6021.194999979343,"",,,,,,,,,5
html-keyboard-response,179,322424,null,"",null,,,,,,,,
math-period,180,326127,6997.964999987744,"",,,,,,,,,4
html-keyboard-response,181,326229,null,"",null,,,,,,,,
math-period,182,328861,4914.924999990035,"",,,,,,,,,3
html-keyboard-response,183,328964,null,"",null,,,,,,,,
math-period,184,329774,1383.5800000233576,"",,,,,,,,,3
html-keyboard-response,185,329876,null,"",null,,,,,,,,
math-period,186,330903,1766.0999999498017,"",,,,,,,,,2
html-keyboard-response,187,331005,null,"",null,,,,,,,,
math-period,188,331135,null,"",,,,,,,,,
html-keyboard-response,189,332138,null,"Recall Period!",null,,,,,,,,
call-function,190,332139,,"",,,,,,,,,
html-keyboard-response,191,332241,null,"",null,,,,,,,,
recall-period,192,335818,26939.24499984132,"",,,,,,,,,ghetto
html-keyboard-response,193,335921,null,"",null,,,,,,,,
recall-period,194,338772,19072.59499997599,"",,,,,,,,,convict
html-keyboard-response,195,338872,null,"",null,,,,,,,,
recall-period,196,407140,null,"",,,,,,,,,
html-keyboard-response,197,407642,null,"Time's Up!",null,,,,,,,,
html-keyboard-response,198,410980,3335.8050000388175,"<p> Good job! You responded correctly to 94% of the red squares.</p>
                  <p>Be sure to keep your accuracy above 80%</p>
                  <p>Press any key to continue the experiment. Thank you!</p>",32,,,,,,,,
html-keyboard-response,199,411742,760.7399999978952,"<div style=""font-size:48px;"">Press any key to begin list 2 of 24 </div>",32,,,,,,,,
html-keyboard-response,200,414245,null,"<div style=""font-size:60px;"">+</div>",null,,,,,,,,
html-keyboard-response,201,414735,489.34500000905246,"CRIB<img id = ""stim"" ><div class = red_square id = ""topsquare"" ></div><img id = ""stim"" ><div class = red_square  id = ""bottomsquare"" ></div>",32,word_square,response,1,Space,true,,,
html-keyboard-response,202,416248,null,"CRIB",null,word,,,,, 'CRIB',,
html-keyboard-response,203,416750,null,"ROCKET<img id = ""stim"" ><div class = green_square id = ""topsquare"" ></div><img id = ""stim"" ><div class = green_square  id = ""bottomsquare"" ></div>",null,word_square,response,0,none,true,,,
html-keyboard-response,204,418251,null,"ROCKET",null,word,,,,, 'ROCKET',,
html-keyboard-response,205,418615,362.17000003671274,"HIKER<img id = ""stim"" ><div class = red_square id = ""topsquare"" ></div><img id = ""stim"" ><div class = red_square  id = ""bottomsquare"" ></div>",32,word_square,response,1,Space,true,,,
html-keyboard-response,206,420118,null,"HIKER",null,word,,,,, 'HIKER',,
html-keyboard-response,207,420619,null,"SUMMIT<img id = ""stim"" ><div class = green_square id = ""topsquare"" ></div><img id = ""stim"" ><div class = green_square  id = ""bottomsquare"" ></div>",null,word_square,response,0,none,true,,,
html-keyboard-response,208,422121,null,"SUMMIT",null,word,,,,, 'SUMMIT',,
html-keyboard-response,209,422623,null,"ATTIRE<img id = ""stim"" ><div class = green_square id = ""topsquare"" ></div><img id = ""stim"" ><div class = green_square  id = ""bottomsquare"" ></div>",null,word_square,response,0,none,true,,,
html-keyboard-response,210,424125,null,"ATTIRE",null,word,,,,, 'ATTIRE',,
html-keyboard-response,211,424500,373.2349999481812,"JOURNAL<img id = ""stim"" ><div class = red_square id = ""topsquare"" ></div><img id = ""stim"" ><div class = red_square  id = ""bottomsquare"" ></div>",32,word_square,response,1,Space,true,,,
html-keyboard-response,212,426001,null,"JOURNAL",null,word,,,,, 'JOURNAL',,
html-keyboard-response,213,426504,null,"BENCH<img id = ""stim"" ><div class = green_square id = ""topsquare"" ></div><img id = ""stim"" ><div class = green_square  id = ""bottomsquare"" ></div>",null,word_square,response,0,none,true,,,
html-keyboard-response,214,428005,null,"BENCH",null,word,,,,, 'BENCH',,
html-keyboard-response,215,428506,null,"LEMON<img id = ""stim"" ><div class = green_square id = ""topsquare"" ></div><img id = ""stim"" ><div class = green_square  id = ""bottomsquare"" ></div>",null,word_square,response,0,none,true,,,
html-keyboard-response,216,430009,null,"LEMON",null,word,,,,, 'LEMON',,
html-keyboard-response,217,430383,373.12499998370185,"ISLAND<img id = ""stim"" ><div class = red_square id = ""topsquare"" ></div><img id = ""stim"" ><div class = red_square  id = ""bottomsquare"" ></div>",32,word_square,response,1,Space,true,,,
html-keyboard-response,218,431886,null,"ISLAND",null,word,,,,, 'ISLAND',,
html-keyboard-response,219,432388,null,"CAMEL<img id = ""stim"" ><div class = green_square id = ""topsquare"" ></div><img id = ""stim"" ><div class = green_square  id = ""bottomsquare"" ></div>",null,word_square,response,0,none,true,,,
html-keyboard-response,220,433890,null,"CAMEL",null,word,,,,, 'CAMEL',,
html-keyboard-response,221,434247,356.16500000469387,"STAIRS<img id = ""stim"" ><div class = red_square id = ""topsquare"" ></div><img id = ""stim"" ><div class = red_square  id = ""bottomsquare"" ></div>",32,word_square,response,1,Space,true,,,
html-keyboard-response,222,435749,null,"STAIRS",null,word,,,,, 'STAIRS',,
html-keyboard-response,223,436251,null,"COD<img id = ""stim"" ><div class = green_square id = ""topsquare"" ></div><img id = ""stim"" ><div class = green_square  id = ""bottomsquare"" ></div>",null,word_square,response,0,none,true,,,
html-keyboard-response,224,437752,null,"COD",null,word,,,,, 'COD',,
html-keyboard-response,225,438254,null,"DAISY<img id = ""stim"" ><div class = green_square id = ""topsquare"" ></div><img id = ""stim"" ><div class = green_square  id = ""bottomsquare"" ></div>",null,word_square,response,0,none,true,,,
html-keyboard-response,226,439755,null,"DAISY",null,word,,,,, 'DAISY',,
html-keyboard-response,227,440101,344.17499997653067,"OZONE<img id = ""stim"" ><div class = red_square id = ""topsquare"" ></div><img id = ""stim"" ><div class = red_square  id = ""bottomsquare"" ></div>",32,word_square,response,1,Space,true,,,
html-keyboard-response,228,441602,null,"OZONE",null,word,,,,, 'OZONE',,
html-keyboard-response,229,442104,null,"HAMMER<img id = ""stim"" ><div class = green_square id = ""topsquare"" ></div><img id = ""stim"" ><div class = green_square  id = ""bottomsquare"" ></div>",null,word_square,response,0,none,true,,,
html-keyboard-response,230,443605,null,"HAMMER",null,word,,,,, 'HAMMER',,
html-keyboard-response,231,444012,405.89499997440726,"BLUEJAY<img id = ""stim"" ><div class = red_square id = ""topsquare"" ></div><img id = ""stim"" ><div class = red_square  id = ""bottomsquare"" ></div>",32,word_square,response,1,Space,true,,,
html-keyboard-response,232,445514,null,"BLUEJAY",null,word,,,,, 'BLUEJAY',,
html-keyboard-response,233,445991,476.01500002201647,"COUSIN<img id = ""stim"" ><div class = red_square id = ""topsquare"" ></div><img id = ""stim"" ><div class = red_square  id = ""bottomsquare"" ></div>",32,word_square,response,1,Space,true,,,
html-keyboard-response,234,447493,null,"COUSIN",null,word,,,,, 'COUSIN',,
html-keyboard-response,235,447889,394.41000000806525,"SUSPECT<img id = ""stim"" ><div class = red_square id = ""topsquare"" ></div><img id = ""stim"" ><div class = red_square  id = ""bottomsquare"" ></div>",32,word_square,response,1,Space,true,,,
html-keyboard-response,236,449391,null,"SUSPECT",null,word,,,,, 'SUSPECT',,
call-function,237,449392,,"",,,,,,,,,
html-keyboard-response,238,449493,null,"",null,,,,,,,,
math-period,239,452380,5565.3600000659935,"",,,,,,,,,0
html-keyboard-response,240,452494,null,"",null,,,,,,,,
math-period,241,453784,2396.8199999653734,"",,,,,,,,,6
html-keyboard-response,242,453885,null,"",null,,,,,,,,
math-period,243,456176,7354.0399999474175,"",,,,,,,,,2
html-keyboard-response,244,456278,null,"",null,,,,,,,,
math-period,245,457712,2716.7999999946915,"",,,,,,,,,4
html-keyboard-response,246,457814,null,"",null,,,,,,,,
math-period,247,459055,2187.350000021979,"",,,,,,,,,3
html-keyboard-response,248,459165,null,"",null,,,,,,,,
math-period,249,461882,5244.645000086166,"",,,,,,,,,0
html-keyboard-response,250,461997,null,"",null,,,,,,,,
math-period,251,463217,2229.9549999879673,"",,,,,,,,,1
html-keyboard-response,252,463319,null,"",null,,,,,,,,
math-period,253,465070,3366.459999990184,"",,,,,,,,,2
html-keyboard-response,254,465177,null,"",null,,,,,,,,
math-period,255,467569,4625.475000008009,"",,,,,,,,,2
html-keyboard-response,256,467671,null,"",null,,,,,,,,
math-period,257,468691,1818.6149999964982,"",,,,,,,,,3
html-keyboard-response,258,468793,null,"",null,,,,,,,,
math-period,259,471160,4562.540000013541,"",,,,,,,,,1
html-keyboard-response,260,471262,null,"",null,,,,,,,,
math-period,261,473265,3827.2649999707937,"",,,,,,,,,5
html-keyboard-response,262,473367,null,"",null,,,,,,,,
math-period,263,473393,null,"",,,,,,,,,
html-keyboard-response,264,474395,null,"Recall Period!",null,,,,,,,,
call-function,265,474396,,"",,,,,,,,,
html-keyboard-response,266,474497,null,"",null,,,,,,,,
recall-period,267,479838,69963.5549998493,"",,,,,,,,,journal
html-keyboard-response,268,479939,null,"",null,,,,,,,,
recall-period,269,481642,9746.790000179317,"",,,,,,,,,crib
html-keyboard-response,270,481744,null,"",null,,,,,,,,
recall-period,271,491028,61980.19500012742,"",,,,,,,,,summit
html-keyboard-response,272,491129,null,"",null,,,,,,,,
recall-period,273,549398,null,"",,,,,,,,,
html-keyboard-response,274,549901,null,"Time's Up!",null,,,,,,,,
html-keyboard-response,275,553794,3892.06500002183,"<p> Good job! You responded correctly to 96% of the red squares.</p>
                  <p>Be sure to keep your accuracy above 80%</p>
                  <p>Press any key to continue the experiment. Thank you!</p>",32,,,,,,,,
html-keyboard-response,276,555039,1243.04500001017,"<div style=""font-size:48px;"">Press any key to begin list 3 of 24 </div>",32,,,,,,,,
html-keyboard-response,277,557541,null,"<div style=""font-size:60px;"">+</div>",null,,,,,,,,
html-keyboard-response,278,558045,null,"COSTUME<img id = ""stim"" ><div class = green_square id = ""topsquare"" ></div><img id = ""stim"" ><div class = green_square  id = ""bottomsquare"" ></div>",null,word_square,response,0,none,true,,,
html-keyboard-response,279,559546,null,"COSTUME",null,word,,,,, 'COSTUME',,
html-keyboard-response,280,559980,433.63000004319474,"DECK<img id = ""stim"" ><div class = red_square id = ""topsquare"" ></div><img id = ""stim"" ><div class = red_square  id = ""bottomsquare"" ></div>",32,word_square,response,1,Space,true,,,
html-keyboard-response,281,561482,null,"DECK",null,word,,,,, 'DECK',,
html-keyboard-response,282,561984,null,"TRUCK<img id = ""stim"" ><div class = green_square id = ""topsquare"" ></div><img id = ""stim"" ><div class = green_square  id = ""bottomsquare"" ></div>",null,word_square,response,0,none,true,,,
html-keyboard-response,283,563485,null,"TRUCK",null,word,,,,, 'TRUCK',,
html-keyboard-response,284,563913,426.2200000230223,"MUSTARD<img id = ""stim"" ><div class = red_square id = ""topsquare"" ></div><img id = ""stim"" ><div class = red_square  id = ""bottomsquare"" ></div>",32,word_square,response,1,Space,true,,,
html-keyboard-response,285,565415,null,"MUSTARD",null,word,,,,, 'MUSTARD',,
html-keyboard-response,286,565859,443.14999994821846,"BLANKET<img id = ""stim"" ><div class = red_square id = ""topsquare"" ></div><img id = ""stim"" ><div class = red_square  id = ""bottomsquare"" ></div>",32,word_square,response,1,Space,true,,,
html-keyboard-response,287,567361,null,"BLANKET",null,word,,,,, 'BLANKET',,
html-keyboard-response,288,567863,null,"DRESS<img id = ""stim"" ><div class = green_square id = ""topsquare"" ></div><img id = ""stim"" ><div class = green_square  id = ""bottomsquare"" ></div>",null,word_square,response,0,none,true,,,
html-keyboard-response,289,569365,null,"DRESS",null,word,,,,, 'DRESS',,
html-keyboard-response,290,569689,323.09499999973923,"LACE<img id = ""stim"" ><div class = red_square id = ""topsquare"" ></div><img id = ""stim"" ><div class = red_square  id = ""bottomsquare"" ></div>",32,word_square,response,1,Space,true,,,
html-keyboard-response,291,571191,null,"LACE",null,word,,,,, 'LACE',,
html-keyboard-response,292,571533,340.87999997427687,"GLASS<img id = ""stim"" ><div class = red_square id = ""topsquare"" ></div><img id = ""stim"" ><div class = red_square  id = ""bottomsquare"" ></div>",32,word_square,response,1,Space,true,,,
html-keyboard-response,293,573035,null,"GLASS",null,word,,,,, 'GLASS',,
html-keyboard-response,294,573537,null,"WINDOW<img id = ""stim"" ><div class = green_square id = ""topsquare"" ></div><img id = ""stim"" ><div class = green_square  id = ""bottomsquare"" ></div>",null,word_square,response,0,none,true,,,
html-keyboard-response,295,575038,null,"WINDOW",null,word,,,,, 'WINDOW',,
html-keyboard-response,296,575329,289.8050000076182,"MERMAID<img id = ""stim"" ><div class = red_square id = ""topsquare"" ></div><img id = ""stim"" ><div class = red_square  id = ""bottomsquare"" ></div>",32,word_square,response,1,Space,true,,,
html-keyboard-response,297,576831,null,"MERMAID",null,word,,,,, 'MERMAID',,
html-keyboard-response,298,577333,null,"STAPLE<img id = ""stim"" ><div class = green_square id = ""topsquare"" ></div><img id = ""stim"" ><div class = green_square  id = ""bottomsquare"" ></div>",null,word_square,response,0,none,true,,,
html-keyboard-response,299,578836,null,"STAPLE",null,word,,,,, 'STAPLE',,
html-keyboard-response,300,579179,342.9650000180118,"SOCKET<img id = ""stim"" ><div class = red_square id = ""topsquare"" ></div><img id = ""stim"" ><div class = red_square  id = ""bottomsquare"" ></div>",32,word_square,response,1,Space,true,,,
html-keyboard-response,301,580681,null,"SOCKET",null,word,,,,, 'SOCKET',,
html-keyboard-response,302,581014,332.1649999707006,"RODENT<img id = ""stim"" ><div class = red_square id = ""topsquare"" ></div><img id = ""stim"" ><div class = red_square  id = ""bottomsquare"" ></div>",32,word_square,response,1,Space,true,,,
html-keyboard-response,303,582517,null,"RODENT",null,word,,,,, 'RODENT',,
html-keyboard-response,304,583019,null,"DESSERT<img id = ""stim"" ><div class = green_square id = ""topsquare"" ></div><img id = ""stim"" ><div class = green_square  id = ""bottomsquare"" ></div>",null,word_square,response,0,none,true,,,
html-keyboard-response,305,584521,null,"DESSERT",null,word,,,,, 'DESSERT',,
html-keyboard-response,306,584917,394.4999999948777,"SUGAR<img id = ""stim"" ><div class = red_square id = ""topsquare"" ></div><img id = ""stim"" ><div class = red_square  id = ""bottomsquare"" ></div>",32,word_square,response,1,Space,true,,,
html-keyboard-response,307,586419,null,"SUGAR",null,word,,,,, 'SUGAR',,
html-keyboard-response,308,586922,null,"RIVER<img id = ""stim"" ><div class = green_square id = ""topsquare"" ></div><img id = ""stim"" ><div class = green_square  id = ""bottomsquare"" ></div>",null,word_square,response,0,none,true,,,
html-keyboard-response,309,588424,null,"RIVER",null,word,,,,, 'RIVER',,
html-keyboard-response,310,588926,null,"CRYSTAL<img id = ""stim"" ><div class = green_square id = ""topsquare"" ></div><img id = ""stim"" ><div class = green_square  id = ""bottomsquare"" ></div>",null,word_square,response,0,none,true,,,
html-keyboard-response,311,590428,null,"CRYSTAL",null,word,,,,, 'CRYSTAL',,
html-keyboard-response,312,590929,null,"MOTEL<img id = ""stim"" ><div class = green_square id = ""topsquare"" ></div><img id = ""stim"" ><div class = green_square  id = ""bottomsquare"" ></div>",null,word_square,response,0,none,true,,,
html-keyboard-response,313,592431,null,"MOTEL",null,word,,,,, 'MOTEL',,
call-function,314,592432,,"",,,,,,,,,
html-keyboard-response,315,592548,null,"",null,,,,,,,,
math-period,316,596681,7931.200000050012,"",,,,,,,,,5
html-keyboard-response,317,596789,null,"",null,,,,,,,,
math-period,318,598909,3489.529999962542,"",,,,,,,,,3
html-keyboard-response,319,599011,null,"",null,,,,,,,,
math-period,320,600246,2146.184999961406,"",,,,,,,,,2
html-keyboard-response,321,600362,null,"",null,,,,,,,,
math-period,322,602111,3253.670000063721,"",,,,,,,,,1
html-keyboard-response,323,602217,null,"",null,,,,,,,,
math-period,324,605220,5793.030000000726,"",,,,,,,,,5
html-keyboard-response,325,605322,null,"",null,,,,,,,,
math-period,326,606858,2784.620000049472,"",,,,,,,,,3
html-keyboard-response,327,606965,null,"",null,,,,,,,,
math-period,328,608690,3297.9099999647588,"",,,,,,,,,4
html-keyboard-response,329,608792,null,"",null,,,,,,,,
math-period,330,611822,4846.375000022817,"",,,,,,,,,4
html-keyboard-response,331,611925,null,"",null,,,,,,,,
math-period,332,613306,2570.175000000745,"",,,,,,,,,2
html-keyboard-response,333,613407,null,"",null,,,,,,,,
math-period,334,615211,3370.3150000073947,"",,,,,,,,,3
html-keyboard-response,335,615313,null,"",null,,,,,,,,
math-period,336,616432,965.1749999611638,"",,,,,,,,,3
html-keyboard-response,337,617434,null,"Recall Period!",null,,,,,,,,
call-function,338,617435,,"",,,,,,,,,
html-keyboard-response,339,617538,null,"",null,,,,,,,,
recall-period,340,620343,18078.39999999851,"",,,,,,,,,mustard
html-keyboard-response,341,620445,null,"",null,,,,,,,,
recall-period,342,623936,17625.574999838136,"",,,,,,,,,dress
html-keyboard-response,343,624038,null,"",null,,,,,,,,
recall-period,344,692436,null,"",,,,,,,,,
html-keyboard-response,345,692938,null,"Time's Up!",null,,,,,,,,
html-keyboard-response,346,696622,3682.4499999638647,"<p> Good job! You responded correctly to 97% of the red squares.</p>
                  <p>Be sure to keep your accuracy above 80%</p>
                  <p>Press any key to continue the experiment. Thank you!</p>",32,,,,,,,,
html-keyboard-response,347,698055,1431.7700000246987,"<div style=""font-size:48px;"">Press any key to begin list 4 of 24 </div>",32,,,,,,,,
html-keyboard-response,348,700557,null,"<div style=""font-size:60px;"">+</div>",null,,,,,,,,
html-keyboard-response,349,701060,null,"POCKET<img id = ""stim"" ><div class = green_square id = ""topsquare"" ></div><img id = ""stim"" ><div class = green_square  id = ""bottomsquare"" ></div>",null,word_square,response,0,none,true,,,
html-keyboard-response,350,702562,null,"POCKET",null,word,,,,, 'POCKET',,
html-keyboard-response,351,702989,426.2950000120327,"GREASE<img id = ""stim"" ><div class = red_square id = ""topsquare"" ></div><img id = ""stim"" ><div class = red_square  id = ""bottomsquare"" ></div>",32,word_square,response,1,Space,true,,,
html-keyboard-response,352,704491,null,"GREASE",null,word,,,,, 'GREASE',,
html-keyboard-response,353,704993,null,"PLUTO<img id = ""stim"" ><div class = green_square id = ""topsquare"" ></div><img id = ""stim"" ><div class = green_square  id = ""bottomsquare"" ></div>",null,word_square,response,0,none,true,,,
html-keyboard-response,354,706495,null,"PLUTO",null,word,,,,, 'PLUTO',,
html-keyboard-response,355,706847,350.26499995728955,"POISON<img id = ""stim"" ><div class = red_square id = ""topsquare"" ></div><img id = ""stim"" ><div class = red_square  id = ""bottomsquare"" ></div>",32,word_square,response,1,Space,true,,,
html-keyboard-response,356,708351,null,"POISON",null,word,,,,, 'POISON',,
html-keyboard-response,357,708761,409.0250000008382,"FRAME<img id = ""stim"" ><div class = red_square id = ""topsquare"" ></div><img id = ""stim"" ><div class = red_square  id = ""bottomsquare"" ></div>",32,word_square,response,1,Space,true,,,
html-keyboard-response,358,710264,null,"FRAME",null,word,,,,, 'FRAME',,
html-keyboard-response,359,710766,null,"BANKER<img id = ""stim"" ><div class = green_square id = ""topsquare"" ></div><img id = ""stim"" ><div class = green_square  id = ""bottomsquare"" ></div>",null,word_square,response,0,none,true,,,
html-keyboard-response,360,712268,null,"BANKER",null,word,,,,, 'BANKER',,
html-keyboard-response,361,712564,294.08999998122454,"SCARF<img id = ""stim"" ><div class = red_square id = ""topsquare"" ></div><img id = ""stim"" ><div class = red_square  id = ""bottomsquare"" ></div>",32,word_square,response,1,Space,true,,,
html-keyboard-response,362,714066,null,"SCARF",null,word,,,,, 'SCARF',,
html-keyboard-response,363,714455,387.96500000171363,"PUMPKIN<img id = ""stim"" ><div class = red_square id = ""topsquare"" ></div><img id = ""stim"" ><div class = red_square  id = ""bottomsquare"" ></div>",32,word_square,response,1,Space,true,,,
html-keyboard-response,364,715957,null,"PUMPKIN",null,word,,,,, 'PUMPKIN',,
html-keyboard-response,365,716458,null,"PORTRAIT<img id = ""stim"" ><div class = green_square id = ""topsquare"" ></div><img id = ""stim"" ><div class = green_square  id = ""bottomsquare"" ></div>",null,word_square,response,0,none,true,,,
html-keyboard-response,366,717959,null,"PORTRAIT",null,word,,,,, 'PORTRAIT',,
html-keyboard-response,367,718246,285.4949999600649,"SCULPTURE<img id = ""stim"" ><div class = red_square id = ""topsquare"" ></div><img id = ""stim"" ><div class = red_square  id = ""bottomsquare"" ></div>",32,word_square,response,1,Space,true,,,
html-keyboard-response,368,719748,null,"SCULPTURE",null,word,,,,, 'SCULPTURE',,
html-keyboard-response,369,720250,null,"DRAWING<img id = ""stim"" ><div class = green_square id = ""topsquare"" ></div><img id = ""stim"" ><div class = green_square  id = ""bottomsquare"" ></div>",null,word_square,response,0,none,true,,,
html-keyboard-response,370,721752,null,"DRAWING",null,word,,,,, 'DRAWING',,
html-keyboard-response,371,722183,429.1250000242144,"BUTCHER<img id = ""stim"" ><div class = red_square id = ""topsquare"" ></div><img id = ""stim"" ><div class = red_square  id = ""bottomsquare"" ></div>",32,word_square,response,1,Space,true,,,
html-keyboard-response,372,723685,null,"BUTCHER",null,word,,,,, 'BUTCHER',,
html-keyboard-response,373,724114,427.5950000155717,"SAUSAGE<img id = ""stim"" ><div class = red_square id = ""topsquare"" ></div><img id = ""stim"" ><div class = red_square  id = ""bottomsquare"" ></div>",32,word_square,response,1,Space,true,,,
html-keyboard-response,374,725616,null,"SAUSAGE",null,word,,,,, 'SAUSAGE',,
html-keyboard-response,375,726118,null,"LANDSCAPE<img id = ""stim"" ><div class = green_square id = ""topsquare"" ></div><img id = ""stim"" ><div class = green_square  id = ""bottomsquare"" ></div>",null,word_square,response,0,none,true,,,
html-keyboard-response,376,727623,null,"LANDSCAPE",null,word,,,,, 'LANDSCAPE',,
html-keyboard-response,377,727962,337.76000002399087,"SUITE<img id = ""stim"" ><div class = red_square id = ""topsquare"" ></div><img id = ""stim"" ><div class = red_square  id = ""bottomsquare"" ></div>",32,word_square,response,1,Space,true,,,
html-keyboard-response,378,729464,null,"SUITE",null,word,,,,, 'SUITE',,
html-keyboard-response,379,729966,null,"FREEZER<img id = ""stim"" ><div class = green_square id = ""topsquare"" ></div><img id = ""stim"" ><div class = green_square  id = ""bottomsquare"" ></div>",null,word_square,response,0,none,true,,,
html-keyboard-response,380,731468,null,"FREEZER",null,word,,,,, 'FREEZER',,
html-keyboard-response,381,731970,null,"LITTER<img id = ""stim"" ><div class = green_square id = ""topsquare"" ></div><img id = ""stim"" ><div class = green_square  id = ""bottomsquare"" ></div>",null,word_square,response,0,none,true,,,
html-keyboard-response,382,733472,null,"LITTER",null,word,,,,, 'LITTER',,
html-keyboard-response,383,733974,null,"THIEF<img id = ""stim"" ><div class = green_square id = ""topsquare"" ></div><img id = ""stim"" ><div class = green_square  id = ""bottomsquare"" ></div>",null,word_square,response,0,none,true,,,
html-keyboard-response,384,735476,null,"THIEF",null,word,,,,, 'THIEF',,
call-function,385,735477,,"",,,,,,,,,
html-keyboard-response,386,735578,null,"",null,,,,,,,,
math-period,387,737156,2937.190000084229,"",,,,,,,,,6
html-keyboard-response,388,737270,null,"",null,,,,,,,,
math-period,389,738836,2968.204999982845,"",,,,,,,,,2
html-keyboard-response,390,738939,null,"",null,,,,,,,,
math-period,391,740939,3510.545000084676,"",,,,,,,,,2
html-keyboard-response,392,741041,null,"",null,,,,,,,,
math-period,393,742365,2389.1350000048988,"",,,,,,,,,3
html-keyboard-response,394,742473,null,"",null,,,,,,,,
math-period,395,745319,5488.840000005439,"",,,,,,,,,3
html-keyboard-response,396,745422,null,"",null,,,,,,,,
math-period,397,746655,2312.149999954272,"",,,,,,,,,3
html-keyboard-response,398,746757,null,"",null,,,,,,,,
math-period,399,748287,2849.07499991823,"",,,,,,,,,2
html-keyboard-response,400,748389,null,"",null,,,,,,,,
math-period,401,750472,4006.4100000308827,"",,,,,,,,,0
html-keyboard-response,402,750574,null,"",null,,,,,,,,
math-period,403,753820,6111.059999966528,"",,,,,,,,,4
html-keyboard-response,404,753922,null,"",null,,,,,,,,
math-period,405,755981,3785.4499999666587,"",,,,,,,,,0
html-keyboard-response,406,756084,null,"",null,,,,,,,,
math-period,407,757320,2224.1249999497086,"",,,,,,,,,3
html-keyboard-response,408,757422,null,"",null,,,,,,,,
math-period,409,759178,3343.7050000065938,"",,,,,,,,,5
html-keyboard-response,410,759280,null,"",null,,,,,,,,
math-period,411,759478,null,"",,,,,,,,,
html-keyboard-response,412,760480,null,"Recall Period!",null,,,,,,,,
call-function,413,760480,,"",,,,,,,,,
html-keyboard-response,414,760581,null,"",null,,,,,,,,
recall-period,415,763516,15180.420000047889,"",,,,,,,,,pluto
html-keyboard-response,416,763618,null,"",null,,,,,,,,
recall-period,417,765118,8229.874999960884,"",,,,,,,,,landscape
html-keyboard-response,418,765219,null,"",null,,,,,,,,
recall-period,419,766984,7869.959999981802,"",,,,,,,,,grease
html-keyboard-response,420,767085,null,"",null,,,,,,,,
recall-period,421,835482,null,"",,,,,,,,,
html-keyboard-response,422,835986,null,"Time's Up!",null,,,,,,,,
html-keyboard-response,423,838886,2898.110000009183,"<p> Good job! You responded correctly to 98% of the red squares.</p>
                  <p>Be sure to keep your accuracy above 80%</p>
                  <p>Press any key to continue the experiment. Thank you!</p>",32,,,,,,,,
html-keyboard-response,424,840157,1269.9399999692105,"<div style=""font-size:48px;"">Press any key to begin list 5 of 24 </div>",32,,,,,,,,
html-keyboard-response,425,842658,null,"<div style=""font-size:60px;"">+</div>",null,,,,,,,,
html-keyboard-response,426,843161,null,"WHISTLE<img id = ""stim"" ><div class = green_square id = ""topsquare"" ></div><img id = ""stim"" ><div class = green_square  id = ""bottomsquare"" ></div>",null,word_square,response,0,none,true,,,
html-keyboard-response,427,844663,null,"WHISTLE",null,word,,,,, 'WHISTLE',,
html-keyboard-response,428,845152,488.36999997729436,"BASEMENT<img id = ""stim"" ><div class = red_square id = ""topsquare"" ></div><img id = ""stim"" ><div class = red_square  id = ""bottomsquare"" ></div>",32,word_square,response,1,Space,true,,,
html-keyboard-response,429,846654,null,"BASEMENT",null,word,,,,, 'BASEMENT',,
html-keyboard-response,430,847157,null,"CELLAR<img id = ""stim"" ><div class = green_square id = ""topsquare"" ></div><img id = ""stim"" ><div class = green_square  id = ""bottomsquare"" ></div>",null,word_square,response,0,none,true,,,
html-keyboard-response,431,848659,null,"CELLAR",null,word,,,,, 'CELLAR',,
html-keyboard-response,432,848975,315.1549999602139,"YACHT<img id = ""stim"" ><div class = red_square id = ""topsquare"" ></div><img id = ""stim"" ><div class = red_square  id = ""bottomsquare"" ></div>",32,word_square,response,1,Space,true,,,
html-keyboard-response,433,850477,null,"YACHT",null,word,,,,, 'YACHT',,
html-keyboard-response,434,850979,null,"TOURIST<img id = ""stim"" ><div class = green_square id = ""topsquare"" ></div><img id = ""stim"" ><div class = green_square  id = ""bottomsquare"" ></div>",null,word_square,response,0,none,true,,,
html-keyboard-response,435,852480,null,"TOURIST",null,word,,,,, 'TOURIST',,
html-keyboard-response,436,852982,null,"NAPKIN<img id = ""stim"" ><div class = green_square id = ""topsquare"" ></div><img id = ""stim"" ><div class = green_square  id = ""bottomsquare"" ></div>",null,word_square,response,0,none,true,,,
html-keyboard-response,437,854484,null,"NAPKIN",null,word,,,,, 'NAPKIN',,
html-keyboard-response,438,854908,423.5849999822676,"SHARK<img id = ""stim"" ><div class = red_square id = ""topsquare"" ></div><img id = ""stim"" ><div class = red_square  id = ""bottomsquare"" ></div>",32,word_square,response,1,Space,true,,,
html-keyboard-response,439,856410,null,"SHARK",null,word,,,,, 'SHARK',,
html-keyboard-response,440,856912,null,"ROACH<img id = ""stim"" ><div class = green_square id = ""topsquare"" ></div><img id = ""stim"" ><div class = green_square  id = ""bottomsquare"" ></div>",null,word_square,response,0,none,true,,,
html-keyboard-response,441,858414,null,"ROACH",null,word,,,,, 'ROACH',,
html-keyboard-response,442,858916,null,"TIMBER<img id = ""stim"" ><div class = green_square id = ""topsquare"" ></div><img id = ""stim"" ><div class = green_square  id = ""bottomsquare"" ></div>",null,word_square,response,0,none,true,,,
html-keyboard-response,443,860418,null,"TIMBER",null,word,,,,, 'TIMBER',,
html-keyboard-response,444,860800,380.2900000009686,"TEACHER<img id = ""stim"" ><div class = red_square id = ""topsquare"" ></div><img id = ""stim"" ><div class = red_square  id = ""bottomsquare"" ></div>",32,word_square,response,1,Space,true,,,
html-keyboard-response,445,862302,null,"TEACHER",null,word,,,,, 'TEACHER',,
html-keyboard-response,446,862680,377.02999997418374,"LETTUCE<img id = ""stim"" ><div class = red_square id = ""topsquare"" ></div><img id = ""stim"" ><div class = red_square  id = ""bottomsquare"" ></div>",32,word_square,response,1,Space,true,,,
html-keyboard-response,447,864182,null,"LETTUCE",null,word,,,,, 'LETTUCE',,
html-keyboard-response,448,864685,null,"FRAGRANCE<img id = ""stim"" ><div class = green_square id = ""topsquare"" ></div><img id = ""stim"" ><div class = green_square  id = ""bottomsquare"" ></div>",null,word_square,response,0,none,true,,,
html-keyboard-response,449,866187,null,"FRAGRANCE",null,word,,,,, 'FRAGRANCE',,
html-keyboard-response,450,866688,null,"OINTMENT<img id = ""stim"" ><div class = green_square id = ""topsquare"" ></div><img id = ""stim"" ><div class = green_square  id = ""bottomsquare"" ></div>",null,word_square,response,0,none,true,,,
html-keyboard-response,451,868190,null,"OINTMENT",null,word,,,,, 'OINTMENT',,
html-keyboard-response,452,868588,395.91000002110377,"HANDCUFFS<img id = ""stim"" ><div class = red_square id = ""topsquare"" ></div><img id = ""stim"" ><div class = red_square  id = ""bottomsquare"" ></div>",32,word_square,response,1,Space,true,,,
html-keyboard-response,453,870090,null,"HANDCUFFS",null,word,,,,, 'HANDCUFFS',,
html-keyboard-response,454,870523,432.4100000085309,"WINGS<img id = ""stim"" ><div class = red_square id = ""topsquare"" ></div><img id = ""stim"" ><div class = red_square  id = ""bottomsquare"" ></div>",32,word_square,response,1,Space,true,,,
html-keyboard-response,455,872025,null,"WINGS",null,word,,,,, 'WINGS',,
html-keyboard-response,456,872527,null,"PUPIL<img id = ""stim"" ><div class = green_square id = ""topsquare"" ></div><img id = ""stim"" ><div class = green_square  id = ""bottomsquare"" ></div>",null,word_square,response,0,none,true,,,
html-keyboard-response,457,874029,null,"PUPIL",null,word,,,,, 'PUPIL',,
html-keyboard-response,458,874400,369.7950000059791,"TURNIP<img id = ""stim"" ><div class = red_square id = ""topsquare"" ></div><img id = ""stim"" ><div class = red_square  id = ""bottomsquare"" ></div>",32,word_square,response,1,Space,true,,,
html-keyboard-response,459,875902,null,"TURNIP",null,word,,,,, 'TURNIP',,
html-keyboard-response,460,876373,470.6599999917671,"FLOWER<img id = ""stim"" ><div class = red_square id = ""topsquare"" ></div><img id = ""stim"" ><div class = red_square  id = ""bottomsquare"" ></div>",32,word_square,response,1,Space,true,,,
html-keyboard-response,461,877876,null,"FLOWER",null,word,,,,, 'FLOWER',,
call-function,462,877877,,"",,,,,,,,,
html-keyboard-response,463,877978,null,"",null,,,,,,,,
math-period,464,879673,3106.6850000061095,"",,,,,,,,,3
html-keyboard-response,465,879777,null,"",null,,,,,,,,
math-period,466,880755,1689.0000000130385,"",,,,,,,,,3
html-keyboard-response,467,880859,null,"",null,,,,,,,,
math-period,468,882266,2623.525000002701,"",,,,,,,,,1
html-keyboard-response,469,882368,null,"",null,,,,,,,,
math-period,470,883523,2070.250000047963,"",,,,,,,,,3
html-keyboard-response,471,883624,null,"",null,,,,,,,,
math-period,472,885428,5363.2649998762645,"",,,,,,,,,0
html-keyboard-response,473,885529,null,"",null,,,,,,,,
math-period,474,886970,2748.1200000620447,"",,,,,,,,,2
html-keyboard-response,475,887072,null,"",null,,,,,,,,
math-period,476,889502,4643.3999999426305,"",,,,,,,,,4
html-keyboard-response,477,889604,null,"",null,,,,,,,,
math-period,478,890728,2106.9799999822862,"",,,,,,,,,4
html-keyboard-response,479,890831,null,"",null,,,,,,,,
math-period,480,891893,1931.505000044126,"",,,,,,,,,2
html-keyboard-response,481,891997,null,"",null,,,,,,,,
math-period,482,893034,1841.710000007879,"",,,,,,,,,3
html-keyboard-response,483,893143,null,"",null,,,,,,,,
math-period,484,894598,2713.8450000202283,"",,,,,,,,,1
html-keyboard-response,485,894700,null,"",null,,,,,,,,
math-period,486,896081,2577.1500000264496,"",,,,,,,,,1
html-keyboard-response,487,896183,null,"",null,,,,,,,,
math-period,488,897889,3164.3399999593385,"",,,,,,,,,4
html-keyboard-response,489,897991,null,"",null,,,,,,,,
math-period,490,900258,7772.14500005357,"",,,,,,,,,1
html-keyboard-response,491,900367,null,"",null,,,,,,,,
math-period,492,901877,null,"",,,,,,,,,
html-keyboard-response,493,902879,null,"Recall Period!",null,,,,,,,,
call-function,494,902880,,"",,,,,,,,,
html-keyboard-response,495,902981,null,"",null,,,,,,,,
recall-period,496,907516,31693.379999836907,"",,,,,,,,,handcuff
html-keyboard-response,497,907617,null,"",null,,,,,,,,
recall-period,498,908919,6252.604999754112,"",,,,,,,,,teacher
html-keyboard-response,499,909020,null,"",null,,,,,,,,
recall-period,500,922024,112573.84999998612,"",,,,,,,,,ointment
html-keyboard-response,501,922125,null,"",null,,,,,,,,
recall-period,502,977881,null,"",,,,,,,,,
html-keyboard-response,503,978383,null,"Time's Up!",null,,,,,,,,
html-keyboard-response,504,983554,5168.935000023339,"<p> Good job! You responded correctly to 98% of the red squares.</p>
                  <p>Be sure to keep your accuracy above 80%</p>
                  <p>Press any key to continue the experiment. Thank you!</p>",32,,,,,,,,
html-keyboard-response,505,985418,1862.284999981057,"<div style=""font-size:48px;"">Press any key to begin list 6 of 24 </div>",32,,,,,,,,
html-keyboard-response,506,987920,null,"<div style=""font-size:60px;"">+</div>",null,,,,,,,,
html-keyboard-response,507,988422,null,"BUREAU<img id = ""stim"" ><div class = green_square id = ""topsquare"" ></div><img id = ""stim"" ><div class = green_square  id = ""bottomsquare"" ></div>",null,word_square,response,0,none,true,,,
html-keyboard-response,508,989925,null,"BUREAU",null,word,,,,, 'BUREAU',,
html-keyboard-response,509,990375,448.09999997960404,"SKUNK<img id = ""stim"" ><div class = red_square id = ""topsquare"" ></div><img id = ""stim"" ><div class = red_square  id = ""bottomsquare"" ></div>",32,word_square,response,1,Space,true,,,
html-keyboard-response,510,991878,null,"SKUNK",null,word,,,,, 'SKUNK',,
html-keyboard-response,511,992380,null,"MAPLE<img id = ""stim"" ><div class = green_square id = ""topsquare"" ></div><img id = ""stim"" ><div class = green_square  id = ""bottomsquare"" ></div>",null,word_square,response,0,none,true,,,
html-keyboard-response,512,993882,null,"MAPLE",null,word,,,,, 'MAPLE',,
html-keyboard-response,513,994256,372.54999997094274,"LUMBER<img id = ""stim"" ><div class = red_square id = ""topsquare"" ></div><img id = ""stim"" ><div class = red_square  id = ""bottomsquare"" ></div>",32,word_square,response,1,Space,true,,,
html-keyboard-response,514,995758,null,"LUMBER",null,word,,,,, 'LUMBER',,
html-keyboard-response,515,996260,null,"VILLAIN<img id = ""stim"" ><div class = green_square id = ""topsquare"" ></div><img id = ""stim"" ><div class = green_square  id = ""bottomsquare"" ></div>",null,word_square,response,0,none,true,,,
html-keyboard-response,516,997762,null,"VILLAIN",null,word,,,,, 'VILLAIN',,
html-keyboard-response,517,998265,null,"BACKBONE<img id = ""stim"" ><div class = green_square id = ""topsquare"" ></div><img id = ""stim"" ><div class = green_square  id = ""bottomsquare"" ></div>",null,word_square,response,0,none,true,,,
html-keyboard-response,518,999767,null,"BACKBONE",null,word,,,,, 'BACKBONE',,
html-keyboard-response,519,1000174,405.22000001510605,"COBBLER<img id = ""stim"" ><div class = red_square id = ""topsquare"" ></div><img id = ""stim"" ><div class = red_square  id = ""bottomsquare"" ></div>",32,word_square,response,1,Space,true,,,
html-keyboard-response,520,1001677,null,"COBBLER",null,word,,,,, 'COBBLER',,
html-keyboard-response,521,1002179,null,"RIFLE<img id = ""stim"" ><div class = green_square id = ""topsquare"" ></div><img id = ""stim"" ><div class = green_square  id = ""bottomsquare"" ></div>",null,word_square,response,0,none,true,,,
html-keyboard-response,522,1003681,null,"RIFLE",null,word,,,,, 'RIFLE',,
html-keyboard-response,523,1004183,null,"PISTOL<img id = ""stim"" ><div class = green_square id = ""topsquare"" ></div><img id = ""stim"" ><div class = green_square  id = ""bottomsquare"" ></div>",null,word_square,response,0,none,true,,,
html-keyboard-response,524,1005686,null,"PISTOL",null,word,,,,, 'PISTOL',,
html-keyboard-response,525,1006052,365.044999984093,"MAILMAN<img id = ""stim"" ><div class = red_square id = ""topsquare"" ></div><img id = ""stim"" ><div class = red_square  id = ""bottomsquare"" ></div>",32,word_square,response,1,Space,true,,,
html-keyboard-response,526,1007554,null,"MAILMAN",null,word,,,,, 'MAILMAN',,
html-keyboard-response,527,1008056,null,"SEAL<img id = ""stim"" ><div class = red_square id = ""topsquare"" ></div><img id = ""stim"" ><div class = red_square  id = ""bottomsquare"" ></div>",null,word_square,response,1,Space,false,,,
html-keyboard-response,528,1009557,null,"SEAL",null,word,,,,, 'SEAL',,
html-keyboard-response,529,1010059,null,"CIGAR<img id = ""stim"" ><div class = green_square id = ""topsquare"" ></div><img id = ""stim"" ><div class = green_square  id = ""bottomsquare"" ></div>",null,word_square,response,0,none,true,,,
html-keyboard-response,530,1011561,null,"CIGAR",null,word,,,,, 'CIGAR',,
html-keyboard-response,531,1012063,null,"JOKER<img id = ""stim"" ><div class = green_square id = ""topsquare"" ></div><img id = ""stim"" ><div class = green_square  id = ""bottomsquare"" ></div>",null,word_square,response,0,none,true,,,
html-keyboard-response,532,1013565,null,"JOKER",null,word,,,,, 'JOKER',,
html-keyboard-response,533,1013931,364.2450000043027,"HONEY<img id = ""stim"" ><div class = red_square id = ""topsquare"" ></div><img id = ""stim"" ><div class = red_square  id = ""bottomsquare"" ></div>",32,word_square,response,1,Space,true,,,
html-keyboard-response,534,1015433,null,"HONEY",null,word,,,,, 'HONEY',,
html-keyboard-response,535,1015854,419.77000003680587,"COLESLAW<img id = ""stim"" ><div class = red_square id = ""topsquare"" ></div><img id = ""stim"" ><div class = red_square  id = ""bottomsquare"" ></div>",32,word_square,response,1,Space,true,,,
html-keyboard-response,536,1017356,null,"COLESLAW",null,word,,,,, 'COLESLAW',,
html-keyboard-response,537,1017858,null,"FOLDER<img id = ""stim"" ><div class = green_square id = ""topsquare"" ></div><img id = ""stim"" ><div class = green_square  id = ""bottomsquare"" ></div>",null,word_square,response,0,none,true,,,
html-keyboard-response,538,1019360,null,"FOLDER",null,word,,,,, 'FOLDER',,
html-keyboard-response,539,1019737,375.97999995341524,"DWARF<img id = ""stim"" ><div class = red_square id = ""topsquare"" ></div><img id = ""stim"" ><div class = red_square  id = ""bottomsquare"" ></div>",32,word_square,response,1,Space,true,,,
html-keyboard-response,540,1021239,null,"DWARF",null,word,,,,, 'DWARF',,
html-keyboard-response,541,1021624,383.3699999959208,"RACKET<img id = ""stim"" ><div class = red_square id = ""topsquare"" ></div><img id = ""stim"" ><div class = red_square  id = ""bottomsquare"" ></div>",32,word_square,response,1,Space,true,,,
html-keyboard-response,542,1023125,null,"RACKET",null,word,,,,, 'RACKET',,
call-function,543,1023126,,"",,,,,,,,,
html-keyboard-response,544,1023227,null,"",null,,,,,,,,
math-period,545,1025451,4320.640000049025,"",,,,,,,,,4
html-keyboard-response,546,1025553,null,"",null,,,,,,,,
math-period,547,1027504,3594.3200000328943,"",,,,,,,,,4
html-keyboard-response,548,1027610,null,"",null,,,,,,,,
math-period,549,1028834,2197.455000015907,"",,,,,,,,,5
html-keyboard-response,550,1028936,null,"",null,,,,,,,,
math-period,551,1030341,2662.944999989122,"",,,,,,,,,2
html-keyboard-response,552,1030442,null,"",null,,,,,,,,
math-period,553,1031567,2032.309999980498,"",,,,,,,,,3
html-keyboard-response,554,1031668,null,"",null,,,,,,,,
math-period,555,1033499,3307.419999910053,"",,,,,,,,,0
html-keyboard-response,556,1033601,null,"",null,,,,,,,,
math-period,557,1035448,3358.070000016596,"",,,,,,,,,5
html-keyboard-response,558,1035550,null,"",null,,,,,,,,
math-period,559,1036887,2378.404999966733,"",,,,,,,,,2
html-keyboard-response,560,1036988,null,"",null,,,,,,,,
math-period,561,1038876,3578.224999946542,"",,,,,,,,,1
html-keyboard-response,562,1038980,null,"",null,,,,,,,,
math-period,563,1042125,5976.7700000084005,"",,,,,,,,,4
html-keyboard-response,564,1042227,null,"",null,,,,,,,,
math-period,565,1043294,1984.8999999812804,"",,,,,,,,,6
html-keyboard-response,566,1043397,null,"",null,,,,,,,,
math-period,567,1044926,2912.5749999075197,"",,,,,,,,,0
html-keyboard-response,568,1045032,null,"",null,,,,,,,,
math-period,569,1047127,2008.6499999742955,"",,,,,,,,,1
html-keyboard-response,570,1048130,null,"Recall Period!",null,,,,,,,,
call-function,571,1048131,,"",,,,,,,,,
html-keyboard-response,572,1048233,null,"",null,,,,,,,,
recall-period,573,1048285,50.86499999742955,"",,,,,,,,,
html-keyboard-response,574,1048387,null,"",null,,,,,,,,
recall-period,575,1053866,35586.62000001641,"",,,,,,,,,cobble
html-keyboard-response,576,1053978,null,"",null,,,,,,,,
recall-period,577,1057811,17649.35500000138,"",,,,,,,,,seal
html-keyboard-response,578,1057912,null,"",null,,,,,,,,
recall-period,579,1059291,4570.684999984223,"",,,,,,,,,bureau
html-keyboard-response,580,1059393,null,"",null,,,,,,,,
recall-period,581,1123132,null,"",,,,,,,,,
html-keyboard-response,582,1123635,null,"Time's Up!",null,,,,,,,,
html-keyboard-response,583,1126186,2549.3299999507144,"<p> Good job! You responded correctly to 98% of the red squares.</p>
                  <p>Be sure to keep your accuracy above 80%</p>
                  <p>Press any key to continue the experiment. Thank you!</p>",32,,,,,,,,
html-keyboard-response,584,1126889,701.9200000213459,"<div style=""font-size:48px;"">Press any key to begin list 7 of 24 </div>",32,,,,,,,,
html-keyboard-response,585,1129392,null,"<div style=""font-size:60px;"">+</div>",null,,,,,,,,
html-keyboard-response,586,1129892,497.9499999899417,"GALLON<img id = ""stim"" ><div class = red_square id = ""topsquare"" ></div><img id = ""stim"" ><div class = red_square  id = ""bottomsquare"" ></div>",32,word_square,response,1,Space,true,,,
html-keyboard-response,587,1131394,null,"GALLON",null,word,,,,, 'GALLON',,
html-keyboard-response,588,1131896,null,"TAVERN<img id = ""stim"" ><div class = green_square id = ""topsquare"" ></div><img id = ""stim"" ><div class = green_square  id = ""bottomsquare"" ></div>",null,word_square,response,0,none,true,,,
html-keyboard-response,589,1133398,null,"TAVERN",null,word,,,,, 'TAVERN',,
html-keyboard-response,590,1133854,454.5349999680184,"APPLE<img id = ""stim"" ><div class = red_square id = ""topsquare"" ></div><img id = ""stim"" ><div class = red_square  id = ""bottomsquare"" ></div>",32,word_square,response,1,Space,true,,,
html-keyboard-response,591,1135356,null,"APPLE",null,word,,,,, 'APPLE',,
html-keyboard-response,592,1135858,null,"ORANGE<img id = ""stim"" ><div class = green_square id = ""topsquare"" ></div><img id = ""stim"" ><div class = green_square  id = ""bottomsquare"" ></div>",null,word_square,response,0,none,true,,,
html-keyboard-response,593,1137361,null,"ORANGE",null,word,,,,, 'ORANGE',,
html-keyboard-response,594,1137863,null,"MONGOOSE<img id = ""stim"" ><div class = red_square id = ""topsquare"" ></div><img id = ""stim"" ><div class = red_square  id = ""bottomsquare"" ></div>",null,word_square,response,1,Space,false,,,
html-keyboard-response,595,1139366,null,"MONGOOSE",null,word,,,,, 'MONGOOSE',,
html-keyboard-response,596,1139735,367.84500000067055,"HORSE<img id = ""stim"" ><div class = red_square id = ""topsquare"" ></div><img id = ""stim"" ><div class = red_square  id = ""bottomsquare"" ></div>",32,word_square,response,1,Space,true,,,
html-keyboard-response,597,1141237,null,"HORSE",null,word,,,,, 'HORSE',,
html-keyboard-response,598,1141739,null,"DONKEY<img id = ""stim"" ><div class = green_square id = ""topsquare"" ></div><img id = ""stim"" ><div class = green_square  id = ""bottomsquare"" ></div>",null,word_square,response,0,none,true,,,
html-keyboard-response,599,1143241,null,"DONKEY",null,word,,,,, 'DONKEY',,
html-keyboard-response,600,1143554,311.34999997448176,"BRACES<img id = ""stim"" ><div class = red_square id = ""topsquare"" ></div><img id = ""stim"" ><div class = red_square  id = ""bottomsquare"" ></div>",32,word_square,response,1,Space,true,,,
html-keyboard-response,601,1145055,null,"BRACES",null,word,,,,, 'BRACES',,
html-keyboard-response,602,1145402,345.64499999396503,"BEAVER<img id = ""stim"" ><div class = red_square id = ""topsquare"" ></div><img id = ""stim"" ><div class = red_square  id = ""bottomsquare"" ></div>",32,word_square,response,1,Space,true,,,
html-keyboard-response,603,1146904,null,"BEAVER",null,word,,,,, 'BEAVER',,
html-keyboard-response,604,1147407,null,"COOK<img id = ""stim"" ><div class = green_square id = ""topsquare"" ></div><img id = ""stim"" ><div class = green_square  id = ""bottomsquare"" ></div>",null,word_square,response,0,none,true,,,
html-keyboard-response,605,1148909,null,"COOK",null,word,,,,, 'COOK',,
html-keyboard-response,606,1149412,null,"ELK<img id = ""stim"" ><div class = green_square id = ""topsquare"" ></div><img id = ""stim"" ><div class = green_square  id = ""bottomsquare"" ></div>",null,word_square,response,0,none,true,,,
html-keyboard-response,607,1150914,null,"ELK",null,word,,,,, 'ELK',,
html-keyboard-response,608,1151270,354.955000046175,"COOKBOOK<img id = ""stim"" ><div class = red_square id = ""topsquare"" ></div><img id = ""stim"" ><div class = red_square  id = ""bottomsquare"" ></div>",32,word_square,response,1,Space,true,,,
html-keyboard-response,609,1152771,null,"COOKBOOK",null,word,,,,, 'COOKBOOK',,
html-keyboard-response,610,1153152,379.98999998671934,"HIGHWAY<img id = ""stim"" ><div class = red_square id = ""topsquare"" ></div><img id = ""stim"" ><div class = red_square  id = ""bottomsquare"" ></div>",32,word_square,response,1,Space,true,,,
html-keyboard-response,611,1154654,null,"HIGHWAY",null,word,,,,, 'HIGHWAY',,
html-keyboard-response,612,1155156,null,"SALAD<img id = ""stim"" ><div class = green_square id = ""topsquare"" ></div><img id = ""stim"" ><div class = green_square  id = ""bottomsquare"" ></div>",null,word_square,response,0,none,true,,,
html-keyboard-response,613,1156658,null,"SALAD",null,word,,,,, 'SALAD',,
html-keyboard-response,614,1157160,null,"LETTER<img id = ""stim"" ><div class = green_square id = ""topsquare"" ></div><img id = ""stim"" ><div class = green_square  id = ""bottomsquare"" ></div>",null,word_square,response,0,none,true,,,
html-keyboard-response,615,1158661,null,"LETTER",null,word,,,,, 'LETTER',,
html-keyboard-response,616,1159021,358.47999999532476,"LOBBY<img id = ""stim"" ><div class = red_square id = ""topsquare"" ></div><img id = ""stim"" ><div class = red_square  id = ""bottomsquare"" ></div>",32,word_square,response,1,Space,true,,,
html-keyboard-response,617,1160523,null,"LOBBY",null,word,,,,, 'LOBBY',,
html-keyboard-response,618,1161026,null,"PASTRY<img id = ""stim"" ><div class = green_square id = ""topsquare"" ></div><img id = ""stim"" ><div class = green_square  id = ""bottomsquare"" ></div>",null,word_square,response,0,none,true,,,
html-keyboard-response,619,1162527,null,"PASTRY",null,word,,,,, 'PASTRY',,
html-keyboard-response,620,1163030,null,"JOINT<img id = ""stim"" ><div class = green_square id = ""topsquare"" ></div><img id = ""stim"" ><div class = green_square  id = ""bottomsquare"" ></div>",null,word_square,response,0,none,true,,,
html-keyboard-response,621,1164532,null,"JOINT",null,word,,,,, 'JOINT',,
call-function,622,1164533,,"",,,,,,,,,
html-keyboard-response,623,1164634,null,"",null,,,,,,,,
math-period,624,1166639,3830.82499995362,"",,,,,,,,,4
html-keyboard-response,625,1166741,null,"",null,,,,,,,,
math-period,626,1170289,6963.255000009667,"",,,,,,,,,3
html-keyboard-response,627,1170391,null,"",null,,,,,,,,
math-period,628,1173222,5427.975000056904,"",,,,,,,,,5
html-keyboard-response,629,1173323,null,"",null,,,,,,,,
math-period,630,1175554,10276.770000054967,"",,,,,,,,,1
html-keyboard-response,631,1175655,null,"",null,,,,,,,,
math-period,632,1176751,2028.9799999445677,"",,,,,,,,,3
html-keyboard-response,633,1176852,null,"",null,,,,,,,,
math-period,634,1178008,2133.5500000277534,"",,,,,,,,,4
html-keyboard-response,635,1178115,null,"",null,,,,,,,,
math-period,636,1179991,3616.630000062287,"",,,,,,,,,4
html-keyboard-response,637,1180092,null,"",null,,,,,,,,
math-period,638,1181283,2006.874999962747,"",,,,,,,,,5
html-keyboard-response,639,1181385,null,"",null,,,,,,,,
math-period,640,1182281,1614.4900000072084,"",,,,,,,,,2
html-keyboard-response,641,1182383,null,"",null,,,,,,,,
math-period,642,1183704,2487.9800000344403,"",,,,,,,,,6
html-keyboard-response,643,1183806,null,"",null,,,,,,,,
math-period,644,1186224,4555.134999973234,"",,,,,,,,,5
html-keyboard-response,645,1186329,null,"",null,,,,,,,,
math-period,646,1187719,2613.3150000241585,"",,,,,,,,,1
html-keyboard-response,647,1187820,null,"",null,,,,,,,,
math-period,648,1188534,null,"",,,,,,,,,
html-keyboard-response,649,1189537,null,"Recall Period!",null,,,,,,,,
call-function,650,1189538,,"",,,,,,,,,
html-keyboard-response,651,1189640,null,"",null,,,,,,,,
recall-period,652,1203176,91027.84999995492,"",,,,,,,,,cotton
html-keyboard-response,653,1203278,null,"",null,,,,,,,,
recall-period,654,1264539,null,"",,,,,,,,,
html-keyboard-response,655,1265041,null,"Time's Up!",null,,,,,,,,
html-keyboard-response,656,1269060,4017.3700000159442,"<p> Good job! You responded correctly to 97% of the red squares.</p>
                  <p>Be sure to keep your accuracy above 80%</p>
                  <p>Press any key to continue the experiment. Thank you!</p>",32,,,,,,,,
html-keyboard-response,657,1269986,924.7200000099838,"<div style=""font-size:48px;"">Press any key to begin list 8 of 24 </div>",32,,,,,,,,
html-keyboard-response,658,1272488,null,"<div style=""font-size:60px;"">+</div>",null,,,,,,,,
html-keyboard-response,659,1272988,497.9450000100769,"MONKEY<img id = ""stim"" ><div class = red_square id = ""topsquare"" ></div><img id = ""stim"" ><div class = red_square  id = ""bottomsquare"" ></div>",32,word_square,response,1,Space,true,,,
html-keyboard-response,660,1274489,null,"MONKEY",null,word,,,,, 'MONKEY',,
html-keyboard-response,661,1274991,null,"SHORTCAKE<img id = ""stim"" ><div class = green_square id = ""topsquare"" ></div><img id = ""stim"" ><div class = green_square  id = ""bottomsquare"" ></div>",null,word_square,response,0,none,true,,,
html-keyboard-response,662,1276496,null,"SHORTCAKE",null,word,,,,, 'SHORTCAKE',,
html-keyboard-response,663,1276821,324.40499996300787,"MAILBOX<img id = ""stim"" ><div class = red_square id = ""topsquare"" ></div><img id = ""stim"" ><div class = red_square  id = ""bottomsquare"" ></div>",32,word_square,response,1,Space,true,,,
html-keyboard-response,664,1278324,null,"MAILBOX",null,word,,,,, 'MAILBOX',,
html-keyboard-response,665,1278826,null,"SERGEANT<img id = ""stim"" ><div class = green_square id = ""topsquare"" ></div><img id = ""stim"" ><div class = green_square  id = ""bottomsquare"" ></div>",null,word_square,response,0,none,true,,,
html-keyboard-response,666,1280328,null,"SERGEANT",null,word,,,,, 'SERGEANT',,
html-keyboard-response,667,1280672,342.57500001695007,"ASIA<img id = ""stim"" ><div class = red_square id = ""topsquare"" ></div><img id = ""stim"" ><div class = red_square  id = ""bottomsquare"" ></div>",32,word_square,response,1,Space,true,,,
html-keyboard-response,668,1282174,null,"ASIA",null,word,,,,, 'ASIA',,
html-keyboard-response,669,1282676,null,"CROSS<img id = ""stim"" ><div class = red_square id = ""topsquare"" ></div><img id = ""stim"" ><div class = red_square  id = ""bottomsquare"" ></div>",null,word_square,response,1,Space,false,,,
html-keyboard-response,670,1284178,null,"CROSS",null,word,,,,, 'CROSS',,
html-keyboard-response,671,1284680,null,"CHAPEL<img id = ""stim"" ><div class = green_square id = ""topsquare"" ></div><img id = ""stim"" ><div class = green_square  id = ""bottomsquare"" ></div>",null,word_square,response,0,none,true,,,
html-keyboard-response,672,1286183,null,"CHAPEL",null,word,,,,, 'CHAPEL',,
html-keyboard-response,673,1286528,344.31999997468665,"SALESMAN<img id = ""stim"" ><div class = red_square id = ""topsquare"" ></div><img id = ""stim"" ><div class = red_square  id = ""bottomsquare"" ></div>",32,word_square,response,1,Space,true,,,
html-keyboard-response,674,1288029,null,"SALESMAN",null,word,,,,, 'SALESMAN',,
html-keyboard-response,675,1288497,466.9949999661185,"ATOM<img id = ""stim"" ><div class = red_square id = ""topsquare"" ></div><img id = ""stim"" ><div class = red_square  id = ""bottomsquare"" ></div>",32,word_square,response,1,Space,true,,,
html-keyboard-response,676,1289999,null,"ATOM",null,word,,,,, 'ATOM',,
html-keyboard-response,677,1290502,null,"ROBIN<img id = ""stim"" ><div class = green_square id = ""topsquare"" ></div><img id = ""stim"" ><div class = green_square  id = ""bottomsquare"" ></div>",null,word_square,response,0,none,true,,,
html-keyboard-response,678,1292004,null,"ROBIN",null,word,,,,, 'ROBIN',,
html-keyboard-response,679,1292507,null,"CORAL<img id = ""stim"" ><div class = green_square id = ""topsquare"" ></div><img id = ""stim"" ><div class = green_square  id = ""bottomsquare"" ></div>",null,word_square,response,0,none,true,,,
html-keyboard-response,680,1294009,null,"CORAL",null,word,,,,, 'CORAL',,
html-keyboard-response,681,1294340,328.7049999926239,"WAX<img id = ""stim"" ><div class = red_square id = ""topsquare"" ></div><img id = ""stim"" ><div class = red_square  id = ""bottomsquare"" ></div>",32,word_square,response,1,Space,true,,,
html-keyboard-response,682,1295841,null,"WAX",null,word,,,,, 'WAX',,
html-keyboard-response,683,1296295,452.4749999982305,"WALNUT<img id = ""stim"" ><div class = red_square id = ""topsquare"" ></div><img id = ""stim"" ><div class = red_square  id = ""bottomsquare"" ></div>",32,word_square,response,1,Space,true,,,
html-keyboard-response,684,1297797,null,"WALNUT",null,word,,,,, 'WALNUT',,
html-keyboard-response,685,1298300,null,"DAUGHTER<img id = ""stim"" ><div class = green_square id = ""topsquare"" ></div><img id = ""stim"" ><div class = green_square  id = ""bottomsquare"" ></div>",null,word_square,response,0,none,true,,,
html-keyboard-response,686,1299802,null,"DAUGHTER",null,word,,,,, 'DAUGHTER',,
html-keyboard-response,687,1300304,null,"APRON<img id = ""stim"" ><div class = green_square id = ""topsquare"" ></div><img id = ""stim"" ><div class = green_square  id = ""bottomsquare"" ></div>",null,word_square,response,0,none,true,,,
html-keyboard-response,688,1301806,null,"APRON",null,word,,,,, 'APRON',,
html-keyboard-response,689,1302136,328.0650000087917,"PLAQUE<img id = ""stim"" ><div class = red_square id = ""topsquare"" ></div><img id = ""stim"" ><div class = red_square  id = ""bottomsquare"" ></div>",32,word_square,response,1,Space,true,,,
html-keyboard-response,690,1303638,null,"PLAQUE",null,word,,,,, 'PLAQUE',,
html-keyboard-response,691,1304141,null,"TOASTER<img id = ""stim"" ><div class = green_square id = ""topsquare"" ></div><img id = ""stim"" ><div class = green_square  id = ""bottomsquare"" ></div>",null,word_square,response,0,none,true,,,
html-keyboard-response,692,1305642,null,"TOASTER",null,word,,,,, 'TOASTER',,
html-keyboard-response,693,1306145,null,"KITCHEN<img id = ""stim"" ><div class = green_square id = ""topsquare"" ></div><img id = ""stim"" ><div class = green_square  id = ""bottomsquare"" ></div>",null,word_square,response,0,none,true,,,
html-keyboard-response,694,1307647,null,"KITCHEN",null,word,,,,, 'KITCHEN',,
call-function,695,1307648,,"",,,,,,,,,
html-keyboard-response,696,1307750,null,"",null,,,,,,,,
math-period,697,1309771,3781.5849999315105,"",,,,,,,,,4
html-keyboard-response,698,1309872,null,"",null,,,,,,,,
math-period,699,1312145,4259.219999948982,"",,,,,,,,,4
html-keyboard-response,700,1312247,null,"",null,,,,,,,,
math-period,701,1313236,1790.4100000159815,"",,,,,,,,,3
html-keyboard-response,702,1313338,null,"",null,,,,,,,,
math-period,703,1314386,1962.9949999507517,"",,,,,,,,,3
html-keyboard-response,704,1314488,null,"",null,,,,,,,,
math-period,705,1315175,1210.3100000531413,"",,,,,,,,,3
html-keyboard-response,706,1315280,null,"",null,,,,,,,,
math-period,707,1317516,4351.664999965578,"",,,,,,,,,0
html-keyboard-response,708,1317618,null,"",null,,,,,,,,
math-period,709,1318980,2482.5950000667945,"",,,,,,,,,4
html-keyboard-response,710,1319081,null,"",null,,,,,,,,
math-period,711,1320940,3395.4600000288337,"",,,,,,,,,4
html-keyboard-response,712,1321043,null,"",null,,,,,,,,
math-period,713,1322387,2545.940000039991,"",,,,,,,,,2
html-keyboard-response,714,1322489,null,"",null,,,,,,,,
math-period,715,1323962,2731.9100000313483,"",,,,,,,,,0
html-keyboard-response,716,1324075,null,"",null,,,,,,,,
math-period,717,1325385,2299.7399999876507,"",,,,,,,,,3
html-keyboard-response,718,1325487,null,"",null,,,,,,,,
math-period,719,1327902,4511.545000015758,"",,,,,,,,,3
html-keyboard-response,720,1328003,null,"",null,,,,,,,,
math-period,721,1328987,1725.06499994779,"",,,,,,,,,3
html-keyboard-response,722,1329090,null,"",null,,,,,,,,
math-period,723,1330057,1724.8250000411645,"",,,,,,,,,3
html-keyboard-response,724,1330164,null,"",null,,,,,,,,
math-period,725,1331192,1787.5249999342486,"",,,,,,,,,2
html-keyboard-response,726,1331294,null,"",null,,,,,,,,
math-period,727,1331649,null,"",,,,,,,,,
html-keyboard-response,728,1332652,null,"Recall Period!",null,,,,,,,,
call-function,729,1332653,,"",,,,,,,,,
html-keyboard-response,730,1332755,null,"",null,,,,,,,,
recall-period,731,1344625,65887.02500000363,"",,,,,,,,,point
html-keyboard-response,732,1344728,null,"",null,,,,,,,,
recall-period,733,1349343,34439.749999844935,"",,,,,,,,,monkey\
html-keyboard-response,734,1349459,null,"",null,,,,,,,,
recall-period,735,1407654,null,"",,,,,,,,,
html-keyboard-response,736,1408157,null,"Time's Up!",null,,,,,,,,
html-keyboard-response,737,1411909,3749.7800000128336,"<p> Good job! You responded correctly to 97% of the red squares.</p>
                  <p>Be sure to keep your accuracy above 80%</p>
                  <p>Press any key to continue the experiment. Thank you!</p>",32,,,,,,,,
html-keyboard-response,738,1413028,1117.8800000343472,"<div style=""font-size:48px;"">Press any key to begin list 9 of 24 </div>",32,,,,,,,,
html-keyboard-response,739,1415530,null,"<div style=""font-size:60px;"">+</div>",null,,,,,,,,
html-keyboard-response,740,1415987,455.74999996460974,"COWBOY<img id = ""stim"" ><div class = red_square id = ""topsquare"" ></div><img id = ""stim"" ><div class = red_square  id = ""bottomsquare"" ></div>",32,word_square,response,1,Space,true,,,
html-keyboard-response,741,1417489,null,"COWBOY",null,word,,,,, 'COWBOY',,
html-keyboard-response,742,1417991,null,"SEASHORE<img id = ""stim"" ><div class = green_square id = ""topsquare"" ></div><img id = ""stim"" ><div class = green_square  id = ""bottomsquare"" ></div>",null,word_square,response,0,none,true,,,
html-keyboard-response,743,1419492,null,"SEASHORE",null,word,,,,, 'SEASHORE',,
html-keyboard-response,744,1419995,null,"CANDY<img id = ""stim"" ><div class = green_square id = ""topsquare"" ></div><img id = ""stim"" ><div class = green_square  id = ""bottomsquare"" ></div>",null,word_square,response,0,none,true,,,
html-keyboard-response,745,1421497,null,"CANDY",null,word,,,,, 'CANDY',,
html-keyboard-response,746,1421834,336.07000001939014,"STUDENT<img id = ""stim"" ><div class = red_square id = ""topsquare"" ></div><img id = ""stim"" ><div class = red_square  id = ""bottomsquare"" ></div>",32,word_square,response,1,Space,true,,,
html-keyboard-response,747,1423336,null,"STUDENT",null,word,,,,, 'STUDENT',,
html-keyboard-response,748,1423838,null,"GERM<img id = ""stim"" ><div class = green_square id = ""topsquare"" ></div><img id = ""stim"" ><div class = green_square  id = ""bottomsquare"" ></div>",null,word_square,response,0,none,true,,,
html-keyboard-response,749,1425340,null,"GERM",null,word,,,,, 'GERM',,
html-keyboard-response,750,1425842,null,"SHOVEL<img id = ""stim"" ><div class = green_square id = ""topsquare"" ></div><img id = ""stim"" ><div class = green_square  id = ""bottomsquare"" ></div>",null,word_square,response,0,none,true,,,
html-keyboard-response,751,1427345,null,"SHOVEL",null,word,,,,, 'SHOVEL',,
html-keyboard-response,752,1427698,351.09499999089167,"GIRAFFE<img id = ""stim"" ><div class = red_square id = ""topsquare"" ></div><img id = ""stim"" ><div class = red_square  id = ""bottomsquare"" ></div>",32,word_square,response,1,Space,true,,,
html-keyboard-response,753,1429199,null,"GIRAFFE",null,word,,,,, 'GIRAFFE',,
html-keyboard-response,754,1429701,null,"BAKER<img id = ""stim"" ><div class = green_square id = ""topsquare"" ></div><img id = ""stim"" ><div class = green_square  id = ""bottomsquare"" ></div>",null,word_square,response,0,none,true,,,
html-keyboard-response,755,1431204,null,"BAKER",null,word,,,,, 'BAKER',,
html-keyboard-response,756,1431605,399.8600000049919,"SKILLET<img id = ""stim"" ><div class = red_square id = ""topsquare"" ></div><img id = ""stim"" ><div class = red_square  id = ""bottomsquare"" ></div>",32,word_square,response,1,Space,true,,,
html-keyboard-response,757,1433107,null,"SKILLET",null,word,,,,, 'SKILLET',,
html-keyboard-response,758,1433611,null,"YOLK<img id = ""stim"" ><div class = green_square id = ""topsquare"" ></div><img id = ""stim"" ><div class = green_square  id = ""bottomsquare"" ></div>",null,word_square,response,0,none,true,,,
html-keyboard-response,759,1435114,null,"YOLK",null,word,,,,, 'YOLK',,
html-keyboard-response,760,1435464,349.05999997863546,"MARSH<img id = ""stim"" ><div class = red_square id = ""topsquare"" ></div><img id = ""stim"" ><div class = red_square  id = ""bottomsquare"" ></div>",32,word_square,response,1,Space,true,,,
html-keyboard-response,761,1436966,null,"MARSH",null,word,,,,, 'MARSH',,
html-keyboard-response,762,1437460,492.6850000047125,"VILLAGE<img id = ""stim"" ><div class = red_square id = ""topsquare"" ></div><img id = ""stim"" ><div class = red_square  id = ""bottomsquare"" ></div>",32,word_square,response,1,Space,true,,,
html-keyboard-response,763,1438962,null,"VILLAGE",null,word,,,,, 'VILLAGE',,
html-keyboard-response,764,1439464,null,"WRENCH<img id = ""stim"" ><div class = green_square id = ""topsquare"" ></div><img id = ""stim"" ><div class = green_square  id = ""bottomsquare"" ></div>",null,word_square,response,0,none,true,,,
html-keyboard-response,765,1440966,null,"WRENCH",null,word,,,,, 'WRENCH',,
html-keyboard-response,766,1441294,327.1250000107102,"BOX<img id = ""stim"" ><div class = red_square id = ""topsquare"" ></div><img id = ""stim"" ><div class = red_square  id = ""bottomsquare"" ></div>",32,word_square,response,1,Space,true,,,
html-keyboard-response,767,1442795,null,"BOX",null,word,,,,, 'BOX',,
html-keyboard-response,768,1443183,385.72999997995794,"STAMP<img id = ""stim"" ><div class = red_square id = ""topsquare"" ></div><img id = ""stim"" ><div class = red_square  id = ""bottomsquare"" ></div>",32,word_square,response,1,Space,true,,,
html-keyboard-response,769,1444684,null,"STAMP",null,word,,,,, 'STAMP',,
html-keyboard-response,770,1445187,null,"REPTILE<img id = ""stim"" ><div class = green_square id = ""topsquare"" ></div><img id = ""stim"" ><div class = green_square  id = ""bottomsquare"" ></div>",null,word_square,response,0,none,true,,,
html-keyboard-response,771,1446689,null,"REPTILE",null,word,,,,, 'REPTILE',,
html-keyboard-response,772,1447191,null,"WAIST<img id = ""stim"" ><div class = green_square id = ""topsquare"" ></div><img id = ""stim"" ><div class = green_square  id = ""bottomsquare"" ></div>",null,word_square,response,0,none,true,,,
html-keyboard-response,773,1448693,null,"WAIST",null,word,,,,, 'WAIST',,
html-keyboard-response,774,1448998,303.1699999701232,"MAMMAL<img id = ""stim"" ><div class = red_square id = ""topsquare"" ></div><img id = ""stim"" ><div class = red_square  id = ""bottomsquare"" ></div>",32,word_square,response,1,Space,true,,,
html-keyboard-response,775,1450499,null,"MAMMAL",null,word,,,,, 'MAMMAL',,
call-function,776,1450500,,"",,,,,,,,,
html-keyboard-response,777,1450601,null,"",null,,,,,,,,
math-period,778,1452426,3428.734999964945,"",,,,,,,,,2
html-keyboard-response,779,1452528,null,"",null,,,,,,,,
math-period,780,1453728,2237.050000054296,"",,,,,,,,,4
html-keyboard-response,781,1453840,null,"",null,,,,,,,,
math-period,782,1454871,1957.7400000416674,"",,,,,,,,,6
html-keyboard-response,783,1454973,null,"",null,,,,,,,,
math-period,784,1456380,2625.36500004353,"",,,,,,,,,3
html-keyboard-response,785,1456482,null,"",null,,,,,,,,
math-period,786,1458204,2947.500000009313,"",,,,,,,,,4
html-keyboard-response,787,1458314,null,"",null,,,,,,,,
math-period,788,1459719,2537.1249999734573,"",,,,,,,,,5
html-keyboard-response,789,1459822,null,"",null,,,,,,,,
math-period,790,1462424,5049.9049999634735,"",,,,,,,,,2
html-keyboard-response,791,1462525,null,"",null,,,,,,,,
math-period,792,1463283,1406.9199999212287,"",,,,,,,,,2
html-keyboard-response,793,1463385,null,"",null,,,,,,,,
math-period,794,1465290,3588.8300000224262,"",,,,,,,,,0
html-keyboard-response,795,1465391,null,"",null,,,,,,,,
math-period,796,1467365,3754.70500002848,"",,,,,,,,,5
html-keyboard-response,797,1467470,null,"",null,,,,,,,,
math-period,798,1468797,2456.854999938514,"",,,,,,,,,2
html-keyboard-response,799,1468901,null,"",null,,,,,,,,
math-period,800,1470221,2465.8950000884943,"",,,,,,,,,3
html-keyboard-response,801,1470322,null,"",null,,,,,,,,
math-period,802,1471328,1767.214999999851,"",,,,,,,,,2
html-keyboard-response,803,1471429,null,"",null,,,,,,,,
math-period,804,1473017,2864.5699999760836,"",,,,,,,,,4
html-keyboard-response,805,1473127,null,"",null,,,,,,,,
math-period,806,1474218,1999.3899999535643,"",,,,,,,,,3
html-keyboard-response,807,1474319,null,"",null,,,,,,,,
math-period,808,1474501,null,"",,,,,,,,,
html-keyboard-response,809,1475503,null,"Recall Period!",null,,,,,,,,
call-function,810,1475503,,"",,,,,,,,,
html-keyboard-response,811,1475605,null,"",null,,,,,,,,
recall-period,812,1479316,26485.640000202693,"",,,,,,,,,student
html-keyboard-response,813,1479418,null,"",null,,,,,,,,
recall-period,814,1480907,7645.329999970272,"",,,,,,,,,giraffe
html-keyboard-response,815,1481019,null,"",null,,,,,,,,
recall-period,816,1482583,7897.605000180192,"",,,,,,,,,seashore
html-keyboard-response,817,1482690,null,"",null,,,,,,,,
recall-period,818,1487086,24118.459999968763,"",,,,,,,,,waist
html-keyboard-response,819,1487188,null,"",null,,,,,,,,
recall-period,820,1550507,null,"",,,,,,,,,
html-keyboard-response,821,1551009,null,"Time's Up!",null,,,,,,,,
html-keyboard-response,822,1556608,5596.679999958724,"<p> Good job! You responded correctly to 97% of the red squares.</p>
                  <p>Be sure to keep your accuracy above 80%</p>
                  <p>Press any key to continue the experiment. Thank you!</p>",32,,,,,,,,
html-keyboard-response,823,1558752,2142.7950000506826,"<div style=""font-size:48px;"">Press any key to begin list 10 of 24 </div>",32,,,,,,,,
html-keyboard-response,824,1561254,null,"<div style=""font-size:60px;"">+</div>",null,,,,,,,,
html-keyboard-response,825,1561737,481.3350000185892,"KNAPSACK<img id = ""stim"" ><div class = red_square id = ""topsquare"" ></div><img id = ""stim"" ><div class = red_square  id = ""bottomsquare"" ></div>",32,word_square,response,1,Space,true,,,
html-keyboard-response,826,1563239,null,"KNAPSACK",null,word,,,,, 'KNAPSACK',,
html-keyboard-response,827,1563741,null,"SEAFOOD<img id = ""stim"" ><div class = green_square id = ""topsquare"" ></div><img id = ""stim"" ><div class = green_square  id = ""bottomsquare"" ></div>",null,word_square,response,0,none,true,,,
html-keyboard-response,828,1565244,null,"SEAFOOD",null,word,,,,, 'SEAFOOD',,
html-keyboard-response,829,1565747,null,"GUARD<img id = ""stim"" ><div class = green_square id = ""topsquare"" ></div><img id = ""stim"" ><div class = green_square  id = ""bottomsquare"" ></div>",null,word_square,response,0,none,true,,,
html-keyboard-response,830,1567248,null,"GUARD",null,word,,,,, 'GUARD',,
html-keyboard-response,831,1567750,null,"SPACE<img id = ""stim"" ><div class = red_square id = ""topsquare"" ></div><img id = ""stim"" ><div class = red_square  id = ""bottomsquare"" ></div>",null,word_square,response,1,Space,false,,,
html-keyboard-response,832,1569252,null,"SPACE",null,word,,,,, 'SPACE',,
html-keyboard-response,833,1569754,null,"CLOUD<img id = ""stim"" ><div class = green_square id = ""topsquare"" ></div><img id = ""stim"" ><div class = green_square  id = ""bottomsquare"" ></div>",null,word_square,response,0,none,true,,,
html-keyboard-response,834,1571257,null,"CLOUD",null,word,,,,, 'CLOUD',,
html-keyboard-response,835,1571759,null,"POLICE<img id = ""stim"" ><div class = green_square id = ""topsquare"" ></div><img id = ""stim"" ><div class = green_square  id = ""bottomsquare"" ></div>",null,word_square,response,0,none,true,,,
html-keyboard-response,836,1573260,null,"POLICE",null,word,,,,, 'POLICE',,
html-keyboard-response,837,1573647,384.95499995769933,"MONSTER<img id = ""stim"" ><div class = red_square id = ""topsquare"" ></div><img id = ""stim"" ><div class = red_square  id = ""bottomsquare"" ></div>",32,word_square,response,1,Space,true,,,
html-keyboard-response,838,1575149,null,"MONSTER",null,word,,,,, 'MONSTER',,
html-keyboard-response,839,1575651,null,"SALT<img id = ""stim"" ><div class = green_square id = ""topsquare"" ></div><img id = ""stim"" ><div class = green_square  id = ""bottomsquare"" ></div>",null,word_square,response,0,none,true,,,
html-keyboard-response,840,1577153,null,"SALT",null,word,,,,, 'SALT',,
html-keyboard-response,841,1577540,386.36000000406057,"GARLIC<img id = ""stim"" ><div class = red_square id = ""topsquare"" ></div><img id = ""stim"" ><div class = red_square  id = ""bottomsquare"" ></div>",32,word_square,response,1,Space,true,,,
html-keyboard-response,842,1579042,null,"GARLIC",null,word,,,,, 'GARLIC',,
html-keyboard-response,843,1579544,null,"ZEBRA<img id = ""stim"" ><div class = green_square id = ""topsquare"" ></div><img id = ""stim"" ><div class = green_square  id = ""bottomsquare"" ></div>",null,word_square,response,0,none,true,,,
html-keyboard-response,844,1581047,null,"ZEBRA",null,word,,,,, 'ZEBRA',,
html-keyboard-response,845,1581354,305.5900000035763,"LAMP<img id = ""stim"" ><div class = red_square id = ""topsquare"" ></div><img id = ""stim"" ><div class = red_square  id = ""bottomsquare"" ></div>",32,word_square,response,1,Space,true,,,
html-keyboard-response,846,1582855,null,"LAMP",null,word,,,,, 'LAMP',,
html-keyboard-response,847,1583218,361.2399999983609,"FLASHLIGHT<img id = ""stim"" ><div class = red_square id = ""topsquare"" ></div><img id = ""stim"" ><div class = red_square  id = ""bottomsquare"" ></div>",32,word_square,response,1,Space,true,,,
html-keyboard-response,848,1584720,null,"FLASHLIGHT",null,word,,,,, 'FLASHLIGHT',,
html-keyboard-response,849,1585232,null,"CAPE<img id = ""stim"" ><div class = green_square id = ""topsquare"" ></div><img id = ""stim"" ><div class = green_square  id = ""bottomsquare"" ></div>",null,word_square,response,0,none,true,,,
html-keyboard-response,850,1586734,null,"CAPE",null,word,,,,, 'CAPE',,
html-keyboard-response,851,1587085,349.2800000240095,"RAILROAD<img id = ""stim"" ><div class = red_square id = ""topsquare"" ></div><img id = ""stim"" ><div class = red_square  id = ""bottomsquare"" ></div>",32,word_square,response,1,Space,true,,,
html-keyboard-response,852,1588587,null,"RAILROAD",null,word,,,,, 'RAILROAD',,
html-keyboard-response,853,1588963,374.18499996419996,"BOXER<img id = ""stim"" ><div class = red_square id = ""topsquare"" ></div><img id = ""stim"" ><div class = red_square  id = ""bottomsquare"" ></div>",32,word_square,response,1,Space,true,,,
html-keyboard-response,854,1590464,null,"BOXER",null,word,,,,, 'BOXER',,
html-keyboard-response,855,1590966,null,"BUTLER<img id = ""stim"" ><div class = green_square id = ""topsquare"" ></div><img id = ""stim"" ><div class = green_square  id = ""bottomsquare"" ></div>",null,word_square,response,0,none,true,,,
html-keyboard-response,856,1592468,null,"BUTLER",null,word,,,,, 'BUTLER',,
html-keyboard-response,857,1592971,null,"HOOK<img id = ""stim"" ><div class = green_square id = ""topsquare"" ></div><img id = ""stim"" ><div class = green_square  id = ""bottomsquare"" ></div>",null,word_square,response,0,none,true,,,
html-keyboard-response,858,1594472,null,"HOOK",null,word,,,,, 'HOOK',,
html-keyboard-response,859,1594813,338.94500002497807,"SNORKEL<img id = ""stim"" ><div class = red_square id = ""topsquare"" ></div><img id = ""stim"" ><div class = red_square  id = ""bottomsquare"" ></div>",32,word_square,response,1,Space,true,,,
html-keyboard-response,860,1596315,null,"SNORKEL",null,word,,,,, 'SNORKEL',,
call-function,861,1596316,,"",,,,,,,,,
html-keyboard-response,862,1596418,null,"",null,,,,,,,,
math-period,863,1599236,4569.255000038538,"",,,,,,,,,3
html-keyboard-response,864,1599338,null,"",null,,,,,,,,
math-period,865,1600351,1830.835000029765,"",,,,,,,,,3
html-keyboard-response,866,1600453,null,"",null,,,,,,,,
math-period,867,1602027,2819.254999922123,"",,,,,,,,,2
html-keyboard-response,868,1602129,null,"",null,,,,,,,,
math-period,869,1604275,4077.620000054594,"",,,,,,,,,1
html-keyboard-response,870,1604376,null,"",null,,,,,,,,
math-period,871,1605915,2890.0749999447726,"",,,,,,,,,2
html-keyboard-response,872,1606017,null,"",null,,,,,,,,
math-period,873,1607458,2713.9149999711663,"",,,,,,,,,4
html-keyboard-response,874,1607560,null,"",null,,,,,,,,
math-period,875,1609519,3760.0450000027195,"",,,,,,,,,1
html-keyboard-response,876,1609620,null,"",null,,,,,,,,
math-period,877,1611831,7209.035000123549,"",,,,,,,,,1
html-keyboard-response,878,1611933,null,"",null,,,,,,,,
math-period,879,1613541,3062.355000001844,"",,,,,,,,,1
html-keyboard-response,880,1613643,null,"",null,,,,,,,,
math-period,881,1614893,2376.4249999658205,"",,,,,,,,,4
html-keyboard-response,882,1614995,null,"",null,,,,,,,,
math-period,883,1616400,2565.809999941848,"",,,,,,,,,5
html-keyboard-response,884,1616502,null,"",null,,,,,,,,
math-period,885,1620317,10610.054999880958,"",,,,,,,,,1
html-keyboard-response,886,1621319,null,"Recall Period!",null,,,,,,,,
call-function,887,1621320,,"",,,,,,,,,
html-keyboard-response,888,1621422,null,"",null,,,,,,,,
recall-period,889,1622984,9407.13000006508,"",,,,,,,,,monster
html-keyboard-response,890,1623086,null,"",null,,,,,,,,
recall-period,891,1624315,6446.79999985965,"",,,,,,,,,police'
html-keyboard-response,892,1624417,null,"",null,,,,,,,,
recall-period,893,1625947,7088.475000055041,"",,,,,,,,,garlic
html-keyboard-response,894,1626049,null,"",null,,,,,,,,
recall-period,895,1696322,null,"",,,,,,,,,
html-keyboard-response,896,1696826,null,"Time's Up!",null,,,,,,,,
html-keyboard-response,897,1702536,5708.81499996176,"<p> Good job! You responded correctly to 97% of the red squares.</p>
                  <p>Be sure to keep your accuracy above 80%</p>
                  <p>Press any key to continue the experiment. Thank you!</p>",32,,,,,,,,
html-keyboard-response,898,1704238,1700.075000000652,"<div style=""font-size:48px;"">Press any key to begin list 11 of 24 </div>",32,,,,,,,,
html-keyboard-response,899,1706740,null,"<div style=""font-size:60px;"">+</div>",null,,,,,,,,
html-keyboard-response,900,1707243,null,"EARRING<img id = ""stim"" ><div class = green_square id = ""topsquare"" ></div><img id = ""stim"" ><div class = green_square  id = ""bottomsquare"" ></div>",null,word_square,response,0,none,true,,,
html-keyboard-response,901,1708747,null,"EARRING",null,word,,,,, 'EARRING',,
html-keyboard-response,902,1709118,369.269999966491,"REINDEER<img id = ""stim"" ><div class = red_square id = ""topsquare"" ></div><img id = ""stim"" ><div class = red_square  id = ""bottomsquare"" ></div>",32,word_square,response,1,Space,true,,,
