trial_type,trial_index,time_elapsed,rt,stimulus,key_press,test_part,task,targ_cond,correctKeyCode,correct,word,value,response
pavlovia,0,788,,"",,,,,,,,,
external-html,1,96443,95543.835000135,"",,,,,,,,,
html-keyboard-response,2,98377,1923.369999974966,"Welcome to the experiment. Press any key to begin.",32,,,,,,,,
html-keyboard-response,3,110698,12318.605000153184,"<p>You will see a list of words and colored squares in the following task.<p><p>Press the spacebar whenever you see a red square.<p><p>Do not press a key if the square is green<p><p>Press the spacebar to continue.</p>",32,,,,,,,,
html-keyboard-response,4,120807,9606.290000025183,"<p>Please try to remember as many of the words as you can, and try to think about the meaning of each word as it appears.<p><p>After the detection and encoding task you will be asked to solve some math problems for 24 seconds.<p> Please solve as many problems as you can in the time given. <p>",32,,,,,,,,
html-keyboard-response,5,133068,11758.080000057817,"After solving the math problems, you will be asked to type in as many words <p>from the previous list as you can remember for 75 seconds.<p> If you finish recalling before the 75 seconds are up,<p> just sit tight and try to think of any more words you could have missed. <p><p>We will begin with a brief practice session<p>Press the spacebar to begin the practice.</p>",32,,,,,,,,
html-keyboard-response,6,135574,null,"<div style=""font-size:60px;"">+</div>",null,,,,,,,,
html-keyboard-response,7,136081,null,"HAPPY<img id = ""stim"" ><div class = green_square id = ""topsquare"" ></div><img id = ""stim"" ><div class = green_square  id = ""bottomsquare"" ></div>",null,word_square,prac_response,0,none,true,,,
html-keyboard-response,8,137584,null,"HAPPY",null,word,,,,,HAPPY,,
html-keyboard-response,9,138091,441.84499979019165,"COLD<img id = ""stim"" ><div class = red_square id = ""topsquare"" ></div><img id = ""stim"" ><div class = red_square  id = ""bottomsquare"" ></div>",32,word_square,prac_response,1,Space,true,,,
html-keyboard-response,10,139595,null,"COLD",null,word,,,,,COLD,,
html-keyboard-response,11,140102,null,"HEAVY<img id = ""stim"" ><div class = red_square id = ""topsquare"" ></div><img id = ""stim"" ><div class = red_square  id = ""bottomsquare"" ></div>",null,word_square,prac_response,1,Space,false,,,
html-keyboard-response,12,141606,null,"HEAVY",null,word,,,,,HEAVY,,
html-keyboard-response,13,142112,null,"FUNNY<img id = ""stim"" ><div class = green_square id = ""topsquare"" ></div><img id = ""stim"" ><div class = green_square  id = ""bottomsquare"" ></div>",null,word_square,prac_response,0,none,true,,,
html-keyboard-response,14,143617,null,"FUNNY",null,word,,,,,FUNNY,,
html-keyboard-response,15,144123,446.6699999757111,"SCARY<img id = ""stim"" ><div class = red_square id = ""topsquare"" ></div><img id = ""stim"" ><div class = red_square  id = ""bottomsquare"" ></div>",32,word_square,prac_response,1,Space,true,,,
html-keyboard-response,16,145627,null,"SCARY",null,word,,,,,SCARY,,
html-keyboard-response,17,146134,448.5100000165403,"PEACEFUL<img id = ""stim"" ><div class = red_square id = ""topsquare"" ></div><img id = ""stim"" ><div class = red_square  id = ""bottomsquare"" ></div>",32,word_square,prac_response,1,Space,true,,,
html-keyboard-response,18,147636,null,"PEACEFUL",null,word,,,,,PEACEFUL,,
html-keyboard-response,19,148143,458.64500012248755,"LITTLE<img id = ""stim"" ><div class = green_square id = ""topsquare"" ></div><img id = ""stim"" ><div class = green_square  id = ""bottomsquare"" ></div>",32,word_square,prac_response,0,none,true,,,
html-keyboard-response,20,149646,null,"LITTLE",null,word,,,,,LITTLE,,
html-keyboard-response,21,150150,null,"TIRED<img id = ""stim"" ><div class = green_square id = ""topsquare"" ></div><img id = ""stim"" ><div class = green_square  id = ""bottomsquare"" ></div>",null,word_square,prac_response,0,none,true,,,
html-keyboard-response,22,151654,null,"TIRED",null,word,,,,,TIRED,,
html-keyboard-response,23,152161,null,"ENTERTAINING<img id = ""stim"" ><div class = green_square id = ""topsquare"" ></div><img id = ""stim"" ><div class = green_square  id = ""bottomsquare"" ></div>",null,word_square,prac_response,0,none,true,,,
html-keyboard-response,24,153663,null,"ENTERTAINING",null,word,,,,,ENTERTAINING,,
html-keyboard-response,25,154165,null,"GRATEFUL<img id = ""stim"" ><div class = red_square id = ""topsquare"" ></div><img id = ""stim"" ><div class = red_square  id = ""bottomsquare"" ></div>",null,word_square,prac_response,1,Space,false,,,
html-keyboard-response,26,155670,null,"GRATEFUL",null,word,,,,,GRATEFUL,,
html-keyboard-response,27,156177,null,"LOUD<img id = ""stim"" ><div class = green_square id = ""topsquare"" ></div><img id = ""stim"" ><div class = green_square  id = ""bottomsquare"" ></div>",null,word_square,prac_response,0,none,true,,,
html-keyboard-response,28,157680,null,"LOUD",null,word,,,,,LOUD,,
html-keyboard-response,29,158187,452.71500013768673,"SMART<img id = ""stim"" ><div class = red_square id = ""topsquare"" ></div><img id = ""stim"" ><div class = red_square  id = ""bottomsquare"" ></div>",32,word_square,prac_response,1,Space,true,,,
html-keyboard-response,30,159690,null,"SMART",null,word,,,,,SMART,,
html-keyboard-response,31,160193,null,"SMOOTH<img id = ""stim"" ><div class = red_square id = ""topsquare"" ></div><img id = ""stim"" ><div class = red_square  id = ""bottomsquare"" ></div>",null,word_square,prac_response,1,Space,false,,,
html-keyboard-response,32,161697,null,"SMOOTH",null,word,,,,,SMOOTH,,
html-keyboard-response,33,162204,null,"DISHONEST<img id = ""stim"" ><div class = green_square id = ""topsquare"" ></div><img id = ""stim"" ><div class = green_square  id = ""bottomsquare"" ></div>",null,word_square,prac_response,0,none,true,,,
html-keyboard-response,34,163707,null,"DISHONEST",null,word,,,,,DISHONEST,,
html-keyboard-response,35,164214,null,"WEALTHY<img id = ""stim"" ><div class = red_square id = ""topsquare"" ></div><img id = ""stim"" ><div class = red_square  id = ""bottomsquare"" ></div>",null,word_square,prac_response,1,Space,false,,,
html-keyboard-response,36,165718,null,"WEALTHY",null,word,,,,,WEALTHY,,
html-keyboard-response,37,166225,null,"BEAUTIFUL<img id = ""stim"" ><div class = green_square id = ""topsquare"" ></div><img id = ""stim"" ><div class = green_square  id = ""bottomsquare"" ></div>",null,word_square,prac_response,0,none,true,,,
html-keyboard-response,38,167728,null,"BEAUTIFUL",null,word,,,,,BEAUTIFUL,,
html-keyboard-response,39,168230,null,"DREARY<img id = ""stim"" ><div class = green_square id = ""topsquare"" ></div><img id = ""stim"" ><div class = green_square  id = ""bottomsquare"" ></div>",null,word_square,prac_response,0,none,true,,,
html-keyboard-response,40,169734,null,"DREARY",null,word,,,,,DREARY,,
html-keyboard-response,41,170240,null,"PLAYFUL<img id = ""stim"" ><div class = red_square id = ""topsquare"" ></div><img id = ""stim"" ><div class = red_square  id = ""bottomsquare"" ></div>",null,word_square,prac_response,1,Space,false,,,
html-keyboard-response,42,171745,null,"PLAYFUL",null,word,,,,,PLAYFUL,,
html-keyboard-response,43,181467,9717.964999843389,"<p> Uh oh. You responded correctly on 72% of the red squares.</p>
                  <p>We need you keep your accuracy above 80%</p>
                  <p>We're going to try once more to make sure you understand the task. press any key to continue.</p>",32,,,,,,,,
html-keyboard-response,44,183015,1545.9500001743436,"<p>You will see a list of words and colored squares in the following task.<p><p>Press the spacebar whenever you see a red square.<p><p>Do not press a key if the square is green<p><p>Press the spacebar to continue.</p>",32,,,,,,,,
html-keyboard-response,45,185521,null,"<div style=""font-size:60px;"">+</div>",null,,,,,,,,
html-keyboard-response,46,186028,null,"HAPPY<img id = ""stim"" ><div class = green_square id = ""topsquare"" ></div><img id = ""stim"" ><div class = green_square  id = ""bottomsquare"" ></div>",null,word_square,response,0,none,true,,,
html-keyboard-response,47,187531,null,"HAPPY",null,word,,,,,HAPPY,,
html-keyboard-response,48,188015,481.799999717623,"COLD<img id = ""stim"" ><div class = red_square id = ""topsquare"" ></div><img id = ""stim"" ><div class = red_square  id = ""bottomsquare"" ></div>",32,word_square,response,1,Space,true,,,
html-keyboard-response,49,189521,null,"COLD",null,word,,,,,COLD,,
html-keyboard-response,50,190028,null,"HEAVY<img id = ""stim"" ><div class = red_square id = ""topsquare"" ></div><img id = ""stim"" ><div class = red_square  id = ""bottomsquare"" ></div>",null,word_square,response,1,Space,false,,,
html-keyboard-response,51,191532,null,"HEAVY",null,word,,,,,HEAVY,,
html-keyboard-response,52,192039,null,"FUNNY<img id = ""stim"" ><div class = green_square id = ""topsquare"" ></div><img id = ""stim"" ><div class = green_square  id = ""bottomsquare"" ></div>",null,word_square,response,0,none,true,,,
html-keyboard-response,53,193541,null,"FUNNY",null,word,,,,,FUNNY,,
html-keyboard-response,54,193859,316.7449999600649,"SCARY<img id = ""stim"" ><div class = red_square id = ""topsquare"" ></div><img id = ""stim"" ><div class = red_square  id = ""bottomsquare"" ></div>",32,word_square,response,1,Space,true,,,
html-keyboard-response,55,195363,null,"SCARY",null,word,,,,,SCARY,,
html-keyboard-response,56,195867,501.9249999895692,"PEACEFUL<img id = ""stim"" ><div class = red_square id = ""topsquare"" ></div><img id = ""stim"" ><div class = red_square  id = ""bottomsquare"" ></div>",32,word_square,response,1,Space,true,,,
html-keyboard-response,57,197372,null,"PEACEFUL",null,word,,,,,PEACEFUL,,
html-keyboard-response,58,197879,null,"LITTLE<img id = ""stim"" ><div class = green_square id = ""topsquare"" ></div><img id = ""stim"" ><div class = green_square  id = ""bottomsquare"" ></div>",null,word_square,response,0,none,true,,,
html-keyboard-response,59,199382,null,"LITTLE",null,word,,,,,LITTLE,,
html-keyboard-response,60,199889,null,"TIRED<img id = ""stim"" ><div class = green_square id = ""topsquare"" ></div><img id = ""stim"" ><div class = green_square  id = ""bottomsquare"" ></div>",null,word_square,response,0,none,true,,,
html-keyboard-response,61,201393,null,"TIRED",null,word,,,,,TIRED,,
html-keyboard-response,62,201900,null,"ENTERTAINING<img id = ""stim"" ><div class = green_square id = ""topsquare"" ></div><img id = ""stim"" ><div class = green_square  id = ""bottomsquare"" ></div>",null,word_square,response,0,none,true,,,
html-keyboard-response,63,203404,null,"ENTERTAINING",null,word,,,,,ENTERTAINING,,
html-keyboard-response,64,203911,null,"GRATEFUL<img id = ""stim"" ><div class = red_square id = ""topsquare"" ></div><img id = ""stim"" ><div class = red_square  id = ""bottomsquare"" ></div>",null,word_square,response,1,Space,false,,,
html-keyboard-response,65,205415,null,"GRATEFUL",null,word,,,,,GRATEFUL,,
html-keyboard-response,66,205921,null,"LOUD<img id = ""stim"" ><div class = green_square id = ""topsquare"" ></div><img id = ""stim"" ><div class = green_square  id = ""bottomsquare"" ></div>",null,word_square,response,0,none,true,,,
html-keyboard-response,67,207426,null,"LOUD",null,word,,,,,LOUD,,
html-keyboard-response,68,207835,407.7800000086427,"SMART<img id = ""stim"" ><div class = red_square id = ""topsquare"" ></div><img id = ""stim"" ><div class = red_square  id = ""bottomsquare"" ></div>",32,word_square,response,1,Space,true,,,
html-keyboard-response,69,209340,null,"SMART",null,word,,,,,SMART,,
html-keyboard-response,70,209829,486.559999641031,"SMOOTH<img id = ""stim"" ><div class = red_square id = ""topsquare"" ></div><img id = ""stim"" ><div class = red_square  id = ""bottomsquare"" ></div>",32,word_square,response,1,Space,true,,,
html-keyboard-response,71,211335,null,"SMOOTH",null,word,,,,,SMOOTH,,
html-keyboard-response,72,211842,null,"DISHONEST<img id = ""stim"" ><div class = green_square id = ""topsquare"" ></div><img id = ""stim"" ><div class = green_square  id = ""bottomsquare"" ></div>",null,word_square,response,0,none,true,,,
html-keyboard-response,73,213346,null,"DISHONEST",null,word,,,,,DISHONEST,,
html-keyboard-response,74,213685,336.8400000035763,"WEALTHY<img id = ""stim"" ><div class = red_square id = ""topsquare"" ></div><img id = ""stim"" ><div class = red_square  id = ""bottomsquare"" ></div>",32,word_square,response,1,Space,true,,,
html-keyboard-response,75,215191,null,"WEALTHY",null,word,,,,,WEALTHY,,
html-keyboard-response,76,215698,null,"BEAUTIFUL<img id = ""stim"" ><div class = green_square id = ""topsquare"" ></div><img id = ""stim"" ><div class = green_square  id = ""bottomsquare"" ></div>",null,word_square,response,0,none,true,,,
html-keyboard-response,77,217202,null,"BEAUTIFUL",null,word,,,,,BEAUTIFUL,,
html-keyboard-response,78,217708,null,"DREARY<img id = ""stim"" ><div class = green_square id = ""topsquare"" ></div><img id = ""stim"" ><div class = green_square  id = ""bottomsquare"" ></div>",null,word_square,response,0,none,true,,,
html-keyboard-response,79,219212,null,"DREARY",null,word,,,,,DREARY,,
html-keyboard-response,80,219641,425.139999948442,"PLAYFUL<img id = ""stim"" ><div class = red_square id = ""topsquare"" ></div><img id = ""stim"" ><div class = red_square  id = ""bottomsquare"" ></div>",66,word_square,response,1,Space,false,,,
html-keyboard-response,81,221148,null,"PLAYFUL",null,word,,,,,PLAYFUL,,
html-keyboard-response,82,224752,3601.18000023067,"<p> Good job! You responded correctly to 83% of the red squares.</p>
                  <p>Be sure to keep your accuracy above 80%</p>
                  <p>Press any key to begin the math and recall sections. Thank you!</p>",32,,,,,,,,
call-function,83,224753,,"",,,,,,,,,
html-keyboard-response,84,224858,null,"",null,,,,,,,,
math-period,85,227693,5129.200000315905,"",,,,,,,,,1
html-keyboard-response,86,227798,null,"",null,,,,,,,,
math-period,87,229716,3679.4250002130866,"",,,,,,,,,5
html-keyboard-response,88,229820,null,"",null,,,,,,,,
math-period,89,230987,2218.9700002782047,"",,,,,,,,,5
html-keyboard-response,90,231090,null,"",null,,,,,,,,
math-period,91,232497,2621.9399995170534,"",,,,,,,,,2
html-keyboard-response,92,232605,null,"",null,,,,,,,,
math-period,93,233614,1872.8350000455976,"",,,,,,,,,5
html-keyboard-response,94,233719,null,"",null,,,,,,,,
math-period,95,235457,3212.0849997736514,"",,,,,,,,,1
html-keyboard-response,96,235565,null,"",null,,,,,,,,
math-period,97,236538,1802.0750004798174,"",,,,,,,,,2
html-keyboard-response,98,236643,null,"",null,,,,,,,,
math-period,99,239050,4605.665000155568,"",,,,,,,,,0
html-keyboard-response,100,239154,null,"",null,,,,,,,,
math-period,101,240168,1867.8699997253716,"",,,,,,,,,3
html-keyboard-response,102,240274,null,"",null,,,,,,,,
math-period,103,241195,1730.1649996079504,"",,,,,,,,,2
html-keyboard-response,104,241301,null,"",null,,,,,,,,
math-period,105,242339,1944.5450003258884,"",,,,,,,,,4
html-keyboard-response,106,242444,null,"",null,,,,,,,,
math-period,107,243385,1750.864999834448,"",,,,,,,,,5
html-keyboard-response,108,243489,null,"",null,,,,,,,,
math-period,109,244326,1537.2350006364286,"",,,,,,,,,5
html-keyboard-response,110,244429,null,"",null,,,,,,,,
math-period,111,245144,1292.2650002874434,"",,,,,,,,,5
html-keyboard-response,112,245250,null,"",null,,,,,,,,
math-period,113,246310,1958.695000037551,"",,,,,,,,,4
html-keyboard-response,114,246415,null,"",null,,,,,,,,
math-period,115,247205,1374.1299998946488,"",,,,,,,,,4
html-keyboard-response,116,247308,null,"",null,,,,,,,,
math-period,117,248305,1818.0199996568263,"",,,,,,,,,5
html-keyboard-response,118,248409,null,"",null,,,,,,,,
math-period,119,248754,null,"",,,,,,,,,
html-keyboard-response,120,249761,null,"Recall Period!",null,,,,,,,,
call-function,121,249762,,"",,,,,,,,,
html-keyboard-response,122,249869,null,"",null,,,,,,,,
recall-period,123,253781,27734.029999468476,"",,,,,,,,,dreary
html-keyboard-response,124,253889,null,"",null,,,,,,,,
recall-period,125,256782,23514.969998504966,"",,,,,,,,,dishonest
html-keyboard-response,126,256888,null,"",null,,,,,,,,
recall-period,127,258549,6581.204998772591,"",,,,,,,,,loud
html-keyboard-response,128,258652,null,"",null,,,,,,,,
recall-period,129,275795,334064.3249992281,"",,,,,,,,,dreary
html-keyboard-response,130,275901,null,"",null,,,,,,,,
recall-period,131,324766,null,"",,,,,,,,,
html-keyboard-response,132,325272,null,"Time's Up!",null,,,,,,,,
html-keyboard-response,133,347888,22614.26499998197,"<p>We will now begin the experiment!<p><p>Please try to remember all words from each list.<p><p>Press the spacebar whenever you see a red square.<p><p><p><p>Press the spacebar to begin.</p>",32,,,,,,,,
html-keyboard-response,134,375251,26858.16500009969,"<div style=""font-size:48px;"">Press any key to begin list 1 of 24 </div>",32,,,,,,,,
html-keyboard-response,135,377758,null,"<div style=""font-size:60px;"">+</div>",null,,,,,,,,
html-keyboard-response,136,378265,null,"GLASSES<img id = ""stim"" ><div class = green_square id = ""topsquare"" ></div><img id = ""stim"" ><div class = green_square  id = ""bottomsquare"" ></div>",null,word_square,response,0,none,true,,,
html-keyboard-response,137,379768,null,"GLASSES",null,word,,,,, 'GLASSES',,
html-keyboard-response,138,380270,null,"KIWI<img id = ""stim"" ><div class = red_square id = ""topsquare"" ></div><img id = ""stim"" ><div class = red_square  id = ""bottomsquare"" ></div>",null,word_square,response,1,Space,false,,,
html-keyboard-response,139,381774,null,"KIWI",null,word,,,,, 'KIWI',,
html-keyboard-response,140,382281,null,"CROSS<img id = ""stim"" ><div class = red_square id = ""topsquare"" ></div><img id = ""stim"" ><div class = red_square  id = ""bottomsquare"" ></div>",null,word_square,response,1,Space,false,,,
html-keyboard-response,141,383783,null,"CROSS",null,word,,,,, 'CROSS',,
html-keyboard-response,142,384289,null,"PAINTING<img id = ""stim"" ><div class = green_square id = ""topsquare"" ></div><img id = ""stim"" ><div class = green_square  id = ""bottomsquare"" ></div>",null,word_square,response,0,none,true,,,
html-keyboard-response,143,385791,null,"PAINTING",null,word,,,,, 'PAINTING',,
html-keyboard-response,144,386201,408.4649998694658,"BANQUET<img id = ""stim"" ><div class = green_square id = ""topsquare"" ></div><img id = ""stim"" ><div class = green_square  id = ""bottomsquare"" ></div>",32,word_square,response,0,none,false,,,
html-keyboard-response,145,387705,null,"BANQUET",null,word,,,,, 'BANQUET',,
html-keyboard-response,146,388212,null,"SALMON<img id = ""stim"" ><div class = red_square id = ""topsquare"" ></div><img id = ""stim"" ><div class = red_square  id = ""bottomsquare"" ></div>",null,word_square,response,1,Space,false,,,
html-keyboard-response,147,389716,null,"SALMON",null,word,,,,, 'SALMON',,
html-keyboard-response,148,390064,346.2600000202656,"PEDAL<img id = ""stim"" ><div class = red_square id = ""topsquare"" ></div><img id = ""stim"" ><div class = red_square  id = ""bottomsquare"" ></div>",32,word_square,response,1,Space,true,,,
html-keyboard-response,149,391568,null,"PEDAL",null,word,,,,, 'PEDAL',,
html-keyboard-response,150,392063,492.66500025987625,"CIRCUS<img id = ""stim"" ><div class = green_square id = ""topsquare"" ></div><img id = ""stim"" ><div class = green_square  id = ""bottomsquare"" ></div>",32,word_square,response,0,none,false,,,
html-keyboard-response,151,393566,null,"CIRCUS",null,word,,,,, 'CIRCUS',,
html-keyboard-response,152,394073,null,"CATCHER<img id = ""stim"" ><div class = green_square id = ""topsquare"" ></div><img id = ""stim"" ><div class = green_square  id = ""bottomsquare"" ></div>",null,word_square,response,0,none,true,,,
html-keyboard-response,153,395577,null,"CATCHER",null,word,,,,, 'CATCHER',,
html-keyboard-response,154,396046,466.5949996560812,"SOFTBALL<img id = ""stim"" ><div class = red_square id = ""topsquare"" ></div><img id = ""stim"" ><div class = red_square  id = ""bottomsquare"" ></div>",32,word_square,response,1,Space,true,,,
html-keyboard-response,155,397551,null,"SOFTBALL",null,word,,,,, 'SOFTBALL',,
html-keyboard-response,156,398057,null,"LEADER<img id = ""stim"" ><div class = red_square id = ""topsquare"" ></div><img id = ""stim"" ><div class = red_square  id = ""bottomsquare"" ></div>",null,word_square,response,1,Space,false,,,
html-keyboard-response,157,399561,null,"LEADER",null,word,,,,, 'LEADER',,
html-keyboard-response,158,399971,408.2049997523427,"WORKER<img id = ""stim"" ><div class = green_square id = ""topsquare"" ></div><img id = ""stim"" ><div class = green_square  id = ""bottomsquare"" ></div>",32,word_square,response,0,none,false,,,
html-keyboard-response,159,401476,null,"WORKER",null,word,,,,, 'WORKER',,
html-keyboard-response,160,401982,null,"PORT<img id = ""stim"" ><div class = red_square id = ""topsquare"" ></div><img id = ""stim"" ><div class = red_square  id = ""bottomsquare"" ></div>",null,word_square,response,1,Space,false,,,
html-keyboard-response,161,403487,null,"PORT",null,word,,,,, 'PORT',,
html-keyboard-response,162,403911,420.46499997377396,"CRACKER<img id = ""stim"" ><div class = green_square id = ""topsquare"" ></div><img id = ""stim"" ><div class = green_square  id = ""bottomsquare"" ></div>",32,word_square,response,0,none,false,,,
html-keyboard-response,163,405417,null,"CRACKER",null,word,,,,, 'CRACKER',,
html-keyboard-response,164,405924,null,"QUARTER<img id = ""stim"" ><div class = red_square id = ""topsquare"" ></div><img id = ""stim"" ><div class = red_square  id = ""bottomsquare"" ></div>",null,word_square,response,1,Space,false,,,
html-keyboard-response,165,407428,null,"QUARTER",null,word,,,,, 'QUARTER',,
html-keyboard-response,166,407789,359.2949998565018,"PERMIT<img id = ""stim"" ><div class = green_square id = ""topsquare"" ></div><img id = ""stim"" ><div class = green_square  id = ""bottomsquare"" ></div>",32,word_square,response,0,none,false,,,
html-keyboard-response,167,409295,null,"PERMIT",null,word,,,,, 'PERMIT',,
html-keyboard-response,168,409801,null,"MARKET<img id = ""stim"" ><div class = green_square id = ""topsquare"" ></div><img id = ""stim"" ><div class = green_square  id = ""bottomsquare"" ></div>",null,word_square,response,0,none,true,,,
html-keyboard-response,169,411306,null,"MARKET",null,word,,,,, 'MARKET',,
html-keyboard-response,170,411808,null,"THRONE<img id = ""stim"" ><div class = red_square id = ""topsquare"" ></div><img id = ""stim"" ><div class = red_square  id = ""bottomsquare"" ></div>",null,word_square,response,1,Space,false,,,
html-keyboard-response,171,413311,null,"THRONE",null,word,,,,, 'THRONE',,
call-function,172,413312,,"",,,,,,,,,
html-keyboard-response,173,413418,null,"",null,,,,,,,,
math-period,174,415115,3286.5949999541044,"",,,,,,,,,4
html-keyboard-response,175,415220,null,"",null,,,,,,,,
math-period,176,416902,3227.580000180751,"",,,,,,,,,4
html-keyboard-response,177,417004,null,"",null,,,,,,,,
math-period,178,418119,2161.284999921918,"",,,,,,,,,1
html-keyboard-response,179,418223,null,"",null,,,,,,,,
math-period,180,419348,2184.6849997527897,"",,,,,,,,,4
html-keyboard-response,181,419453,null,"",null,,,,,,,,
math-period,182,420525,2047.9499995708466,"",,,,,,,,,3
html-keyboard-response,183,420628,null,"",null,,,,,,,,
math-period,184,421510,1652.0200003869832,"",,,,,,,,,3
html-keyboard-response,185,421615,null,"",null,,,,,,,,
math-period,186,422406,1507.8100003302097,"",,,,,,,,,3
html-keyboard-response,187,422511,null,"",null,,,,,,,,
math-period,188,424949,4760.944999288768,"",,,,,,,,,3
html-keyboard-response,189,425055,null,"",null,,,,,,,,
math-period,190,426765,3236.299999523908,"",,,,,,,,,0
html-keyboard-response,191,426868,null,"",null,,,,,,,,
math-period,192,428311,2797.099999617785,"",,,,,,,,,4
html-keyboard-response,193,428415,null,"",null,,,,,,,,
math-period,194,430704,8059.790000319481,"",,,,,,,,,2
html-keyboard-response,195,430808,null,"",null,,,,,,,,
math-period,196,431884,2049.249999690801,"",,,,,,,,,5
html-keyboard-response,197,431988,null,"",null,,,,,,,,
math-period,198,433607,3177.569999359548,"",,,,,,,,,2
html-keyboard-response,199,433711,null,"",null,,,,,,,,
math-period,200,434911,2324.67499980703,"",,,,,,,,,4
html-keyboard-response,201,435017,null,"",null,,,,,,,,
math-period,202,436140,2122.285000048578,"",,,,,,,,,3
html-keyboard-response,203,436244,null,"",null,,,,,,,,
math-period,204,437316,1032.0000001229346,"",,,,,,,,,4
html-keyboard-response,205,438319,null,"Recall Period!",null,,,,,,,,
call-function,206,438321,,"",,,,,,,,,
html-keyboard-response,207,438426,null,"",null,,,,,,,,
recall-period,208,440126,8796.3299988769,"",,,,,,,,,throne
html-keyboard-response,209,440228,null,"",null,,,,,,,,
recall-period,210,513323,null,"",,,,,,,,,
html-keyboard-response,211,513830,null,"Time's Up!",null,,,,,,,,
html-keyboard-response,212,520700,6867.645000107586,"<p> Uh oh. You responded correctly on 58% of the red squares.</p>
                  <p>We need you keep your accuracy above 80%</p>
                  <p>Press any key to continue the experiment. Thank you!</p>",32,,,,,,,,
html-keyboard-response,213,522594,1892.130000051111,"<div style=""font-size:48px;"">Press any key to begin list 2 of 24 </div>",32,,,,,,,,
html-keyboard-response,214,525100,null,"<div style=""font-size:60px;"">+</div>",null,,,,,,,,
html-keyboard-response,215,525606,null,"COLUMN<img id = ""stim"" ><div class = green_square id = ""topsquare"" ></div><img id = ""stim"" ><div class = green_square  id = ""bottomsquare"" ></div>",null,word_square,response,0,none,true,,,
html-keyboard-response,216,527108,null,"COLUMN",null,word,,,,, 'COLUMN',,
html-keyboard-response,217,527611,null,"ACORN<img id = ""stim"" ><div class = red_square id = ""topsquare"" ></div><img id = ""stim"" ><div class = red_square  id = ""bottomsquare"" ></div>",null,word_square,response,1,Space,false,,,
html-keyboard-response,218,529116,null,"ACORN",null,word,,,,, 'ACORN',,
html-keyboard-response,219,529622,null,"BANKER<img id = ""stim"" ><div class = red_square id = ""topsquare"" ></div><img id = ""stim"" ><div class = red_square  id = ""bottomsquare"" ></div>",null,word_square,response,1,Space,false,,,
html-keyboard-response,220,531125,null,"BANKER",null,word,,,,, 'BANKER',,
html-keyboard-response,221,531628,null,"RECEIPT<img id = ""stim"" ><div class = green_square id = ""topsquare"" ></div><img id = ""stim"" ><div class = green_square  id = ""bottomsquare"" ></div>",null,word_square,response,0,none,true,,,
html-keyboard-response,222,533131,null,"RECEIPT",null,word,,,,, 'RECEIPT',,
html-keyboard-response,223,533637,null,"STABLE<img id = ""stim"" ><div class = green_square id = ""topsquare"" ></div><img id = ""stim"" ><div class = green_square  id = ""bottomsquare"" ></div>",null,word_square,response,0,none,true,,,
html-keyboard-response,224,535139,null,"STABLE",null,word,,,,, 'STABLE',,
html-keyboard-response,225,535644,null,"YOLK<img id = ""stim"" ><div class = red_square id = ""topsquare"" ></div><img id = ""stim"" ><div class = red_square  id = ""bottomsquare"" ></div>",null,word_square,response,1,Space,false,,,
html-keyboard-response,226,537147,null,"YOLK",null,word,,,,, 'YOLK',,
html-keyboard-response,227,537654,null,"ROOSTER<img id = ""stim"" ><div class = red_square id = ""topsquare"" ></div><img id = ""stim"" ><div class = red_square  id = ""bottomsquare"" ></div>",null,word_square,response,1,Space,false,,,
html-keyboard-response,228,539160,null,"ROOSTER",null,word,,,,, 'ROOSTER',,
html-keyboard-response,229,539665,null,"HOUSE<img id = ""stim"" ><div class = green_square id = ""topsquare"" ></div><img id = ""stim"" ><div class = green_square  id = ""bottomsquare"" ></div>",null,word_square,response,0,none,true,,,
html-keyboard-response,230,541169,null,"HOUSE",null,word,,,,, 'HOUSE',,
html-keyboard-response,231,541676,null,"BUG<img id = ""stim"" ><div class = green_square id = ""topsquare"" ></div><img id = ""stim"" ><div class = green_square  id = ""bottomsquare"" ></div>",null,word_square,response,0,none,true,,,
html-keyboard-response,232,543179,null,"BUG",null,word,,,,, 'BUG',,
html-keyboard-response,233,543678,496.77499989047647,"STAPLE<img id = ""stim"" ><div class = red_square id = ""topsquare"" ></div><img id = ""stim"" ><div class = red_square  id = ""bottomsquare"" ></div>",32,word_square,response,1,Space,true,,,
html-keyboard-response,234,545185,null,"STAPLE",null,word,,,,, 'STAPLE',,
html-keyboard-response,235,545692,null,"OFFICE<img id = ""stim"" ><div class = red_square id = ""topsquare"" ></div><img id = ""stim"" ><div class = red_square  id = ""bottomsquare"" ></div>",null,word_square,response,1,Space,false,,,
html-keyboard-response,236,547195,null,"OFFICE",null,word,,,,, 'OFFICE',,
html-keyboard-response,237,547702,null,"WARDROBE<img id = ""stim"" ><div class = green_square id = ""topsquare"" ></div><img id = ""stim"" ><div class = green_square  id = ""bottomsquare"" ></div>",null,word_square,response,0,none,true,,,
html-keyboard-response,238,549206,null,"WARDROBE",null,word,,,,, 'WARDROBE',,
html-keyboard-response,239,549713,null,"LAPEL<img id = ""stim"" ><div class = red_square id = ""topsquare"" ></div><img id = ""stim"" ><div class = red_square  id = ""bottomsquare"" ></div>",null,word_square,response,1,Space,false,,,
html-keyboard-response,240,551216,null,"LAPEL",null,word,,,,, 'LAPEL',,
html-keyboard-response,241,551719,null,"SLUG<img id = ""stim"" ><div class = green_square id = ""topsquare"" ></div><img id = ""stim"" ><div class = green_square  id = ""bottomsquare"" ></div>",null,word_square,response,0,none,true,,,
html-keyboard-response,242,553223,null,"SLUG",null,word,,,,, 'SLUG',,
html-keyboard-response,243,553729,null,"PEACH<img id = ""stim"" ><div class = red_square id = ""topsquare"" ></div><img id = ""stim"" ><div class = red_square  id = ""bottomsquare"" ></div>",null,word_square,response,1,Space,false,,,
html-keyboard-response,244,555232,null,"PEACH",null,word,,,,, 'PEACH',,
html-keyboard-response,245,555735,null,"KETCHUP<img id = ""stim"" ><div class = green_square id = ""topsquare"" ></div><img id = ""stim"" ><div class = green_square  id = ""bottomsquare"" ></div>",null,word_square,response,0,none,true,,,
html-keyboard-response,246,557239,null,"KETCHUP",null,word,,,,, 'KETCHUP',,
html-keyboard-response,247,557746,null,"HAMPER<img id = ""stim"" ><div class = green_square id = ""topsquare"" ></div><img id = ""stim"" ><div class = green_square  id = ""bottomsquare"" ></div>",null,word_square,response,0,none,true,,,
html-keyboard-response,248,559248,null,"HAMPER",null,word,,,,, 'HAMPER',,
html-keyboard-response,249,559738,488.5200001299381,"COCOON<img id = ""stim"" ><div class = red_square id = ""topsquare"" ></div><img id = ""stim"" ><div class = red_square  id = ""bottomsquare"" ></div>",32,word_square,response,1,Space,true,,,
html-keyboard-response,250,561244,null,"COCOON",null,word,,,,, 'COCOON',,
call-function,251,561246,,"",,,,,,,,,
html-keyboard-response,252,561351,null,"",null,,,,,,,,
math-period,253,563590,4377.084999810904,"",,,,,,,,,3
html-keyboard-response,254,563698,null,"",null,,,,,,,,
math-period,255,564527,1552.7349999174476,"",,,,,,,,,2
html-keyboard-response,256,564631,null,"",null,,,,,,,,
math-period,257,565838,2308.3499995991588,"",,,,,,,,,4
html-keyboard-response,258,565942,null,"",null,,,,,,,,
math-period,259,567577,5274.200000800192,"",,,,,,,,,2
html-keyboard-response,260,567681,null,"",null,,,,,,,,
math-period,261,569469,5508.1050004810095,"",,,,,,,,,2
html-keyboard-response,262,569572,null,"",null,,,,,,,,
math-period,263,570673,2111.0100001096725,"",,,,,,,,,4
html-keyboard-response,264,570780,null,"",null,,,,,,,,
math-period,265,571801,1957.2949996218085,"",,,,,,,,,5
html-keyboard-response,266,571906,null,"",null,,,,,,,,
math-period,267,573048,2197.145000100136,"",,,,,,,,,4
html-keyboard-response,268,573151,null,"",null,,,,,,,,
math-period,269,574673,2918.250000104308,"",,,,,,,,,3
html-keyboard-response,270,574777,null,"",null,,,,,,,,
math-period,271,576229,2717.630000319332,"",,,,,,,,,0
html-keyboard-response,272,576332,null,"",null,,,,,,,,
math-period,273,577861,2879.5050005428493,"",,,,,,,,,1
html-keyboard-response,274,577967,null,"",null,,,,,,,,
math-period,275,579196,2352.144999895245,"",,,,,,,,,3
html-keyboard-response,276,579302,null,"",null,,,,,,,,
math-period,277,580290,1881.3950004987419,"",,,,,,,,,4
html-keyboard-response,278,580397,null,"",null,,,,,,,,
math-period,279,581470,2018.3699997141957,"",,,,,,,,,3
html-keyboard-response,280,581575,null,"",null,,,,,,,,
math-period,281,583102,2881.525000091642,"",,,,,,,,,1
html-keyboard-response,282,583207,null,"",null,,,,,,,,
math-period,283,584132,1662.9549995996058,"",,,,,,,,,2
html-keyboard-response,284,584236,null,"",null,,,,,,,,
math-period,285,585250,null,"",,,,,,,,,
html-keyboard-response,286,586253,null,"Recall Period!",null,,,,,,,,
call-function,287,586254,,"",,,,,,,,,
html-keyboard-response,288,586359,null,"",null,,,,,,,,
recall-period,289,589204,17307.980000041425,"",,,,,,,,,cocoon
html-keyboard-response,290,589309,null,"",null,,,,,,,,
recall-period,291,590392,4928.825000766665,"",,,,,,,,,hamper
html-keyboard-response,292,590498,null,"",null,,,,,,,,
recall-period,293,594927,18310.330000706017,"",,,,,,,,,yolk
html-keyboard-response,294,595031,null,"",null,,,,,,,,
recall-period,295,596457,7751.539999619126,"",,,,,,,,,rooster
html-keyboard-response,296,596561,null,"",null,,,,,,,,
recall-period,297,625606,115097.3100005649,"",,,,,,,,,egg
html-keyboard-response,298,625710,null,"",null,,,,,,,,
recall-period,299,661257,null,"",,,,,,,,,
html-keyboard-response,300,661763,null,"Time's Up!",null,,,,,,,,
html-keyboard-response,301,675147,13380.965000018477,"<p> Uh oh. You responded correctly on 59% of the red squares.</p>
                  <p>We need you keep your accuracy above 80%</p>
                  <p>Press any key to continue the experiment. Thank you!</p>",32,,,,,,,,
html-keyboard-response,302,676175,1026.8100001849234,"<div style=""font-size:48px;"">Press any key to begin list 3 of 24 </div>",32,,,,,,,,
html-keyboard-response,303,678681,null,"<div style=""font-size:60px;"">+</div>",null,,,,,,,,
html-keyboard-response,304,679188,null,"ORGAN<img id = ""stim"" ><div class = red_square id = ""topsquare"" ></div><img id = ""stim"" ><div class = red_square  id = ""bottomsquare"" ></div>",null,word_square,response,1,Space,false,,,
html-keyboard-response,305,680691,null,"ORGAN",null,word,,,,, 'ORGAN',,
html-keyboard-response,306,681194,null,"ELK<img id = ""stim"" ><div class = green_square id = ""topsquare"" ></div><img id = ""stim"" ><div class = green_square  id = ""bottomsquare"" ></div>",null,word_square,response,0,none,true,,,
html-keyboard-response,307,682697,null,"ELK",null,word,,,,, 'ELK',,
html-keyboard-response,308,683204,null,"BEEF<img id = ""stim"" ><div class = green_square id = ""topsquare"" ></div><img id = ""stim"" ><div class = green_square  id = ""bottomsquare"" ></div>",null,word_square,response,0,none,true,,,
html-keyboard-response,309,684706,null,"BEEF",null,word,,,,, 'BEEF',,
html-keyboard-response,310,685209,null,"MOTEL<img id = ""stim"" ><div class = red_square id = ""topsquare"" ></div><img id = ""stim"" ><div class = red_square  id = ""bottomsquare"" ></div>",null,word_square,response,1,Space,false,,,
html-keyboard-response,311,686713,null,"MOTEL",null,word,,,,, 'MOTEL',,
html-keyboard-response,312,687189,473.82500022649765,"LODGE<img id = ""stim"" ><div class = red_square id = ""topsquare"" ></div><img id = ""stim"" ><div class = red_square  id = ""bottomsquare"" ></div>",32,word_square,response,1,Space,true,,,
html-keyboard-response,313,688692,null,"LODGE",null,word,,,,, 'LODGE',,
html-keyboard-response,314,689197,null,"TURKEY<img id = ""stim"" ><div class = green_square id = ""topsquare"" ></div><img id = ""stim"" ><div class = green_square  id = ""bottomsquare"" ></div>",null,word_square,response,0,none,true,,,
html-keyboard-response,315,690699,null,"TURKEY",null,word,,,,, 'TURKEY',,
html-keyboard-response,316,691204,null,"SKILLET<img id = ""stim"" ><div class = green_square id = ""topsquare"" ></div><img id = ""stim"" ><div class = green_square  id = ""bottomsquare"" ></div>",null,word_square,response,0,none,true,,,
html-keyboard-response,317,692708,null,"SKILLET",null,word,,,,, 'SKILLET',,
html-keyboard-response,318,693174,463.94999977201223,"FLESH<img id = ""stim"" ><div class = red_square id = ""topsquare"" ></div><img id = ""stim"" ><div class = red_square  id = ""bottomsquare"" ></div>",32,word_square,response,1,Space,true,,,
html-keyboard-response,319,694678,null,"FLESH",null,word,,,,, 'FLESH',,
html-keyboard-response,320,695100,419.6450002491474,"FLASK<img id = ""stim"" ><div class = red_square id = ""topsquare"" ></div><img id = ""stim"" ><div class = red_square  id = ""bottomsquare"" ></div>",32,word_square,response,1,Space,true,,,
html-keyboard-response,321,696607,null,"FLASK",null,word,,,,, 'FLASK',,
html-keyboard-response,322,697113,null,"FIELD<img id = ""stim"" ><div class = green_square id = ""topsquare"" ></div><img id = ""stim"" ><div class = green_square  id = ""bottomsquare"" ></div>",null,word_square,response,0,none,true,,,
html-keyboard-response,323,698617,null,"FIELD",null,word,,,,, 'FIELD',,
html-keyboard-response,324,699124,null,"PIGMENT<img id = ""stim"" ><div class = green_square id = ""topsquare"" ></div><img id = ""stim"" ><div class = green_square  id = ""bottomsquare"" ></div>",null,word_square,response,0,none,true,,,
html-keyboard-response,325,700627,null,"PIGMENT",null,word,,,,, 'PIGMENT',,
html-keyboard-response,326,701134,null,"TEACHER<img id = ""stim"" ><div class = red_square id = ""topsquare"" ></div><img id = ""stim"" ><div class = red_square  id = ""bottomsquare"" ></div>",null,word_square,response,1,Space,false,,,
html-keyboard-response,327,702639,null,"TEACHER",null,word,,,,, 'TEACHER',,
html-keyboard-response,328,703145,null,"COLLEGE<img id = ""stim"" ><div class = green_square id = ""topsquare"" ></div><img id = ""stim"" ><div class = green_square  id = ""bottomsquare"" ></div>",null,word_square,response,0,none,true,,,
html-keyboard-response,329,704649,null,"COLLEGE",null,word,,,,, 'COLLEGE',,
html-keyboard-response,330,705110,459.4999998807907,"SCOUT<img id = ""stim"" ><div class = red_square id = ""topsquare"" ></div><img id = ""stim"" ><div class = red_square  id = ""bottomsquare"" ></div>",32,word_square,response,1,Space,true,,,
html-keyboard-response,331,706612,null,"SCOUT",null,word,,,,, 'SCOUT',,
html-keyboard-response,332,707118,null,"GLACIER<img id = ""stim"" ><div class = green_square id = ""topsquare"" ></div><img id = ""stim"" ><div class = green_square  id = ""bottomsquare"" ></div>",null,word_square,response,0,none,true,,,
html-keyboard-response,333,708623,null,"GLACIER",null,word,,,,, 'GLACIER',,
html-keyboard-response,334,709129,null,"BOYFRIEND<img id = ""stim"" ><div class = red_square id = ""topsquare"" ></div><img id = ""stim"" ><div class = red_square  id = ""bottomsquare"" ></div>",null,word_square,response,1,Space,false,,,
html-keyboard-response,335,710633,null,"BOYFRIEND",null,word,,,,, 'BOYFRIEND',,
html-keyboard-response,336,711047,412.23999997600913,"TURTLE<img id = ""stim"" ><div class = red_square id = ""topsquare"" ></div><img id = ""stim"" ><div class = red_square  id = ""bottomsquare"" ></div>",32,word_square,response,1,Space,true,,,
html-keyboard-response,337,712554,null,"TURTLE",null,word,,,,, 'TURTLE',,
html-keyboard-response,338,713060,null,"WITNESS<img id = ""stim"" ><div class = green_square id = ""topsquare"" ></div><img id = ""stim"" ><div class = green_square  id = ""bottomsquare"" ></div>",null,word_square,response,0,none,true,,,
html-keyboard-response,339,714564,null,"WITNESS",null,word,,,,, 'WITNESS',,
call-function,340,714565,,"",,,,,,,,,
html-keyboard-response,341,714671,null,"",null,,,,,,,,
math-period,342,716125,2774.280000012368,"",,,,,,,,,3
html-keyboard-response,343,716229,null,"",null,,,,,,,,
math-period,344,717109,1649.8650000430644,"",,,,,,,,,4
html-keyboard-response,345,717215,null,"",null,,,,,,,,
math-period,346,718503,2253.5050003789365,"",,,,,,,,,2
html-keyboard-response,347,718606,null,"",null,,,,,,,,
math-period,348,719741,2171.375000383705,"",,,,,,,,,4
html-keyboard-response,349,719844,null,"",null,,,,,,,,
math-period,350,720669,1537.8799997270107,"",,,,,,,,,3
html-keyboard-response,351,720772,null,"",null,,,,,,,,
math-period,352,721634,1645.829999819398,"",,,,,,,,,4
html-keyboard-response,353,721738,null,"",null,,,,,,,,
math-period,354,722669,1778.1699998304248,"",,,,,,,,,5
html-keyboard-response,355,722772,null,"",null,,,,,,,,
math-period,356,724698,3719.349999912083,"",,,,,,,,,3
html-keyboard-response,357,724805,null,"",null,,,,,,,,
math-period,358,725719,1719.1199995577335,"",,,,,,,,,4
html-keyboard-response,359,725822,null,"",null,,,,,,,,
math-period,360,727662,3109.0950006619096,"",,,,,,,,,3
html-keyboard-response,361,727767,null,"",null,,,,,,,,
math-period,362,729300,2962.505000177771,"",,,,,,,,,1
html-keyboard-response,363,729407,null,"",null,,,,,,,,
math-period,364,730543,2160.8699997887015,"",,,,,,,,,1
html-keyboard-response,365,730650,null,"",null,,,,,,,,
math-period,366,733145,7443.564999848604,"",,,,,,,,,6
html-keyboard-response,367,733249,null,"",null,,,,,,,,
math-period,368,734539,2456.7399993538857,"",,,,,,,,,4
html-keyboard-response,369,734644,null,"",null,,,,,,,,
math-period,370,735608,1860.7700006105006,"",,,,,,,,,4
html-keyboard-response,371,735711,null,"",null,,,,,,,,
math-period,372,736728,1794.9899998493493,"",,,,,,,,,3
html-keyboard-response,373,736831,null,"",null,,,,,,,,
math-period,374,738153,2460.6300005689263,"",,,,,,,,,6
html-keyboard-response,375,738256,null,"",null,,,,,,,,
math-period,376,738570,null,"",,,,,,,,,
html-keyboard-response,377,739578,null,"Recall Period!",null,,,,,,,,
call-function,378,739579,,"",,,,,,,,,
html-keyboard-response,379,739684,null,"",null,,,,,,,,
recall-period,380,741157,8661.109998822212,"",,,,,,,,,teacher
html-keyboard-response,381,741259,null,"",null,,,,,,,,
recall-period,382,741921,1450.1800001598895,"",,,,,,,,,elk
html-keyboard-response,383,742026,null,"",null,,,,,,,,
recall-period,384,747338,45276.35000180453,"",,,,,,,,,boyfriend
html-keyboard-response,385,747445,null,"",null,,,,,,,,
recall-period,386,762710,89143.42000009492,"",,,,,,,,,motel
html-keyboard-response,387,762816,null,"",null,,,,,,,,
recall-period,388,814586,null,"",,,,,,,,,
html-keyboard-response,389,815089,null,"Time's Up!",null,,,,,,,,
html-keyboard-response,390,830495,15403.764999937266,"<p> Uh oh. You responded correctly on 64% of the red squares.</p>
                  <p>We need you keep your accuracy above 80%</p>
                  <p>Press any key to continue the experiment. Thank you!</p>",32,,,,,,,,
html-keyboard-response,391,831582,1084.8849997855723,"<div style=""font-size:48px;"">Press any key to begin list 4 of 24 </div>",32,,,,,,,,
html-keyboard-response,392,834091,null,"<div style=""font-size:60px;"">+</div>",null,,,,,,,,
html-keyboard-response,393,834569,475.7150001823902,"FRECKLE<img id = ""stim"" ><div class = red_square id = ""topsquare"" ></div><img id = ""stim"" ><div class = red_square  id = ""bottomsquare"" ></div>",32,word_square,response,1,Space,true,,,
html-keyboard-response,394,836076,null,"FRECKLE",null,word,,,,, 'FRECKLE',,
html-keyboard-response,395,836583,null,"CRYSTAL<img id = ""stim"" ><div class = green_square id = ""topsquare"" ></div><img id = ""stim"" ><div class = green_square  id = ""bottomsquare"" ></div>",null,word_square,response,0,none,true,,,
html-keyboard-response,396,838086,null,"CRYSTAL",null,word,,,,, 'CRYSTAL',,
html-keyboard-response,397,838593,null,"ARTIST<img id = ""stim"" ><div class = green_square id = ""topsquare"" ></div><img id = ""stim"" ><div class = green_square  id = ""bottomsquare"" ></div>",null,word_square,response,0,none,true,,,
html-keyboard-response,398,840097,null,"ARTIST",null,word,,,,, 'ARTIST',,
html-keyboard-response,399,840604,null,"CARTON<img id = ""stim"" ><div class = red_square id = ""topsquare"" ></div><img id = ""stim"" ><div class = red_square  id = ""bottomsquare"" ></div>",null,word_square,response,1,Space,false,,,
html-keyboard-response,400,842106,null,"CARTON",null,word,,,,, 'CARTON',,
html-keyboard-response,401,842566,457.5749998912215,"HANDBAG<img id = ""stim"" ><div class = red_square id = ""topsquare"" ></div><img id = ""stim"" ><div class = red_square  id = ""bottomsquare"" ></div>",32,word_square,response,1,Space,true,,,
html-keyboard-response,402,844070,null,"HANDBAG",null,word,,,,, 'HANDBAG',,
html-keyboard-response,403,844577,null,"SKUNK<img id = ""stim"" ><div class = green_square id = ""topsquare"" ></div><img id = ""stim"" ><div class = green_square  id = ""bottomsquare"" ></div>",null,word_square,response,0,none,true,,,
html-keyboard-response,404,846081,null,"SKUNK",null,word,,,,, 'SKUNK',,
html-keyboard-response,405,846588,null,"POWDER<img id = ""stim"" ><div class = green_square id = ""topsquare"" ></div><img id = ""stim"" ><div class = green_square  id = ""bottomsquare"" ></div>",null,word_square,response,0,none,true,,,
html-keyboard-response,406,848092,null,"POWDER",null,word,,,,, 'POWDER',,
html-keyboard-response,407,848575,480.2399999462068,"ELBOW<img id = ""stim"" ><div class = red_square id = ""topsquare"" ></div><img id = ""stim"" ><div class = red_square  id = ""bottomsquare"" ></div>",32,word_square,response,1,Space,true,,,
html-keyboard-response,408,850081,null,"ELBOW",null,word,,,,, 'ELBOW',,
html-keyboard-response,409,850522,438.6450001038611,"MARROW<img id = ""stim"" ><div class = red_square id = ""topsquare"" ></div><img id = ""stim"" ><div class = red_square  id = ""bottomsquare"" ></div>",32,word_square,response,1,Space,true,,,
html-keyboard-response,410,852028,null,"MARROW",null,word,,,,, 'MARROW',,
html-keyboard-response,411,852535,null,"MEAT<img id = ""stim"" ><div class = green_square id = ""topsquare"" ></div><img id = ""stim"" ><div class = green_square  id = ""bottomsquare"" ></div>",null,word_square,response,0,none,true,,,
html-keyboard-response,412,854041,null,"MEAT",null,word,,,,, 'MEAT',,
html-keyboard-response,413,854546,null,"BINDER<img id = ""stim"" ><div class = green_square id = ""topsquare"" ></div><img id = ""stim"" ><div class = green_square  id = ""bottomsquare"" ></div>",null,word_square,response,0,none,true,,,
html-keyboard-response,414,856049,null,"BINDER",null,word,,,,, 'BINDER',,
html-keyboard-response,415,856556,null,"PORPOISE<img id = ""stim"" ><div class = red_square id = ""topsquare"" ></div><img id = ""stim"" ><div class = red_square  id = ""bottomsquare"" ></div>",null,word_square,response,1,Space,false,,,
html-keyboard-response,416,858060,null,"PORPOISE",null,word,,,,, 'PORPOISE',,
html-keyboard-response,417,858567,null,"ANKLE<img id = ""stim"" ><div class = green_square id = ""topsquare"" ></div><img id = ""stim"" ><div class = green_square  id = ""bottomsquare"" ></div>",null,word_square,response,0,none,true,,,
html-keyboard-response,418,860071,null,"ANKLE",null,word,,,,, 'ANKLE',,
html-keyboard-response,419,860578,null,"DOCTOR<img id = ""stim"" ><div class = red_square id = ""topsquare"" ></div><img id = ""stim"" ><div class = red_square  id = ""bottomsquare"" ></div>",null,word_square,response,1,Space,false,,,
html-keyboard-response,420,862081,null,"DOCTOR",null,word,,,,, 'DOCTOR',,
html-keyboard-response,421,862588,null,"MAMMAL<img id = ""stim"" ><div class = green_square id = ""topsquare"" ></div><img id = ""stim"" ><div class = green_square  id = ""bottomsquare"" ></div>",null,word_square,response,0,none,true,,,
html-keyboard-response,422,864092,null,"MAMMAL",null,word,,,,, 'MAMMAL',,
html-keyboard-response,423,864529,434.66000026091933,"POSSUM<img id = ""stim"" ><div class = red_square id = ""topsquare"" ></div><img id = ""stim"" ><div class = red_square  id = ""bottomsquare"" ></div>",32,word_square,response,1,Space,true,,,
html-keyboard-response,424,866034,null,"POSSUM",null,word,,,,, 'POSSUM',,
html-keyboard-response,425,866540,null,"CAPE<img id = ""stim"" ><div class = red_square id = ""topsquare"" ></div><img id = ""stim"" ><div class = red_square  id = ""bottomsquare"" ></div>",null,word_square,response,1,Space,false,,,
html-keyboard-response,426,868044,null,"CAPE",null,word,,,,, 'CAPE',,
html-keyboard-response,427,868546,null,"BUTCHER<img id = ""stim"" ><div class = green_square id = ""topsquare"" ></div><img id = ""stim"" ><div class = green_square  id = ""bottomsquare"" ></div>",null,word_square,response,0,none,true,,,
html-keyboard-response,428,870050,null,"BUTCHER",null,word,,,,, 'BUTCHER',,
call-function,429,870052,,"",,,,,,,,,
html-keyboard-response,430,870156,null,"",null,,,,,,,,
math-period,431,871761,2948.2149998657405,"",,,,,,,,,2
html-keyboard-response,432,871864,null,"",null,,,,,,,,
math-period,433,873003,2173.789999447763,"",,,,,,,,,5
html-keyboard-response,434,873107,null,"",null,,,,,,,,
math-period,435,874753,3179.660000372678,"",,,,,,,,,3
html-keyboard-response,436,874860,null,"",null,,,,,,,,
math-period,437,875842,1879.7849994152784,"",,,,,,,,,4
html-keyboard-response,438,875948,null,"",null,,,,,,,,
math-period,439,876954,1923.9299995824695,"",,,,,,,,,3
html-keyboard-response,440,877057,null,"",null,,,,,,,,
math-period,441,878309,2279.3199997395277,"",,,,,,,,,1
html-keyboard-response,442,878412,null,"",null,,,,,,,,
math-period,443,880907,8775.78999986872,"",,,,,,,,,2
html-keyboard-response,444,881010,null,"",null,,,,,,,,
math-period,445,881986,1889.8750003427267,"",,,,,,,,,4
html-keyboard-response,446,882093,null,"",null,,,,,,,,
math-period,447,883470,2306.9799998775125,"",,,,,,,,,1
html-keyboard-response,448,883575,null,"",null,,,,,,,,
math-period,449,884711,2179.8849999904633,"",,,,,,,,,4
html-keyboard-response,450,884818,null,"",null,,,,,,,,
math-period,451,886485,3237.5550004653633,"",,,,,,,,,2
html-keyboard-response,452,886589,null,"",null,,,,,,,,
math-period,453,887785,2279.794999398291,"",,,,,,,,,5
html-keyboard-response,454,887889,null,"",null,,,,,,,,
math-period,455,889081,2283.3999996073544,"",,,,,,,,,1
html-keyboard-response,456,889185,null,"",null,,,,,,,,
math-period,457,890929,3396.2949998676777,"",,,,,,,,,3
html-keyboard-response,458,891033,null,"",null,,,,,,,,
math-period,459,892420,2607.2999997995794,"",,,,,,,,,2
html-keyboard-response,460,892525,null,"",null,,,,,,,,
math-period,461,893651,2126.0949997231364,"",,,,,,,,,1
html-keyboard-response,462,893757,null,"",null,,,,,,,,
math-period,463,894056,null,"",,,,,,,,,
html-keyboard-response,464,895062,null,"Recall Period!",null,,,,,,,,
call-function,465,895063,,"",,,,,,,,,
html-keyboard-response,466,895170,null,"",null,,,,,,,,
recall-period,467,896818,7371.88999960199,"",,,,,,,,,mammal
html-keyboard-response,468,896925,null,"",null,,,,,,,,
recall-period,469,898352,4682.674999348819,"",,,,,,,,,possom 
html-keyboard-response,470,898457,null,"",null,,,,,,,,
recall-period,471,899500,3181.2150003388524,"",,,,,,,,,cake
html-keyboard-response,472,899604,null,"",null,,,,,,,,
recall-period,473,901294,7495.119999628514,"",,,,,,,,,cape
html-keyboard-response,474,901400,null,"",null,,,,,,,,
recall-period,475,904593,21209.11500090733,"",,,,,,,,,butcher
html-keyboard-response,476,904697,null,"",null,,,,,,,,
recall-period,477,970068,null,"",,,,,,,,,
html-keyboard-response,478,970574,null,"Time's Up!",null,,,,,,,,
html-keyboard-response,479,978200,7623.4399997629225,"<p> Uh oh. You responded correctly on 67% of the red squares.</p>
                  <p>We need you keep your accuracy above 80%</p>
                  <p>Press any key to continue the experiment. Thank you!</p>",32,,,,,,,,
html-keyboard-response,480,981458,3255.920000374317,"<div style=""font-size:48px;"">Press any key to begin list 5 of 24 </div>",32,,,,,,,,
html-keyboard-response,481,983966,null,"<div style=""font-size:60px;"">+</div>",null,,,,,,,,
html-keyboard-response,482,984473,null,"UNCLE<img id = ""stim"" ><div class = green_square id = ""topsquare"" ></div><img id = ""stim"" ><div class = green_square  id = ""bottomsquare"" ></div>",null,word_square,response,0,none,true,,,
html-keyboard-response,483,985976,null,"UNCLE",null,word,,,,, 'UNCLE',,
html-keyboard-response,484,986435,457.28000020608306,"TUBA<img id = ""stim"" ><div class = red_square id = ""topsquare"" ></div><img id = ""stim"" ><div class = red_square  id = ""bottomsquare"" ></div>",32,word_square,response,1,Space,true,,,
html-keyboard-response,485,987940,null,"TUBA",null,word,,,,, 'TUBA',,
html-keyboard-response,486,988442,499.1549998521805,"SHEARS<img id = ""stim"" ><div class = red_square id = ""topsquare"" ></div><img id = ""stim"" ><div class = red_square  id = ""bottomsquare"" ></div>",32,word_square,response,1,Space,true,,,
html-keyboard-response,487,989945,null,"SHEARS",null,word,,,,, 'SHEARS',,
html-keyboard-response,488,990452,null,"BACON<img id = ""stim"" ><div class = red_square id = ""topsquare"" ></div><img id = ""stim"" ><div class = red_square  id = ""bottomsquare"" ></div>",null,word_square,response,1,Space,false,,,
html-keyboard-response,489,991956,null,"BACON",null,word,,,,, 'BACON',,
html-keyboard-response,490,992463,null,"CIGAR<img id = ""stim"" ><div class = green_square id = ""topsquare"" ></div><img id = ""stim"" ><div class = green_square  id = ""bottomsquare"" ></div>",null,word_square,response,0,none,true,,,
html-keyboard-response,491,993968,null,"CIGAR",null,word,,,,, 'CIGAR',,
html-keyboard-response,492,994473,null,"TOOTHBRUSH<img id = ""stim"" ><div class = green_square id = ""topsquare"" ></div><img id = ""stim"" ><div class = green_square  id = ""bottomsquare"" ></div>",null,word_square,response,0,none,true,,,
html-keyboard-response,493,995977,null,"TOOTHBRUSH",null,word,,,,, 'TOOTHBRUSH',,
html-keyboard-response,494,996465,484.72000006586313,"RAILROAD<img id = ""stim"" ><div class = red_square id = ""topsquare"" ></div><img id = ""stim"" ><div class = red_square  id = ""bottomsquare"" ></div>",32,word_square,response,1,Space,true,,,
html-keyboard-response,495,997967,null,"RAILROAD",null,word,,,,, 'RAILROAD',,
html-keyboard-response,496,998474,null,"FARMER<img id = ""stim"" ><div class = red_square id = ""topsquare"" ></div><img id = ""stim"" ><div class = red_square  id = ""bottomsquare"" ></div>",null,word_square,response,1,Space,false,,,
html-keyboard-response,497,999978,null,"FARMER",null,word,,,,, 'FARMER',,
html-keyboard-response,498,1000484,null,"RUST<img id = ""stim"" ><div class = green_square id = ""topsquare"" ></div><img id = ""stim"" ><div class = green_square  id = ""bottomsquare"" ></div>",null,word_square,response,0,none,true,,,
html-keyboard-response,499,1001987,null,"RUST",null,word,,,,, 'RUST',,
html-keyboard-response,500,1002461,471.3850002735853,"FRUIT<img id = ""stim"" ><div class = red_square id = ""topsquare"" ></div><img id = ""stim"" ><div class = red_square  id = ""bottomsquare"" ></div>",32,word_square,response,1,Space,true,,,
html-keyboard-response,501,1003967,null,"FRUIT",null,word,,,,, 'FRUIT',,
html-keyboard-response,502,1004474,null,"SICKLE<img id = ""stim"" ><div class = green_square id = ""topsquare"" ></div><img id = ""stim"" ><div class = green_square  id = ""bottomsquare"" ></div>",null,word_square,response,0,none,true,,,
html-keyboard-response,503,1005978,null,"SICKLE",null,word,,,,, 'SICKLE',,
html-keyboard-response,504,1006484,null,"CABLE<img id = ""stim"" ><div class = green_square id = ""topsquare"" ></div><img id = ""stim"" ><div class = green_square  id = ""bottomsquare"" ></div>",null,word_square,response,0,none,true,,,
html-keyboard-response,505,1007988,null,"CABLE",null,word,,,,, 'CABLE',,
html-keyboard-response,506,1008495,null,"BISON<img id = ""stim"" ><div class = red_square id = ""topsquare"" ></div><img id = ""stim"" ><div class = red_square  id = ""bottomsquare"" ></div>",null,word_square,response,1,Space,false,,,
html-keyboard-response,507,1009999,null,"BISON",null,word,,,,, 'BISON',,
html-keyboard-response,508,1010505,null,"CHISEL<img id = ""stim"" ><div class = green_square id = ""topsquare"" ></div><img id = ""stim"" ><div class = green_square  id = ""bottomsquare"" ></div>",null,word_square,response,0,none,true,,,
html-keyboard-response,509,1012010,null,"CHISEL",null,word,,,,, 'CHISEL',,
html-keyboard-response,510,1012516,null,"SOLDIER<img id = ""stim"" ><div class = green_square id = ""topsquare"" ></div><img id = ""stim"" ><div class = green_square  id = ""bottomsquare"" ></div>",null,word_square,response,0,none,true,,,
html-keyboard-response,511,1014020,null,"SOLDIER",null,word,,,,, 'SOLDIER',,
html-keyboard-response,512,1014476,453.3850001171231,"CONSOLE<img id = ""stim"" ><div class = red_square id = ""topsquare"" ></div><img id = ""stim"" ><div class = red_square  id = ""bottomsquare"" ></div>",32,word_square,response,1,Space,true,,,
html-keyboard-response,513,1015983,null,"CONSOLE",null,word,,,,, 'CONSOLE',,
html-keyboard-response,514,1016490,null,"LEOPARD<img id = ""stim"" ><div class = green_square id = ""topsquare"" ></div><img id = ""stim"" ><div class = green_square  id = ""bottomsquare"" ></div>",null,word_square,response,0,none,true,,,
html-keyboard-response,515,1017994,null,"LEOPARD",null,word,,,,, 'LEOPARD',,
html-keyboard-response,516,1018406,409.5000000670552,"TABLET<img id = ""stim"" ><div class = red_square id = ""topsquare"" ></div><img id = ""stim"" ><div class = red_square  id = ""bottomsquare"" ></div>",32,word_square,response,1,Space,true,,,
html-keyboard-response,517,1019909,null,"TABLET",null,word,,,,, 'TABLET',,
call-function,518,1019910,,"",,,,,,,,,
html-keyboard-response,519,1020015,null,"",null,,,,,,,,
math-period,520,1021839,3504.0699997916818,"",,,,,,,,,1
html-keyboard-response,521,1021943,null,"",null,,,,,,,,
math-period,522,1022953,1951.8099995329976,"",,,,,,,,,5
html-keyboard-response,523,1023061,null,"",null,,,,,,,,
math-period,524,1024057,1862.179999705404,"",,,,,,,,,1
html-keyboard-response,525,1024160,null,"",null,,,,,,,,
math-period,526,1025465,2511.034999974072,"",,,,,,,,,1
html-keyboard-response,527,1025570,null,"",null,,,,,,,,
math-period,528,1026489,1739.5650004036725,"",,,,,,,,,3
html-keyboard-response,529,1026592,null,"",null,,,,,,,,
math-period,530,1027621,1993.6800003051758,"",,,,,,,,,4
html-keyboard-response,531,1027727,null,"",null,,,,,,,,
math-period,532,1028699,1853.220000397414,"",,,,,,,,,3
html-keyboard-response,533,1028804,null,"",null,,,,,,,,
math-period,534,1030106,2514.369999524206,"",,,,,,,,,2
html-keyboard-response,535,1030213,null,"",null,,,,,,,,
math-period,536,1032320,4126.639999914914,"",,,,,,,,,5
html-keyboard-response,537,1032426,null,"",null,,,,,,,,
math-period,538,1033337,1714.6199997514486,"",,,,,,,,,3
html-keyboard-response,539,1033441,null,"",null,,,,,,,,
math-period,540,1034609,2240.0899999774992,"",,,,,,,,,2
html-keyboard-response,541,1034714,null,"",null,,,,,,,,
math-period,542,1036197,2659.1050000861287,"",,,,,,,,,3
html-keyboard-response,543,1036304,null,"",null,,,,,,,,
math-period,544,1037268,1847.6300002075732,"",,,,,,,,,3
html-keyboard-response,545,1037373,null,"",null,,,,,,,,
math-period,546,1038570,2305.4949999786913,"",,,,,,,,,4
html-keyboard-response,547,1038677,null,"",null,,,,,,,,
math-period,548,1040330,3187.8500003367662,"",,,,,,,,,3
html-keyboard-response,549,1040437,null,"",null,,,,,,,,
math-period,550,1041322,1674.5700002647936,"",,,,,,,,,3
html-keyboard-response,551,1041429,null,"",null,,,,,,,,
math-period,552,1043291,3666.7200000956655,"",,,,,,,,,1
html-keyboard-response,553,1043397,null,"",null,,,,,,,,
math-period,554,1043914,null,"",,,,,,,,,
html-keyboard-response,555,1044917,null,"Recall Period!",null,,,,,,,,
call-function,556,1044919,,"",,,,,,,,,
html-keyboard-response,557,1045023,null,"",null,,,,,,,,
recall-period,558,1046226,4628.420000895858,"",,,,,,,,,tuba
html-keyboard-response,559,1046330,null,"",null,,,,,,,,
recall-period,560,1047178,3127.469998318702,"",,,,,,,,,shears
html-keyboard-response,561,1047285,null,"",null,,,,,,,,
recall-period,562,1048056,2754.309999756515,"",,,,,,,,,bacon
html-keyboard-response,563,1048160,null,"",null,,,,,,,,
recall-period,564,1049689,9426.174997352064,"",,,,,,,,,railroad
html-keyboard-response,565,1049795,null,"",null,,,,,,,,
recall-period,566,1052187,15259.590000845492,"",,,,,,,,,console
html-keyboard-response,567,1052293,null,"",null,,,,,,,,
recall-period,568,1119925,null,"",,,,,,,,,
html-keyboard-response,569,1120433,null,"Time's Up!",null,,,,,,,,
html-keyboard-response,570,1140882,20445.96500042826,"<p> Uh oh. You responded correctly on 69% of the red squares.</p>
                  <p>We need you keep your accuracy above 80%</p>
                  <p>Press any key to continue the experiment. Thank you!</p>",32,,,,,,,,
html-keyboard-response,571,1145847,4963.820000179112,"<div style=""font-size:48px;"">Press any key to begin list 6 of 24 </div>",32,,,,,,,,
html-keyboard-response,572,1148354,null,"<div style=""font-size:60px;"">+</div>",null,,,,,,,,
html-keyboard-response,573,1148860,null,"AGENT<img id = ""stim"" ><div class = green_square id = ""topsquare"" ></div><img id = ""stim"" ><div class = green_square  id = ""bottomsquare"" ></div>",null,word_square,response,0,none,true,,,
html-keyboard-response,574,1150363,null,"AGENT",null,word,,,,, 'AGENT',,
html-keyboard-response,575,1150813,447.734999936074,"STREAM<img id = ""stim"" ><div class = red_square id = ""topsquare"" ></div><img id = ""stim"" ><div class = red_square  id = ""bottomsquare"" ></div>",32,word_square,response,1,Space,true,,,
html-keyboard-response,576,1152316,null,"STREAM",null,word,,,,, 'STREAM',,
html-keyboard-response,577,1152822,null,"ISLAND<img id = ""stim"" ><div class = red_square id = ""topsquare"" ></div><img id = ""stim"" ><div class = red_square  id = ""bottomsquare"" ></div>",null,word_square,response,1,Space,false,,,
html-keyboard-response,578,1154327,null,"ISLAND",null,word,,,,, 'ISLAND',,
html-keyboard-response,579,1154833,null,"CANVAS<img id = ""stim"" ><div class = red_square id = ""topsquare"" ></div><img id = ""stim"" ><div class = red_square  id = ""bottomsquare"" ></div>",null,word_square,response,1,Space,false,,,
html-keyboard-response,580,1156337,null,"CANVAS",null,word,,,,, 'CANVAS',,
html-keyboard-response,581,1156844,null,"COFFIN<img id = ""stim"" ><div class = green_square id = ""topsquare"" ></div><img id = ""stim"" ><div class = green_square  id = ""bottomsquare"" ></div>",null,word_square,response,0,none,true,,,
html-keyboard-response,582,1158348,null,"COFFIN",null,word,,,,, 'COFFIN',,
html-keyboard-response,583,1158855,null,"TORCH<img id = ""stim"" ><div class = green_square id = ""topsquare"" ></div><img id = ""stim"" ><div class = green_square  id = ""bottomsquare"" ></div>",null,word_square,response,0,none,true,,,
html-keyboard-response,584,1160359,null,"TORCH",null,word,,,,, 'TORCH',,
html-keyboard-response,585,1160858,497.2550002858043,"PARSLEY<img id = ""stim"" ><div class = red_square id = ""topsquare"" ></div><img id = ""stim"" ><div class = red_square  id = ""bottomsquare"" ></div>",32,word_square,response,1,Space,true,,,
html-keyboard-response,586,1162364,null,"PARSLEY",null,word,,,,, 'PARSLEY',,
html-keyboard-response,587,1162871,null,"MILDEW<img id = ""stim"" ><div class = red_square id = ""topsquare"" ></div><img id = ""stim"" ><div class = red_square  id = ""bottomsquare"" ></div>",null,word_square,response,1,Space,false,,,
html-keyboard-response,588,1164375,null,"MILDEW",null,word,,,,, 'MILDEW',,
html-keyboard-response,589,1164882,null,"BRIDGE<img id = ""stim"" ><div class = green_square id = ""topsquare"" ></div><img id = ""stim"" ><div class = green_square  id = ""bottomsquare"" ></div>",null,word_square,response,0,none,true,,,
html-keyboard-response,590,1166386,null,"BRIDGE",null,word,,,,, 'BRIDGE',,
html-keyboard-response,591,1166827,438.7049996294081,"COIN<img id = ""stim"" ><div class = red_square id = ""topsquare"" ></div><img id = ""stim"" ><div class = red_square  id = ""bottomsquare"" ></div>",32,word_square,response,1,Space,true,,,
html-keyboard-response,592,1168333,null,"COIN",null,word,,,,, 'COIN',,
html-keyboard-response,593,1168840,null,"NEPTUNE<img id = ""stim"" ><div class = green_square id = ""topsquare"" ></div><img id = ""stim"" ><div class = green_square  id = ""bottomsquare"" ></div>",null,word_square,response,0,none,true,,,
html-keyboard-response,594,1170343,null,"NEPTUNE",null,word,,,,, 'NEPTUNE',,
html-keyboard-response,595,1170850,null,"CRUTCH<img id = ""stim"" ><div class = green_square id = ""topsquare"" ></div><img id = ""stim"" ><div class = green_square  id = ""bottomsquare"" ></div>",null,word_square,response,0,none,true,,,
html-keyboard-response,596,1172354,null,"CRUTCH",null,word,,,,, 'CRUTCH',,
html-keyboard-response,597,1172861,null,"SUSPECT<img id = ""stim"" ><div class = red_square id = ""topsquare"" ></div><img id = ""stim"" ><div class = red_square  id = ""bottomsquare"" ></div>",null,word_square,response,1,Space,false,,,
html-keyboard-response,598,1174365,null,"SUSPECT",null,word,,,,, 'SUSPECT',,
html-keyboard-response,599,1174871,null,"RAFT<img id = ""stim"" ><div class = green_square id = ""topsquare"" ></div><img id = ""stim"" ><div class = green_square  id = ""bottomsquare"" ></div>",null,word_square,response,0,none,true,,,
html-keyboard-response,600,1176375,null,"RAFT",null,word,,,,, 'RAFT',,
html-keyboard-response,601,1176882,null,"FUNGUS<img id = ""stim"" ><div class = green_square id = ""topsquare"" ></div><img id = ""stim"" ><div class = green_square  id = ""bottomsquare"" ></div>",null,word_square,response,0,none,true,,,
html-keyboard-response,602,1178386,null,"FUNGUS",null,word,,,,, 'FUNGUS',,
html-keyboard-response,603,1178854,466.1550000309944,"NEPHEW<img id = ""stim"" ><div class = red_square id = ""topsquare"" ></div><img id = ""stim"" ><div class = red_square  id = ""bottomsquare"" ></div>",32,word_square,response,1,Space,true,,,
html-keyboard-response,604,1180359,null,"NEPHEW",null,word,,,,, 'NEPHEW',,
html-keyboard-response,605,1180866,null,"SNEAKER<img id = ""stim"" ><div class = green_square id = ""topsquare"" ></div><img id = ""stim"" ><div class = green_square  id = ""bottomsquare"" ></div>",null,word_square,response,0,none,true,,,
html-keyboard-response,606,1182370,null,"SNEAKER",null,word,,,,, 'SNEAKER',,
html-keyboard-response,607,1182877,null,"SLIME<img id = ""stim"" ><div class = red_square id = ""topsquare"" ></div><img id = ""stim"" ><div class = red_square  id = ""bottomsquare"" ></div>",null,word_square,response,1,Space,false,,,
html-keyboard-response,608,1184381,null,"SLIME",null,word,,,,, 'SLIME',,
call-function,609,1184383,,"",,,,,,,,,
html-keyboard-response,610,1184488,null,"",null,,,,,,,,
math-period,611,1186202,3341.5300003252923,"",,,,,,,,,4
html-keyboard-response,612,1186306,null,"",null,,,,,,,,
math-period,613,1187524,2356.9249995052814,"",,,,,,,,,4
html-keyboard-response,614,1187629,null,"",null,,,,,,,,
math-period,615,1188702,2041.1050003021955,"",,,,,,,,,1
html-keyboard-response,616,1188808,null,"",null,,,,,,,,
math-period,617,1190245,2803.834999445826,"",,,,,,,,,2
html-keyboard-response,618,1190352,null,"",null,,,,,,,,
math-period,619,1191574,2338.7700002640486,"",,,,,,,,,6
html-keyboard-response,620,1191679,null,"",null,,,,,,,,
math-period,621,1192898,2335.460000205785,"",,,,,,,,,1
html-keyboard-response,622,1193002,null,"",null,,,,,,,,
math-period,623,1194767,3308.869999833405,"",,,,,,,,,0
html-keyboard-response,624,1194871,null,"",null,,,,,,,,
math-period,625,1195753,1598.9749999716878,"",,,,,,,,,2
html-keyboard-response,626,1195858,null,"",null,,,,,,,,
math-period,627,1197391,2827.409999910742,"",,,,,,,,,0
html-keyboard-response,628,1197496,null,"",null,,,,,,,,
math-period,629,1198876,2540.980000514537,"",,,,,,,,,0
html-keyboard-response,630,1198984,null,"",null,,,,,,,,
math-period,631,1200367,2687.275000382215,"",,,,,,,,,2
html-keyboard-response,632,1200471,null,"",null,,,,,,,,
math-period,633,1203075,4966.665000189096,"",,,,,,,,,2
html-keyboard-response,634,1203181,null,"",null,,,,,,,,
math-period,635,1205318,4137.920000124723,"",,,,,,,,,2
html-keyboard-response,636,1205422,null,"",null,,,,,,,,
math-period,637,1206469,1936.0900004394352,"",,,,,,,,,2
html-keyboard-response,638,1206576,null,"",null,,,,,,,,
math-period,639,1208004,2684.739999473095,"",,,,,,,,,0
html-keyboard-response,640,1208109,null,"",null,,,,,,,,
math-period,641,1208387,null,"",,,,,,,,,
html-keyboard-response,642,1209395,null,"Recall Period!",null,,,,,,,,
call-function,643,1209396,,"",,,,,,,,,
html-keyboard-response,644,1209501,null,"",null,,,,,,,,
recall-period,645,1211153,7175.010000821203,"",,,,,,,,,stream
html-keyboard-response,646,1211256,null,"",null,,,,,,,,
recall-period,647,1213063,8609.164997935295,"",,,,,,,,,island
html-keyboard-response,648,1213165,null,"",null,,,,,,,,
recall-period,649,1214344,4282.499998807907,"",,,,,,,,,canvas
html-keyboard-response,650,1214451,null,"",null,,,,,,,,
recall-period,651,1224445,58440.579999703914,"",,,,,,,,,fungus
html-keyboard-response,652,1224549,null,"",null,,,,,,,,
recall-period,653,1284399,null,"",,,,,,,,,
html-keyboard-response,654,1284905,null,"Time's Up!",null,,,,,,,,
html-keyboard-response,655,1290898,5990.685000084341,"<p> Uh oh. You responded correctly on 70% of the red squares.</p>
                  <p>We need you keep your accuracy above 80%</p>
                  <p>Press any key to continue the experiment. Thank you!</p>",32,,,,,,,,
html-keyboard-response,656,1297388,6487.970000132918,"<div style=""font-size:48px;"">Press any key to begin list 7 of 24 </div>",32,,,,,,,,
html-keyboard-response,657,1299897,null,"<div style=""font-size:60px;"">+</div>",null,,,,,,,,
html-keyboard-response,658,1300404,null,"PIRATE<img id = ""stim"" ><div class = red_square id = ""topsquare"" ></div><img id = ""stim"" ><div class = red_square  id = ""bottomsquare"" ></div>",null,word_square,response,1,Space,false,,,
html-keyboard-response,659,1301907,null,"PIRATE",null,word,,,,, 'PIRATE',,
html-keyboard-response,660,1302415,null,"GIFT<img id = ""stim"" ><div class = green_square id = ""topsquare"" ></div><img id = ""stim"" ><div class = green_square  id = ""bottomsquare"" ></div>",null,word_square,response,0,none,true,,,
html-keyboard-response,661,1303918,null,"GIFT",null,word,,,,, 'GIFT',,
html-keyboard-response,662,1304420,null,"PASTRY<img id = ""stim"" ><div class = green_square id = ""topsquare"" ></div><img id = ""stim"" ><div class = green_square  id = ""bottomsquare"" ></div>",null,word_square,response,0,none,true,,,
html-keyboard-response,663,1305924,null,"PASTRY",null,word,,,,, 'PASTRY',,
html-keyboard-response,664,1306431,null,"MOTOR<img id = ""stim"" ><div class = green_square id = ""topsquare"" ></div><img id = ""stim"" ><div class = green_square  id = ""bottomsquare"" ></div>",null,word_square,response,0,none,true,,,
html-keyboard-response,665,1307933,null,"MOTOR",null,word,,,,, 'MOTOR',,
html-keyboard-response,666,1308365,430.2700003609061,"DRIVER<img id = ""stim"" ><div class = red_square id = ""topsquare"" ></div><img id = ""stim"" ><div class = red_square  id = ""bottomsquare"" ></div>",32,word_square,response,1,Space,true,,,
html-keyboard-response,667,1309870,null,"DRIVER",null,word,,,,, 'DRIVER',,
html-keyboard-response,668,1310374,null,"LIVER<img id = ""stim"" ><div class = red_square id = ""topsquare"" ></div><img id = ""stim"" ><div class = red_square  id = ""bottomsquare"" ></div>",null,word_square,response,1,Space,false,,,
html-keyboard-response,669,1311876,null,"LIVER",null,word,,,,, 'LIVER',,
html-keyboard-response,670,1312383,null,"CAFE<img id = ""stim"" ><div class = green_square id = ""topsquare"" ></div><img id = ""stim"" ><div class = green_square  id = ""bottomsquare"" ></div>",null,word_square,response,0,none,true,,,
html-keyboard-response,671,1313887,null,"CAFE",null,word,,,,, 'CAFE',,
html-keyboard-response,672,1314394,null,"MEDAL<img id = ""stim"" ><div class = green_square id = ""topsquare"" ></div><img id = ""stim"" ><div class = green_square  id = ""bottomsquare"" ></div>",null,word_square,response,0,none,true,,,
html-keyboard-response,673,1315898,null,"MEDAL",null,word,,,,, 'MEDAL',,
html-keyboard-response,674,1316334,433.62500006332994,"BRANCH<img id = ""stim"" ><div class = red_square id = ""topsquare"" ></div><img id = ""stim"" ><div class = red_square  id = ""bottomsquare"" ></div>",32,word_square,response,1,Space,true,,,
html-keyboard-response,675,1317839,null,"BRANCH",null,word,,,,, 'BRANCH',,
html-keyboard-response,676,1318346,null,"DOUGHNUT<img id = ""stim"" ><div class = green_square id = ""topsquare"" ></div><img id = ""stim"" ><div class = green_square  id = ""bottomsquare"" ></div>",null,word_square,response,0,none,true,,,
html-keyboard-response,677,1319850,null,"DOUGHNUT",null,word,,,,, 'DOUGHNUT',,
html-keyboard-response,678,1320278,426.8800001591444,"SQUIRREL<img id = ""stim"" ><div class = red_square id = ""topsquare"" ></div><img id = ""stim"" ><div class = red_square  id = ""bottomsquare"" ></div>",32,word_square,response,1,Space,true,,,
html-keyboard-response,679,1321781,null,"SQUIRREL",null,word,,,,, 'SQUIRREL',,
html-keyboard-response,680,1322287,null,"HEDGE<img id = ""stim"" ><div class = red_square id = ""topsquare"" ></div><img id = ""stim"" ><div class = red_square  id = ""bottomsquare"" ></div>",null,word_square,response,1,Space,false,,,
html-keyboard-response,681,1323791,null,"HEDGE",null,word,,,,, 'HEDGE',,
html-keyboard-response,682,1324298,null,"PADDING<img id = ""stim"" ><div class = green_square id = ""topsquare"" ></div><img id = ""stim"" ><div class = green_square  id = ""bottomsquare"" ></div>",null,word_square,response,0,none,true,,,
html-keyboard-response,683,1325802,null,"PADDING",null,word,,,,, 'PADDING',,
html-keyboard-response,684,1326305,null,"CHECKERS<img id = ""stim"" ><div class = red_square id = ""topsquare"" ></div><img id = ""stim"" ><div class = red_square  id = ""bottomsquare"" ></div>",null,word_square,response,1,Space,false,,,
html-keyboard-response,685,1327808,null,"CHECKERS",null,word,,,,, 'CHECKERS',,
html-keyboard-response,686,1328311,501.04999961331487,"HERO<img id = ""stim"" ><div class = red_square id = ""topsquare"" ></div><img id = ""stim"" ><div class = red_square  id = ""bottomsquare"" ></div>",32,word_square,response,1,Space,true,,,
html-keyboard-response,687,1329818,null,"HERO",null,word,,,,, 'HERO',,
html-keyboard-response,688,1330325,null,"CABOOSE<img id = ""stim"" ><div class = green_square id = ""topsquare"" ></div><img id = ""stim"" ><div class = green_square  id = ""bottomsquare"" ></div>",null,word_square,response,0,none,true,,,
html-keyboard-response,689,1331829,null,"CABOOSE",null,word,,,,, 'CABOOSE',,
html-keyboard-response,690,1332253,421.8799998052418,"LOBSTER<img id = ""stim"" ><div class = red_square id = ""topsquare"" ></div><img id = ""stim"" ><div class = red_square  id = ""bottomsquare"" ></div>",32,word_square,response,1,Space,true,,,
html-keyboard-response,691,1333760,null,"LOBSTER",null,word,,,,, 'LOBSTER',,
html-keyboard-response,692,1334266,null,"FOLDER<img id = ""stim"" ><div class = green_square id = ""topsquare"" ></div><img id = ""stim"" ><div class = green_square  id = ""bottomsquare"" ></div>",null,word_square,response,0,none,true,,,
html-keyboard-response,693,1335770,null,"FOLDER",null,word,,,,, 'FOLDER',,
call-function,694,1335772,,"",,,,,,,,,
html-keyboard-response,695,1335877,null,"",null,,,,,,,,
math-period,696,1337682,3426.740000024438,"",,,,,,,,,3
html-keyboard-response,697,1337784,null,"",null,,,,,,,,
math-period,698,1338732,1739.6849999204278,"",,,,,,,,,2
html-keyboard-response,699,1338836,null,"",null,,,,,,,,
math-period,700,1339766,1752.1200003102422,"",,,,,,,,,3
html-keyboard-response,701,1339871,null,"",null,,,,,,,,
math-period,702,1341538,5378.964999690652,"",,,,,,,,,1
html-keyboard-response,703,1341642,null,"",null,,,,,,,,
math-period,704,1342462,1544.0099998377264,"",,,,,,,,,2
html-keyboard-response,705,1342566,null,"",null,,,,,,,,
math-period,706,1343550,1874.5450000278652,"",,,,,,,,,1
html-keyboard-response,707,1343653,null,"",null,,,,,,,,
math-period,708,1345019,2439.9049999192357,"",,,,,,,,,5
html-keyboard-response,709,1345125,null,"",null,,,,,,,,
math-period,710,1345925,1514.750000089407,"",,,,,,,,,2
html-keyboard-response,711,1346032,null,"",null,,,,,,,,
math-period,712,1346839,1539.4199998117983,"",,,,,,,,,3
html-keyboard-response,713,1346943,null,"",null,,,,,,,,
math-period,714,1347908,1814.7400002926588,"",,,,,,,,,2
html-keyboard-response,715,1348016,null,"",null,,,,,,,,
math-period,716,1348831,1567.1299998648465,"",,,,,,,,,2
html-keyboard-response,717,1348938,null,"",null,,,,,,,,
math-period,718,1350095,2186.9350005872548,"",,,,,,,,,1
html-keyboard-response,719,1350202,null,"",null,,,,,,,,
math-period,720,1352241,6265.080000273883,"",,,,,,,,,6
html-keyboard-response,721,1352347,null,"",null,,,,,,,,
math-period,722,1354159,3558.1350000575185,"",,,,,,,,,2
html-keyboard-response,723,1354266,null,"",null,,,,,,,,
math-period,724,1355329,2086.06499992311,"",,,,,,,,,5
html-keyboard-response,725,1355434,null,"",null,,,,,,,,
math-period,726,1356472,1978.8750004954636,"",,,,,,,,,5
html-keyboard-response,727,1356575,null,"",null,,,,,,,,
math-period,728,1358519,3801.7600001767278,"",,,,,,,,,2
html-keyboard-response,729,1358623,null,"",null,,,,,,,,
math-period,730,1359566,1805.6550002656877,"",,,,,,,,,3
html-keyboard-response,731,1359671,null,"",null,,,,,,,,
math-period,732,1359776,null,"",,,,,,,,,
html-keyboard-response,733,1360782,null,"Recall Period!",null,,,,,,,,
call-function,734,1360783,,"",,,,,,,,,
html-keyboard-response,735,1360885,null,"",null,,,,,,,,
recall-period,736,1362507,6036.490000318736,"",,,,,,,,,motor
html-keyboard-response,737,1362613,null,"",null,,,,,,,,
recall-period,738,1363408,3198.6500010825694,"",,,,,,,,,driver
html-keyboard-response,739,1363515,null,"",null,,,,,,,,
recall-period,740,1364319,2827.880000229925,"",,,,,,,,,liver
html-keyboard-response,741,1364423,null,"",null,,,,,,,,
recall-period,742,1365622,4642.684999387711,"",,,,,,,,,branch
html-keyboard-response,743,1365726,null,"",null,,,,,,,,
recall-period,744,1367306,8132.415001280606,"",,,,,,,,,doughnut
html-keyboard-response,745,1367410,null,"",null,,,,,,,,
recall-period,746,1435788,null,"",,,,,,,,,
html-keyboard-response,747,1436294,null,"Time's Up!",null,,,,,,,,
html-keyboard-response,748,1459425,23126.984999980778,"<p> Uh oh. You responded correctly on 71% of the red squares.</p>
                  <p>We need you keep your accuracy above 80%</p>
                  <p>Press any key to continue the experiment. Thank you!</p>",32,,,,,,,,
html-keyboard-response,749,1462758,3331.7149998620152,"<div style=""font-size:48px;"">Press any key to begin list 8 of 24 </div>",32,,,,,,,,
html-keyboard-response,750,1465266,null,"<div style=""font-size:60px;"">+</div>",null,,,,,,,,
html-keyboard-response,751,1465773,null,"VELVET<img id = ""stim"" ><div class = red_square id = ""topsquare"" ></div><img id = ""stim"" ><div class = red_square  id = ""bottomsquare"" ></div>",null,word_square,response,1,Space,false,,,
html-keyboard-response,752,1467276,null,"VELVET",null,word,,,,, 'VELVET',,
html-keyboard-response,753,1467783,null,"SIRLOIN<img id = ""stim"" ><div class = green_square id = ""topsquare"" ></div><img id = ""stim"" ><div class = green_square  id = ""bottomsquare"" ></div>",null,word_square,response,0,none,true,,,
html-keyboard-response,754,1469287,null,"SIRLOIN",null,word,,,,, 'SIRLOIN',,
html-keyboard-response,755,1469794,null,"DRESS<img id = ""stim"" ><div class = green_square id = ""topsquare"" ></div><img id = ""stim"" ><div class = green_square  id = ""bottomsquare"" ></div>",null,word_square,response,0,none,true,,,
html-keyboard-response,756,1471297,null,"DRESS",null,word,,,,, 'DRESS',,
html-keyboard-response,757,1471805,null,"SCARF<img id = ""stim"" ><div class = green_square id = ""topsquare"" ></div><img id = ""stim"" ><div class = green_square  id = ""bottomsquare"" ></div>",null,word_square,response,0,none,true,,,
html-keyboard-response,758,1473308,null,"SCARF",null,word,,,,, 'SCARF',,
html-keyboard-response,759,1473745,435.2649999782443,"GAUZE<img id = ""stim"" ><div class = red_square id = ""topsquare"" ></div><img id = ""stim"" ><div class = red_square  id = ""bottomsquare"" ></div>",32,word_square,response,1,Space,true,,,
html-keyboard-response,760,1475250,null,"GAUZE",null,word,,,,, 'GAUZE',,
html-keyboard-response,761,1475757,null,"PLAID<img id = ""stim"" ><div class = red_square id = ""topsquare"" ></div><img id = ""stim"" ><div class = red_square  id = ""bottomsquare"" ></div>",null,word_square,response,1,Space,false,,,
html-keyboard-response,762,1477261,null,"PLAID",null,word,,,,, 'PLAID',,
html-keyboard-response,763,1477768,null,"RODENT<img id = ""stim"" ><div class = green_square id = ""topsquare"" ></div><img id = ""stim"" ><div class = green_square  id = ""bottomsquare"" ></div>",null,word_square,response,0,none,true,,,
html-keyboard-response,764,1479271,null,"RODENT",null,word,,,,, 'RODENT',,
html-keyboard-response,765,1479778,null,"WINDOW<img id = ""stim"" ><div class = green_square id = ""topsquare"" ></div><img id = ""stim"" ><div class = green_square  id = ""bottomsquare"" ></div>",null,word_square,response,0,none,true,,,
html-keyboard-response,766,1481282,null,"WINDOW",null,word,,,,, 'WINDOW',,
html-keyboard-response,767,1481627,343.06999994441867,"GLASS<img id = ""stim"" ><div class = red_square id = ""topsquare"" ></div><img id = ""stim"" ><div class = red_square  id = ""bottomsquare"" ></div>",32,word_square,response,1,Space,true,,,
html-keyboard-response,768,1483133,null,"GLASS",null,word,,,,, 'GLASS',,
html-keyboard-response,769,1483640,null,"NURSE<img id = ""stim"" ><div class = green_square id = ""topsquare"" ></div><img id = ""stim"" ><div class = green_square  id = ""bottomsquare"" ></div>",null,word_square,response,0,none,true,,,
html-keyboard-response,770,1485143,null,"NURSE",null,word,,,,, 'NURSE',,
html-keyboard-response,771,1485593,447.4499998614192,"COUCH<img id = ""stim"" ><div class = red_square id = ""topsquare"" ></div><img id = ""stim"" ><div class = red_square  id = ""bottomsquare"" ></div>",32,word_square,response,1,Space,true,,,
html-keyboard-response,772,1487096,null,"COUCH",null,word,,,,, 'COUCH',,
html-keyboard-response,773,1487569,471.1799998767674,"FOREHEAD<img id = ""stim"" ><div class = red_square id = ""topsquare"" ></div><img id = ""stim"" ><div class = red_square  id = ""bottomsquare"" ></div>",32,word_square,response,1,Space,true,,,
html-keyboard-response,774,1489074,null,"FOREHEAD",null,word,,,,, 'FOREHEAD',,
html-keyboard-response,775,1489581,null,"PROTON<img id = ""stim"" ><div class = green_square id = ""topsquare"" ></div><img id = ""stim"" ><div class = green_square  id = ""bottomsquare"" ></div>",null,word_square,response,0,none,true,,,
html-keyboard-response,776,1491085,null,"PROTON",null,word,,,,, 'PROTON',,
html-keyboard-response,777,1491412,324.83999989926815,"CHEMIST<img id = ""stim"" ><div class = red_square id = ""topsquare"" ></div><img id = ""stim"" ><div class = red_square  id = ""bottomsquare"" ></div>",32,word_square,response,1,Space,true,,,
html-keyboard-response,778,1492914,null,"CHEMIST",null,word,,,,, 'CHEMIST',,
html-keyboard-response,779,1493408,491.72000028192997,"PUDDLE<img id = ""stim"" ><div class = red_square id = ""topsquare"" ></div><img id = ""stim"" ><div class = red_square  id = ""bottomsquare"" ></div>",32,word_square,response,1,Space,true,,,
html-keyboard-response,780,1494914,null,"PUDDLE",null,word,,,,, 'PUDDLE',,
html-keyboard-response,781,1495421,null,"DIVER<img id = ""stim"" ><div class = green_square id = ""topsquare"" ></div><img id = ""stim"" ><div class = green_square  id = ""bottomsquare"" ></div>",null,word_square,response,0,none,true,,,
html-keyboard-response,782,1496925,null,"DIVER",null,word,,,,, 'DIVER',,
html-keyboard-response,783,1497338,410.56999983265996,"SHEPHERD<img id = ""stim"" ><div class = red_square id = ""topsquare"" ></div><img id = ""stim"" ><div class = red_square  id = ""bottomsquare"" ></div>",32,word_square,response,1,Space,true,,,
html-keyboard-response,784,1498845,null,"SHEPHERD",null,word,,,,, 'SHEPHERD',,
html-keyboard-response,785,1499352,null,"WAIST<img id = ""stim"" ><div class = green_square id = ""topsquare"" ></div><img id = ""stim"" ><div class = green_square  id = ""bottomsquare"" ></div>",null,word_square,response,0,none,true,,,
html-keyboard-response,786,1500855,null,"WAIST",null,word,,,,, 'WAIST',,
call-function,787,1500857,,"",,,,,,,,,
html-keyboard-response,788,1500962,null,"",null,,,,,,,,
math-period,789,1502948,3766.3700003176928,"",,,,,,,,,4
html-keyboard-response,790,1503053,null,"",null,,,,,,,,
math-period,791,1504026,1828.9050003513694,"",,,,,,,,,3
html-keyboard-response,792,1504130,null,"",null,,,,,,,,
math-period,793,1506249,3483.494999818504,"",,,,,,,,,3
html-keyboard-response,794,1506355,null,"",null,,,,,,,,
math-period,795,1509210,5552.584999706596,"",,,,,,,,,1
html-keyboard-response,796,1509315,null,"",null,,,,,,,,
math-period,797,1510191,1645.11499973014,"",,,,,,,,,2
html-keyboard-response,798,1510296,null,"",null,,,,,,,,
math-period,799,1511243,1808.9250004850328,"",,,,,,,,,4
html-keyboard-response,800,1511347,null,"",null,,,,,,,,
math-period,801,1512655,2481.380000244826,"",,,,,,,,,1
html-keyboard-response,802,1512759,null,"",null,,,,,,,,
math-period,803,1514052,2480.8200001716614,"",,,,,,,,,4
html-keyboard-response,804,1514157,null,"",null,,,,,,,,
math-period,805,1515288,2146.4699995703995,"",,,,,,,,,3
html-keyboard-response,806,1515395,null,"",null,,,,,,,,
math-period,807,1516829,2787.9200000315905,"",,,,,,,,,2
html-keyboard-response,808,1516936,null,"",null,,,,,,,,
math-period,809,1518504,2999.7850004583597,"",,,,,,,,,1
html-keyboard-response,810,1518608,null,"",null,,,,,,,,
math-period,811,1519883,2423.434999771416,"",,,,,,,,,1
html-keyboard-response,812,1519985,null,"",null,,,,,,,,
math-period,813,1521600,3136.3400002010167,"",,,,,,,,,2
html-keyboard-response,814,1521704,null,"",null,,,,,,,,
math-period,815,1523102,2641.5249998681247,"",,,,,,,,,1
html-keyboard-response,816,1523206,null,"",null,,,,,,,,
math-period,817,1524862,1540.2250001206994,"",,,,,,,,,0
html-keyboard-response,818,1525870,null,"Recall Period!",null,,,,,,,,
call-function,819,1525871,,"",,,,,,,,,
html-keyboard-response,820,1525976,null,"",null,,,,,,,,
recall-period,821,1528216,10521.814997773618,"",,,,,,,,,shephard
html-keyboard-response,822,1528323,null,"",null,,,,,,,,
recall-period,823,1534150,34859.15000131354,"",,,,,,,,,farmer
html-keyboard-response,824,1534257,null,"",null,,,,,,,,
recall-period,825,1534651,391.610000282526,"",,,,,,,,,
html-keyboard-response,826,1534755,null,"",null,,,,,,,,
recall-period,827,1600878,null,"",,,,,,,,,
html-keyboard-response,828,1601385,null,"Time's Up!",null,,,,,,,,
html-keyboard-response,829,1638175,36785.82500014454,"<p> Uh oh. You responded correctly on 73% of the red squares.</p>
                  <p>We need you keep your accuracy above 80%</p>
                  <p>Press any key to continue the experiment. Thank you!</p>",32,,,,,,,,
html-keyboard-response,830,1643558,5381.284999661148,"<div style=""font-size:48px;"">Press any key to begin list 9 of 24 </div>",32,,,,,,,,
html-keyboard-response,831,1646064,null,"<div style=""font-size:60px;"">+</div>",null,,,,,,,,
html-keyboard-response,832,1646571,null,"POPCORN<img id = ""stim"" ><div class = green_square id = ""topsquare"" ></div><img id = ""stim"" ><div class = green_square  id = ""bottomsquare"" ></div>",null,word_square,response,0,none,true,,,
html-keyboard-response,833,1648074,null,"POPCORN",null,word,,,,, 'POPCORN',,
html-keyboard-response,834,1648581,null,"ROACH<img id = ""stim"" ><div class = green_square id = ""topsquare"" ></div><img id = ""stim"" ><div class = green_square  id = ""bottomsquare"" ></div>",null,word_square,response,0,none,true,,,
html-keyboard-response,835,1650084,null,"ROACH",null,word,,,,, 'ROACH',,
html-keyboard-response,836,1650379,293.01000013947487,"LAKE<img id = ""stim"" ><div class = red_square id = ""topsquare"" ></div><img id = ""stim"" ><div class = red_square  id = ""bottomsquare"" ></div>",32,word_square,response,1,Space,true,,,
html-keyboard-response,837,1651882,null,"LAKE",null,word,,,,, 'LAKE',,
html-keyboard-response,838,1652389,null,"NEWSSTAND<img id = ""stim"" ><div class = red_square id = ""topsquare"" ></div><img id = ""stim"" ><div class = red_square  id = ""bottomsquare"" ></div>",null,word_square,response,1,Space,false,,,
html-keyboard-response,839,1653893,null,"NEWSSTAND",null,word,,,,, 'NEWSSTAND',,
html-keyboard-response,840,1654400,null,"TOOTHPASTE<img id = ""stim"" ><div class = red_square id = ""topsquare"" ></div><img id = ""stim"" ><div class = red_square  id = ""bottomsquare"" ></div>",null,word_square,response,1,Space,false,,,
html-keyboard-response,841,1655904,null,"TOOTHPASTE",null,word,,,,, 'TOOTHPASTE',,
html-keyboard-response,842,1656411,null,"SNOB<img id = ""stim"" ><div class = green_square id = ""topsquare"" ></div><img id = ""stim"" ><div class = green_square  id = ""bottomsquare"" ></div>",null,word_square,response,0,none,true,,,
html-keyboard-response,843,1657915,null,"SNOB",null,word,,,,, 'SNOB',,
html-keyboard-response,844,1658421,null,"ZIPPER<img id = ""stim"" ><div class = green_square id = ""topsquare"" ></div><img id = ""stim"" ><div class = green_square  id = ""bottomsquare"" ></div>",null,word_square,response,0,none,true,,,
html-keyboard-response,845,1659929,null,"ZIPPER",null,word,,,,, 'ZIPPER',,
html-keyboard-response,846,1660389,458.16999999806285,"TURNIP<img id = ""stim"" ><div class = red_square id = ""topsquare"" ></div><img id = ""stim"" ><div class = red_square  id = ""bottomsquare"" ></div>",32,word_square,response,1,Space,true,,,
html-keyboard-response,847,1661894,null,"TURNIP",null,word,,,,, 'TURNIP',,
html-keyboard-response,848,1662400,null,"MARSH<img id = ""stim"" ><div class = green_square id = ""topsquare"" ></div><img id = ""stim"" ><div class = green_square  id = ""bottomsquare"" ></div>",null,word_square,response,0,none,true,,,
html-keyboard-response,849,1663904,null,"MARSH",null,word,,,,, 'MARSH',,
html-keyboard-response,850,1664411,null,"ORCHID<img id = ""stim"" ><div class = red_square id = ""topsquare"" ></div><img id = ""stim"" ><div class = red_square  id = ""bottomsquare"" ></div>",null,word_square,response,1,Space,false,,,
html-keyboard-response,851,1665915,null,"ORCHID",null,word,,,,, 'ORCHID',,
html-keyboard-response,852,1666422,null,"DAISY<img id = ""stim"" ><div class = green_square id = ""topsquare"" ></div><img id = ""stim"" ><div class = green_square  id = ""bottomsquare"" ></div>",null,word_square,response,0,none,true,,,
html-keyboard-response,853,1667925,null,"DAISY",null,word,,,,, 'DAISY',,
html-keyboard-response,854,1668432,null,"SURGEON<img id = ""stim"" ><div class = green_square id = ""topsquare"" ></div><img id = ""stim"" ><div class = green_square  id = ""bottomsquare"" ></div>",null,word_square,response,0,none,true,,,
html-keyboard-response,855,1669936,null,"SURGEON",null,word,,,,, 'SURGEON',,
html-keyboard-response,856,1670353,414.1850001178682,"WIFE<img id = ""stim"" ><div class = red_square id = ""topsquare"" ></div><img id = ""stim"" ><div class = red_square  id = ""bottomsquare"" ></div>",32,word_square,response,1,Space,true,,,
html-keyboard-response,857,1671856,null,"WIFE",null,word,,,,, 'WIFE',,
html-keyboard-response,858,1672363,null,"ROCKET<img id = ""stim"" ><div class = green_square id = ""topsquare"" ></div><img id = ""stim"" ><div class = green_square  id = ""bottomsquare"" ></div>",null,word_square,response,0,none,true,,,
html-keyboard-response,859,1673867,null,"ROCKET",null,word,,,,, 'ROCKET',,
html-keyboard-response,860,1674169,299.66000001877546,"COMET<img id = ""stim"" ><div class = red_square id = ""topsquare"" ></div><img id = ""stim"" ><div class = red_square  id = ""bottomsquare"" ></div>",32,word_square,response,1,Space,true,,,
html-keyboard-response,861,1675675,null,"COMET",null,word,,,,, 'COMET',,
html-keyboard-response,862,1676105,427.73500038310885,"SCHOOL<img id = ""stim"" ><div class = red_square id = ""topsquare"" ></div><img id = ""stim"" ><div class = red_square  id = ""bottomsquare"" ></div>",32,word_square,response,1,Space,true,,,
html-keyboard-response,863,1677611,null,"SCHOOL",null,word,,,,, 'SCHOOL',,
html-keyboard-response,864,1678116,null,"CORAL<img id = ""stim"" ><div class = green_square id = ""topsquare"" ></div><img id = ""stim"" ><div class = green_square  id = ""bottomsquare"" ></div>",null,word_square,response,0,none,true,,,
html-keyboard-response,865,1679622,null,"CORAL",null,word,,,,, 'CORAL',,
html-keyboard-response,866,1680005,381.7049995996058,"MUMMY<img id = ""stim"" ><div class = red_square id = ""topsquare"" ></div><img id = ""stim"" ><div class = red_square  id = ""bottomsquare"" ></div>",32,word_square,response,1,Space,true,,,
html-keyboard-response,867,1681510,null,"MUMMY",null,word,,,,, 'MUMMY',,
call-function,868,1681511,,"",,,,,,,,,
html-keyboard-response,869,1681616,null,"",null,,,,,,,,
math-period,870,1683904,4370.904999785125,"",,,,,,,,,1
html-keyboard-response,871,1684011,null,"",null,,,,,,,,
math-period,872,1685131,2146.864999551326,"",,,,,,,,,3
html-keyboard-response,873,1685238,null,"",null,,,,,,,,
math-period,874,1686819,3040.6950004398823,"",,,,,,,,,3
html-keyboard-response,875,1686922,null,"",null,,,,,,,,
math-period,876,1688022,2078.46499979496,"",,,,,,,,,1
html-keyboard-response,877,1688126,null,"",null,,,,,,,,
math-period,878,1689513,2648.8050003536046,"",,,,,,,,,1
html-keyboard-response,879,1689616,null,"",null,,,,,,,,
math-period,880,1690920,2520.5650003626943,"",,,,,,,,,2
html-keyboard-response,881,1691022,null,"",null,,,,,,,,
math-period,882,1692300,2459.269999526441,"",,,,,,,,,2
html-keyboard-response,883,1692403,null,"",null,,,,,,,,
math-period,884,1693700,2502.199999522418,"",,,,,,,,,3
html-keyboard-response,885,1693803,null,"",null,,,,,,,,
math-period,886,1694919,2141.42999984324,"",,,,,,,,,4
html-keyboard-response,887,1695025,null,"",null,,,,,,,,
math-period,888,1696163,1136.1400000751019,"",,,,,,,,,
html-keyboard-response,889,1696269,null,"",null,,,,,,,,
math-period,890,1697633,1361.7149996571243,"",,,,,,,,,
html-keyboard-response,891,1697736,null,"",null,,,,,,,,
math-period,892,1698251,512.6800001598895,"",,,,,,,,,
html-keyboard-response,893,1698358,null,"",null,,,,,,,,
math-period,894,1698813,452.55499985069036,"",,,,,,,,,
html-keyboard-response,895,1698917,null,"",null,,,,,,,,
math-period,896,1699346,426.58500000834465,"",,,,,,,,,
html-keyboard-response,897,1699450,null,"",null,,,,,,,,
math-period,898,1699853,401.4750001952052,"",,,,,,,,,
html-keyboard-response,899,1699958,null,"",null,,,,,,,,
math-period,900,1701571,3070.684999693185,"",,,,,,,,,2
html-keyboard-response,901,1701675,null,"",null,,,,,,,,
math-period,902,1702966,2434.8149998113513,"",,,,,,,,,1
html-keyboard-response,903,1703068,null,"",null,,,,,,,,
math-period,904,1704129,2058.0099998041987,"",,,,,,,,,4
html-keyboard-response,905,1704236,null,"",null,,,,,,,,
math-period,906,1705516,null,"",,,,,,,,,
html-keyboard-response,907,1706518,null,"Recall Period!",null,,,,,,,,
call-function,908,1706520,,"",,,,,,,,,
html-keyboard-response,909,1706624,null,"",null,,,,,,,,
recall-period,910,1708449,7012.069999240339,"",,,,,,,,,mummy
html-keyboard-response,911,1708553,null,"",null,,,,,,,,
recall-period,912,1709264,2210.0750007666647,"",,,,,,,,,lake
html-keyboard-response,913,1709372,null,"",null,,,,,,,,
recall-period,914,1711245,8581.185000948608,"",,,,,,,,,newstand
html-keyboard-response,915,1711350,null,"",null,,,,,,,,
recall-period,916,1712737,5994.999998714775,"",,,,,,,,,turnip
html-keyboard-response,917,1712844,null,"",null,,,,,,,,
recall-period,918,1781524,null,"",,,,,,,,,
html-keyboard-response,919,1782029,null,"Time's Up!",null,,,,,,,,
html-keyboard-response,920,1794007,11973.419999703765,"<p> Uh oh. You responded correctly on 74% of the red squares.</p>
                  <p>We need you keep your accuracy above 80%</p>
                  <p>Press any key to continue the experiment. Thank you!</p>",13,,,,,,,,
html-keyboard-response,921,1796323,2313.455000054091,"<div style=""font-size:48px;"">Press any key to begin list 10 of 24 </div>",32,,,,,,,,
html-keyboard-response,922,1798829,null,"<div style=""font-size:60px;"">+</div>",null,,,,,,,,
html-keyboard-response,923,1799336,null,"SOFA<img id = ""stim"" ><div class = green_square id = ""topsquare"" ></div><img id = ""stim"" ><div class = green_square  id = ""bottomsquare"" ></div>",null,word_square,response,0,none,true,,,
html-keyboard-response,924,1800839,null,"SOFA",null,word,,,,, 'SOFA',,
html-keyboard-response,925,1801347,null,"NIGHTGOWN<img id = ""stim"" ><div class = green_square id = ""topsquare"" ></div><img id = ""stim"" ><div class = green_square  id = ""bottomsquare"" ></div>",null,word_square,response,0,none,true,,,
html-keyboard-response,926,1802849,null,"NIGHTGOWN",null,word,,,,, 'NIGHTGOWN',,
html-keyboard-response,927,1803352,null,"EARRING<img id = ""stim"" ><div class = red_square id = ""topsquare"" ></div><img id = ""stim"" ><div class = red_square  id = ""bottomsquare"" ></div>",null,word_square,response,1,Space,false,,,
html-keyboard-response,928,1804856,null,"EARRING",null,word,,,,, 'EARRING',,
html-keyboard-response,929,1805363,null,"AUTHOR<img id = ""stim"" ><div class = red_square id = ""topsquare"" ></div><img id = ""stim"" ><div class = red_square  id = ""bottomsquare"" ></div>",null,word_square,response,1,Space,false,,,
html-keyboard-response,930,1806865,null,"AUTHOR",null,word,,,,, 'AUTHOR',,
html-keyboard-response,931,1807315,447.07500003278255,"CONCRETE<img id = ""stim"" ><div class = red_square id = ""topsquare"" ></div><img id = ""stim"" ><div class = red_square  id = ""bottomsquare"" ></div>",32,word_square,response,1,Space,true,,,
html-keyboard-response,932,1808819,null,"CONCRETE",null,word,,,,, 'CONCRETE',,
html-keyboard-response,933,1809326,null,"COSTUME<img id = ""stim"" ><div class = green_square id = ""topsquare"" ></div><img id = ""stim"" ><div class = green_square  id = ""bottomsquare"" ></div>",null,word_square,response,0,none,true,,,
html-keyboard-response,934,1810830,null,"COSTUME",null,word,,,,, 'COSTUME',,
html-keyboard-response,935,1811336,null,"CAPTAIN<img id = ""stim"" ><div class = green_square id = ""topsquare"" ></div><img id = ""stim"" ><div class = green_square  id = ""bottomsquare"" ></div>",null,word_square,response,0,none,true,,,
html-keyboard-response,936,1812840,null,"CAPTAIN",null,word,,,,, 'CAPTAIN',,
html-keyboard-response,937,1813300,457.24999997764826,"HOOD<img id = ""stim"" ><div class = red_square id = ""topsquare"" ></div><img id = ""stim"" ><div class = red_square  id = ""bottomsquare"" ></div>",32,word_square,response,1,Space,true,,,
html-keyboard-response,938,1814803,null,"HOOD",null,word,,,,, 'HOOD',,
html-keyboard-response,939,1815310,null,"FLAG<img id = ""stim"" ><div class = green_square id = ""topsquare"" ></div><img id = ""stim"" ><div class = green_square  id = ""bottomsquare"" ></div>",null,word_square,response,0,none,true,,,
html-keyboard-response,940,1816813,null,"FLAG",null,word,,,,, 'FLAG',,
html-keyboard-response,941,1817283,466.8550002388656,"ORANGE<img id = ""stim"" ><div class = red_square id = ""topsquare"" ></div><img id = ""stim"" ><div class = red_square  id = ""bottomsquare"" ></div>",32,word_square,response,1,Space,true,,,
html-keyboard-response,942,1818787,null,"ORANGE",null,word,,,,, 'ORANGE',,
html-keyboard-response,943,1819294,null,"CITRUS<img id = ""stim"" ><div class = green_square id = ""topsquare"" ></div><img id = ""stim"" ><div class = green_square  id = ""bottomsquare"" ></div>",null,word_square,response,0,none,true,,,
html-keyboard-response,944,1820798,null,"CITRUS",null,word,,,,, 'CITRUS',,
