trial_type,trial_index,time_elapsed,rt,stimulus,key_press,test_part,task,targ_cond,correctKeyCode,correct,word,value,response
pavlovia,0,729,,"",,,,,,,,,
external-html,1,8436,7583.1200000829995,"",,,,,,,,,
html-keyboard-response,2,11018,2578.3349997363985,"Welcome to the experiment. Press any key to begin.",32,,,,,,,,
html-keyboard-response,3,20295,9275.34499997273,"<p>You will see a list of words and colored squares in the following task.<p><p>Press the spacebar whenever you see a red square.<p><p>Do not press a key if the square is green<p><p>Press the spacebar to continue.</p>",32,,,,,,,,
html-keyboard-response,4,33768,12970.809999853373,"<p>Please try to remember as many of the words as you can, and try to think about the meaning of each word as it appears.<p><p>After the detection and encoding task you will be asked to solve some math problems for 24 seconds.<p> Please solve as many problems as you can in the time given. <p>",32,,,,,,,,
html-keyboard-response,5,43606,9336.36000007391,"After solving the math problems, you will be asked to type in as many words <p>from the previous list as you can remember for 75 seconds.<p> If you finish recalling before the 75 seconds are up,<p> just sit tight and try to think of any more words you could have missed. <p><p>We will begin with a brief practice session<p>Press the spacebar to begin the practice.</p>",32,,,,,,,,
html-keyboard-response,6,46110,null,"<div style=""font-size:60px;"">+</div>",null,,,,,,,,
html-keyboard-response,7,46613,null,"HAPPY<img id = ""stim"" ><div class = green_square id = ""topsquare"" ></div><img id = ""stim"" ><div class = green_square  id = ""bottomsquare"" ></div>",null,word_square,prac_response,0,none,true,,,
html-keyboard-response,8,48116,null,"HAPPY",null,word,,,,,HAPPY,,
html-keyboard-response,9,48619,null,"COLD<img id = ""stim"" ><div class = red_square id = ""topsquare"" ></div><img id = ""stim"" ><div class = red_square  id = ""bottomsquare"" ></div>",null,word_square,prac_response,1,Space,false,,,
html-keyboard-response,10,50121,null,"COLD",null,word,,,,,COLD,,
html-keyboard-response,11,50623,null,"HEAVY<img id = ""stim"" ><div class = red_square id = ""topsquare"" ></div><img id = ""stim"" ><div class = red_square  id = ""bottomsquare"" ></div>",null,word_square,prac_response,1,Space,false,,,
html-keyboard-response,12,52126,null,"HEAVY",null,word,,,,,HEAVY,,
html-keyboard-response,13,52628,null,"FUNNY<img id = ""stim"" ><div class = green_square id = ""topsquare"" ></div><img id = ""stim"" ><div class = green_square  id = ""bottomsquare"" ></div>",null,word_square,prac_response,0,none,true,,,
html-keyboard-response,14,54130,null,"FUNNY",null,word,,,,,FUNNY,,
html-keyboard-response,15,54632,417.95000014826655,"SCARY<img id = ""stim"" ><div class = red_square id = ""topsquare"" ></div><img id = ""stim"" ><div class = red_square  id = ""bottomsquare"" ></div>",32,word_square,prac_response,1,Space,true,,,
html-keyboard-response,16,56134,null,"SCARY",null,word,,,,,SCARY,,
html-keyboard-response,17,56636,null,"PEACEFUL<img id = ""stim"" ><div class = red_square id = ""topsquare"" ></div><img id = ""stim"" ><div class = red_square  id = ""bottomsquare"" ></div>",null,word_square,prac_response,1,Space,false,,,
html-keyboard-response,18,58138,null,"PEACEFUL",null,word,,,,,PEACEFUL,,
html-keyboard-response,19,58640,null,"LITTLE<img id = ""stim"" ><div class = green_square id = ""topsquare"" ></div><img id = ""stim"" ><div class = green_square  id = ""bottomsquare"" ></div>",null,word_square,prac_response,0,none,true,,,
html-keyboard-response,20,60145,null,"LITTLE",null,word,,,,,LITTLE,,
html-keyboard-response,21,60648,null,"TIRED<img id = ""stim"" ><div class = green_square id = ""topsquare"" ></div><img id = ""stim"" ><div class = green_square  id = ""bottomsquare"" ></div>",null,word_square,prac_response,0,none,true,,,
html-keyboard-response,22,62149,null,"TIRED",null,word,,,,,TIRED,,
html-keyboard-response,23,62652,null,"ENTERTAINING<img id = ""stim"" ><div class = green_square id = ""topsquare"" ></div><img id = ""stim"" ><div class = green_square  id = ""bottomsquare"" ></div>",null,word_square,prac_response,0,none,true,,,
html-keyboard-response,24,64154,null,"ENTERTAINING",null,word,,,,,ENTERTAINING,,
html-keyboard-response,25,64656,463.105000089854,"GRATEFUL<img id = ""stim"" ><div class = red_square id = ""topsquare"" ></div><img id = ""stim"" ><div class = red_square  id = ""bottomsquare"" ></div>",32,word_square,prac_response,1,Space,true,,,
html-keyboard-response,26,66158,null,"GRATEFUL",null,word,,,,,GRATEFUL,,
html-keyboard-response,27,66660,null,"LOUD<img id = ""stim"" ><div class = green_square id = ""topsquare"" ></div><img id = ""stim"" ><div class = green_square  id = ""bottomsquare"" ></div>",null,word_square,prac_response,0,none,true,,,
html-keyboard-response,28,68162,null,"LOUD",null,word,,,,,LOUD,,
html-keyboard-response,29,68664,null,"SMART<img id = ""stim"" ><div class = red_square id = ""topsquare"" ></div><img id = ""stim"" ><div class = red_square  id = ""bottomsquare"" ></div>",null,word_square,prac_response,1,Space,false,,,
html-keyboard-response,30,70166,null,"SMART",null,word,,,,,SMART,,
html-keyboard-response,31,70668,null,"SMOOTH<img id = ""stim"" ><div class = red_square id = ""topsquare"" ></div><img id = ""stim"" ><div class = red_square  id = ""bottomsquare"" ></div>",null,word_square,prac_response,1,Space,false,,,
html-keyboard-response,32,72192,null,"SMOOTH",null,word,,,,,SMOOTH,,
html-keyboard-response,33,72694,null,"DISHONEST<img id = ""stim"" ><div class = green_square id = ""topsquare"" ></div><img id = ""stim"" ><div class = green_square  id = ""bottomsquare"" ></div>",null,word_square,prac_response,0,none,true,,,
html-keyboard-response,34,74196,null,"DISHONEST",null,word,,,,,DISHONEST,,
html-keyboard-response,35,74698,484.46499975398183,"WEALTHY<img id = ""stim"" ><div class = red_square id = ""topsquare"" ></div><img id = ""stim"" ><div class = red_square  id = ""bottomsquare"" ></div>",32,word_square,prac_response,1,Space,true,,,
html-keyboard-response,36,76200,null,"WEALTHY",null,word,,,,,WEALTHY,,
html-keyboard-response,37,76702,null,"BEAUTIFUL<img id = ""stim"" ><div class = green_square id = ""topsquare"" ></div><img id = ""stim"" ><div class = green_square  id = ""bottomsquare"" ></div>",null,word_square,prac_response,0,none,true,,,
html-keyboard-response,38,78204,null,"BEAUTIFUL",null,word,,,,,BEAUTIFUL,,
html-keyboard-response,39,78706,null,"DREARY<img id = ""stim"" ><div class = green_square id = ""topsquare"" ></div><img id = ""stim"" ><div class = green_square  id = ""bottomsquare"" ></div>",null,word_square,prac_response,0,none,true,,,
html-keyboard-response,40,80208,null,"DREARY",null,word,,,,,DREARY,,
html-keyboard-response,41,80710,null,"PLAYFUL<img id = ""stim"" ><div class = red_square id = ""topsquare"" ></div><img id = ""stim"" ><div class = red_square  id = ""bottomsquare"" ></div>",null,word_square,prac_response,1,Space,false,,,
html-keyboard-response,42,82212,null,"PLAYFUL",null,word,,,,,PLAYFUL,,
html-keyboard-response,43,116359,34143.45999993384,"<p> Uh oh. You responded correctly on 67% of the red squares.</p>
                  <p>We need you keep your accuracy above 80%</p>
                  <p>We're going to try once more to make sure you understand the task. press any key to continue.</p>",32,,,,,,,,
html-keyboard-response,44,125357,8991.739999968559,"<p>You will see a list of words and colored squares in the following task.<p><p>Press the spacebar whenever you see a red square.<p><p>Do not press a key if the square is green<p><p>Press the spacebar to continue.</p>",32,,,,,,,,
html-keyboard-response,45,127859,null,"<div style=""font-size:60px;"">+</div>",null,,,,,,,,
html-keyboard-response,46,128361,null,"HAPPY<img id = ""stim"" ><div class = green_square id = ""topsquare"" ></div><img id = ""stim"" ><div class = green_square  id = ""bottomsquare"" ></div>",null,word_square,response,0,none,true,,,
html-keyboard-response,47,129863,null,"HAPPY",null,word,,,,,HAPPY,,
html-keyboard-response,48,130171,306.13499972969294,"COLD<img id = ""stim"" ><div class = red_square id = ""topsquare"" ></div><img id = ""stim"" ><div class = red_square  id = ""bottomsquare"" ></div>",32,word_square,response,1,Space,true,,,
html-keyboard-response,49,131673,null,"COLD",null,word,,,,,COLD,,
html-keyboard-response,50,132091,415.99000012502074,"HEAVY<img id = ""stim"" ><div class = red_square id = ""topsquare"" ></div><img id = ""stim"" ><div class = red_square  id = ""bottomsquare"" ></div>",32,word_square,response,1,Space,true,,,
html-keyboard-response,51,133592,null,"HEAVY",null,word,,,,,HEAVY,,
html-keyboard-response,52,134094,null,"FUNNY<img id = ""stim"" ><div class = green_square id = ""topsquare"" ></div><img id = ""stim"" ><div class = green_square  id = ""bottomsquare"" ></div>",null,word_square,response,0,none,true,,,
html-keyboard-response,53,135596,null,"FUNNY",null,word,,,,,FUNNY,,
html-keyboard-response,54,135932,334.3650000169873,"SCARY<img id = ""stim"" ><div class = red_square id = ""topsquare"" ></div><img id = ""stim"" ><div class = red_square  id = ""bottomsquare"" ></div>",32,word_square,response,1,Space,true,,,
html-keyboard-response,55,137434,null,"SCARY",null,word,,,,,SCARY,,
html-keyboard-response,56,137899,462.58499985560775,"PEACEFUL<img id = ""stim"" ><div class = red_square id = ""topsquare"" ></div><img id = ""stim"" ><div class = red_square  id = ""bottomsquare"" ></div>",32,word_square,response,1,Space,true,,,
html-keyboard-response,57,139401,null,"PEACEFUL",null,word,,,,,PEACEFUL,,
html-keyboard-response,58,139903,null,"LITTLE<img id = ""stim"" ><div class = green_square id = ""topsquare"" ></div><img id = ""stim"" ><div class = green_square  id = ""bottomsquare"" ></div>",null,word_square,response,0,none,true,,,
html-keyboard-response,59,141405,null,"LITTLE",null,word,,,,,LITTLE,,
html-keyboard-response,60,141907,null,"TIRED<img id = ""stim"" ><div class = green_square id = ""topsquare"" ></div><img id = ""stim"" ><div class = green_square  id = ""bottomsquare"" ></div>",null,word_square,response,0,none,true,,,
html-keyboard-response,61,143409,null,"TIRED",null,word,,,,,TIRED,,
html-keyboard-response,62,143911,null,"ENTERTAINING<img id = ""stim"" ><div class = green_square id = ""topsquare"" ></div><img id = ""stim"" ><div class = green_square  id = ""bottomsquare"" ></div>",null,word_square,response,0,none,true,,,
html-keyboard-response,63,145413,null,"ENTERTAINING",null,word,,,,,ENTERTAINING,,
html-keyboard-response,64,145706,292.1699997968972,"GRATEFUL<img id = ""stim"" ><div class = red_square id = ""topsquare"" ></div><img id = ""stim"" ><div class = red_square  id = ""bottomsquare"" ></div>",32,word_square,response,1,Space,true,,,
html-keyboard-response,65,147209,null,"GRATEFUL",null,word,,,,,GRATEFUL,,
html-keyboard-response,66,147711,null,"LOUD<img id = ""stim"" ><div class = green_square id = ""topsquare"" ></div><img id = ""stim"" ><div class = green_square  id = ""bottomsquare"" ></div>",null,word_square,response,0,none,true,,,
html-keyboard-response,67,149213,null,"LOUD",null,word,,,,,LOUD,,
html-keyboard-response,68,149660,445.4950001090765,"SMART<img id = ""stim"" ><div class = red_square id = ""topsquare"" ></div><img id = ""stim"" ><div class = red_square  id = ""bottomsquare"" ></div>",32,word_square,response,1,Space,true,,,
html-keyboard-response,69,151162,null,"SMART",null,word,,,,,SMART,,
html-keyboard-response,70,151514,350.83500016480684,"SMOOTH<img id = ""stim"" ><div class = red_square id = ""topsquare"" ></div><img id = ""stim"" ><div class = red_square  id = ""bottomsquare"" ></div>",32,word_square,response,1,Space,true,,,
html-keyboard-response,71,153016,null,"SMOOTH",null,word,,,,,SMOOTH,,
html-keyboard-response,72,153518,null,"DISHONEST<img id = ""stim"" ><div class = green_square id = ""topsquare"" ></div><img id = ""stim"" ><div class = green_square  id = ""bottomsquare"" ></div>",null,word_square,response,0,none,true,,,
html-keyboard-response,73,155020,null,"DISHONEST",null,word,,,,,DISHONEST,,
html-keyboard-response,74,155354,332.460000179708,"WEALTHY<img id = ""stim"" ><div class = red_square id = ""topsquare"" ></div><img id = ""stim"" ><div class = red_square  id = ""bottomsquare"" ></div>",32,word_square,response,1,Space,true,,,
html-keyboard-response,75,156856,null,"WEALTHY",null,word,,,,,WEALTHY,,
html-keyboard-response,76,157358,null,"BEAUTIFUL<img id = ""stim"" ><div class = green_square id = ""topsquare"" ></div><img id = ""stim"" ><div class = green_square  id = ""bottomsquare"" ></div>",null,word_square,response,0,none,true,,,
html-keyboard-response,77,158860,null,"BEAUTIFUL",null,word,,,,,BEAUTIFUL,,
html-keyboard-response,78,159362,null,"DREARY<img id = ""stim"" ><div class = green_square id = ""topsquare"" ></div><img id = ""stim"" ><div class = green_square  id = ""bottomsquare"" ></div>",null,word_square,response,0,none,true,,,
html-keyboard-response,79,160864,null,"DREARY",null,word,,,,,DREARY,,
html-keyboard-response,80,161228,359.75500009953976,"PLAYFUL<img id = ""stim"" ><div class = red_square id = ""topsquare"" ></div><img id = ""stim"" ><div class = red_square  id = ""bottomsquare"" ></div>",32,word_square,response,1,Space,true,,,
html-keyboard-response,81,162729,null,"PLAYFUL",null,word,,,,,PLAYFUL,,
html-keyboard-response,82,167978,5246.100000105798,"<p> Good job! You responded correctly to 100% of the red squares.</p>
                  <p>Be sure to keep your accuracy above 80%</p>
                  <p>Press any key to begin the math and recall sections. Thank you!</p>",32,,,,,,,,
call-function,83,167979,,"",,,,,,,,,
html-keyboard-response,84,168080,null,"",null,,,,,,,,
math-period,85,175418,13695.224999915808,"",,,,,,,,,1
html-keyboard-response,86,175520,null,"",null,,,,,,,,
math-period,87,191985,32888.99500016123,"",,,,,,,,,1 2
html-keyboard-response,88,192987,null,"Recall Period!",null,,,,,,,,
call-function,89,192989,,"",,,,,,,,,
html-keyboard-response,90,193090,null,"",null,,,,,,,,
recall-period,91,201069,53524.43500002846,"",,,,,,,,,Dreary
html-keyboard-response,92,201172,null,"",null,,,,,,,,
recall-period,93,204541,23952.0150013268,"",,,,,,,,,smooth
html-keyboard-response,94,204643,null,"",null,,,,,,,,
recall-period,95,257535,274579.3900010176,"",,,,,,,,,cold
html-keyboard-response,96,257636,null,"",null,,,,,,,,
recall-period,97,267990,null,"",,,,,,,,,
html-keyboard-response,98,268492,null,"Time's Up!",null,,,,,,,,
html-keyboard-response,99,275152,6658.844999969006,"<p>We will now begin the experiment!<p><p>Please try to remember all words from each list.<p><p>Press the spacebar whenever you see a red square.<p><p><p><p>Press the spacebar to begin.</p>",32,,,,,,,,
html-keyboard-response,100,278574,2920.7950001582503,"<div style=""font-size:48px;"">Press any key to begin list 1 of 24 </div>",32,,,,,,,,
html-keyboard-response,101,281077,null,"<div style=""font-size:60px;"">+</div>",null,,,,,,,,
html-keyboard-response,102,281579,null,"BOTTLE<img id = ""stim"" ><div class = green_square id = ""topsquare"" ></div><img id = ""stim"" ><div class = green_square  id = ""bottomsquare"" ></div>",null,word_square,response,0,none,true,,,
html-keyboard-response,103,283081,null,"BOTTLE",null,word,,,,, 'BOTTLE',,
html-keyboard-response,104,283533,450.84500033408403,"CLOTHES<img id = ""stim"" ><div class = red_square id = ""topsquare"" ></div><img id = ""stim"" ><div class = red_square  id = ""bottomsquare"" ></div>",32,word_square,response,1,Space,true,,,
html-keyboard-response,105,285035,null,"CLOTHES",null,word,,,,, 'CLOTHES',,
html-keyboard-response,106,285537,null,"BEETLE<img id = ""stim"" ><div class = green_square id = ""topsquare"" ></div><img id = ""stim"" ><div class = green_square  id = ""bottomsquare"" ></div>",null,word_square,response,0,none,true,,,
html-keyboard-response,107,287038,null,"BEETLE",null,word,,,,, 'BEETLE',,
html-keyboard-response,108,287540,null,"SNOB<img id = ""stim"" ><div class = red_square id = ""topsquare"" ></div><img id = ""stim"" ><div class = red_square  id = ""bottomsquare"" ></div>",null,word_square,response,1,Space,false,,,
html-keyboard-response,109,289042,null,"SNOB",null,word,,,,, 'SNOB',,
html-keyboard-response,110,289544,null,"CABIN<img id = ""stim"" ><div class = green_square id = ""topsquare"" ></div><img id = ""stim"" ><div class = green_square  id = ""bottomsquare"" ></div>",null,word_square,response,0,none,true,,,
html-keyboard-response,111,291046,null,"CABIN",null,word,,,,, 'CABIN',,
html-keyboard-response,112,291549,null,"SCARF<img id = ""stim"" ><div class = green_square id = ""topsquare"" ></div><img id = ""stim"" ><div class = green_square  id = ""bottomsquare"" ></div>",null,word_square,response,0,none,true,,,
html-keyboard-response,113,293050,null,"SCARF",null,word,,,,, 'SCARF',,
html-keyboard-response,114,293470,417.78000025078654,"STREAM<img id = ""stim"" ><div class = red_square id = ""topsquare"" ></div><img id = ""stim"" ><div class = red_square  id = ""bottomsquare"" ></div>",32,word_square,response,1,Space,true,,,
html-keyboard-response,115,294972,null,"STREAM",null,word,,,,, 'STREAM',,
html-keyboard-response,116,295474,null,"SPONGE<img id = ""stim"" ><div class = red_square id = ""topsquare"" ></div><img id = ""stim"" ><div class = red_square  id = ""bottomsquare"" ></div>",null,word_square,response,1,Space,false,,,
html-keyboard-response,117,296976,null,"SPONGE",null,word,,,,, 'SPONGE',,
html-keyboard-response,118,297478,null,"SCISSORS<img id = ""stim"" ><div class = green_square id = ""topsquare"" ></div><img id = ""stim"" ><div class = green_square  id = ""bottomsquare"" ></div>",null,word_square,response,0,none,true,,,
html-keyboard-response,119,298980,null,"SCISSORS",null,word,,,,, 'SCISSORS',,
html-keyboard-response,120,299295,313.9550001360476,"RAZOR<img id = ""stim"" ><div class = red_square id = ""topsquare"" ></div><img id = ""stim"" ><div class = red_square  id = ""bottomsquare"" ></div>",32,word_square,response,1,Space,true,,,
html-keyboard-response,121,300797,null,"RAZOR",null,word,,,,, 'RAZOR',,
html-keyboard-response,122,301303,null,"SALMON<img id = ""stim"" ><div class = green_square id = ""topsquare"" ></div><img id = ""stim"" ><div class = green_square  id = ""bottomsquare"" ></div>",null,word_square,response,0,none,true,,,
html-keyboard-response,123,302805,null,"SALMON",null,word,,,,, 'SALMON',,
html-keyboard-response,124,303306,null,"COLUMN<img id = ""stim"" ><div class = green_square id = ""topsquare"" ></div><img id = ""stim"" ><div class = green_square  id = ""bottomsquare"" ></div>",null,word_square,response,0,none,true,,,
html-keyboard-response,125,304808,null,"COLUMN",null,word,,,,, 'COLUMN',,
html-keyboard-response,126,305310,null,"WHISKERS<img id = ""stim"" ><div class = red_square id = ""topsquare"" ></div><img id = ""stim"" ><div class = red_square  id = ""bottomsquare"" ></div>",null,word_square,response,1,Space,false,,,
html-keyboard-response,127,306812,null,"WHISKERS",null,word,,,,, 'WHISKERS',,
html-keyboard-response,128,307314,null,"MOTEL<img id = ""stim"" ><div class = red_square id = ""topsquare"" ></div><img id = ""stim"" ><div class = red_square  id = ""bottomsquare"" ></div>",null,word_square,response,1,Space,false,,,
html-keyboard-response,129,308816,null,"MOTEL",null,word,,,,, 'MOTEL',,
html-keyboard-response,130,309319,null,"CABLE<img id = ""stim"" ><div class = red_square id = ""topsquare"" ></div><img id = ""stim"" ><div class = red_square  id = ""bottomsquare"" ></div>",null,word_square,response,1,Space,false,,,
html-keyboard-response,131,310821,null,"CABLE",null,word,,,,, 'CABLE',,
html-keyboard-response,132,311323,null,"TOOTHBRUSH<img id = ""stim"" ><div class = green_square id = ""topsquare"" ></div><img id = ""stim"" ><div class = green_square  id = ""bottomsquare"" ></div>",null,word_square,response,0,none,true,,,
html-keyboard-response,133,312825,null,"TOOTHBRUSH",null,word,,,,, 'TOOTHBRUSH',,
html-keyboard-response,134,313327,null,"CRAB<img id = ""stim"" ><div class = green_square id = ""topsquare"" ></div><img id = ""stim"" ><div class = green_square  id = ""bottomsquare"" ></div>",null,word_square,response,0,none,true,,,
html-keyboard-response,135,314829,null,"CRAB",null,word,,,,, 'CRAB',,
html-keyboard-response,136,315331,null,"ROOSTER<img id = ""stim"" ><div class = red_square id = ""topsquare"" ></div><img id = ""stim"" ><div class = red_square  id = ""bottomsquare"" ></div>",null,word_square,response,1,Space,false,,,
html-keyboard-response,137,316833,null,"ROOSTER",null,word,,,,, 'ROOSTER',,
call-function,138,316834,,"",,,,,,,,,
html-keyboard-response,139,316936,null,"",null,,,,,,,,
math-period,140,328160,78918.6250003986,"",,,,,,,,,5
html-keyboard-response,141,328262,null,"",null,,,,,,,,
math-period,142,330928,4720.504999626428,"",,,,,,,,,3numpad
html-keyboard-response,143,331030,null,"",null,,,,,,,,
math-period,144,333504,4463.975000195205,"",,,,,,,,,6numpad
html-keyboard-response,145,333606,null,"",null,,,,,,,,
math-period,146,339248,10289.16999977082,"",,,,,,,,,5numpad
html-keyboard-response,147,339350,null,"",null,,,,,,,,
math-period,148,340836,null,"",,,,,,,,,
html-keyboard-response,149,341839,null,"Recall Period!",null,,,,,,,,
call-function,150,341840,,"",,,,,,,,,
html-keyboard-response,151,341942,null,"",null,,,,,,,,
recall-period,152,346432,18584.720000624657,"",,,,,,,,,snob
html-keyboard-response,153,346534,null,"",null,,,,,,,,
recall-period,154,357583,94021.87000075355,"",,,,,,,,,preacher
html-keyboard-response,155,357685,null,"",null,,,,,,,,
recall-period,156,383635,151230.2299994044,"",,,,,,,,,scarf
html-keyboard-response,157,383737,null,"",null,,,,,,,,
recall-period,158,416841,null,"",,,,,,,,,
html-keyboard-response,159,417343,null,"Time's Up!",null,,,,,,,,
html-keyboard-response,160,425080,7730.764999985695,"<p> Good job! You responded correctly to 83% of the red squares.</p>
                  <p>Be sure to keep your accuracy above 80%</p>
                  <p>Press any key to continue the experiment. Thank you!</p>",32,,,,,,,,
html-keyboard-response,161,431014,5932.759999763221,"<div style=""font-size:48px;"">Press any key to begin list 2 of 24 </div>",32,,,,,,,,
html-keyboard-response,162,433517,null,"<div style=""font-size:60px;"">+</div>",null,,,,,,,,
html-keyboard-response,163,434019,null,"GAUZE<img id = ""stim"" ><div class = green_square id = ""topsquare"" ></div><img id = ""stim"" ><div class = green_square  id = ""bottomsquare"" ></div>",null,word_square,response,0,none,true,,,
html-keyboard-response,164,435521,null,"GAUZE",null,word,,,,, 'GAUZE',,
html-keyboard-response,165,435960,437.3349999077618,"CRITIC<img id = ""stim"" ><div class = red_square id = ""topsquare"" ></div><img id = ""stim"" ><div class = red_square  id = ""bottomsquare"" ></div>",32,word_square,response,1,Space,true,,,
html-keyboard-response,166,437462,null,"CRITIC",null,word,,,,, 'CRITIC',,
html-keyboard-response,167,437964,null,"ACTRESS<img id = ""stim"" ><div class = green_square id = ""topsquare"" ></div><img id = ""stim"" ><div class = green_square  id = ""bottomsquare"" ></div>",null,word_square,response,0,none,true,,,
html-keyboard-response,168,439466,null,"ACTRESS",null,word,,,,, 'ACTRESS',,
html-keyboard-response,169,439878,410.2749996818602,"MARS<img id = ""stim"" ><div class = red_square id = ""topsquare"" ></div><img id = ""stim"" ><div class = red_square  id = ""bottomsquare"" ></div>",32,word_square,response,1,Space,true,,,
html-keyboard-response,170,441380,null,"MARS",null,word,,,,, 'MARS',,
html-keyboard-response,171,441882,null,"VENUS<img id = ""stim"" ><div class = green_square id = ""topsquare"" ></div><img id = ""stim"" ><div class = green_square  id = ""bottomsquare"" ></div>",null,word_square,response,0,none,true,,,
html-keyboard-response,172,443384,null,"VENUS",null,word,,,,, 'VENUS',,
html-keyboard-response,173,443886,null,"MAGNET<img id = ""stim"" ><div class = green_square id = ""topsquare"" ></div><img id = ""stim"" ><div class = green_square  id = ""bottomsquare"" ></div>",null,word_square,response,0,none,true,,,
html-keyboard-response,174,445388,null,"MAGNET",null,word,,,,, 'MAGNET',,
html-keyboard-response,175,445814,423.9199999719858,"FIST<img id = ""stim"" ><div class = red_square id = ""topsquare"" ></div><img id = ""stim"" ><div class = red_square  id = ""bottomsquare"" ></div>",32,word_square,response,1,Space,true,,,
html-keyboard-response,176,447315,null,"FIST",null,word,,,,, 'FIST',,
html-keyboard-response,177,447817,null,"TIGER<img id = ""stim"" ><div class = red_square id = ""topsquare"" ></div><img id = ""stim"" ><div class = red_square  id = ""bottomsquare"" ></div>",null,word_square,response,1,Space,false,,,
html-keyboard-response,178,449319,null,"TIGER",null,word,,,,, 'TIGER',,
html-keyboard-response,179,449821,null,"LOBBY<img id = ""stim"" ><div class = green_square id = ""topsquare"" ></div><img id = ""stim"" ><div class = green_square  id = ""bottomsquare"" ></div>",null,word_square,response,0,none,true,,,
html-keyboard-response,180,451323,null,"LOBBY",null,word,,,,, 'LOBBY',,
html-keyboard-response,181,451669,344.5850000716746,"STATUE<img id = ""stim"" ><div class = red_square id = ""topsquare"" ></div><img id = ""stim"" ><div class = red_square  id = ""bottomsquare"" ></div>",32,word_square,response,1,Space,true,,,
html-keyboard-response,182,453171,null,"STATUE",null,word,,,,, 'STATUE',,
html-keyboard-response,183,453673,null,"CASHEW<img id = ""stim"" ><div class = green_square id = ""topsquare"" ></div><img id = ""stim"" ><div class = green_square  id = ""bottomsquare"" ></div>",null,word_square,response,0,none,true,,,
html-keyboard-response,184,455175,null,"CASHEW",null,word,,,,, 'CASHEW',,
html-keyboard-response,185,455678,null,"DAGGER<img id = ""stim"" ><div class = green_square id = ""topsquare"" ></div><img id = ""stim"" ><div class = green_square  id = ""bottomsquare"" ></div>",null,word_square,response,0,none,true,,,
html-keyboard-response,186,457180,null,"DAGGER",null,word,,,,, 'DAGGER',,
html-keyboard-response,187,457542,360.5800000950694,"SWITCH<img id = ""stim"" ><div class = red_square id = ""topsquare"" ></div><img id = ""stim"" ><div class = red_square  id = ""bottomsquare"" ></div>",32,word_square,response,1,Space,true,,,
html-keyboard-response,188,459043,null,"SWITCH",null,word,,,,, 'SWITCH',,
html-keyboard-response,189,459397,353.040000423789,"CRAYON<img id = ""stim"" ><div class = red_square id = ""topsquare"" ></div><img id = ""stim"" ><div class = red_square  id = ""bottomsquare"" ></div>",32,word_square,response,1,Space,true,,,
html-keyboard-response,190,460900,null,"CRAYON",null,word,,,,, 'CRAYON',,
html-keyboard-response,191,461402,null,"BOUQUET<img id = ""stim"" ><div class = red_square id = ""topsquare"" ></div><img id = ""stim"" ><div class = red_square  id = ""bottomsquare"" ></div>",null,word_square,response,1,Space,false,,,
html-keyboard-response,192,462904,null,"BOUQUET",null,word,,,,, 'BOUQUET',,
html-keyboard-response,193,463406,null,"CONCERT<img id = ""stim"" ><div class = green_square id = ""topsquare"" ></div><img id = ""stim"" ><div class = green_square  id = ""bottomsquare"" ></div>",null,word_square,response,0,none,true,,,
html-keyboard-response,194,464908,null,"CONCERT",null,word,,,,, 'CONCERT',,
html-keyboard-response,195,465410,null,"CLERK<img id = ""stim"" ><div class = green_square id = ""topsquare"" ></div><img id = ""stim"" ><div class = green_square  id = ""bottomsquare"" ></div>",null,word_square,response,0,none,true,,,
html-keyboard-response,196,466912,null,"CLERK",null,word,,,,, 'CLERK',,
html-keyboard-response,197,467413,499.48500003665686,"FLASHLIGHT<img id = ""stim"" ><div class = red_square id = ""topsquare"" ></div><img id = ""stim"" ><div class = red_square  id = ""bottomsquare"" ></div>",32,word_square,response,1,Space,true,,,
html-keyboard-response,198,468915,null,"FLASHLIGHT",null,word,,,,, 'FLASHLIGHT',,
call-function,199,468916,,"",,,,,,,,,
html-keyboard-response,200,469018,null,"",null,,,,,,,,
math-period,201,472197,5443.240000400692,"",,,,,,,,,6numpad
html-keyboard-response,202,472299,null,"",null,,,,,,,,
math-period,203,474885,4544.639999978244,"",,,,,,,,,4numpad
html-keyboard-response,204,474987,null,"",null,,,,,,,,
math-period,205,478453,6159.645000472665,"",,,,,,,,,3numpad
html-keyboard-response,206,478554,null,"",null,,,,,,,,
math-period,207,480884,4032.8250005841255,"",,,,,,,,,4numpad
html-keyboard-response,208,480986,null,"",null,,,,,,,,
math-period,209,483572,4546.534999739379,"",,,,,,,,,5numpad
html-keyboard-response,210,483674,null,"",null,,,,,,,,
math-period,211,485768,3648.045000154525,"",,,,,,,,,5numpad
html-keyboard-response,212,485870,null,"",null,,,,,,,,
math-period,213,492918,50358.70499908924,"",,,,,,,,,
html-keyboard-response,214,493920,null,"Recall Period!",null,,,,,,,,
call-function,215,493921,,"",,,,,,,,,
html-keyboard-response,216,494023,null,"",null,,,,,,,,
recall-period,217,503463,53158.90499949455,"",,,,,,,,,gauze
html-keyboard-response,218,503566,null,"",null,,,,,,,,
recall-period,219,511671,50923.654998186976,"",,,,,,,,,actress
html-keyboard-response,220,511773,null,"",null,,,,,,,,
recall-period,221,522455,66392.02999975532,"",,,,,,,,,cashew
html-keyboard-response,222,522557,null,"",null,,,,,,,,
recall-period,223,525990,17820.305002387613,"",,,,,,,,,tiger
html-keyboard-response,224,526093,null,"",null,,,,,,,,
recall-period,225,544902,78850.23499978706,"",,,,,,,,,crayon
html-keyboard-response,226,545004,null,"",null,,,,,,,,
recall-period,227,568927,null,"",,,,,,,,,
html-keyboard-response,228,569429,null,"Time's Up!",null,,,,,,,,
html-keyboard-response,229,575931,6500.045000109822,"<p> Good job! You responded correctly to 85% of the red squares.</p>
                  <p>Be sure to keep your accuracy above 80%</p>
                  <p>Press any key to continue the experiment. Thank you!</p>",32,,,,,,,,
html-keyboard-response,230,580457,4524.805000051856,"<div style=""font-size:48px;"">Press any key to begin list 3 of 24 </div>",32,,,,,,,,
html-keyboard-response,231,582960,null,"<div style=""font-size:60px;"">+</div>",null,,,,,,,,
html-keyboard-response,232,583462,null,"VAMPIRE<img id = ""stim"" ><div class = red_square id = ""topsquare"" ></div><img id = ""stim"" ><div class = red_square  id = ""bottomsquare"" ></div>",null,word_square,response,1,Space,false,,,
html-keyboard-response,233,584964,null,"VAMPIRE",null,word,,,,, 'VAMPIRE',,
html-keyboard-response,234,585466,null,"FROG<img id = ""stim"" ><div class = green_square id = ""topsquare"" ></div><img id = ""stim"" ><div class = green_square  id = ""bottomsquare"" ></div>",null,word_square,response,0,none,true,,,
html-keyboard-response,235,586968,null,"FROG",null,word,,,,, 'FROG',,
html-keyboard-response,236,587470,null,"CROOK<img id = ""stim"" ><div class = red_square id = ""topsquare"" ></div><img id = ""stim"" ><div class = red_square  id = ""bottomsquare"" ></div>",null,word_square,response,1,Space,false,,,
html-keyboard-response,237,588971,null,"CROOK",null,word,,,,, 'CROOK',,
html-keyboard-response,238,589473,null,"HONEY<img id = ""stim"" ><div class = green_square id = ""topsquare"" ></div><img id = ""stim"" ><div class = green_square  id = ""bottomsquare"" ></div>",null,word_square,response,0,none,true,,,
html-keyboard-response,239,590975,null,"HONEY",null,word,,,,, 'HONEY',,
html-keyboard-response,240,591477,null,"PASTRY<img id = ""stim"" ><div class = red_square id = ""topsquare"" ></div><img id = ""stim"" ><div class = red_square  id = ""bottomsquare"" ></div>",null,word_square,response,1,Space,false,,,
html-keyboard-response,241,592979,null,"PASTRY",null,word,,,,, 'PASTRY',,
html-keyboard-response,242,593481,null,"PEOPLE<img id = ""stim"" ><div class = red_square id = ""topsquare"" ></div><img id = ""stim"" ><div class = red_square  id = ""bottomsquare"" ></div>",null,word_square,response,1,Space,false,,,
html-keyboard-response,243,594983,null,"PEOPLE",null,word,,,,, 'PEOPLE',,
html-keyboard-response,244,595485,null,"INMATE<img id = ""stim"" ><div class = green_square id = ""topsquare"" ></div><img id = ""stim"" ><div class = green_square  id = ""bottomsquare"" ></div>",null,word_square,response,0,none,true,,,
html-keyboard-response,245,596987,null,"INMATE",null,word,,,,, 'INMATE',,
html-keyboard-response,246,597489,null,"BANDIT<img id = ""stim"" ><div class = green_square id = ""topsquare"" ></div><img id = ""stim"" ><div class = green_square  id = ""bottomsquare"" ></div>",null,word_square,response,0,none,true,,,
html-keyboard-response,247,598991,null,"BANDIT",null,word,,,,, 'BANDIT',,
html-keyboard-response,248,599493,null,"CRADLE<img id = ""stim"" ><div class = red_square id = ""topsquare"" ></div><img id = ""stim"" ><div class = red_square  id = ""bottomsquare"" ></div>",null,word_square,response,1,Space,false,,,
html-keyboard-response,249,600995,null,"CRADLE",null,word,,,,, 'CRADLE',,
html-keyboard-response,250,601497,null,"TURKEY<img id = ""stim"" ><div class = green_square id = ""topsquare"" ></div><img id = ""stim"" ><div class = green_square  id = ""bottomsquare"" ></div>",null,word_square,response,0,none,true,,,
html-keyboard-response,251,602999,null,"TURKEY",null,word,,,,, 'TURKEY',,
html-keyboard-response,252,603501,null,"BIKE<img id = ""stim"" ><div class = red_square id = ""topsquare"" ></div><img id = ""stim"" ><div class = red_square  id = ""bottomsquare"" ></div>",null,word_square,response,1,Space,false,,,
html-keyboard-response,253,605003,null,"BIKE",null,word,,,,, 'BIKE',,
html-keyboard-response,254,605505,null,"DENTIST<img id = ""stim"" ><div class = red_square id = ""topsquare"" ></div><img id = ""stim"" ><div class = red_square  id = ""bottomsquare"" ></div>",null,word_square,response,1,Space,false,,,
html-keyboard-response,255,607011,null,"DENTIST",null,word,,,,, 'DENTIST',,
html-keyboard-response,256,607513,null,"DRILL<img id = ""stim"" ><div class = green_square id = ""topsquare"" ></div><img id = ""stim"" ><div class = green_square  id = ""bottomsquare"" ></div>",null,word_square,response,0,none,true,,,
html-keyboard-response,257,609015,null,"DRILL",null,word,,,,, 'DRILL',,
html-keyboard-response,258,609517,null,"JURY<img id = ""stim"" ><div class = green_square id = ""topsquare"" ></div><img id = ""stim"" ><div class = green_square  id = ""bottomsquare"" ></div>",null,word_square,response,0,none,true,,,
html-keyboard-response,259,611019,null,"JURY",null,word,,,,, 'JURY',,
html-keyboard-response,260,611521,null,"JELLO<img id = ""stim"" ><div class = green_square id = ""topsquare"" ></div><img id = ""stim"" ><div class = green_square  id = ""bottomsquare"" ></div>",null,word_square,response,0,none,true,,,
html-keyboard-response,261,613023,null,"JELLO",null,word,,,,, 'JELLO',,
html-keyboard-response,262,613525,null,"WALRUS<img id = ""stim"" ><div class = red_square id = ""topsquare"" ></div><img id = ""stim"" ><div class = red_square  id = ""bottomsquare"" ></div>",null,word_square,response,1,Space,false,,,
html-keyboard-response,263,615027,null,"WALRUS",null,word,,,,, 'WALRUS',,
html-keyboard-response,264,615529,null,"SCALPEL<img id = ""stim"" ><div class = red_square id = ""topsquare"" ></div><img id = ""stim"" ><div class = red_square  id = ""bottomsquare"" ></div>",null,word_square,response,1,Space,false,,,
html-keyboard-response,265,617031,null,"SCALPEL",null,word,,,,, 'SCALPEL',,
html-keyboard-response,266,617534,null,"NURSE<img id = ""stim"" ><div class = green_square id = ""topsquare"" ></div><img id = ""stim"" ><div class = green_square  id = ""bottomsquare"" ></div>",null,word_square,response,0,none,true,,,
html-keyboard-response,267,619036,null,"NURSE",null,word,,,,, 'NURSE',,
call-function,268,619037,,"",,,,,,,,,
html-keyboard-response,269,619139,null,"",null,,,,,,,,
math-period,270,623372,7295.0349994935095,"",,,,,,,,,2numpad
html-keyboard-response,271,623474,null,"",null,,,,,,,,
math-period,272,627228,7025.940000079572,"",,,,,,,,,2numpad
html-keyboard-response,273,627330,null,"",null,,,,,,,,
math-period,274,629579,4095.7249999046326,"",,,,,,,,,4numpad
html-keyboard-response,275,629682,null,"",null,,,,,,,,
math-period,276,636011,45724.39999785274,"",,,,,,,,,4numpad
html-keyboard-response,277,636113,null,"",null,,,,,,,,
math-period,278,639099,5329.859999939799,"",,,,,,,,,1numpad
html-keyboard-response,279,639200,null,"",null,,,,,,,,
math-period,280,641243,3619.4900004193187,"",,,,,,,,,2numpad
html-keyboard-response,281,641345,null,"",null,,,,,,,,
math-period,282,643039,null,"",,,,,,,,,
html-keyboard-response,283,644041,null,"Recall Period!",null,,,,,,,,
call-function,284,644042,,"",,,,,,,,,
html-keyboard-response,285,644144,null,"",null,,,,,,,,
recall-period,286,644283,136.99999963864684,"",,,,,,,,,
html-keyboard-response,287,644385,null,"",null,,,,,,,,
recall-period,288,651947,48183.48499946296,"",,,,,,,,,dentis
html-keyboard-response,289,652048,null,"",null,,,,,,,,
recall-period,290,655963,21704.575000796467,"",,,,,,,,,bandit
html-keyboard-response,291,656065,null,"",null,,,,,,,,
recall-period,292,660314,20598.690000828356,"",,,,,,,,,pastor
html-keyboard-response,293,660417,null,"",null,,,,,,,,
recall-period,294,665034,43682.065004017204,"",,,,,,,,,walrus
html-keyboard-response,295,665138,null,"",null,,,,,,,,
recall-period,296,700653,492465.2350023389,"",,,,,,,,,tusk
html-keyboard-response,297,700755,null,"",null,,,,,,,,
recall-period,298,719044,null,"",,,,,,,,,
html-keyboard-response,299,719546,null,"Time's Up!",null,,,,,,,,
html-keyboard-response,300,726350,6802.3100001737475,"<p> Uh oh. You responded correctly on 76% of the red squares.</p>
                  <p>We need you keep your accuracy above 80%</p>
                  <p>Press any key to continue the experiment. Thank you!</p>",32,,,,,,,,
html-keyboard-response,301,728625,2268.915000371635,"<div style=""font-size:48px;"">Press any key to begin list 4 of 24 </div>",32,,,,,,,,
html-keyboard-response,302,731128,null,"<div style=""font-size:60px;"">+</div>",null,,,,,,,,
html-keyboard-response,303,731630,null,"RADISH<img id = ""stim"" ><div class = red_square id = ""topsquare"" ></div><img id = ""stim"" ><div class = red_square  id = ""bottomsquare"" ></div>",null,word_square,response,1,Space,false,,,
html-keyboard-response,304,733132,null,"RADISH",null,word,,,,, 'RADISH',,
html-keyboard-response,305,733634,null,"COBWEB<img id = ""stim"" ><div class = green_square id = ""topsquare"" ></div><img id = ""stim"" ><div class = green_square  id = ""bottomsquare"" ></div>",null,word_square,response,0,none,true,,,
html-keyboard-response,306,735136,null,"COBWEB",null,word,,,,, 'COBWEB',,
html-keyboard-response,307,735638,null,"GROUND<img id = ""stim"" ><div class = red_square id = ""topsquare"" ></div><img id = ""stim"" ><div class = red_square  id = ""bottomsquare"" ></div>",null,word_square,response,1,Space,false,,,
html-keyboard-response,308,737140,null,"GROUND",null,word,,,,, 'GROUND',,
html-keyboard-response,309,737642,null,"STREET<img id = ""stim"" ><div class = green_square id = ""topsquare"" ></div><img id = ""stim"" ><div class = green_square  id = ""bottomsquare"" ></div>",null,word_square,response,0,none,true,,,
html-keyboard-response,310,739144,null,"STREET",null,word,,,,, 'STREET',,
html-keyboard-response,311,739645,null,"CRACKER<img id = ""stim"" ><div class = red_square id = ""topsquare"" ></div><img id = ""stim"" ><div class = red_square  id = ""bottomsquare"" ></div>",null,word_square,response,1,Space,false,,,
html-keyboard-response,312,741147,null,"CRACKER",null,word,,,,, 'CRACKER',,
html-keyboard-response,313,741650,null,"GAZELLE<img id = ""stim"" ><div class = red_square id = ""topsquare"" ></div><img id = ""stim"" ><div class = red_square  id = ""bottomsquare"" ></div>",null,word_square,response,1,Space,false,,,
html-keyboard-response,314,743152,null,"GAZELLE",null,word,,,,, 'GAZELLE',,
html-keyboard-response,315,743654,null,"APRON<img id = ""stim"" ><div class = green_square id = ""topsquare"" ></div><img id = ""stim"" ><div class = green_square  id = ""bottomsquare"" ></div>",null,word_square,response,0,none,true,,,
html-keyboard-response,316,745156,null,"APRON",null,word,,,,, 'APRON',,
html-keyboard-response,317,745658,null,"CUPBOARD<img id = ""stim"" ><div class = green_square id = ""topsquare"" ></div><img id = ""stim"" ><div class = green_square  id = ""bottomsquare"" ></div>",null,word_square,response,0,none,true,,,
html-keyboard-response,318,747160,null,"CUPBOARD",null,word,,,,, 'CUPBOARD',,
html-keyboard-response,319,747662,null,"FLIPPER<img id = ""stim"" ><div class = red_square id = ""topsquare"" ></div><img id = ""stim"" ><div class = red_square  id = ""bottomsquare"" ></div>",null,word_square,response,1,Space,false,,,
html-keyboard-response,320,749164,null,"FLIPPER",null,word,,,,, 'FLIPPER',,
html-keyboard-response,321,749666,null,"JEANS<img id = ""stim"" ><div class = green_square id = ""topsquare"" ></div><img id = ""stim"" ><div class = green_square  id = ""bottomsquare"" ></div>",null,word_square,response,0,none,true,,,
html-keyboard-response,322,751168,null,"JEANS",null,word,,,,, 'JEANS',,
html-keyboard-response,323,751554,384.8600001074374,"CARROT<img id = ""stim"" ><div class = red_square id = ""topsquare"" ></div><img id = ""stim"" ><div class = red_square  id = ""bottomsquare"" ></div>",32,word_square,response,1,Space,true,,,
html-keyboard-response,324,753056,null,"CARROT",null,word,,,,, 'CARROT',,
html-keyboard-response,325,753558,null,"TORCH<img id = ""stim"" ><div class = red_square id = ""topsquare"" ></div><img id = ""stim"" ><div class = red_square  id = ""bottomsquare"" ></div>",null,word_square,response,1,Space,false,,,
html-keyboard-response,326,755060,null,"TORCH",null,word,,,,, 'TORCH',,
html-keyboard-response,327,755562,null,"SAPPHIRE<img id = ""stim"" ><div class = green_square id = ""topsquare"" ></div><img id = ""stim"" ><div class = green_square  id = ""bottomsquare"" ></div>",null,word_square,response,0,none,true,,,
html-keyboard-response,328,757064,null,"SAPPHIRE",null,word,,,,, 'SAPPHIRE',,
html-keyboard-response,329,757566,null,"VICTOR<img id = ""stim"" ><div class = green_square id = ""topsquare"" ></div><img id = ""stim"" ><div class = green_square  id = ""bottomsquare"" ></div>",null,word_square,response,0,none,true,,,
html-keyboard-response,330,759068,null,"VICTOR",null,word,,,,, 'VICTOR',,
html-keyboard-response,331,759570,null,"PARSLEY<img id = ""stim"" ><div class = green_square id = ""topsquare"" ></div><img id = ""stim"" ><div class = green_square  id = ""bottomsquare"" ></div>",null,word_square,response,0,none,true,,,
html-keyboard-response,332,761072,null,"PARSLEY",null,word,,,,, 'PARSLEY',,
html-keyboard-response,333,761424,350.5649999715388,"SCHOOL<img id = ""stim"" ><div class = red_square id = ""topsquare"" ></div><img id = ""stim"" ><div class = red_square  id = ""bottomsquare"" ></div>",32,word_square,response,1,Space,true,,,
html-keyboard-response,334,762926,null,"SCHOOL",null,word,,,,, 'SCHOOL',,
html-keyboard-response,335,763428,null,"SUSPECT<img id = ""stim"" ><div class = red_square id = ""topsquare"" ></div><img id = ""stim"" ><div class = red_square  id = ""bottomsquare"" ></div>",null,word_square,response,1,Space,false,,,
html-keyboard-response,336,764930,null,"SUSPECT",null,word,,,,, 'SUSPECT',,
html-keyboard-response,337,765432,null,"CONVICT<img id = ""stim"" ><div class = green_square id = ""topsquare"" ></div><img id = ""stim"" ><div class = green_square  id = ""bottomsquare"" ></div>",null,word_square,response,0,none,true,,,
html-keyboard-response,338,766934,null,"CONVICT",null,word,,,,, 'CONVICT',,
call-function,339,766935,,"",,,,,,,,,
html-keyboard-response,340,767037,null,"",null,,,,,,,,
math-period,341,770464,6034.174999687821,"",,,,,,,,,4numpad
html-keyboard-response,342,770566,null,"",null,,,,,,,,
math-period,343,772560,3567.1000005677342,"",,,,,,,,,5numpad
html-keyboard-response,344,772661,null,"",null,,,,,,,,
math-period,345,774464,3234.9550002254546,"",,,,,,,,,5numpad
html-keyboard-response,346,774566,null,"",null,,,,,,,,
math-period,347,777216,4976.9999999552965,"",,,,,,,,,2numpad
html-keyboard-response,348,777318,null,"",null,,,,,,,,
math-period,349,779055,3104.254999663681,"",,,,,,,,,3numpad
html-keyboard-response,350,779157,null,"",null,,,,,,,,
math-period,351,782032,5409.784999676049,"",,,,,,,,,1numpad
html-keyboard-response,352,782134,null,"",null,,,,,,,,
math-period,353,784783,4961.649999488145,"",,,,,,,,,0numpad
html-keyboard-response,354,784885,null,"",null,,,,,,,,
math-period,355,787631,5169.145000167191,"",,,,,,,,,3numpad
html-keyboard-response,356,787733,null,"",null,,,,,,,,
math-period,357,789667,3472.820000257343,"",,,,,,,,,4numpad
html-keyboard-response,358,789769,null,"",null,,,,,,,,
math-period,359,790937,null,"",,,,,,,,,
html-keyboard-response,360,791939,null,"Recall Period!",null,,,,,,,,
call-function,361,791940,,"",,,,,,,,,
html-keyboard-response,362,792042,null,"",null,,,,,,,,
recall-period,363,797459,31556.549999397248,"",,,,,,,,,ground
html-keyboard-response,364,797561,null,"",null,,,,,,,,
recall-period,365,803155,33221.81500121951,"",,,,,,,,,radish
html-keyboard-response,366,803256,null,"",null,,,,,,,,
recall-period,367,805763,12170.349998399615,"",,,,,,,,,school
html-keyboard-response,368,805864,null,"",null,,,,,,,,
recall-period,369,838546,372266.4349968545,"",,,,,,,,,gazelle
html-keyboard-response,370,838647,null,"",null,,,,,,,,
recall-period,371,866946,null,"",,,,,,,,,
html-keyboard-response,372,867448,null,"Time's Up!",null,,,,,,,,
html-keyboard-response,373,873910,6459.770000074059,"<p> Uh oh. You responded correctly on 73% of the red squares.</p>
                  <p>We need you keep your accuracy above 80%</p>
                  <p>Press any key to continue the experiment. Thank you!</p>",32,,,,,,,,
html-keyboard-response,374,877284,3372.715000063181,"<div style=""font-size:48px;"">Press any key to begin list 5 of 24 </div>",32,,,,,,,,
html-keyboard-response,375,879787,null,"<div style=""font-size:60px;"">+</div>",null,,,,,,,,
html-keyboard-response,376,880289,null,"GYMNAST<img id = ""stim"" ><div class = green_square id = ""topsquare"" ></div><img id = ""stim"" ><div class = green_square  id = ""bottomsquare"" ></div>",null,word_square,response,0,none,true,,,
html-keyboard-response,377,881791,null,"GYMNAST",null,word,,,,, 'GYMNAST',,
html-keyboard-response,378,882293,null,"FOOTBALL<img id = ""stim"" ><div class = green_square id = ""topsquare"" ></div><img id = ""stim"" ><div class = green_square  id = ""bottomsquare"" ></div>",null,word_square,response,0,none,true,,,
html-keyboard-response,379,883795,null,"FOOTBALL",null,word,,,,, 'FOOTBALL',,
html-keyboard-response,380,884198,401.3600000180304,"COUSIN<img id = ""stim"" ><div class = red_square id = ""topsquare"" ></div><img id = ""stim"" ><div class = red_square  id = ""bottomsquare"" ></div>",32,word_square,response,1,Space,true,,,
html-keyboard-response,381,885700,null,"COUSIN",null,word,,,,, 'COUSIN',,
html-keyboard-response,382,886202,null,"SKIRT<img id = ""stim"" ><div class = green_square id = ""topsquare"" ></div><img id = ""stim"" ><div class = green_square  id = ""bottomsquare"" ></div>",null,word_square,response,0,none,true,,,
html-keyboard-response,383,887704,null,"SKIRT",null,word,,,,, 'SKIRT',,
html-keyboard-response,384,888068,362.3600001446903,"MONARCH<img id = ""stim"" ><div class = red_square id = ""topsquare"" ></div><img id = ""stim"" ><div class = red_square  id = ""bottomsquare"" ></div>",32,word_square,response,1,Space,true,,,
html-keyboard-response,385,889570,null,"MONARCH",null,word,,,,, 'MONARCH',,
html-keyboard-response,386,890072,null,"AUTHOR<img id = ""stim"" ><div class = green_square id = ""topsquare"" ></div><img id = ""stim"" ><div class = green_square  id = ""bottomsquare"" ></div>",null,word_square,response,0,none,true,,,
html-keyboard-response,387,891574,null,"AUTHOR",null,word,,,,, 'AUTHOR',,
html-keyboard-response,388,891892,316.14999985322356,"PASSAGE<img id = ""stim"" ><div class = red_square id = ""topsquare"" ></div><img id = ""stim"" ><div class = red_square  id = ""bottomsquare"" ></div>",32,word_square,response,1,Space,true,,,
html-keyboard-response,389,893394,null,"PASSAGE",null,word,,,,, 'PASSAGE',,
html-keyboard-response,390,893896,null,"RECEIPT<img id = ""stim"" ><div class = green_square id = ""topsquare"" ></div><img id = ""stim"" ><div class = green_square  id = ""bottomsquare"" ></div>",null,word_square,response,0,none,true,,,
html-keyboard-response,391,895398,null,"RECEIPT",null,word,,,,, 'RECEIPT',,
html-keyboard-response,392,895717,317.34499987214804,"CASHIER<img id = ""stim"" ><div class = red_square id = ""topsquare"" ></div><img id = ""stim"" ><div class = red_square  id = ""bottomsquare"" ></div>",32,word_square,response,1,Space,true,,,
html-keyboard-response,393,897219,null,"CASHIER",null,word,,,,, 'CASHIER',,
html-keyboard-response,394,897721,null,"UNCLE<img id = ""stim"" ><div class = red_square id = ""topsquare"" ></div><img id = ""stim"" ><div class = red_square  id = ""bottomsquare"" ></div>",null,word_square,response,1,Space,false,,,
html-keyboard-response,395,899223,null,"UNCLE",null,word,,,,, 'UNCLE',,
html-keyboard-response,396,899668,443.15999979153275,"PLAQUE<img id = ""stim"" ><div class = red_square id = ""topsquare"" ></div><img id = ""stim"" ><div class = red_square  id = ""bottomsquare"" ></div>",32,word_square,response,1,Space,true,,,
html-keyboard-response,397,901169,null,"PLAQUE",null,word,,,,, 'PLAQUE',,
html-keyboard-response,398,901572,400.47999983653426,"RUBY<img id = ""stim"" ><div class = red_square id = ""topsquare"" ></div><img id = ""stim"" ><div class = red_square  id = ""bottomsquare"" ></div>",32,word_square,response,1,Space,true,,,
html-keyboard-response,399,903074,null,"RUBY",null,word,,,,, 'RUBY',,
html-keyboard-response,400,903576,null,"CREATURE<img id = ""stim"" ><div class = green_square id = ""topsquare"" ></div><img id = ""stim"" ><div class = green_square  id = ""bottomsquare"" ></div>",null,word_square,response,0,none,true,,,
html-keyboard-response,401,905078,null,"CREATURE",null,word,,,,, 'CREATURE',,
html-keyboard-response,402,905580,null,"TRUMPET<img id = ""stim"" ><div class = green_square id = ""topsquare"" ></div><img id = ""stim"" ><div class = green_square  id = ""bottomsquare"" ></div>",null,word_square,response,0,none,true,,,
html-keyboard-response,403,907082,null,"TRUMPET",null,word,,,,, 'TRUMPET',,
html-keyboard-response,404,907429,345.9000000730157,"CONCRETE<img id = ""stim"" ><div class = red_square id = ""topsquare"" ></div><img id = ""stim"" ><div class = red_square  id = ""bottomsquare"" ></div>",32,word_square,response,1,Space,true,,,
html-keyboard-response,405,908931,null,"CONCRETE",null,word,,,,, 'CONCRETE',,
html-keyboard-response,406,909436,null,"CORAL<img id = ""stim"" ><div class = green_square id = ""topsquare"" ></div><img id = ""stim"" ><div class = green_square  id = ""bottomsquare"" ></div>",null,word_square,response,0,none,true,,,
html-keyboard-response,407,910939,null,"CORAL",null,word,,,,, 'CORAL',,
html-keyboard-response,408,911440,null,"SURVEY<img id = ""stim"" ><div class = green_square id = ""topsquare"" ></div><img id = ""stim"" ><div class = green_square  id = ""bottomsquare"" ></div>",null,word_square,response,0,none,true,,,
html-keyboard-response,409,912943,null,"SURVEY",null,word,,,,, 'SURVEY',,
html-keyboard-response,410,913335,390.7699999399483,"MOP<img id = ""stim"" ><div class = red_square id = ""topsquare"" ></div><img id = ""stim"" ><div class = red_square  id = ""bottomsquare"" ></div>",32,word_square,response,1,Space,true,,,
html-keyboard-response,411,914837,null,"MOP",null,word,,,,, 'MOP',,
call-function,412,914838,,"",,,,,,,,,
html-keyboard-response,413,914940,null,"",null,,,,,,,,
math-period,414,917641,4836.705000139773,"",,,,,,,,,4numpad
html-keyboard-response,415,917743,null,"",null,,,,,,,,
math-period,416,919655,3276.6749993897974,"",,,,,,,,,4numpad
html-keyboard-response,417,919757,null,"",null,,,,,,,,
math-period,418,922007,4064.319999422878,"",,,,,,,,,5numpad
html-keyboard-response,419,922109,null,"",null,,,,,,,,
math-period,420,924279,3935.4849997907877,"",,,,,,,,,3numpad
html-keyboard-response,421,924381,null,"",null,,,,,,,,
math-period,422,925767,2431.6149996593595,"",,,,,,,,,3numpad
html-keyboard-response,423,925869,null,"",null,,,,,,,,
math-period,424,927912,3745.2900004573166,"",,,,,,,,,3numpad
html-keyboard-response,425,928015,null,"",null,,,,,,,,
math-period,426,929479,2587.3300000093877,"",,,,,,,,,4numpad
html-keyboard-response,427,929580,null,"",null,,,,,,,,
math-period,428,931366,3201.120000332594,"",,,,,,,,,4numpad
html-keyboard-response,429,931468,null,"",null,,,,,,,,
math-period,430,933350,3392.6899996586144,"",,,,,,,,,4numpad
html-keyboard-response,431,933452,null,"",null,,,,,,,,
math-period,432,934870,2448.48500052467,"",,,,,,,,,3numpad
html-keyboard-response,433,934972,null,"",null,,,,,,,,
math-period,434,936758,3231.9900006987154,"",,,,,,,,,6numpad
html-keyboard-response,435,936860,null,"",null,,,,,,,,
math-period,436,938662,3121.9649999402463,"",,,,,,,,,4numpad
html-keyboard-response,437,938764,null,"",null,,,,,,,,
math-period,438,938839,null,"",,,,,,,,,
html-keyboard-response,439,939841,null,"Recall Period!",null,,,,,,,,
call-function,440,939842,,"",,,,,,,,,
html-keyboard-response,441,939944,null,"",null,,,,,,,,
recall-period,442,960869,382158.06500194594,"",,,,,,,,,football
html-keyboard-response,443,960971,null,"",null,,,,,,,,
recall-period,444,968517,71474.85999856144,"",,,,,,,,,gymnist
html-keyboard-response,445,968619,null,"",null,,,,,,,,
recall-period,446,975226,30471.634999848902,"",,,,,,,,,ruby
html-keyboard-response,447,975328,null,"",null,,,,,,,,
recall-period,448,987081,74834.06500099227,"",,,,,,,,,survey
html-keyboard-response,449,987185,null,"",null,,,,,,,,
recall-period,450,995755,68399.06500000507,"",,,,,,,,,trumpet
html-keyboard-response,451,995857,null,"",null,,,,,,,,
recall-period,452,1014843,null,"",,,,,,,,,
html-keyboard-response,453,1015345,null,"Time's Up!",null,,,,,,,,
html-keyboard-response,454,1028121,12774.160000029951,"<p> Uh oh. You responded correctly on 77% of the red squares.</p>
                  <p>We need you keep your accuracy above 80%</p>
                  <p>Press any key to continue the experiment. Thank you!</p>",32,,,,,,,,
html-keyboard-response,455,1033410,5283.205000218004,"<div style=""font-size:48px;"">Press any key to begin list 6 of 24 </div>",32,,,,,,,,
html-keyboard-response,456,1035913,null,"<div style=""font-size:60px;"">+</div>",null,,,,,,,,
html-keyboard-response,457,1036415,null,"PANTHER<img id = ""stim"" ><div class = green_square id = ""topsquare"" ></div><img id = ""stim"" ><div class = green_square  id = ""bottomsquare"" ></div>",null,word_square,response,0,none,true,,,
html-keyboard-response,458,1037917,null,"PANTHER",null,word,,,,, 'PANTHER',,
html-keyboard-response,459,1038419,null,"SHIRT<img id = ""stim"" ><div class = green_square id = ""topsquare"" ></div><img id = ""stim"" ><div class = green_square  id = ""bottomsquare"" ></div>",null,word_square,response,0,none,true,,,
html-keyboard-response,460,1039921,null,"SHIRT",null,word,,,,, 'SHIRT',,
html-keyboard-response,461,1040253,330.3849999792874,"FRIES<img id = ""stim"" ><div class = red_square id = ""topsquare"" ></div><img id = ""stim"" ><div class = red_square  id = ""bottomsquare"" ></div>",32,word_square,response,1,Space,true,,,
html-keyboard-response,462,1041755,null,"FRIES",null,word,,,,, 'FRIES',,
html-keyboard-response,463,1042257,null,"DOORBELL<img id = ""stim"" ><div class = green_square id = ""topsquare"" ></div><img id = ""stim"" ><div class = green_square  id = ""bottomsquare"" ></div>",null,word_square,response,0,none,true,,,
html-keyboard-response,464,1043759,null,"DOORBELL",null,word,,,,, 'DOORBELL',,
html-keyboard-response,465,1044171,410.2499997243285,"MATTRESS<img id = ""stim"" ><div class = red_square id = ""topsquare"" ></div><img id = ""stim"" ><div class = red_square  id = ""bottomsquare"" ></div>",32,word_square,response,1,Space,true,,,
html-keyboard-response,466,1045673,null,"MATTRESS",null,word,,,,, 'MATTRESS',,
html-keyboard-response,467,1046175,null,"KNAPSACK<img id = ""stim"" ><div class = green_square id = ""topsquare"" ></div><img id = ""stim"" ><div class = green_square  id = ""bottomsquare"" ></div>",null,word_square,response,0,none,true,,,
html-keyboard-response,468,1047677,null,"KNAPSACK",null,word,,,,, 'KNAPSACK',,
html-keyboard-response,469,1048043,364.1200000420213,"DESSERT<img id = ""stim"" ><div class = red_square id = ""topsquare"" ></div><img id = ""stim"" ><div class = red_square  id = ""bottomsquare"" ></div>",32,word_square,response,1,Space,true,,,
html-keyboard-response,470,1049545,null,"DESSERT",null,word,,,,, 'DESSERT',,
html-keyboard-response,471,1050047,null,"SPIDER<img id = ""stim"" ><div class = green_square id = ""topsquare"" ></div><img id = ""stim"" ><div class = green_square  id = ""bottomsquare"" ></div>",null,word_square,response,0,none,true,,,
html-keyboard-response,472,1051549,null,"SPIDER",null,word,,,,, 'SPIDER',,
html-keyboard-response,473,1051916,365.34499982371926,"POISON<img id = ""stim"" ><div class = red_square id = ""topsquare"" ></div><img id = ""stim"" ><div class = red_square  id = ""bottomsquare"" ></div>",32,word_square,response,1,Space,true,,,
html-keyboard-response,474,1053418,null,"POISON",null,word,,,,, 'POISON',,
html-keyboard-response,475,1053920,null,"CANOE<img id = ""stim"" ><div class = red_square id = ""topsquare"" ></div><img id = ""stim"" ><div class = red_square  id = ""bottomsquare"" ></div>",null,word_square,response,1,Space,false,,,
html-keyboard-response,476,1055423,null,"CANOE",null,word,,,,, 'CANOE',,
html-keyboard-response,477,1055835,410.4450000450015,"PEBBLE<img id = ""stim"" ><div class = red_square id = ""topsquare"" ></div><img id = ""stim"" ><div class = red_square  id = ""bottomsquare"" ></div>",32,word_square,response,1,Space,true,,,
html-keyboard-response,478,1057336,null,"PEBBLE",null,word,,,,, 'PEBBLE',,
html-keyboard-response,479,1057739,400.4399999976158,"KIDNEY<img id = ""stim"" ><div class = red_square id = ""topsquare"" ></div><img id = ""stim"" ><div class = red_square  id = ""bottomsquare"" ></div>",32,word_square,response,1,Space,true,,,
html-keyboard-response,480,1059241,null,"KIDNEY",null,word,,,,, 'KIDNEY',,
html-keyboard-response,481,1059743,null,"KNIFE<img id = ""stim"" ><div class = green_square id = ""topsquare"" ></div><img id = ""stim"" ><div class = green_square  id = ""bottomsquare"" ></div>",null,word_square,response,0,none,true,,,
html-keyboard-response,482,1061245,null,"KNIFE",null,word,,,,, 'KNIFE',,
html-keyboard-response,483,1061747,null,"SOLDIER<img id = ""stim"" ><div class = green_square id = ""topsquare"" ></div><img id = ""stim"" ><div class = green_square  id = ""bottomsquare"" ></div>",null,word_square,response,0,none,true,,,
html-keyboard-response,484,1063249,null,"SOLDIER",null,word,,,,, 'SOLDIER',,
html-keyboard-response,485,1063660,409.8650002852082,"WASP<img id = ""stim"" ><div class = red_square id = ""topsquare"" ></div><img id = ""stim"" ><div class = red_square  id = ""bottomsquare"" ></div>",32,word_square,response,1,Space,true,,,
html-keyboard-response,486,1065162,null,"WASP",null,word,,,,, 'WASP',,
html-keyboard-response,487,1065664,null,"SNAKE<img id = ""stim"" ><div class = green_square id = ""topsquare"" ></div><img id = ""stim"" ><div class = green_square  id = ""bottomsquare"" ></div>",null,word_square,response,0,none,true,,,
html-keyboard-response,488,1067166,null,"SNAKE",null,word,,,,, 'SNAKE',,
html-keyboard-response,489,1067668,null,"SWAMP<img id = ""stim"" ><div class = green_square id = ""topsquare"" ></div><img id = ""stim"" ><div class = green_square  id = ""bottomsquare"" ></div>",null,word_square,response,0,none,true,,,
html-keyboard-response,490,1069170,null,"SWAMP",null,word,,,,, 'SWAMP',,
html-keyboard-response,491,1069578,406.73499973490834,"SOCKET<img id = ""stim"" ><div class = red_square id = ""topsquare"" ></div><img id = ""stim"" ><div class = red_square  id = ""bottomsquare"" ></div>",32,word_square,response,1,Space,true,,,
html-keyboard-response,492,1071080,null,"SOCKET",null,word,,,,, 'SOCKET',,
call-function,493,1071081,,"",,,,,,,,,
html-keyboard-response,494,1071183,null,"",null,,,,,,,,
math-period,495,1074108,4868.689999915659,"",,,,,,,,,6numpad
html-keyboard-response,496,1074210,null,"",null,,,,,,,,
math-period,497,1082394,56326.585000846535,"",,,,,,,,,1numpad
html-keyboard-response,498,1082496,null,"",null,,,,,,,,
math-period,499,1084954,4496.635000221431,"",,,,,,,,,5numpad
html-keyboard-response,500,1085055,null,"",null,,,,,,,,
math-period,501,1087674,4849.1000002250075,"",,,,,,,,,1numpad
html-keyboard-response,502,1087775,null,"",null,,,,,,,,
math-period,503,1089449,2976.2849998660386,"",,,,,,,,,2numpad
html-keyboard-response,504,1089550,null,"",null,,,,,,,,
math-period,505,1092169,4803.624999709427,"",,,,,,,,,4numpad
html-keyboard-response,506,1092272,null,"",null,,,,,,,,
math-period,507,1094334,3728.104999754578,"",,,,,,,,,5numpad
html-keyboard-response,508,1094436,null,"",null,,,,,,,,
math-period,509,1095083,null,"",,,,,,,,,
html-keyboard-response,510,1096085,null,"Recall Period!",null,,,,,,,,
call-function,511,1096085,,"",,,,,,,,,
html-keyboard-response,512,1096187,null,"",null,,,,,,,,
recall-period,513,1114061,153656.91500110552,"",,,,,,,,,panther
html-keyboard-response,514,1114164,null,"",null,,,,,,,,
recall-period,515,1128588,95298.47000027075,"",,,,,,,,,spider
html-keyboard-response,516,1128691,null,"",null,,,,,,,,
recall-period,517,1135836,42642.7300022915,"",,,,,,,,,kidney
html-keyboard-response,518,1135938,null,"",null,,,,,,,,
recall-period,519,1171091,null,"",,,,,,,,,
html-keyboard-response,520,1171594,null,"Time's Up!",null,,,,,,,,
html-keyboard-response,521,1185713,14117.109999991953,"<p> Uh oh. You responded correctly on 79% of the red squares.</p>
                  <p>We need you keep your accuracy above 80%</p>
                  <p>Press any key to continue the experiment. Thank you!</p>",32,,,,,,,,
html-keyboard-response,522,1192111,6396.540000103414,"<div style=""font-size:48px;"">Press any key to begin list 7 of 24 </div>",32,,,,,,,,
html-keyboard-response,523,1194614,null,"<div style=""font-size:60px;"">+</div>",null,,,,,,,,
html-keyboard-response,524,1195116,null,"SUITE<img id = ""stim"" ><div class = red_square id = ""topsquare"" ></div><img id = ""stim"" ><div class = red_square  id = ""bottomsquare"" ></div>",null,word_square,response,1,Space,false,,,
html-keyboard-response,525,1196618,null,"SUITE",null,word,,,,, 'SUITE',,
html-keyboard-response,526,1196992,372.5749999284744,"SOFTBALL<img id = ""stim"" ><div class = red_square id = ""topsquare"" ></div><img id = ""stim"" ><div class = red_square  id = ""bottomsquare"" ></div>",32,word_square,response,1,Space,true,,,
html-keyboard-response,527,1198494,null,"SOFTBALL",null,word,,,,, 'SOFTBALL',,
html-keyboard-response,528,1198996,null,"BRIDE<img id = ""stim"" ><div class = green_square id = ""topsquare"" ></div><img id = ""stim"" ><div class = green_square  id = ""bottomsquare"" ></div>",null,word_square,response,0,none,true,,,
html-keyboard-response,529,1200498,null,"BRIDE",null,word,,,,, 'BRIDE',,
html-keyboard-response,530,1200911,411.2799996510148,"COFFIN<img id = ""stim"" ><div class = red_square id = ""topsquare"" ></div><img id = ""stim"" ><div class = red_square  id = ""bottomsquare"" ></div>",32,word_square,response,1,Space,true,,,
html-keyboard-response,531,1202413,null,"COFFIN",null,word,,,,, 'COFFIN',,
html-keyboard-response,532,1202915,null,"COUNTRY<img id = ""stim"" ><div class = green_square id = ""topsquare"" ></div><img id = ""stim"" ><div class = green_square  id = ""bottomsquare"" ></div>",null,word_square,response,0,none,true,,,
html-keyboard-response,533,1204417,null,"COUNTRY",null,word,,,,, 'COUNTRY',,
html-keyboard-response,534,1204751,331.9800002500415,"ASIA<img id = ""stim"" ><div class = red_square id = ""topsquare"" ></div><img id = ""stim"" ><div class = red_square  id = ""bottomsquare"" ></div>",32,word_square,response,1,Space,true,,,
html-keyboard-response,535,1206253,null,"ASIA",null,word,,,,, 'ASIA',,
html-keyboard-response,536,1206755,null,"COUNTY<img id = ""stim"" ><div class = green_square id = ""topsquare"" ></div><img id = ""stim"" ><div class = green_square  id = ""bottomsquare"" ></div>",null,word_square,response,0,none,true,,,
html-keyboard-response,537,1208257,null,"COUNTY",null,word,,,,, 'COUNTY',,
html-keyboard-response,538,1208640,381.32999977096915,"NOVEL<img id = ""stim"" ><div class = red_square id = ""topsquare"" ></div><img id = ""stim"" ><div class = red_square  id = ""bottomsquare"" ></div>",32,word_square,response,1,Space,true,,,
html-keyboard-response,539,1210142,null,"NOVEL",null,word,,,,, 'NOVEL',,
html-keyboard-response,540,1210644,null,"JOURNAL<img id = ""stim"" ><div class = green_square id = ""topsquare"" ></div><img id = ""stim"" ><div class = green_square  id = ""bottomsquare"" ></div>",null,word_square,response,0,none,true,,,
html-keyboard-response,541,1212146,null,"JOURNAL",null,word,,,,, 'JOURNAL',,
html-keyboard-response,542,1212648,null,"SALT<img id = ""stim"" ><div class = green_square id = ""topsquare"" ></div><img id = ""stim"" ><div class = green_square  id = ""bottomsquare"" ></div>",null,word_square,response,0,none,true,,,
html-keyboard-response,543,1214154,null,"SALT",null,word,,,,, 'SALT',,
html-keyboard-response,544,1214450,294.37500005587935,"COBBLER<img id = ""stim"" ><div class = green_square id = ""topsquare"" ></div><img id = ""stim"" ><div class = green_square  id = ""bottomsquare"" ></div>",32,word_square,response,0,none,false,,,
html-keyboard-response,545,1215952,null,"COBBLER",null,word,,,,, 'COBBLER',,
html-keyboard-response,546,1216454,null,"LIST<img id = ""stim"" ><div class = green_square id = ""topsquare"" ></div><img id = ""stim"" ><div class = green_square  id = ""bottomsquare"" ></div>",null,word_square,response,0,none,true,,,
html-keyboard-response,547,1217956,null,"LIST",null,word,,,,, 'LIST',,
html-keyboard-response,548,1218450,491.97500012815,"CATCHER<img id = ""stim"" ><div class = red_square id = ""topsquare"" ></div><img id = ""stim"" ><div class = red_square  id = ""bottomsquare"" ></div>",32,word_square,response,1,Space,true,,,
html-keyboard-response,549,1219952,null,"CATCHER",null,word,,,,, 'CATCHER',,
html-keyboard-response,550,1220454,null,"GARLIC<img id = ""stim"" ><div class = red_square id = ""topsquare"" ></div><img id = ""stim"" ><div class = red_square  id = ""bottomsquare"" ></div>",null,word_square,response,1,Space,false,,,
html-keyboard-response,551,1221956,null,"GARLIC",null,word,,,,, 'GARLIC',,
html-keyboard-response,552,1222458,null,"BARREL<img id = ""stim"" ><div class = green_square id = ""topsquare"" ></div><img id = ""stim"" ><div class = green_square  id = ""bottomsquare"" ></div>",null,word_square,response,0,none,true,,,
html-keyboard-response,553,1223961,null,"BARREL",null,word,,,,, 'BARREL',,
html-keyboard-response,554,1224463,null,"OINTMENT<img id = ""stim"" ><div class = red_square id = ""topsquare"" ></div><img id = ""stim"" ><div class = red_square  id = ""bottomsquare"" ></div>",null,word_square,response,1,Space,false,,,
html-keyboard-response,555,1225965,null,"OINTMENT",null,word,,,,, 'OINTMENT',,
html-keyboard-response,556,1226467,null,"FOREST<img id = ""stim"" ><div class = red_square id = ""topsquare"" ></div><img id = ""stim"" ><div class = red_square  id = ""bottomsquare"" ></div>",null,word_square,response,1,Space,false,,,
html-keyboard-response,557,1227969,null,"FOREST",null,word,,,,, 'FOREST',,
html-keyboard-response,558,1228471,null,"ARMY<img id = ""stim"" ><div class = green_square id = ""topsquare"" ></div><img id = ""stim"" ><div class = green_square  id = ""bottomsquare"" ></div>",null,word_square,response,0,none,true,,,
html-keyboard-response,559,1229973,null,"ARMY",null,word,,,,, 'ARMY',,
call-function,560,1229975,,"",,,,,,,,,
html-keyboard-response,561,1230076,null,"",null,,,,,,,,
math-period,562,1234561,7880.115000065416,"",,,,,,,,,3numpad
html-keyboard-response,563,1234663,null,"",null,,,,,,,,
math-period,564,1237313,4799.415000714362,"",,,,,,,,,4numpad
html-keyboard-response,565,1237415,null,"",null,,,,,,,,
math-period,566,1239201,3119.444999843836,"",,,,,,,,,4numpad
html-keyboard-response,567,1239303,null,"",null,,,,,,,,
math-period,568,1241809,4592.96500030905,"",,,,,,,,,1numpad
html-keyboard-response,569,1241911,null,"",null,,,,,,,,
math-period,570,1244289,4338.609999511391,"",,,,,,,,,2numpad
html-keyboard-response,571,1244391,null,"",null,,,,,,,,
math-period,572,1246529,3871.9600001350045,"",,,,,,,,,5numpad
html-keyboard-response,573,1246631,null,"",null,,,,,,,,
math-period,574,1248369,3071.9599993899465,"",,,,,,,,,5numpad
html-keyboard-response,575,1248471,null,"",null,,,,,,,,
math-period,576,1250497,3632.149999961257,"",,,,,,,,,4numpad
html-keyboard-response,577,1250599,null,"",null,,,,,,,,
math-period,578,1253233,4863.559999968857,"",,,,,,,,,2numpad
html-keyboard-response,579,1253335,null,"",null,,,,,,,,
math-period,580,1253977,null,"",,,,,,,,,
html-keyboard-response,581,1254979,null,"Recall Period!",null,,,,,,,,
call-function,582,1254980,,"",,,,,,,,,
html-keyboard-response,583,1255082,null,"",null,,,,,,,,
recall-period,584,1277236,128695.34999830648,"",,,,,,,,,bride
html-keyboard-response,585,1277338,null,"",null,,,,,,,,
recall-period,586,1282052,20422.61499958113,"",,,,,,,,,asia
html-keyboard-response,587,1282155,null,"",null,,,,,,,,
recall-period,588,1293924,53734.07500050962,"",,,,,,,,,list
html-keyboard-response,589,1294026,null,"",null,,,,,,,,
recall-period,590,1296052,7334.9800002761185,"",,,,,,,,,salt
html-keyboard-response,591,1296155,null,"",null,,,,,,,,
recall-period,592,1311267,193798.0750007555,"",,,,,,,,,cobbler
html-keyboard-response,593,1311369,null,"",null,,,,,,,,
recall-period,594,1329982,null,"",,,,,,,,,
html-keyboard-response,595,1330484,null,"Time's Up!",null,,,,,,,,
html-keyboard-response,596,1341113,10621.964999940246,"<p> Uh oh. You responded correctly on 78% of the red squares.</p>
                  <p>We need you keep your accuracy above 80%</p>
                  <p>Press any key to continue the experiment. Thank you!</p>",32,,,,,,,,
html-keyboard-response,597,1343863,2748.7149997614324,"<div style=""font-size:48px;"">Press any key to begin list 8 of 24 </div>",32,,,,,,,,
html-keyboard-response,598,1346365,null,"<div style=""font-size:60px;"">+</div>",null,,,,,,,,
html-keyboard-response,599,1346867,null,"BUTLER<img id = ""stim"" ><div class = red_square id = ""topsquare"" ></div><img id = ""stim"" ><div class = red_square  id = ""bottomsquare"" ></div>",null,word_square,response,1,Space,false,,,
html-keyboard-response,600,1348369,null,"BUTLER",null,word,,,,, 'BUTLER',,
html-keyboard-response,601,1348791,419.664999935776,"BRICK<img id = ""stim"" ><div class = red_square id = ""topsquare"" ></div><img id = ""stim"" ><div class = red_square  id = ""bottomsquare"" ></div>",32,word_square,response,1,Space,true,,,
html-keyboard-response,602,1350292,null,"BRICK",null,word,,,,, 'BRICK',,
html-keyboard-response,603,1350794,null,"VESSEL<img id = ""stim"" ><div class = green_square id = ""topsquare"" ></div><img id = ""stim"" ><div class = green_square  id = ""bottomsquare"" ></div>",null,word_square,response,0,none,true,,,
html-keyboard-response,604,1352296,null,"VESSEL",null,word,,,,, 'VESSEL',,
html-keyboard-response,605,1352744,446.3599999435246,"LEG<img id = ""stim"" ><div class = red_square id = ""topsquare"" ></div><img id = ""stim"" ><div class = red_square  id = ""bottomsquare"" ></div>",32,word_square,response,1,Space,true,,,
html-keyboard-response,606,1354246,null,"LEG",null,word,,,,, 'LEG',,
html-keyboard-response,607,1354749,null,"WRIST<img id = ""stim"" ><div class = green_square id = ""topsquare"" ></div><img id = ""stim"" ><div class = green_square  id = ""bottomsquare"" ></div>",null,word_square,response,0,none,true,,,
html-keyboard-response,608,1356250,null,"WRIST",null,word,,,,, 'WRIST',,
html-keyboard-response,609,1356694,442.2499998472631,"PISTOL<img id = ""stim"" ><div class = red_square id = ""topsquare"" ></div><img id = ""stim"" ><div class = red_square  id = ""bottomsquare"" ></div>",32,word_square,response,1,Space,true,,,
html-keyboard-response,610,1358197,null,"PISTOL",null,word,,,,, 'PISTOL',,
html-keyboard-response,611,1358699,null,"MILK<img id = ""stim"" ><div class = green_square id = ""topsquare"" ></div><img id = ""stim"" ><div class = green_square  id = ""bottomsquare"" ></div>",null,word_square,response,0,none,true,,,
html-keyboard-response,612,1360200,null,"MILK",null,word,,,,, 'MILK',,
html-keyboard-response,613,1360598,396.25500002875924,"FARMER<img id = ""stim"" ><div class = red_square id = ""topsquare"" ></div><img id = ""stim"" ><div class = red_square  id = ""bottomsquare"" ></div>",32,word_square,response,1,Space,true,,,
html-keyboard-response,614,1362100,null,"FARMER",null,word,,,,, 'FARMER',,
html-keyboard-response,615,1362602,null,"OMELET<img id = ""stim"" ><div class = green_square id = ""topsquare"" ></div><img id = ""stim"" ><div class = green_square  id = ""bottomsquare"" ></div>",null,word_square,response,0,none,true,,,
html-keyboard-response,616,1364104,null,"OMELET",null,word,,,,, 'OMELET',,
html-keyboard-response,617,1364606,null,"BADGE<img id = ""stim"" ><div class = green_square id = ""topsquare"" ></div><img id = ""stim"" ><div class = green_square  id = ""bottomsquare"" ></div>",null,word_square,response,0,none,true,,,
html-keyboard-response,618,1366108,null,"BADGE",null,word,,,,, 'BADGE',,
html-keyboard-response,619,1366610,null,"PENCIL<img id = ""stim"" ><div class = green_square id = ""topsquare"" ></div><img id = ""stim"" ><div class = green_square  id = ""bottomsquare"" ></div>",null,word_square,response,0,none,true,,,
html-keyboard-response,620,1368112,null,"PENCIL",null,word,,,,, 'PENCIL',,
html-keyboard-response,621,1368614,null,"LADDER<img id = ""stim"" ><div class = green_square id = ""topsquare"" ></div><img id = ""stim"" ><div class = green_square  id = ""bottomsquare"" ></div>",null,word_square,response,0,none,true,,,
html-keyboard-response,622,1370116,null,"LADDER",null,word,,,,, 'LADDER',,
html-keyboard-response,623,1370520,402.0950002595782,"FOUNTAIN<img id = ""stim"" ><div class = red_square id = ""topsquare"" ></div><img id = ""stim"" ><div class = red_square  id = ""bottomsquare"" ></div>",32,word_square,response,1,Space,true,,,
html-keyboard-response,624,1372022,null,"FOUNTAIN",null,word,,,,, 'FOUNTAIN',,
html-keyboard-response,625,1372518,494.15000015869737,"RIFLE<img id = ""stim"" ><div class = red_square id = ""topsquare"" ></div><img id = ""stim"" ><div class = red_square  id = ""bottomsquare"" ></div>",32,word_square,response,1,Space,true,,,
html-keyboard-response,626,1374021,null,"RIFLE",null,word,,,,, 'RIFLE',,
html-keyboard-response,627,1374523,null,"MILDEW<img id = ""stim"" ><div class = green_square id = ""topsquare"" ></div><img id = ""stim"" ><div class = green_square  id = ""bottomsquare"" ></div>",null,word_square,response,0,none,true,,,
html-keyboard-response,628,1376025,null,"MILDEW",null,word,,,,, 'MILDEW',,
html-keyboard-response,629,1376502,475.00500036403537,"BELLY<img id = ""stim"" ><div class = red_square id = ""topsquare"" ></div><img id = ""stim"" ><div class = red_square  id = ""bottomsquare"" ></div>",32,word_square,response,1,Space,true,,,
html-keyboard-response,630,1378004,null,"BELLY",null,word,,,,, 'BELLY',,
html-keyboard-response,631,1378524,null,"GUARD<img id = ""stim"" ><div class = red_square id = ""topsquare"" ></div><img id = ""stim"" ><div class = red_square  id = ""bottomsquare"" ></div>",null,word_square,response,1,Space,false,,,
html-keyboard-response,632,1380026,null,"GUARD",null,word,,,,, 'GUARD',,
html-keyboard-response,633,1380528,null,"MERMAID<img id = ""stim"" ><div class = green_square id = ""topsquare"" ></div><img id = ""stim"" ><div class = green_square  id = ""bottomsquare"" ></div>",null,word_square,response,0,none,true,,,
html-keyboard-response,634,1382030,null,"MERMAID",null,word,,,,, 'MERMAID',,
call-function,635,1382032,,"",,,,,,,,,
html-keyboard-response,636,1382133,null,"",null,,,,,,,,
math-period,637,1388853,12446.43499981612,"",,,,,,,,,5numpad
html-keyboard-response,638,1388955,null,"",null,,,,,,,,
math-period,639,1390629,2799.6050002984703,"",,,,,,,,,5numpad
html-keyboard-response,640,1390732,null,"",null,,,,,,,,
math-period,641,1394405,6927.445000037551,"",,,,,,,,,0numpad
html-keyboard-response,642,1394508,null,"",null,,,,,,,,
math-period,643,1396405,3390.87999984622,"",,,,,,,,,5numpad
html-keyboard-response,644,1396508,null,"",null,,,,,,,,
math-period,645,1398309,3200.8799999020994,"",,,,,,,,,3numpad
html-keyboard-response,646,1398411,null,"",null,,,,,,,,
math-period,647,1399941,2688.2750000804663,"",,,,,,,,,3numpad
html-keyboard-response,648,1400043,null,"",null,,,,,,,,
math-period,649,1401881,3280.3450003266335,"",,,,,,,,,5numpad
html-keyboard-response,650,1401984,null,"",null,,,,,,,,
math-period,651,1403993,3616.179999895394,"",,,,,,,,,3numpad
html-keyboard-response,652,1404096,null,"",null,,,,,,,,
math-period,653,1405977,3360.0349999032915,"",,,,,,,,,4numpad
html-keyboard-response,654,1406080,null,"",null,,,,,,,,
math-period,655,1406082,null,"",,,,,,,,,
html-keyboard-response,656,1407085,null,"Recall Period!",null,,,,,,,,
call-function,657,1407086,,"",,,,,,,,,
html-keyboard-response,658,1407188,null,"",null,,,,,,,,
recall-period,659,1419433,79993.64500073716,"",,,,,,,,,butler
html-keyboard-response,660,1419535,null,"",null,,,,,,,,
recall-period,661,1421593,8654.840000905097,"",,,,,,,,,brick
html-keyboard-response,662,1421695,null,"",null,,,,,,,,
recall-period,663,1432665,49207.414999604225,"",,,,,,,,,milk
html-keyboard-response,664,1432767,null,"",null,,,,,,,,
recall-period,665,1440712,41685.855000745505,"",,,,,,,,,pistol
html-keyboard-response,666,1440815,null,"",null,,,,,,,,
recall-period,667,1482091,null,"",,,,,,,,,
html-keyboard-response,668,1482594,null,"Time's Up!",null,,,,,,,,
html-keyboard-response,669,1485292,2695.995000191033,"<p> Good job! You responded correctly to 80% of the red squares.</p>
                  <p>Be sure to keep your accuracy above 80%</p>
                  <p>Press any key to continue the experiment. Thank you!</p>",32,,,,,,,,
html-keyboard-response,670,1489066,3773.0200001969934,"<div style=""font-size:48px;"">Press any key to begin list 9 of 24 </div>",32,,,,,,,,
html-keyboard-response,671,1491569,null,"<div style=""font-size:60px;"">+</div>",null,,,,,,,,
html-keyboard-response,672,1492071,null,"LONDON<img id = ""stim"" ><div class = red_square id = ""topsquare"" ></div><img id = ""stim"" ><div class = red_square  id = ""bottomsquare"" ></div>",null,word_square,response,1,Space,false,,,
html-keyboard-response,673,1493573,null,"LONDON",null,word,,,,, 'LONDON',,
html-keyboard-response,674,1494075,null,"COBRA<img id = ""stim"" ><div class = green_square id = ""topsquare"" ></div><img id = ""stim"" ><div class = green_square  id = ""bottomsquare"" ></div>",null,word_square,response,0,none,true,,,
html-keyboard-response,675,1495577,null,"COBRA",null,word,,,,, 'COBRA',,
html-keyboard-response,676,1496079,null,"FLESH<img id = ""stim"" ><div class = red_square id = ""topsquare"" ></div><img id = ""stim"" ><div class = red_square  id = ""bottomsquare"" ></div>",null,word_square,response,1,Space,false,,,
html-keyboard-response,677,1497581,null,"FLESH",null,word,,,,, 'FLESH',,
html-keyboard-response,678,1498083,null,"OFFICE<img id = ""stim"" ><div class = green_square id = ""topsquare"" ></div><img id = ""stim"" ><div class = green_square  id = ""bottomsquare"" ></div>",null,word_square,response,0,none,true,,,
html-keyboard-response,679,1499585,null,"OFFICE",null,word,,,,, 'OFFICE',,
html-keyboard-response,680,1500087,null,"STAPLER<img id = ""stim"" ><div class = red_square id = ""topsquare"" ></div><img id = ""stim"" ><div class = red_square  id = ""bottomsquare"" ></div>",null,word_square,response,1,Space,false,,,
html-keyboard-response,681,1501590,null,"STAPLER",null,word,,,,, 'STAPLER',,
html-keyboard-response,682,1502091,null,"PILOT<img id = ""stim"" ><div class = green_square id = ""topsquare"" ></div><img id = ""stim"" ><div class = green_square  id = ""bottomsquare"" ></div>",null,word_square,response,0,none,true,,,
html-keyboard-response,683,1503593,null,"PILOT",null,word,,,,, 'PILOT',,
html-keyboard-response,684,1504095,null,"FEATHER<img id = ""stim"" ><div class = green_square id = ""topsquare"" ></div><img id = ""stim"" ><div class = green_square  id = ""bottomsquare"" ></div>",null,word_square,response,0,none,true,,,
html-keyboard-response,685,1505597,null,"FEATHER",null,word,,,,, 'FEATHER',,
html-keyboard-response,686,1506074,474.6699999086559,"BASEBALL<img id = ""stim"" ><div class = red_square id = ""topsquare"" ></div><img id = ""stim"" ><div class = red_square  id = ""bottomsquare"" ></div>",32,word_square,response,1,Space,true,,,
html-keyboard-response,687,1507575,null,"BASEBALL",null,word,,,,, 'BASEBALL',,
html-keyboard-response,688,1508078,null,"CRIB<img id = ""stim"" ><div class = green_square id = ""topsquare"" ></div><img id = ""stim"" ><div class = green_square  id = ""bottomsquare"" ></div>",null,word_square,response,0,none,true,,,
html-keyboard-response,689,1509580,null,"CRIB",null,word,,,,, 'CRIB',,
html-keyboard-response,690,1510082,null,"CARRIAGE<img id = ""stim"" ><div class = green_square id = ""topsquare"" ></div><img id = ""stim"" ><div class = green_square  id = ""bottomsquare"" ></div>",null,word_square,response,0,none,true,,,
html-keyboard-response,691,1511584,null,"CARRIAGE",null,word,,,,, 'CARRIAGE',,
html-keyboard-response,692,1512086,null,"SCULPTURE<img id = ""stim"" ><div class = red_square id = ""topsquare"" ></div><img id = ""stim"" ><div class = red_square  id = ""bottomsquare"" ></div>",null,word_square,response,1,Space,false,,,
html-keyboard-response,693,1513588,null,"SCULPTURE",null,word,,,,, 'SCULPTURE',,
html-keyboard-response,694,1514090,null,"PICTURE<img id = ""stim"" ><div class = green_square id = ""topsquare"" ></div><img id = ""stim"" ><div class = green_square  id = ""bottomsquare"" ></div>",null,word_square,response,0,none,true,,,
html-keyboard-response,695,1515592,null,"PICTURE",null,word,,,,, 'PICTURE',,
html-keyboard-response,696,1516094,null,"SERVER<img id = ""stim"" ><div class = green_square id = ""topsquare"" ></div><img id = ""stim"" ><div class = green_square  id = ""bottomsquare"" ></div>",null,word_square,response,0,none,true,,,
html-keyboard-response,697,1517596,null,"SERVER",null,word,,,,, 'SERVER',,
html-keyboard-response,698,1518098,null,"TYPIST<img id = ""stim"" ><div class = red_square id = ""topsquare"" ></div><img id = ""stim"" ><div class = red_square  id = ""bottomsquare"" ></div>",null,word_square,response,1,Space,false,,,
html-keyboard-response,699,1519600,null,"TYPIST",null,word,,,,, 'TYPIST',,
html-keyboard-response,700,1520102,null,"TRIGGER<img id = ""stim"" ><div class = green_square id = ""topsquare"" ></div><img id = ""stim"" ><div class = green_square  id = ""bottomsquare"" ></div>",null,word_square,response,0,none,true,,,
html-keyboard-response,701,1521604,null,"TRIGGER",null,word,,,,, 'TRIGGER',,
html-keyboard-response,702,1522089,483.5899998433888,"GAVEL<img id = ""stim"" ><div class = red_square id = ""topsquare"" ></div><img id = ""stim"" ><div class = red_square  id = ""bottomsquare"" ></div>",32,word_square,response,1,Space,true,,,
html-keyboard-response,703,1523595,null,"GAVEL",null,word,,,,, 'GAVEL',,
html-keyboard-response,704,1524097,null,"JUDGE<img id = ""stim"" ><div class = red_square id = ""topsquare"" ></div><img id = ""stim"" ><div class = red_square  id = ""bottomsquare"" ></div>",null,word_square,response,1,Space,false,,,
html-keyboard-response,705,1525599,null,"JUDGE",null,word,,,,, 'JUDGE',,
html-keyboard-response,706,1526077,476.24999983236194,"PIZZA<img id = ""stim"" ><div class = red_square id = ""topsquare"" ></div><img id = ""stim"" ><div class = red_square  id = ""bottomsquare"" ></div>",32,word_square,response,1,Space,true,,,
html-keyboard-response,707,1527579,null,"PIZZA",null,word,,,,, 'PIZZA',,
call-function,708,1527580,,"",,,,,,,,,
html-keyboard-response,709,1527682,null,"",null,,,,,,,,
math-period,710,1530461,5154.094999656081,"",,,,,,,,,5numpad
html-keyboard-response,711,1530563,null,"",null,,,,,,,,
math-period,712,1531933,2367.769999895245,"",,,,,,,,,6numpad
html-keyboard-response,713,1532035,null,"",null,,,,,,,,
math-period,714,1534045,3647.3799999803305,"",,,,,,,,,5numpad
html-keyboard-response,715,1534147,null,"",null,,,,,,,,
math-period,716,1535772,2880.755000282079,"",,,,,,,,,4numpad
html-keyboard-response,717,1535875,null,"",null,,,,,,,,
math-period,718,1537356,2574.8649993911386,"",,,,,,,,,2numpad
html-keyboard-response,719,1537458,null,"",null,,,,,,,,
math-period,720,1539244,3200.760000385344,"",,,,,,,,,1numpad
html-keyboard-response,721,1539346,null,"",null,,,,,,,,
math-period,722,1541020,2991.699999663979,"",,,,,,,,,5numpad
html-keyboard-response,723,1541121,null,"",null,,,,,,,,
math-period,724,1544524,6499.229999724776,"",,,,,,,,,3numpad
html-keyboard-response,725,1544626,null,"",null,,,,,,,,
math-period,726,1546571,3520.685000345111,"",,,,,,,,,1numpad
html-keyboard-response,727,1546673,null,"",null,,,,,,,,
math-period,728,1551582,35165.029999334365,"",,,,,,,,,4numpad
html-keyboard-response,729,1552585,null,"Recall Period!",null,,,,,,,,
call-function,730,1552586,,"",,,,,,,,,
html-keyboard-response,731,1552688,null,"",null,,,,,,,,
recall-period,732,1564571,66925.95000099391,"",,,,,,,,,cobra
html-keyboard-response,733,1564674,null,"",null,,,,,,,,
recall-period,734,1571275,35803.03999967873,"",,,,,,,,,pilot
html-keyboard-response,735,1571377,null,"",null,,,,,,,,
recall-period,736,1577627,38024.699999485165,"",,,,,,,,,london
html-keyboard-response,737,1577729,null,"",null,,,,,,,,
recall-period,738,1581179,18707.490000873804,"",,,,,,,,,baseball
html-keyboard-response,739,1581281,null,"",null,,,,,,,,
recall-period,740,1627592,null,"",,,,,,,,,
html-keyboard-response,741,1628094,null,"Time's Up!",null,,,,,,,,
html-keyboard-response,742,1631648,3551.105000078678,"<p> Uh oh. You responded correctly on 78% of the red squares.</p>
                  <p>We need you keep your accuracy above 80%</p>
                  <p>Press any key to continue the experiment. Thank you!</p>",32,,,,,,,,
html-keyboard-response,743,1632494,844.2349997349083,"<div style=""font-size:48px;"">Press any key to begin list 10 of 24 </div>",32,,,,,,,,
html-keyboard-response,744,1634997,null,"<div style=""font-size:60px;"">+</div>",null,,,,,,,,
html-keyboard-response,745,1635499,null,"TEAPOT<img id = ""stim"" ><div class = red_square id = ""topsquare"" ></div><img id = ""stim"" ><div class = red_square  id = ""bottomsquare"" ></div>",null,word_square,response,1,Space,false,,,
html-keyboard-response,746,1637000,null,"TEAPOT",null,word,,,,, 'TEAPOT',,
html-keyboard-response,747,1637502,null,"FOSSIL<img id = ""stim"" ><div class = green_square id = ""topsquare"" ></div><img id = ""stim"" ><div class = green_square  id = ""bottomsquare"" ></div>",null,word_square,response,0,none,true,,,
html-keyboard-response,748,1639004,null,"FOSSIL",null,word,,,,, 'FOSSIL',,
html-keyboard-response,749,1639470,464.0500000678003,"HAMPER<img id = ""stim"" ><div class = red_square id = ""topsquare"" ></div><img id = ""stim"" ><div class = red_square  id = ""bottomsquare"" ></div>",32,word_square,response,1,Space,true,,,
html-keyboard-response,750,1640972,null,"HAMPER",null,word,,,,, 'HAMPER',,
html-keyboard-response,751,1641474,null,"EYELASH<img id = ""stim"" ><div class = green_square id = ""topsquare"" ></div><img id = ""stim"" ><div class = green_square  id = ""bottomsquare"" ></div>",null,word_square,response,0,none,true,,,
html-keyboard-response,752,1642980,null,"EYELASH",null,word,,,,, 'EYELASH',,
html-keyboard-response,753,1643378,396.84500033035874,"PERFUME<img id = ""stim"" ><div class = red_square id = ""topsquare"" ></div><img id = ""stim"" ><div class = red_square  id = ""bottomsquare"" ></div>",32,word_square,response,1,Space,true,,,
html-keyboard-response,754,1644880,null,"PERFUME",null,word,,,,, 'PERFUME',,
html-keyboard-response,755,1645382,null,"BOXER<img id = ""stim"" ><div class = green_square id = ""topsquare"" ></div><img id = ""stim"" ><div class = green_square  id = ""bottomsquare"" ></div>",null,word_square,response,0,none,true,,,
html-keyboard-response,756,1646885,null,"BOXER",null,word,,,,, 'BOXER',,
html-keyboard-response,757,1647387,null,"YOLK<img id = ""stim"" ><div class = green_square id = ""topsquare"" ></div><img id = ""stim"" ><div class = green_square  id = ""bottomsquare"" ></div>",null,word_square,response,0,none,true,,,
html-keyboard-response,758,1648889,null,"YOLK",null,word,,,,, 'YOLK',,
html-keyboard-response,759,1649265,374.2700000293553,"MAILMAN<img id = ""stim"" ><div class = red_square id = ""topsquare"" ></div><img id = ""stim"" ><div class = red_square  id = ""bottomsquare"" ></div>",32,word_square,response,1,Space,true,,,
html-keyboard-response,760,1650767,null,"MAILMAN",null,word,,,,, 'MAILMAN',,
html-keyboard-response,761,1651269,null,"GIFT<img id = ""stim"" ><div class = green_square id = ""topsquare"" ></div><img id = ""stim"" ><div class = green_square  id = ""bottomsquare"" ></div>",null,word_square,response,0,none,true,,,
html-keyboard-response,762,1652771,null,"GIFT",null,word,,,,, 'GIFT',,
html-keyboard-response,763,1653273,null,"HEDGE<img id = ""stim"" ><div class = green_square id = ""topsquare"" ></div><img id = ""stim"" ><div class = green_square  id = ""bottomsquare"" ></div>",null,word_square,response,0,none,true,,,
html-keyboard-response,764,1654775,null,"HEDGE",null,word,,,,, 'HEDGE',,
html-keyboard-response,765,1655219,441.77000038325787,"BUCKLE<img id = ""stim"" ><div class = red_square id = ""topsquare"" ></div><img id = ""stim"" ><div class = red_square  id = ""bottomsquare"" ></div>",32,word_square,response,1,Space,true,,,
html-keyboard-response,766,1656720,null,"BUCKLE",null,word,,,,, 'BUCKLE',,
html-keyboard-response,767,1657222,null,"THIEF<img id = ""stim"" ><div class = green_square id = ""topsquare"" ></div><img id = ""stim"" ><div class = green_square  id = ""bottomsquare"" ></div>",null,word_square,response,0,none,true,,,
html-keyboard-response,768,1658724,null,"THIEF",null,word,,,,, 'THIEF',,
html-keyboard-response,769,1659226,null,"ROBBER<img id = ""stim"" ><div class = green_square id = ""topsquare"" ></div><img id = ""stim"" ><div class = green_square  id = ""bottomsquare"" ></div>",null,word_square,response,0,none,true,,,
html-keyboard-response,770,1660728,null,"ROBBER",null,word,,,,, 'ROBBER',,
html-keyboard-response,771,1661137,406.6049996763468,"HOOK<img id = ""stim"" ><div class = red_square id = ""topsquare"" ></div><img id = ""stim"" ><div class = red_square  id = ""bottomsquare"" ></div>",32,word_square,response,1,Space,true,,,
html-keyboard-response,772,1662639,null,"HOOK",null,word,,,,, 'HOOK',,
html-keyboard-response,773,1663141,null,"RIBBON<img id = ""stim"" ><div class = green_square id = ""topsquare"" ></div><img id = ""stim"" ><div class = green_square  id = ""bottomsquare"" ></div>",null,word_square,response,0,none,true,,,
html-keyboard-response,774,1664643,null,"RIBBON",null,word,,,,, 'RIBBON',,
html-keyboard-response,775,1665120,475.33000027760863,"MOTHER<img id = ""stim"" ><div class = red_square id = ""topsquare"" ></div><img id = ""stim"" ><div class = red_square  id = ""bottomsquare"" ></div>",32,word_square,response,1,Space,true,,,
html-keyboard-response,776,1666622,null,"MOTHER",null,word,,,,, 'MOTHER',,
html-keyboard-response,777,1667125,null,"BACON<img id = ""stim"" ><div class = red_square id = ""topsquare"" ></div><img id = ""stim"" ><div class = red_square  id = ""bottomsquare"" ></div>",null,word_square,response,1,Space,false,,,
html-keyboard-response,778,1668627,null,"BACON",null,word,,,,, 'BACON',,
html-keyboard-response,779,1669024,396.01000025868416,"SKUNK<img id = ""stim"" ><div class = red_square id = ""topsquare"" ></div><img id = ""stim"" ><div class = red_square  id = ""bottomsquare"" ></div>",32,word_square,response,1,Space,true,,,
html-keyboard-response,780,1670527,null,"SKUNK",null,word,,,,, 'SKUNK',,
call-function,781,1670528,,"",,,,,,,,,
html-keyboard-response,782,1670629,null,"",null,,,,,,,,
math-period,783,1673200,4706.904999911785,"",,,,,,,,,2numpad
html-keyboard-response,784,1673303,null,"",null,,,,,,,,
math-period,785,1674912,2815.155000425875,"",,,,,,,,,5numpad
html-keyboard-response,786,1675015,null,"",null,,,,,,,,
math-period,787,1676576,2814.9399999529123,"",,,,,,,,,2numpad
html-keyboard-response,788,1676679,null,"",null,,,,,,,,
math-period,789,1678464,3136.5849995054305,"",,,,,,,,,6numpad
html-keyboard-response,790,1678566,null,"",null,,,,,,,,
math-period,791,1683024,8448.4250000678,"",,,,,,,,,3numpad
html-keyboard-response,792,1683126,null,"",null,,,,,,,,
math-period,793,1685936,5263.340000063181,"",,,,,,,,,0numpad
html-keyboard-response,794,1686038,null,"",null,,,,,,,,
math-period,795,1688432,4400.529999751598,"",,,,,,,,,2numpad
html-keyboard-response,796,1688534,null,"",null,,,,,,,,
math-period,797,1690576,3679.2750004678965,"",,,,,,,,,4numpad
html-keyboard-response,798,1690678,null,"",null,,,,,,,,
math-period,799,1692991,4223.0250001885,"",,,,,,,,,1numpad
html-keyboard-response,800,1693093,null,"",null,,,,,,,,
math-period,801,1694528,null,"",,,,,,,,,
html-keyboard-response,802,1695530,null,"Recall Period!",null,,,,,,,,
call-function,803,1695532,,"",,,,,,,,,
html-keyboard-response,804,1695633,null,"",null,,,,,,,,
recall-period,805,1709140,90531.87000053003,"",,,,,,,,,hamper
html-keyboard-response,806,1709241,null,"",null,,,,,,,,
recall-period,807,1711123,8312.105000950396,"",,,,,,,,,teapot
html-keyboard-response,808,1711225,null,"",null,,,,,,,,
recall-period,809,1722803,64679.865000303835,"",,,,,,,,,yolk
html-keyboard-response,810,1722906,null,"",null,,,,,,,,
recall-period,811,1724931,8410.579999443144,"",,,,,,,,,boxer
html-keyboard-response,812,1725033,null,"",null,,,,,,,,
recall-period,813,1727251,11905.259998049587,"",,,,,,,,,perfume
html-keyboard-response,814,1727353,null,"",null,,,,,,,,
recall-period,815,1770538,null,"",,,,,,,,,
html-keyboard-response,816,1771041,null,"Time's Up!",null,,,,,,,,
html-keyboard-response,817,1783175,12132.244999986142,"<p> Uh oh. You responded correctly on 79% of the red squares.</p>
                  <p>We need you keep your accuracy above 80%</p>
                  <p>Press any key to continue the experiment. Thank you!</p>",32,,,,,,,,
html-keyboard-response,818,1784533,1356.8549999035895,"<div style=""font-size:48px;"">Press any key to begin list 11 of 24 </div>",32,,,,,,,,
html-keyboard-response,819,1787036,null,"<div style=""font-size:60px;"">+</div>",null,,,,,,,,
html-keyboard-response,820,1787538,null,"HORSE<img id = ""stim"" ><div class = green_square id = ""topsquare"" ></div><img id = ""stim"" ><div class = green_square  id = ""bottomsquare"" ></div>",null,word_square,response,0,none,true,,,
html-keyboard-response,821,1789040,null,"HORSE",null,word,,,,, 'HORSE',,
html-keyboard-response,822,1789525,483.3400002680719,"SILK<img id = ""stim"" ><div class = red_square id = ""topsquare"" ></div><img id = ""stim"" ><div class = red_square  id = ""bottomsquare"" ></div>",32,word_square,response,1,Space,true,,,
html-keyboard-response,823,1791027,null,"SILK",null,word,,,,, 'SILK',,
html-keyboard-response,824,1791493,464.3000001087785,"BUBBLE<img id = ""stim"" ><div class = green_square id = ""topsquare"" ></div><img id = ""stim"" ><div class = green_square  id = ""bottomsquare"" ></div>",32,word_square,response,0,none,false,,,
html-keyboard-response,825,1792995,null,"BUBBLE",null,word,,,,, 'BUBBLE',,
html-keyboard-response,826,1793497,null,"SIRLOIN<img id = ""stim"" ><div class = red_square id = ""topsquare"" ></div><img id = ""stim"" ><div class = red_square  id = ""bottomsquare"" ></div>",null,word_square,response,1,Space,false,,,
html-keyboard-response,827,1794999,null,"SIRLOIN",null,word,,,,, 'SIRLOIN',,
html-keyboard-response,828,1795501,null,"MARKET<img id = ""stim"" ><div class = green_square id = ""topsquare"" ></div><img id = ""stim"" ><div class = green_square  id = ""bottomsquare"" ></div>",null,word_square,response,0,none,true,,,
html-keyboard-response,829,1797003,null,"MARKET",null,word,,,,, 'MARKET',,
html-keyboard-response,830,1797461,455.9200000949204,"CEILING<img id = ""stim"" ><div class = red_square id = ""topsquare"" ></div><img id = ""stim"" ><div class = red_square  id = ""bottomsquare"" ></div>",32,word_square,response,1,Space,true,,,
html-keyboard-response,831,1798963,null,"CEILING",null,word,,,,, 'CEILING',,
html-keyboard-response,832,1799445,479.7600000165403,"MUFFIN<img id = ""stim"" ><div class = red_square id = ""topsquare"" ></div><img id = ""stim"" ><div class = red_square  id = ""bottomsquare"" ></div>",32,word_square,response,1,Space,true,,,
html-keyboard-response,833,1800947,null,"MUFFIN",null,word,,,,, 'MUFFIN',,
html-keyboard-response,834,1801450,null,"PORT<img id = ""stim"" ><div class = green_square id = ""topsquare"" ></div><img id = ""stim"" ><div class = green_square  id = ""bottomsquare"" ></div>",null,word_square,response,0,none,true,,,
html-keyboard-response,835,1802951,null,"PORT",null,word,,,,, 'PORT',,
html-keyboard-response,836,1803429,475.4950003698468,"SPICE<img id = ""stim"" ><div class = red_square id = ""topsquare"" ></div><img id = ""stim"" ><div class = red_square  id = ""bottomsquare"" ></div>",32,word_square,response,1,Space,true,,,
html-keyboard-response,837,1804931,null,"SPICE",null,word,,,,, 'SPICE',,
html-keyboard-response,838,1805433,null,"COOKBOOK<img id = ""stim"" ><div class = red_square id = ""topsquare"" ></div><img id = ""stim"" ><div class = red_square  id = ""bottomsquare"" ></div>",null,word_square,response,1,Space,false,,,
html-keyboard-response,839,1806935,null,"COOKBOOK",null,word,,,,, 'COOKBOOK',,
html-keyboard-response,840,1807437,null,"CONSOLE<img id = ""stim"" ><div class = green_square id = ""topsquare"" ></div><img id = ""stim"" ><div class = green_square  id = ""bottomsquare"" ></div>",null,word_square,response,0,none,true,,,
html-keyboard-response,841,1808939,null,"CONSOLE",null,word,,,,, 'CONSOLE',,
html-keyboard-response,842,1809412,472.02999982982874,"DRESS<img id = ""stim"" ><div class = red_square id = ""topsquare"" ></div><img id = ""stim"" ><div class = red_square  id = ""bottomsquare"" ></div>",32,word_square,response,1,Space,true,,,
html-keyboard-response,843,1810914,null,"DRESS",null,word,,,,, 'DRESS',,
html-keyboard-response,844,1811364,448.27499985694885,"LACE<img id = ""stim"" ><div class = red_square id = ""topsquare"" ></div><img id = ""stim"" ><div class = red_square  id = ""bottomsquare"" ></div>",32,word_square,response,1,Space,true,,,
html-keyboard-response,845,1812866,null,"LACE",null,word,,,,, 'LACE',,
html-keyboard-response,846,1813368,null,"POSTAGE<img id = ""stim"" ><div class = green_square id = ""topsquare"" ></div><img id = ""stim"" ><div class = green_square  id = ""bottomsquare"" ></div>",null,word_square,response,0,none,true,,,
html-keyboard-response,847,1814870,null,"POSTAGE",null,word,,,,, 'POSTAGE',,
html-keyboard-response,848,1815236,364.75499998778105,"PACKAGE<img id = ""stim"" ><div class = red_square id = ""topsquare"" ></div><img id = ""stim"" ><div class = red_square  id = ""bottomsquare"" ></div>",32,word_square,response,1,Space,true,,,
html-keyboard-response,849,1816739,null,"PACKAGE",null,word,,,,, 'PACKAGE',,
