trial_type,trial_index,time_elapsed,rt,stimulus,key_press,test_part,task,targ_cond,correctKeyCode,correct,word,value,response
pavlovia,0,855,,"",,,,,,,,,
external-html,1,25009,24023.504999997385,"",,,,,,,,,
html-keyboard-response,2,27067,2054.550000000745,"Welcome to the experiment. Press any key to begin.",72,,,,,,,,
html-keyboard-response,3,32737,5668.704999996407,"<p>You will see a list of words and colored squares in the following task.<p><p>Press the spacebar whenever you see a GREEN square.<p><p>Do not press a key if the square is RED<p><p>Press the spacebar to continue.</p>",32,,,,,,,,
html-keyboard-response,4,43788,10547.404999997525,"<p>Please try to remember as many of the words as you can, and try to think about the meaning of each word as it appears.<p><p>After the detection and encoding task you will be asked to solve some math problems for 24 seconds.<p> Please solve as many problems as you can in the time given. <p>",32,,,,,,,,
html-keyboard-response,5,49092,4802.110000004177,"After solving the math problems, you will be asked to type in as many words <p>from the previous list as you can remember for 75 seconds.<p> If you finish recalling before the 75 seconds are up,<p> just sit tight and try to think of any more words you could have missed. <p><p>We will begin with a brief practice session<p>Press the spacebar to begin the practice.</p>",32,,,,,,,,
html-keyboard-response,6,51602,null,"<div style=""font-size:60px;"">+</div>",null,,,,,,,,
html-keyboard-response,7,52109,null,"HAPPY<img id = ""stim"" ><div class = red_square id = ""topsquare"" ></div><img id = ""stim"" ><div class = red_square  id = ""bottomsquare"" ></div>",null,word_square,prac_response,0,none,true,,,
html-keyboard-response,8,53611,null,"HAPPY",null,word,,,,,HAPPY,,
html-keyboard-response,9,54116,null,"COLD<img id = ""stim"" ><div class = green_square id = ""topsquare"" ></div><img id = ""stim"" ><div class = green_square  id = ""bottomsquare"" ></div>",null,word_square,prac_response,1,Space,false,,,
html-keyboard-response,10,55619,null,"COLD",null,word,,,,,COLD,,
html-keyboard-response,11,56124,462.73000000655884,"HEAVY<img id = ""stim"" ><div class = green_square id = ""topsquare"" ></div><img id = ""stim"" ><div class = green_square  id = ""bottomsquare"" ></div>",32,word_square,prac_response,1,Space,true,,,
html-keyboard-response,12,57628,null,"HEAVY",null,word,,,,,HEAVY,,
html-keyboard-response,13,58133,null,"FUNNY<img id = ""stim"" ><div class = red_square id = ""topsquare"" ></div><img id = ""stim"" ><div class = red_square  id = ""bottomsquare"" ></div>",null,word_square,prac_response,0,none,true,,,
html-keyboard-response,14,59636,null,"FUNNY",null,word,,,,,FUNNY,,
html-keyboard-response,15,60141,365.24500000086846,"SCARY<img id = ""stim"" ><div class = green_square id = ""topsquare"" ></div><img id = ""stim"" ><div class = green_square  id = ""bottomsquare"" ></div>",32,word_square,prac_response,1,Space,true,,,
html-keyboard-response,16,61645,null,"SCARY",null,word,,,,,SCARY,,
html-keyboard-response,17,62150,420.85499999666354,"PEACEFUL<img id = ""stim"" ><div class = green_square id = ""topsquare"" ></div><img id = ""stim"" ><div class = green_square  id = ""bottomsquare"" ></div>",32,word_square,prac_response,1,Space,true,,,
html-keyboard-response,18,63653,null,"PEACEFUL",null,word,,,,,PEACEFUL,,
html-keyboard-response,19,64158,null,"LITTLE<img id = ""stim"" ><div class = red_square id = ""topsquare"" ></div><img id = ""stim"" ><div class = red_square  id = ""bottomsquare"" ></div>",null,word_square,prac_response,0,none,true,,,
html-keyboard-response,20,65662,null,"LITTLE",null,word,,,,,LITTLE,,
html-keyboard-response,21,66167,null,"TIRED<img id = ""stim"" ><div class = red_square id = ""topsquare"" ></div><img id = ""stim"" ><div class = red_square  id = ""bottomsquare"" ></div>",null,word_square,prac_response,0,none,true,,,
html-keyboard-response,22,67672,null,"TIRED",null,word,,,,,TIRED,,
html-keyboard-response,23,68178,null,"ENTERTAINING<img id = ""stim"" ><div class = red_square id = ""topsquare"" ></div><img id = ""stim"" ><div class = red_square  id = ""bottomsquare"" ></div>",null,word_square,prac_response,0,none,true,,,
html-keyboard-response,24,69681,null,"ENTERTAINING",null,word,,,,,ENTERTAINING,,
html-keyboard-response,25,70186,329.5849999994971,"GRATEFUL<img id = ""stim"" ><div class = green_square id = ""topsquare"" ></div><img id = ""stim"" ><div class = green_square  id = ""bottomsquare"" ></div>",32,word_square,prac_response,1,Space,true,,,
html-keyboard-response,26,71688,null,"GRATEFUL",null,word,,,,,GRATEFUL,,
html-keyboard-response,27,72193,null,"LOUD<img id = ""stim"" ><div class = red_square id = ""topsquare"" ></div><img id = ""stim"" ><div class = red_square  id = ""bottomsquare"" ></div>",null,word_square,prac_response,0,none,true,,,
html-keyboard-response,28,73698,null,"LOUD",null,word,,,,,LOUD,,
html-keyboard-response,29,74201,359.7049999953015,"SMART<img id = ""stim"" ><div class = green_square id = ""topsquare"" ></div><img id = ""stim"" ><div class = green_square  id = ""bottomsquare"" ></div>",32,word_square,prac_response,1,Space,true,,,
html-keyboard-response,30,75705,null,"SMART",null,word,,,,,SMART,,
html-keyboard-response,31,76211,400.9749999968335,"SMOOTH<img id = ""stim"" ><div class = green_square id = ""topsquare"" ></div><img id = ""stim"" ><div class = green_square  id = ""bottomsquare"" ></div>",32,word_square,prac_response,1,Space,true,,,
html-keyboard-response,32,77714,null,"SMOOTH",null,word,,,,,SMOOTH,,
html-keyboard-response,33,78216,null,"DISHONEST<img id = ""stim"" ><div class = red_square id = ""topsquare"" ></div><img id = ""stim"" ><div class = red_square  id = ""bottomsquare"" ></div>",null,word_square,prac_response,0,none,true,,,
html-keyboard-response,34,79722,null,"DISHONEST",null,word,,,,,DISHONEST,,
html-keyboard-response,35,80227,424.6899999998277,"WEALTHY<img id = ""stim"" ><div class = green_square id = ""topsquare"" ></div><img id = ""stim"" ><div class = green_square  id = ""bottomsquare"" ></div>",32,word_square,prac_response,1,Space,true,,,
html-keyboard-response,36,81730,null,"WEALTHY",null,word,,,,,WEALTHY,,
html-keyboard-response,37,82236,null,"BEAUTIFUL<img id = ""stim"" ><div class = red_square id = ""topsquare"" ></div><img id = ""stim"" ><div class = red_square  id = ""bottomsquare"" ></div>",null,word_square,prac_response,0,none,true,,,
html-keyboard-response,38,83741,null,"BEAUTIFUL",null,word,,,,,BEAUTIFUL,,
html-keyboard-response,39,84245,null,"DREARY<img id = ""stim"" ><div class = red_square id = ""topsquare"" ></div><img id = ""stim"" ><div class = red_square  id = ""bottomsquare"" ></div>",null,word_square,prac_response,0,none,true,,,
html-keyboard-response,40,85749,null,"DREARY",null,word,,,,,DREARY,,
html-keyboard-response,41,86252,357.0199999958277,"PLAYFUL<img id = ""stim"" ><div class = green_square id = ""topsquare"" ></div><img id = ""stim"" ><div class = green_square  id = ""bottomsquare"" ></div>",32,word_square,prac_response,1,Space,true,,,
html-keyboard-response,42,87756,null,"PLAYFUL",null,word,,,,,PLAYFUL,,
html-keyboard-response,43,104645,16886.24500000151,"<p> Good job! You responded correctly to 94% of the GREEN squares.</p>
                  <p>Be sure to keep your accuracy above 80%</p>
                  <p>We're going to try once more to make sure you understand  the task. press any key to continue. </p>",32,,,,,,,,
html-keyboard-response,44,107692,3045.3699999998207,"<p>You will see a list of words and colored squares in the following task.<p><p>Press the spacebar whenever you see a GREEN square.<p><p>Do not press a key if the square is RED<p><p>Press the spacebar to continue.</p>",32,,,,,,,,
html-keyboard-response,45,110200,null,"<div style=""font-size:60px;"">+</div>",null,,,,,,,,
html-keyboard-response,46,110706,null,"HAPPY<img id = ""stim"" ><div class = red_square id = ""topsquare"" ></div><img id = ""stim"" ><div class = red_square  id = ""bottomsquare"" ></div>",null,word_square,response,0,none,true,,,
html-keyboard-response,47,112207,null,"HAPPY",null,word,,,,,HAPPY,,
html-keyboard-response,48,112539,331.0350000028848,"COLD<img id = ""stim"" ><div class = green_square id = ""topsquare"" ></div><img id = ""stim"" ><div class = green_square  id = ""bottomsquare"" ></div>",32,word_square,response,1,Space,true,,,
html-keyboard-response,49,114041,null,"COLD",null,word,,,,,COLD,,
html-keyboard-response,50,114468,425.0800000008894,"HEAVY<img id = ""stim"" ><div class = green_square id = ""topsquare"" ></div><img id = ""stim"" ><div class = green_square  id = ""bottomsquare"" ></div>",32,word_square,response,1,Space,true,,,
html-keyboard-response,51,115970,null,"HEAVY",null,word,,,,,HEAVY,,
html-keyboard-response,52,116476,null,"FUNNY<img id = ""stim"" ><div class = red_square id = ""topsquare"" ></div><img id = ""stim"" ><div class = red_square  id = ""bottomsquare"" ></div>",null,word_square,response,0,none,true,,,
html-keyboard-response,53,117977,null,"FUNNY",null,word,,,,,FUNNY,,
html-keyboard-response,54,118284,305.899999999383,"SCARY<img id = ""stim"" ><div class = green_square id = ""topsquare"" ></div><img id = ""stim"" ><div class = green_square  id = ""bottomsquare"" ></div>",32,word_square,response,1,Space,true,,,
html-keyboard-response,55,119790,null,"SCARY",null,word,,,,,SCARY,,
html-keyboard-response,56,120164,372.6749999987078,"PEACEFUL<img id = ""stim"" ><div class = green_square id = ""topsquare"" ></div><img id = ""stim"" ><div class = green_square  id = ""bottomsquare"" ></div>",32,word_square,response,1,Space,true,,,
html-keyboard-response,57,121670,null,"PEACEFUL",null,word,,,,,PEACEFUL,,
html-keyboard-response,58,122174,null,"LITTLE<img id = ""stim"" ><div class = red_square id = ""topsquare"" ></div><img id = ""stim"" ><div class = red_square  id = ""bottomsquare"" ></div>",null,word_square,response,0,none,true,,,
html-keyboard-response,59,123677,null,"LITTLE",null,word,,,,,LITTLE,,
html-keyboard-response,60,124183,null,"TIRED<img id = ""stim"" ><div class = red_square id = ""topsquare"" ></div><img id = ""stim"" ><div class = red_square  id = ""bottomsquare"" ></div>",null,word_square,response,0,none,true,,,
html-keyboard-response,61,125686,null,"TIRED",null,word,,,,,TIRED,,
html-keyboard-response,62,126192,null,"ENTERTAINING<img id = ""stim"" ><div class = red_square id = ""topsquare"" ></div><img id = ""stim"" ><div class = red_square  id = ""bottomsquare"" ></div>",null,word_square,response,0,none,true,,,
html-keyboard-response,63,127695,null,"ENTERTAINING",null,word,,,,,ENTERTAINING,,
html-keyboard-response,64,128004,308.4649999946123,"GRATEFUL<img id = ""stim"" ><div class = green_square id = ""topsquare"" ></div><img id = ""stim"" ><div class = green_square  id = ""bottomsquare"" ></div>",32,word_square,response,1,Space,true,,,
html-keyboard-response,65,129510,null,"GRATEFUL",null,word,,,,,GRATEFUL,,
html-keyboard-response,66,130014,null,"LOUD<img id = ""stim"" ><div class = red_square id = ""topsquare"" ></div><img id = ""stim"" ><div class = red_square  id = ""bottomsquare"" ></div>",null,word_square,response,0,none,true,,,
html-keyboard-response,67,131518,null,"LOUD",null,word,,,,,LOUD,,
html-keyboard-response,68,131837,317.8849999967497,"SMART<img id = ""stim"" ><div class = green_square id = ""topsquare"" ></div><img id = ""stim"" ><div class = green_square  id = ""bottomsquare"" ></div>",32,word_square,response,1,Space,true,,,
html-keyboard-response,69,133343,null,"SMART",null,word,,,,,SMART,,
html-keyboard-response,70,133781,436.33499999850756,"SMOOTH<img id = ""stim"" ><div class = green_square id = ""topsquare"" ></div><img id = ""stim"" ><div class = green_square  id = ""bottomsquare"" ></div>",32,word_square,response,1,Space,true,,,
html-keyboard-response,71,135284,null,"SMOOTH",null,word,,,,,SMOOTH,,
html-keyboard-response,72,135790,null,"DISHONEST<img id = ""stim"" ><div class = red_square id = ""topsquare"" ></div><img id = ""stim"" ><div class = red_square  id = ""bottomsquare"" ></div>",null,word_square,response,0,none,true,,,
html-keyboard-response,73,137293,null,"DISHONEST",null,word,,,,,DISHONEST,,
html-keyboard-response,74,137628,334.16000000579515,"WEALTHY<img id = ""stim"" ><div class = green_square id = ""topsquare"" ></div><img id = ""stim"" ><div class = green_square  id = ""bottomsquare"" ></div>",32,word_square,response,1,Space,true,,,
html-keyboard-response,75,139134,null,"WEALTHY",null,word,,,,,WEALTHY,,
html-keyboard-response,76,139638,null,"BEAUTIFUL<img id = ""stim"" ><div class = red_square id = ""topsquare"" ></div><img id = ""stim"" ><div class = red_square  id = ""bottomsquare"" ></div>",null,word_square,response,0,none,true,,,
html-keyboard-response,77,141140,null,"BEAUTIFUL",null,word,,,,,BEAUTIFUL,,
html-keyboard-response,78,141646,null,"DREARY<img id = ""stim"" ><div class = red_square id = ""topsquare"" ></div><img id = ""stim"" ><div class = red_square  id = ""bottomsquare"" ></div>",null,word_square,response,0,none,true,,,
html-keyboard-response,79,143148,null,"DREARY",null,word,,,,,DREARY,,
html-keyboard-response,80,143549,398.2299999988754,"PLAYFUL<img id = ""stim"" ><div class = green_square id = ""topsquare"" ></div><img id = ""stim"" ><div class = green_square  id = ""bottomsquare"" ></div>",32,word_square,response,1,Space,true,,,
html-keyboard-response,81,145054,null,"PLAYFUL",null,word,,,,,PLAYFUL,,
html-keyboard-response,82,147092,2037.2799999968265,"<p> Good job! You responded correctly to 100% of the GREEN squares.</p>
                  <p>Be sure to keep your accuracy above 80%</p>
                  <p>Press any key to begin the math and recall sections. Thank you!</p>",32,,,,,,,,
call-function,83,147093,,"",,,,,,,,,
html-keyboard-response,84,147195,null,"",null,,,,,,,,
math-period,85,152269,11535.599999988335,"",,,,,,,,,2 
html-keyboard-response,86,152374,null,"",null,,,,,,,,
math-period,87,154213,3180.5549999917275,"",,,,,,,,,5
html-keyboard-response,88,154318,null,"",null,,,,,,,,
math-period,89,156901,4483.319999999367,"",,,,,,,,,2
html-keyboard-response,90,157006,null,"",null,,,,,,,,
math-period,91,158861,3163.510000005772,"",,,,,,,,,6
html-keyboard-response,92,158964,null,"",null,,,,,,,,
math-period,93,161573,4134.574999996403,"",,,,,,,,,1
html-keyboard-response,94,161677,null,"",null,,,,,,,,
math-period,95,164821,5597.490000000107,"",,,,,,,,,3
html-keyboard-response,96,164926,null,"",null,,,,,,,,
math-period,97,166661,3017.7550000007614,"",,,,,,,,,1
html-keyboard-response,98,166764,null,"",null,,,,,,,,
math-period,99,168773,3366.82500000461,"",,,,,,,,,5
html-keyboard-response,100,168876,null,"",null,,,,,,,,
math-period,101,170789,3302.784999992582,"",,,,,,,,,5
html-keyboard-response,102,170890,null,"",null,,,,,,,,
math-period,103,171094,null,"",,,,,,,,,
html-keyboard-response,104,172100,null,"Recall Period!",null,,,,,,,,
call-function,105,172101,,"",,,,,,,,,
html-keyboard-response,106,172207,null,"",null,,,,,,,,
recall-period,107,176175,16794.994999989285,"",,,,,,,,,scary
html-keyboard-response,108,176279,null,"",null,,,,,,,,
recall-period,109,178087,7088.06999999797,"",,,,,,,,,loud
html-keyboard-response,110,178191,null,"",null,,,,,,,,
recall-period,111,179839,11870.664999980363,"",,,,,,,,,entertaining
html-keyboard-response,112,179942,null,"",null,,,,,,,,
recall-period,113,181383,6049.805000024207,"",,,,,,,,,happy
html-keyboard-response,114,181485,null,"",null,,,,,,,,
recall-period,115,219915,490678.63000000216,"",,,,,,,,,entertaining
html-keyboard-response,116,220019,null,"",null,,,,,,,,
recall-period,117,247106,null,"",,,,,,,,,
html-keyboard-response,118,247612,null,"Time's Up!",null,,,,,,,,
html-keyboard-response,119,250446,2832.5849999964703,"<p>We will now begin the experiment!<p><p>Please try to remember all words from each list.<p><p>Press the spacebar whenever you see a GREEN square.<p><p><p><p>Press the spacebar to begin.</p>",32,,,,,,,,
html-keyboard-response,120,252156,1207.4700000011944,"<div style=""font-size:48px;"">Press any key to begin list 1 of 24 </div>",32,,,,,,,,
html-keyboard-response,121,254664,null,"<div style=""font-size:60px;"">+</div>",null,,,,,,,,
html-keyboard-response,122,255169,null,"PUPPY<img id = ""stim"" ><div class = red_square id = ""topsquare"" ></div><img id = ""stim"" ><div class = red_square  id = ""bottomsquare"" ></div>",null,word_square,response,0,none,true,,,
html-keyboard-response,123,256673,null,"PUPPY",null,word,,,,, 'PUPPY',,
html-keyboard-response,124,257167,491.99500000395346,"GLASSES<img id = ""stim"" ><div class = green_square id = ""topsquare"" ></div><img id = ""stim"" ><div class = green_square  id = ""bottomsquare"" ></div>",32,word_square,response,1,Space,true,,,
html-keyboard-response,125,258672,null,"GLASSES",null,word,,,,, 'GLASSES',,
html-keyboard-response,126,259176,null,"CARPET<img id = ""stim"" ><div class = red_square id = ""topsquare"" ></div><img id = ""stim"" ><div class = red_square  id = ""bottomsquare"" ></div>",null,word_square,response,0,none,true,,,
html-keyboard-response,127,260681,null,"CARPET",null,word,,,,, 'CARPET',,
html-keyboard-response,128,261184,null,"SENATE<img id = ""stim"" ><div class = red_square id = ""topsquare"" ></div><img id = ""stim"" ><div class = red_square  id = ""bottomsquare"" ></div>",null,word_square,response,0,none,true,,,
html-keyboard-response,129,262689,null,"SENATE",null,word,,,,, 'SENATE',,
html-keyboard-response,130,263192,null,"SPIDER<img id = ""stim"" ><div class = green_square id = ""topsquare"" ></div><img id = ""stim"" ><div class = green_square  id = ""bottomsquare"" ></div>",null,word_square,response,1,Space,false,,,
html-keyboard-response,131,264696,null,"SPIDER",null,word,,,,, 'SPIDER',,
html-keyboard-response,132,265201,null,"COCOON<img id = ""stim"" ><div class = green_square id = ""topsquare"" ></div><img id = ""stim"" ><div class = green_square  id = ""bottomsquare"" ></div>",null,word_square,response,1,Space,false,,,
html-keyboard-response,133,266704,null,"COCOON",null,word,,,,, 'COCOON',,
html-keyboard-response,134,267038,332.15000000200234,"YACHT<img id = ""stim"" ><div class = green_square id = ""topsquare"" ></div><img id = ""stim"" ><div class = green_square  id = ""bottomsquare"" ></div>",32,word_square,response,1,Space,true,,,
html-keyboard-response,135,268540,null,"YACHT",null,word,,,,, 'YACHT',,
html-keyboard-response,136,269045,null,"VIKING<img id = ""stim"" ><div class = red_square id = ""topsquare"" ></div><img id = ""stim"" ><div class = red_square  id = ""bottomsquare"" ></div>",null,word_square,response,0,none,true,,,
html-keyboard-response,137,270547,null,"VIKING",null,word,,,,, 'VIKING',,
html-keyboard-response,138,271028,480.47000000224216,"FRAGRANCE<img id = ""stim"" ><div class = green_square id = ""topsquare"" ></div><img id = ""stim"" ><div class = green_square  id = ""bottomsquare"" ></div>",32,word_square,response,1,Space,true,,,
html-keyboard-response,139,272532,null,"FRAGRANCE",null,word,,,,, 'FRAGRANCE',,
html-keyboard-response,140,272924,390.7950000066194,"FARM<img id = ""stim"" ><div class = green_square id = ""topsquare"" ></div><img id = ""stim"" ><div class = green_square  id = ""bottomsquare"" ></div>",32,word_square,response,1,Space,true,,,
html-keyboard-response,141,274429,null,"FARM",null,word,,,,, 'FARM',,
html-keyboard-response,142,274933,null,"KETCHUP<img id = ""stim"" ><div class = red_square id = ""topsquare"" ></div><img id = ""stim"" ><div class = red_square  id = ""bottomsquare"" ></div>",null,word_square,response,0,none,true,,,
html-keyboard-response,143,276437,null,"KETCHUP",null,word,,,,, 'KETCHUP',,
html-keyboard-response,144,276941,null,"STRANGER<img id = ""stim"" ><div class = red_square id = ""topsquare"" ></div><img id = ""stim"" ><div class = red_square  id = ""bottomsquare"" ></div>",null,word_square,response,0,none,true,,,
html-keyboard-response,145,278444,null,"STRANGER",null,word,,,,, 'STRANGER',,
html-keyboard-response,146,278891,445.8599999998114,"ONION<img id = ""stim"" ><div class = green_square id = ""topsquare"" ></div><img id = ""stim"" ><div class = green_square  id = ""bottomsquare"" ></div>",32,word_square,response,1,Space,true,,,
html-keyboard-response,147,280393,null,"ONION",null,word,,,,, 'ONION',,
html-keyboard-response,148,280897,null,"TURKEY<img id = ""stim"" ><div class = red_square id = ""topsquare"" ></div><img id = ""stim"" ><div class = red_square  id = ""bottomsquare"" ></div>",null,word_square,response,0,none,true,,,
html-keyboard-response,149,282403,null,"TURKEY",null,word,,,,, 'TURKEY',,
html-keyboard-response,150,282744,340.04499999718973,"RELISH<img id = ""stim"" ><div class = green_square id = ""topsquare"" ></div><img id = ""stim"" ><div class = green_square  id = ""bottomsquare"" ></div>",32,word_square,response,1,Space,true,,,
html-keyboard-response,151,284249,null,"RELISH",null,word,,,,, 'RELISH',,
html-keyboard-response,152,284752,null,"FUNGUS<img id = ""stim"" ><div class = red_square id = ""topsquare"" ></div><img id = ""stim"" ><div class = red_square  id = ""bottomsquare"" ></div>",null,word_square,response,0,none,true,,,
html-keyboard-response,153,286257,null,"FUNGUS",null,word,,,,, 'FUNGUS',,
html-keyboard-response,154,286761,null,"PIGEON<img id = ""stim"" ><div class = red_square id = ""topsquare"" ></div><img id = ""stim"" ><div class = red_square  id = ""bottomsquare"" ></div>",null,word_square,response,0,none,true,,,
html-keyboard-response,155,288265,null,"PIGEON",null,word,,,,, 'PIGEON',,
html-keyboard-response,156,288636,369.6449999988545,"SCARECROW<img id = ""stim"" ><div class = green_square id = ""topsquare"" ></div><img id = ""stim"" ><div class = green_square  id = ""bottomsquare"" ></div>",32,word_square,response,1,Space,true,,,
html-keyboard-response,157,290141,null,"SCARECROW",null,word,,,,, 'SCARECROW',,
call-function,158,290142,,"",,,,,,,,,
html-keyboard-response,159,290245,null,"",null,,,,,,,,
math-period,160,293102,4974.13499999675,"",,,,,,,,,1
html-keyboard-response,161,293204,null,"",null,,,,,,,,
math-period,162,296214,4744.309999994584,"",,,,,,,,,2
html-keyboard-response,163,296317,null,"",null,,,,,,,,
math-period,164,299534,5783.500000012282,"",,,,,,,,,5
html-keyboard-response,165,299637,null,"",null,,,,,,,,
math-period,166,302727,5359.540000004927,"",,,,,,,,,1
html-keyboard-response,167,302829,null,"",null,,,,,,,,
math-period,168,306230,6095.370000002731,"",,,,,,,,,2
html-keyboard-response,169,306335,null,"",null,,,,,,,,
math-period,170,309558,5354.644999999437,"",,,,,,,,,6
html-keyboard-response,171,309663,null,"",null,,,,,,,,
math-period,172,312078,3786.504999996396,"",,,,,,,,,1
html-keyboard-response,173,312181,null,"",null,,,,,,,,
math-period,174,314145,null,"",,,,,,,,,
html-keyboard-response,175,315149,null,"Recall Period!",null,,,,,,,,
call-function,176,315150,,"",,,,,,,,,
html-keyboard-response,177,315253,null,"",null,,,,,,,,
recall-period,178,318596,20575.57499997347,"",,,,,,,,,viking
html-keyboard-response,179,318699,null,"",null,,,,,,,,
recall-period,180,320525,7095.674999982293,"",,,,,,,,,farm
html-keyboard-response,181,320630,null,"",null,,,,,,,,
recall-period,182,322285,9066.274999990128,"",,,,,,,,,relish
html-keyboard-response,183,322390,null,"",null,,,,,,,,
recall-period,184,325685,23719.314999994822,"",,,,,,,,,pigeon
html-keyboard-response,185,325788,null,"",null,,,,,,,,
recall-period,186,327902,15885.919999993348,"",,,,,,,,,scarecrow
html-keyboard-response,187,328004,null,"",null,,,,,,,,
recall-period,188,337213,24439.139999987674,"",,,,,,,,,onion
html-keyboard-response,189,337317,null,"",null,,,,,,,,
recall-period,190,390155,null,"",,,,,,,,,
html-keyboard-response,191,390661,null,"Time's Up!",null,,,,,,,,
html-keyboard-response,192,396013,5351.204999999027,"<p> Good job! You responded correctly to 94% of the GREEN squares.</p>
                  <p>Be sure to keep your accuracy above 80%</p>
                  <p>Press any key to continue the experiment. Thank you!</p>",32,,,,,,,,
html-keyboard-response,193,399291,3276.4850000021397,"<div style=""font-size:48px;"">Press any key to begin list 2 of 24 </div>",32,,,,,,,,
html-keyboard-response,194,401800,null,"<div style=""font-size:60px;"">+</div>",null,,,,,,,,
html-keyboard-response,195,402306,null,"DUSTPAN<img id = ""stim"" ><div class = red_square id = ""topsquare"" ></div><img id = ""stim"" ><div class = red_square  id = ""bottomsquare"" ></div>",null,word_square,response,0,none,true,,,
html-keyboard-response,196,403807,null,"DUSTPAN",null,word,,,,, 'DUSTPAN',,
html-keyboard-response,197,404220,410.9200000020792,"CANAL<img id = ""stim"" ><div class = green_square id = ""topsquare"" ></div><img id = ""stim"" ><div class = green_square  id = ""bottomsquare"" ></div>",32,word_square,response,1,Space,true,,,
html-keyboard-response,198,405724,null,"CANAL",null,word,,,,, 'CANAL',,
html-keyboard-response,199,406230,null,"BROTHER<img id = ""stim"" ><div class = red_square id = ""topsquare"" ></div><img id = ""stim"" ><div class = red_square  id = ""bottomsquare"" ></div>",null,word_square,response,0,none,true,,,
html-keyboard-response,200,407736,null,"BROTHER",null,word,,,,, 'BROTHER',,
html-keyboard-response,201,408240,null,"TOOTHPASTE<img id = ""stim"" ><div class = red_square id = ""topsquare"" ></div><img id = ""stim"" ><div class = red_square  id = ""bottomsquare"" ></div>",null,word_square,response,0,none,true,,,
html-keyboard-response,202,409743,null,"TOOTHPASTE",null,word,,,,, 'TOOTHPASTE',,
html-keyboard-response,203,410213,468.220000002475,"ICING<img id = ""stim"" ><div class = green_square id = ""topsquare"" ></div><img id = ""stim"" ><div class = green_square  id = ""bottomsquare"" ></div>",32,word_square,response,1,Space,true,,,
html-keyboard-response,204,411715,null,"ICING",null,word,,,,, 'ICING',,
html-keyboard-response,205,412028,311.3149999990128,"COCKTAIL<img id = ""stim"" ><div class = green_square id = ""topsquare"" ></div><img id = ""stim"" ><div class = green_square  id = ""bottomsquare"" ></div>",32,word_square,response,1,Space,true,,,
html-keyboard-response,206,413533,null,"COCKTAIL",null,word,,,,, 'COCKTAIL',,
html-keyboard-response,207,414038,null,"FLASK<img id = ""stim"" ><div class = green_square id = ""topsquare"" ></div><img id = ""stim"" ><div class = green_square  id = ""bottomsquare"" ></div>",null,word_square,response,1,Space,false,,,
html-keyboard-response,208,415541,null,"FLASK",null,word,,,,, 'FLASK',,
html-keyboard-response,209,416046,null,"SUBURB<img id = ""stim"" ><div class = red_square id = ""topsquare"" ></div><img id = ""stim"" ><div class = red_square  id = ""bottomsquare"" ></div>",null,word_square,response,0,none,true,,,
html-keyboard-response,210,417552,null,"SUBURB",null,word,,,,, 'SUBURB',,
html-keyboard-response,211,417956,402.86500000365777,"SHAMPOO<img id = ""stim"" ><div class = green_square id = ""topsquare"" ></div><img id = ""stim"" ><div class = green_square  id = ""bottomsquare"" ></div>",32,word_square,response,1,Space,true,,,
html-keyboard-response,212,419459,null,"SHAMPOO",null,word,,,,, 'SHAMPOO',,
html-keyboard-response,213,419965,null,"LAUNDRY<img id = ""stim"" ><div class = green_square id = ""topsquare"" ></div><img id = ""stim"" ><div class = green_square  id = ""bottomsquare"" ></div>",null,word_square,response,1,Space,false,,,
html-keyboard-response,214,421468,null,"LAUNDRY",null,word,,,,, 'LAUNDRY',,
html-keyboard-response,215,421973,null,"BASEBALL<img id = ""stim"" ><div class = red_square id = ""topsquare"" ></div><img id = ""stim"" ><div class = red_square  id = ""bottomsquare"" ></div>",null,word_square,response,0,none,true,,,
html-keyboard-response,216,423477,null,"BASEBALL",null,word,,,,, 'BASEBALL',,
html-keyboard-response,217,423982,null,"COLUMN<img id = ""stim"" ><div class = red_square id = ""topsquare"" ></div><img id = ""stim"" ><div class = red_square  id = ""bottomsquare"" ></div>",null,word_square,response,0,none,true,,,
html-keyboard-response,218,425485,null,"COLUMN",null,word,,,,, 'COLUMN',,
html-keyboard-response,219,425845,358.5650000022724,"MONEY<img id = ""stim"" ><div class = green_square id = ""topsquare"" ></div><img id = ""stim"" ><div class = green_square  id = ""bottomsquare"" ></div>",32,word_square,response,1,Space,true,,,
html-keyboard-response,220,427349,null,"MONEY",null,word,,,,, 'MONEY',,
html-keyboard-response,221,427852,null,"BRANCH<img id = ""stim"" ><div class = red_square id = ""topsquare"" ></div><img id = ""stim"" ><div class = red_square  id = ""bottomsquare"" ></div>",null,word_square,response,0,none,true,,,
html-keyboard-response,222,429357,null,"BRANCH",null,word,,,,, 'BRANCH',,
html-keyboard-response,223,429732,373.8050000029034,"JAR<img id = ""stim"" ><div class = green_square id = ""topsquare"" ></div><img id = ""stim"" ><div class = green_square  id = ""bottomsquare"" ></div>",32,word_square,response,1,Space,true,,,
html-keyboard-response,224,431236,null,"JAR",null,word,,,,, 'JAR',,
html-keyboard-response,225,431738,null,"PASTRY<img id = ""stim"" ><div class = red_square id = ""topsquare"" ></div><img id = ""stim"" ><div class = red_square  id = ""bottomsquare"" ></div>",null,word_square,response,0,none,true,,,
html-keyboard-response,226,433244,null,"PASTRY",null,word,,,,, 'PASTRY',,
html-keyboard-response,227,433748,null,"FIREMAN<img id = ""stim"" ><div class = red_square id = ""topsquare"" ></div><img id = ""stim"" ><div class = red_square  id = ""bottomsquare"" ></div>",null,word_square,response,0,none,true,,,
html-keyboard-response,228,435251,null,"FIREMAN",null,word,,,,, 'FIREMAN',,
html-keyboard-response,229,435596,343.60000000015134,"DUST<img id = ""stim"" ><div class = green_square id = ""topsquare"" ></div><img id = ""stim"" ><div class = green_square  id = ""bottomsquare"" ></div>",32,word_square,response,1,Space,true,,,
html-keyboard-response,230,437101,null,"DUST",null,word,,,,, 'DUST',,
call-function,231,437102,,"",,,,,,,,,
html-keyboard-response,232,437208,null,"",null,,,,,,,,
math-period,233,440141,4471.9050000057905,"",,,,,,,,,2
html-keyboard-response,234,440243,null,"",null,,,,,,,,
math-period,235,445261,6978.549999999814,"",,,,,,,,,4
html-keyboard-response,236,445364,null,"",null,,,,,,,,
math-period,237,447396,3285.5949999939185,"",,,,,,,,,5
html-keyboard-response,238,447500,null,"",null,,,,,,,,
math-period,239,450021,4286.860000000161,"",,,,,,,,,4
html-keyboard-response,240,450122,null,"",null,,,,,,,,
math-period,241,454861,15372.85000000702,"",,,,,,,,,0
html-keyboard-response,242,454963,null,"",null,,,,,,,,
math-period,243,457573,4888.474999999744,"",,,,,,,,,0
html-keyboard-response,244,457676,null,"",null,,,,,,,,
math-period,245,460989,5895.994999998948,"",,,,,,,,,2
html-keyboard-response,246,461094,null,"",null,,,,,,,,
math-period,247,461105,null,"",,,,,,,,,
html-keyboard-response,248,462109,null,"Recall Period!",null,,,,,,,,
call-function,249,462110,,"",,,,,,,,,
html-keyboard-response,250,462214,null,"",null,,,,,,,,
recall-period,251,466406,22175.179999991087,"",,,,,,,,,icing
html-keyboard-response,252,466507,null,"",null,,,,,,,,
recall-period,253,467757,6977.020000027551,"",,,,,,,,,fireman
html-keyboard-response,254,467860,null,"",null,,,,,,,,
recall-period,255,468438,1510.8449999970617,"",,,,,,,,,dust
html-keyboard-response,256,468540,null,"",null,,,,,,,,
recall-period,257,469589,6369.575000018813,"",,,,,,,,,brother
html-keyboard-response,258,469692,null,"",null,,,,,,,,
recall-period,259,472758,16194.52999997884,"",,,,,,,,,shampoo
html-keyboard-response,260,472860,null,"",null,,,,,,,,
recall-period,261,474325,4443.569999995816,"",,,,,,,,,jar
html-keyboard-response,262,474428,null,"",null,,,,,,,,
recall-period,263,476406,7793.7500000189175,"",,,,,,,,,flask
html-keyboard-response,264,476509,null,"",null,,,,,,,,
recall-period,265,488291,17111.189999981434,"",,,,,,,,,canal
html-keyboard-response,266,488397,null,"",null,,,,,,,,
recall-period,267,537114,null,"",,,,,,,,,
html-keyboard-response,268,537618,null,"Time's Up!",null,,,,,,,,
html-keyboard-response,269,540927,3307.824999996228,"<p> Good job! You responded correctly to 93% of the GREEN squares.</p>
                  <p>Be sure to keep your accuracy above 80%</p>
                  <p>Press any key to continue the experiment. Thank you!</p>",32,,,,,,,,
html-keyboard-response,270,542742,1814.180000001099,"<div style=""font-size:48px;"">Press any key to begin list 3 of 24 </div>",32,,,,,,,,
html-keyboard-response,271,545250,null,"<div style=""font-size:60px;"">+</div>",null,,,,,,,,
html-keyboard-response,272,545614,363.04500000551343,"DESSERT<img id = ""stim"" ><div class = green_square id = ""topsquare"" ></div><img id = ""stim"" ><div class = green_square  id = ""bottomsquare"" ></div>",32,word_square,response,1,Space,true,,,
html-keyboard-response,273,547121,null,"DESSERT",null,word,,,,, 'DESSERT',,
html-keyboard-response,274,547626,null,"SPACE<img id = ""stim"" ><div class = red_square id = ""topsquare"" ></div><img id = ""stim"" ><div class = red_square  id = ""bottomsquare"" ></div>",null,word_square,response,0,none,true,,,
html-keyboard-response,275,549130,null,"SPACE",null,word,,,,, 'SPACE',,
html-keyboard-response,276,549518,386.99500000069384,"STAR<img id = ""stim"" ><div class = green_square id = ""topsquare"" ></div><img id = ""stim"" ><div class = green_square  id = ""bottomsquare"" ></div>",32,word_square,response,1,Space,true,,,
html-keyboard-response,277,551022,null,"STAR",null,word,,,,, 'STAR',,
html-keyboard-response,278,551526,null,"KNUCKLE<img id = ""stim"" ><div class = green_square id = ""topsquare"" ></div><img id = ""stim"" ><div class = green_square  id = ""bottomsquare"" ></div>",null,word_square,response,1,Space,false,,,
html-keyboard-response,279,553030,null,"KNUCKLE",null,word,,,,, 'KNUCKLE',,
html-keyboard-response,280,553534,null,"VICTOR<img id = ""stim"" ><div class = red_square id = ""topsquare"" ></div><img id = ""stim"" ><div class = red_square  id = ""bottomsquare"" ></div>",null,word_square,response,0,none,true,,,
html-keyboard-response,281,555038,null,"VICTOR",null,word,,,,, 'VICTOR',,
html-keyboard-response,282,555542,null,"ATOM<img id = ""stim"" ><div class = red_square id = ""topsquare"" ></div><img id = ""stim"" ><div class = red_square  id = ""bottomsquare"" ></div>",null,word_square,response,0,none,true,,,
html-keyboard-response,283,557046,null,"ATOM",null,word,,,,, 'ATOM',,
html-keyboard-response,284,557552,null,"EMPIRE<img id = ""stim"" ><div class = red_square id = ""topsquare"" ></div><img id = ""stim"" ><div class = red_square  id = ""bottomsquare"" ></div>",null,word_square,response,0,none,true,,,
html-keyboard-response,285,559055,null,"EMPIRE",null,word,,,,, 'EMPIRE',,
html-keyboard-response,286,559439,382.81000000273343,"GARBAGE<img id = ""stim"" ><div class = green_square id = ""topsquare"" ></div><img id = ""stim"" ><div class = green_square  id = ""bottomsquare"" ></div>",32,word_square,response,1,Space,true,,,
html-keyboard-response,287,560943,null,"GARBAGE",null,word,,,,, 'GARBAGE',,
html-keyboard-response,288,561447,null,"HOUND<img id = ""stim"" ><div class = red_square id = ""topsquare"" ></div><img id = ""stim"" ><div class = red_square  id = ""bottomsquare"" ></div>",null,word_square,response,0,none,true,,,
html-keyboard-response,289,562950,null,"HOUND",null,word,,,,, 'HOUND',,
html-keyboard-response,290,563456,null,"PROTON<img id = ""stim"" ><div class = red_square id = ""topsquare"" ></div><img id = ""stim"" ><div class = red_square  id = ""bottomsquare"" ></div>",null,word_square,response,0,none,true,,,
html-keyboard-response,291,564958,null,"PROTON",null,word,,,,, 'PROTON',,
html-keyboard-response,292,565392,432.6999999975087,"THRONE<img id = ""stim"" ><div class = green_square id = ""topsquare"" ></div><img id = ""stim"" ><div class = green_square  id = ""bottomsquare"" ></div>",32,word_square,response,1,Space,true,,,
html-keyboard-response,293,566898,null,"THRONE",null,word,,,,, 'THRONE',,
html-keyboard-response,294,567271,372.04499999643303,"CLAMP<img id = ""stim"" ><div class = green_square id = ""topsquare"" ></div><img id = ""stim"" ><div class = green_square  id = ""bottomsquare"" ></div>",32,word_square,response,1,Space,true,,,
html-keyboard-response,295,568775,null,"CLAMP",null,word,,,,, 'CLAMP',,
html-keyboard-response,296,569279,null,"TRUMPET<img id = ""stim"" ><div class = red_square id = ""topsquare"" ></div><img id = ""stim"" ><div class = red_square  id = ""bottomsquare"" ></div>",null,word_square,response,0,none,true,,,
html-keyboard-response,297,570783,null,"TRUMPET",null,word,,,,, 'TRUMPET',,
html-keyboard-response,298,571143,359.58499999833293,"SAILOR<img id = ""stim"" ><div class = green_square id = ""topsquare"" ></div><img id = ""stim"" ><div class = green_square  id = ""bottomsquare"" ></div>",32,word_square,response,1,Space,true,,,
html-keyboard-response,299,572648,null,"SAILOR",null,word,,,,, 'SAILOR',,
html-keyboard-response,300,573151,null,"HIKER<img id = ""stim"" ><div class = red_square id = ""topsquare"" ></div><img id = ""stim"" ><div class = red_square  id = ""bottomsquare"" ></div>",null,word_square,response,0,none,true,,,
html-keyboard-response,301,574655,null,"HIKER",null,word,,,,, 'HIKER',,
html-keyboard-response,302,574991,335.2800000066636,"BUGLE<img id = ""stim"" ><div class = green_square id = ""topsquare"" ></div><img id = ""stim"" ><div class = green_square  id = ""bottomsquare"" ></div>",32,word_square,response,1,Space,true,,,
html-keyboard-response,303,576495,null,"BUGLE",null,word,,,,, 'BUGLE',,
html-keyboard-response,304,576999,null,"SIDING<img id = ""stim"" ><div class = green_square id = ""topsquare"" ></div><img id = ""stim"" ><div class = green_square  id = ""bottomsquare"" ></div>",null,word_square,response,1,Space,false,,,
html-keyboard-response,305,578502,null,"SIDING",null,word,,,,, 'SIDING',,
html-keyboard-response,306,579007,null,"VILLAIN<img id = ""stim"" ><div class = red_square id = ""topsquare"" ></div><img id = ""stim"" ><div class = red_square  id = ""bottomsquare"" ></div>",null,word_square,response,0,none,true,,,
html-keyboard-response,307,580511,null,"VILLAIN",null,word,,,,, 'VILLAIN',,
call-function,308,580511,,"",,,,,,,,,
html-keyboard-response,309,580615,null,"",null,,,,,,,,
math-period,310,584032,6046.815000001574,"",,,,,,,,,3
html-keyboard-response,311,584135,null,"",null,,,,,,,,
math-period,312,588129,6375.570000010892,"",,,,,,,,,4
html-keyboard-response,313,588231,null,"",null,,,,,,,,
math-period,314,590559,4078.4550000026356,"",,,,,,,,,1
html-keyboard-response,315,590664,null,"",null,,,,,,,,
math-period,316,592463,2957.1250000009313,"",,,,,,,,,5
html-keyboard-response,317,592567,null,"",null,,,,,,,,
math-period,318,594704,3829.465000002645,"",,,,,,,,,1
html-keyboard-response,319,594808,null,"",null,,,,,,,,
math-period,320,596320,2451.9900000013877,"",,,,,,,,,2
html-keyboard-response,321,596425,null,"",null,,,,,,,,
math-period,322,598361,3306.904999990249,"",,,,,,,,,6
html-keyboard-response,323,598465,null,"",null,,,,,,,,
math-period,324,600408,3234.364999996731,"",,,,,,,,,2
html-keyboard-response,325,600511,null,"",null,,,,,,,,
math-period,326,602632,3583.5300000035204,"",,,,,,,,,1
html-keyboard-response,327,602738,null,"",null,,,,,,,,
math-period,328,604514,1700.1800000071526,"",,,,,,,,,4
html-keyboard-response,329,605519,null,"Recall Period!",null,,,,,,,,
call-function,330,605520,,"",,,,,,,,,
html-keyboard-response,331,605623,null,"",null,,,,,,,,
recall-period,332,608289,17195.864999986603,"",,,,,,,,,dessert
html-keyboard-response,333,608392,null,"",null,,,,,,,,
recall-period,334,610641,11612.675000010757,"",,,,,,,,,bugle
html-keyboard-response,335,610743,null,"",null,,,,,,,,
recall-period,336,613008,9612.860000015353,"",,,,,,,,,atom
html-keyboard-response,337,613112,null,"",null,,,,,,,,
recall-period,338,614161,4600.100000003353,"",,,,,,,,,proton
html-keyboard-response,339,614263,null,"",null,,,,,,,,
recall-period,340,620756,15523.314999990864,"",,,,,,,,,star
html-keyboard-response,341,620862,null,"",null,,,,,,,,
recall-period,342,639927,27007.405000003753,"",,,,,,,,,sailor
html-keyboard-response,343,640032,null,"",null,,,,,,,,
recall-period,344,680525,null,"",,,,,,,,,
html-keyboard-response,345,681029,null,"Time's Up!",null,,,,,,,,
html-keyboard-response,346,687796,6765.94499999925,"<p> Good job! You responded correctly to 92% of the GREEN squares.</p>
                  <p>Be sure to keep your accuracy above 80%</p>
                  <p>Press any key to continue the experiment. Thank you!</p>",32,,,,,,,,
html-keyboard-response,347,688907,1109.9699999977602,"<div style=""font-size:48px;"">Press any key to begin list 4 of 24 </div>",32,,,,,,,,
html-keyboard-response,348,691411,null,"<div style=""font-size:60px;"">+</div>",null,,,,,,,,
html-keyboard-response,349,691811,398.75499999476597,"JOURNAL<img id = ""stim"" ><div class = green_square id = ""topsquare"" ></div><img id = ""stim"" ><div class = green_square  id = ""bottomsquare"" ></div>",32,word_square,response,1,Space,true,,,
html-keyboard-response,350,693317,null,"JOURNAL",null,word,,,,, 'JOURNAL',,
html-keyboard-response,351,693821,null,"BANQUET<img id = ""stim"" ><div class = red_square id = ""topsquare"" ></div><img id = ""stim"" ><div class = red_square  id = ""bottomsquare"" ></div>",null,word_square,response,0,none,true,,,
html-keyboard-response,352,695325,null,"BANQUET",null,word,,,,, 'BANQUET',,
html-keyboard-response,353,695683,357.16499999398366,"GLACIER<img id = ""stim"" ><div class = green_square id = ""topsquare"" ></div><img id = ""stim"" ><div class = green_square  id = ""bottomsquare"" ></div>",32,word_square,response,1,Space,true,,,
html-keyboard-response,354,697189,null,"GLACIER",null,word,,,,, 'GLACIER',,
html-keyboard-response,355,697580,389.179999998305,"TABLET<img id = ""stim"" ><div class = green_square id = ""topsquare"" ></div><img id = ""stim"" ><div class = green_square  id = ""bottomsquare"" ></div>",32,word_square,response,1,Space,true,,,
html-keyboard-response,356,699085,null,"TABLET",null,word,,,,, 'TABLET',,
html-keyboard-response,357,699591,null,"REPORT<img id = ""stim"" ><div class = red_square id = ""topsquare"" ></div><img id = ""stim"" ><div class = red_square  id = ""bottomsquare"" ></div>",null,word_square,response,0,none,true,,,
html-keyboard-response,358,701094,null,"REPORT",null,word,,,,, 'REPORT',,
html-keyboard-response,359,701599,null,"RESORT<img id = ""stim"" ><div class = red_square id = ""topsquare"" ></div><img id = ""stim"" ><div class = red_square  id = ""bottomsquare"" ></div>",null,word_square,response,0,none,true,,,
html-keyboard-response,360,703104,null,"RESORT",null,word,,,,, 'RESORT',,
html-keyboard-response,361,703609,null,"STUMP<img id = ""stim"" ><div class = red_square id = ""topsquare"" ></div><img id = ""stim"" ><div class = red_square  id = ""bottomsquare"" ></div>",null,word_square,response,0,none,true,,,
html-keyboard-response,362,705113,null,"STUMP",null,word,,,,, 'STUMP',,
html-keyboard-response,363,705461,346.29999999748543,"PEPPER<img id = ""stim"" ><div class = green_square id = ""topsquare"" ></div><img id = ""stim"" ><div class = green_square  id = ""bottomsquare"" ></div>",32,word_square,response,1,Space,true,,,
html-keyboard-response,364,706965,null,"PEPPER",null,word,,,,, 'PEPPER',,
html-keyboard-response,365,707469,null,"CLOTHES<img id = ""stim"" ><div class = red_square id = ""topsquare"" ></div><img id = ""stim"" ><div class = red_square  id = ""bottomsquare"" ></div>",null,word_square,response,0,none,true,,,
html-keyboard-response,366,708973,null,"CLOTHES",null,word,,,,, 'CLOTHES',,
html-keyboard-response,367,709478,null,"HAMPER<img id = ""stim"" ><div class = red_square id = ""topsquare"" ></div><img id = ""stim"" ><div class = red_square  id = ""bottomsquare"" ></div>",null,word_square,response,0,none,true,,,
html-keyboard-response,368,710981,null,"HAMPER",null,word,,,,, 'HAMPER',,
html-keyboard-response,369,711444,461.83000000030734,"STOVE<img id = ""stim"" ><div class = green_square id = ""topsquare"" ></div><img id = ""stim"" ><div class = green_square  id = ""bottomsquare"" ></div>",32,word_square,response,1,Space,true,,,
html-keyboard-response,370,712950,null,"STOVE",null,word,,,,, 'STOVE',,
html-keyboard-response,371,713317,365.68999999866355,"ARM<img id = ""stim"" ><div class = green_square id = ""topsquare"" ></div><img id = ""stim"" ><div class = green_square  id = ""bottomsquare"" ></div>",32,word_square,response,1,Space,true,,,
html-keyboard-response,372,714819,null,"ARM",null,word,,,,, 'ARM',,
html-keyboard-response,373,715322,null,"FOSSIL<img id = ""stim"" ><div class = red_square id = ""topsquare"" ></div><img id = ""stim"" ><div class = red_square  id = ""bottomsquare"" ></div>",null,word_square,response,0,none,true,,,
html-keyboard-response,374,716826,null,"FOSSIL",null,word,,,,, 'FOSSIL',,
html-keyboard-response,375,717149,322.20000000239816,"CRYSTAL<img id = ""stim"" ><div class = green_square id = ""topsquare"" ></div><img id = ""stim"" ><div class = green_square  id = ""bottomsquare"" ></div>",32,word_square,response,1,Space,true,,,
html-keyboard-response,376,718654,null,"CRYSTAL",null,word,,,,, 'CRYSTAL',,
html-keyboard-response,377,719160,null,"CRADLE<img id = ""stim"" ><div class = red_square id = ""topsquare"" ></div><img id = ""stim"" ><div class = red_square  id = ""bottomsquare"" ></div>",null,word_square,response,0,none,true,,,
html-keyboard-response,378,720665,null,"CRADLE",null,word,,,,, 'CRADLE',,
html-keyboard-response,379,720972,305.7550000011688,"WRIST<img id = ""stim"" ><div class = green_square id = ""topsquare"" ></div><img id = ""stim"" ><div class = green_square  id = ""bottomsquare"" ></div>",32,word_square,response,1,Space,true,,,
html-keyboard-response,380,722476,null,"WRIST",null,word,,,,, 'WRIST',,
html-keyboard-response,381,722836,358.9700000011362,"DRESSER<img id = ""stim"" ><div class = green_square id = ""topsquare"" ></div><img id = ""stim"" ><div class = green_square  id = ""bottomsquare"" ></div>",32,word_square,response,1,Space,true,,,
html-keyboard-response,382,724342,null,"DRESSER",null,word,,,,, 'DRESSER',,
html-keyboard-response,383,724844,null,"GYMNAST<img id = ""stim"" ><div class = red_square id = ""topsquare"" ></div><img id = ""stim"" ><div class = red_square  id = ""bottomsquare"" ></div>",null,word_square,response,0,none,true,,,
html-keyboard-response,384,726347,null,"GYMNAST",null,word,,,,, 'GYMNAST',,
call-function,385,726348,,"",,,,,,,,,
html-keyboard-response,386,726454,null,"",null,,,,,,,,
math-period,387,728541,3356.5749999979744,"",,,,,,,,,6
html-keyboard-response,388,728645,null,"",null,,,,,,,,
math-period,389,733337,9222.29499999946,"",,,,,,,,,3
html-keyboard-response,390,733442,null,"",null,,,,,,,,
math-period,391,734665,2332.075000005658,"",,,,,,,,,2
html-keyboard-response,392,734770,null,"",null,,,,,,,,
math-period,393,735777,1924.0099999952363,"",,,,,,,,,4
html-keyboard-response,394,735882,null,"",null,,,,,,,,
math-period,395,737162,2469.6200000033714,"",,,,,,,,,5
html-keyboard-response,396,737264,null,"",null,,,,,,,,
math-period,397,739345,4056.7350000054576,"",,,,,,,,,3
html-keyboard-response,398,739450,null,"",null,,,,,,,,
math-period,399,741289,3580.119999998715,"",,,,,,,,,2
html-keyboard-response,400,741393,null,"",null,,,,,,,,
math-period,401,742594,2318.3750000026776,"",,,,,,,,,5
html-keyboard-response,402,742699,null,"",null,,,,,,,,
math-period,403,743801,2072.9499999943655,"",,,,,,,,,4
html-keyboard-response,404,743906,null,"",null,,,,,,,,
math-period,405,745145,2347.099999999162,"",,,,,,,,,3
html-keyboard-response,406,745250,null,"",null,,,,,,,,
math-period,407,746889,3180.2699999971082,"",,,,,,,,,4
html-keyboard-response,408,746995,null,"",null,,,,,,,,
math-period,409,748161,2202.864999991958,"",,,,,,,,,1
html-keyboard-response,410,748263,null,"",null,,,,,,,,
math-period,411,749489,2331.2049999949522,"",,,,,,,,,5
html-keyboard-response,412,749591,null,"",null,,,,,,,,
math-period,413,750350,689.2249999945052,"",,,,,,,,,2
html-keyboard-response,414,751352,null,"Recall Period!",null,,,,,,,,
call-function,415,751352,,"",,,,,,,,,
html-keyboard-response,416,751454,null,"",null,,,,,,,,
recall-period,417,753730,8130.03500000888,"",,,,,,,,,arm
html-keyboard-response,418,753834,null,"",null,,,,,,,,
recall-period,419,754642,3419.9050000240095,"",,,,,,,,,cradle
html-keyboard-response,420,754746,null,"",null,,,,,,,,
recall-period,421,757074,6198.980000001378,"",,,,,,,,,stove
html-keyboard-response,422,757179,null,"",null,,,,,,,,
recall-period,423,762824,35191.05500002438,"",,,,,,,,,resort
html-keyboard-response,424,762926,null,"",null,,,,,,,,
recall-period,425,765128,10996.065000013565,"",,,,,,,,,report
html-keyboard-response,426,765230,null,"",null,,,,,,,,
recall-period,427,766513,5814.4499999688705,"",,,,,,,,,journal
html-keyboard-response,428,766617,null,"",null,,,,,,,,
recall-period,429,775074,22096.84500000032,"",,,,,,,,,gymnast
html-keyboard-response,430,775179,null,"",null,,,,,,,,
recall-period,431,809703,38670.10500003339,"",,,,,,,,,pepper
html-keyboard-response,432,809807,null,"",null,,,,,,,,
recall-period,433,826357,null,"",,,,,,,,,
html-keyboard-response,434,826862,null,"Time's Up!",null,,,,,,,,
html-keyboard-response,435,827874,1010.4300000020303,"<p> Good job! You responded correctly to 93% of the GREEN squares.</p>
                  <p>Be sure to keep your accuracy above 80%</p>
                  <p>Press any key to continue the experiment. Thank you!</p>",32,,,,,,,,
html-keyboard-response,436,828185,310.33999999635853,"<div style=""font-size:48px;"">Press any key to begin list 5 of 24 </div>",32,,,,,,,,
html-keyboard-response,437,830689,null,"<div style=""font-size:60px;"">+</div>",null,,,,,,,,
html-keyboard-response,438,831192,null,"STABLE<img id = ""stim"" ><div class = red_square id = ""topsquare"" ></div><img id = ""stim"" ><div class = red_square  id = ""bottomsquare"" ></div>",null,word_square,response,0,none,true,,,
html-keyboard-response,439,832696,null,"STABLE",null,word,,,,, 'STABLE',,
html-keyboard-response,440,833130,432.8349999996135,"COUCH<img id = ""stim"" ><div class = green_square id = ""topsquare"" ></div><img id = ""stim"" ><div class = green_square  id = ""bottomsquare"" ></div>",32,word_square,response,1,Space,true,,,
html-keyboard-response,441,834636,null,"COUCH",null,word,,,,, 'COUCH',,
html-keyboard-response,442,835140,null,"PICNIC<img id = ""stim"" ><div class = red_square id = ""topsquare"" ></div><img id = ""stim"" ><div class = red_square  id = ""bottomsquare"" ></div>",null,word_square,response,0,none,true,,,
html-keyboard-response,443,836644,null,"PICNIC",null,word,,,,, 'PICNIC',,
html-keyboard-response,444,837148,null,"CRAB<img id = ""stim"" ><div class = red_square id = ""topsquare"" ></div><img id = ""stim"" ><div class = red_square  id = ""bottomsquare"" ></div>",null,word_square,response,0,none,true,,,
html-keyboard-response,445,838652,null,"CRAB",null,word,,,,, 'CRAB',,
html-keyboard-response,446,838995,341.2349999998696,"INFANT<img id = ""stim"" ><div class = green_square id = ""topsquare"" ></div><img id = ""stim"" ><div class = green_square  id = ""bottomsquare"" ></div>",32,word_square,response,1,Space,true,,,
html-keyboard-response,447,840498,null,"INFANT",null,word,,,,, 'INFANT',,
html-keyboard-response,448,841004,null,"SKATE<img id = ""stim"" ><div class = green_square id = ""topsquare"" ></div><img id = ""stim"" ><div class = green_square  id = ""bottomsquare"" ></div>",null,word_square,response,1,Space,false,,,
html-keyboard-response,449,842508,null,"SKATE",null,word,,,,, 'SKATE',,
html-keyboard-response,450,843012,null,"PARCEL<img id = ""stim"" ><div class = red_square id = ""topsquare"" ></div><img id = ""stim"" ><div class = red_square  id = ""bottomsquare"" ></div>",null,word_square,response,0,none,true,,,
html-keyboard-response,451,844516,null,"PARCEL",null,word,,,,, 'PARCEL',,
html-keyboard-response,452,844882,364.8749999993015,"ZEBRA<img id = ""stim"" ><div class = green_square id = ""topsquare"" ></div><img id = ""stim"" ><div class = green_square  id = ""bottomsquare"" ></div>",32,word_square,response,1,Space,true,,,
html-keyboard-response,453,846387,null,"ZEBRA",null,word,,,,, 'ZEBRA',,
html-keyboard-response,454,846892,null,"PEOPLE<img id = ""stim"" ><div class = red_square id = ""topsquare"" ></div><img id = ""stim"" ><div class = red_square  id = ""bottomsquare"" ></div>",null,word_square,response,0,none,true,,,
html-keyboard-response,455,848394,null,"PEOPLE",null,word,,,,, 'PEOPLE',,
html-keyboard-response,456,848898,null,"KLEENEX<img id = ""stim"" ><div class = red_square id = ""topsquare"" ></div><img id = ""stim"" ><div class = red_square  id = ""bottomsquare"" ></div>",null,word_square,response,0,none,true,,,
html-keyboard-response,457,850399,null,"KLEENEX",null,word,,,,, 'KLEENEX',,
html-keyboard-response,458,850731,330.2200000034645,"PANTHER<img id = ""stim"" ><div class = green_square id = ""topsquare"" ></div><img id = ""stim"" ><div class = green_square  id = ""bottomsquare"" ></div>",32,word_square,response,1,Space,true,,,
html-keyboard-response,459,852236,null,"PANTHER",null,word,,,,, 'PANTHER',,
html-keyboard-response,460,852742,null,"LEOPARD<img id = ""stim"" ><div class = red_square id = ""topsquare"" ></div><img id = ""stim"" ><div class = red_square  id = ""bottomsquare"" ></div>",null,word_square,response,0,none,true,,,
html-keyboard-response,461,854245,null,"LEOPARD",null,word,,,,, 'LEOPARD',,
html-keyboard-response,462,854749,null,"SHERIFF<img id = ""stim"" ><div class = red_square id = ""topsquare"" ></div><img id = ""stim"" ><div class = red_square  id = ""bottomsquare"" ></div>",null,word_square,response,0,none,true,,,
html-keyboard-response,463,856252,null,"SHERIFF",null,word,,,,, 'SHERIFF',,
html-keyboard-response,464,856634,380.09999999485444,"CYCLONE<img id = ""stim"" ><div class = green_square id = ""topsquare"" ></div><img id = ""stim"" ><div class = green_square  id = ""bottomsquare"" ></div>",32,word_square,response,1,Space,true,,,
html-keyboard-response,465,858140,null,"CYCLONE",null,word,,,,, 'CYCLONE',,
html-keyboard-response,466,858644,null,"CHILD<img id = ""stim"" ><div class = green_square id = ""topsquare"" ></div><img id = ""stim"" ><div class = green_square  id = ""bottomsquare"" ></div>",null,word_square,response,1,Space,false,,,
html-keyboard-response,467,860148,null,"CHILD",null,word,,,,, 'CHILD',,
html-keyboard-response,468,860653,null,"SEAGULL<img id = ""stim"" ><div class = red_square id = ""topsquare"" ></div><img id = ""stim"" ><div class = red_square  id = ""bottomsquare"" ></div>",null,word_square,response,0,none,true,,,
html-keyboard-response,469,862156,null,"SEAGULL",null,word,,,,, 'SEAGULL',,
html-keyboard-response,470,862562,404.9799999993993,"SAUCER<img id = ""stim"" ><div class = green_square id = ""topsquare"" ></div><img id = ""stim"" ><div class = green_square  id = ""bottomsquare"" ></div>",32,word_square,response,1,Space,true,,,
html-keyboard-response,471,864066,null,"SAUCER",null,word,,,,, 'SAUCER',,
html-keyboard-response,472,864491,423.0000000024447,"PRISON<img id = ""stim"" ><div class = green_square id = ""topsquare"" ></div><img id = ""stim"" ><div class = green_square  id = ""bottomsquare"" ></div>",32,word_square,response,1,Space,true,,,
html-keyboard-response,473,865994,null,"PRISON",null,word,,,,, 'PRISON',,
call-function,474,865995,,"",,,,,,,,,
html-keyboard-response,475,866098,null,"",null,,,,,,,,
math-period,476,870227,6565.685000008554,"",,,,,,,,,4
html-keyboard-response,477,870331,null,"",null,,,,,,,,
math-period,478,874714,6844.934999993769,"",,,,,,,,,1
html-keyboard-response,479,874820,null,"",null,,,,,,,,
math-period,480,877938,5698.374999999884,"",,,,,,,,,2
html-keyboard-response,481,878041,null,"",null,,,,,,,,
math-period,482,879307,2344.930000006687,"",,,,,,,,,1
html-keyboard-response,483,879412,null,"",null,,,,,,,,
math-period,484,881163,3377.4149999953806,"",,,,,,,,,4
html-keyboard-response,485,881269,null,"",null,,,,,,,,
math-period,486,882618,2568.4050000052666,"",,,,,,,,,1
html-keyboard-response,487,882721,null,"",null,,,,,,,,
math-period,488,884027,2481.7799999947893,"",,,,,,,,,4
html-keyboard-response,489,884133,null,"",null,,,,,,,,
math-period,490,885426,2423.5249999910593,"",,,,,,,,,4
html-keyboard-response,491,885532,null,"",null,,,,,,,,
math-period,492,886826,2409.944999999483,"",,,,,,,,,3
html-keyboard-response,493,886928,null,"",null,,,,,,,,
math-period,494,888746,3481.9950000019744,"",,,,,,,,,2
html-keyboard-response,495,888848,null,"",null,,,,,,,,
math-period,496,889998,null,"",,,,,,,,,
html-keyboard-response,497,891000,null,"Recall Period!",null,,,,,,,,
call-function,498,891001,,"",,,,,,,,,
html-keyboard-response,499,891106,null,"",null,,,,,,,,
recall-period,500,893451,10578.764999983367,"",,,,,,,,,zebra
html-keyboard-response,501,893554,null,"",null,,,,,,,,
recall-period,502,896987,33620.075000035344,"",,,,,,,,,child
html-keyboard-response,503,897088,null,"",null,,,,,,,,
recall-period,504,897947,3598.809999996447,"",,,,,,,,,infant
html-keyboard-response,505,898049,null,"",null,,,,,,,,
recall-period,506,907982,41101.970000002766,"",,,,,,,,,leopard
html-keyboard-response,507,908087,null,"",null,,,,,,,,
recall-period,508,914941,20639.68999999587,"",,,,,,,,,panther
html-keyboard-response,509,915048,null,"",null,,,,,,,,
recall-period,510,939538,27044.214999994612,"",,,,,,,,,couch
html-keyboard-response,511,939643,null,"",null,,,,,,,,
recall-period,512,966007,null,"",,,,,,,,,
html-keyboard-response,513,966510,null,"Time's Up!",null,,,,,,,,
html-keyboard-response,514,968951,2438.8700000053504,"<p> Good job! You responded correctly to 93% of the GREEN squares.</p>
                  <p>Be sure to keep your accuracy above 80%</p>
                  <p>Press any key to continue the experiment. Thank you!</p>",32,,,,,,,,
html-keyboard-response,515,969429,477.26999999571126,"<div style=""font-size:48px;"">Press any key to begin list 6 of 24 </div>",32,,,,,,,,
html-keyboard-response,516,971939,null,"<div style=""font-size:60px;"">+</div>",null,,,,,,,,
html-keyboard-response,517,972442,null,"TIGER<img id = ""stim"" ><div class = red_square id = ""topsquare"" ></div><img id = ""stim"" ><div class = red_square  id = ""bottomsquare"" ></div>",null,word_square,response,0,none,true,,,
html-keyboard-response,518,973947,null,"TIGER",null,word,,,,, 'TIGER',,
html-keyboard-response,519,974325,377.0400000065565,"LILY<img id = ""stim"" ><div class = green_square id = ""topsquare"" ></div><img id = ""stim"" ><div class = green_square  id = ""bottomsquare"" ></div>",32,word_square,response,1,Space,true,,,
html-keyboard-response,520,975830,null,"LILY",null,word,,,,, 'LILY',,
html-keyboard-response,521,976335,null,"ADULT<img id = ""stim"" ><div class = red_square id = ""topsquare"" ></div><img id = ""stim"" ><div class = red_square  id = ""bottomsquare"" ></div>",null,word_square,response,0,none,true,,,
html-keyboard-response,522,977841,null,"ADULT",null,word,,,,, 'ADULT',,
html-keyboard-response,523,978346,null,"MARKET<img id = ""stim"" ><div class = red_square id = ""topsquare"" ></div><img id = ""stim"" ><div class = red_square  id = ""bottomsquare"" ></div>",null,word_square,response,0,none,true,,,
html-keyboard-response,524,979851,null,"MARKET",null,word,,,,, 'MARKET',,
html-keyboard-response,525,980247,394.3349999972852,"FINGER<img id = ""stim"" ><div class = green_square id = ""topsquare"" ></div><img id = ""stim"" ><div class = green_square  id = ""bottomsquare"" ></div>",32,word_square,response,1,Space,true,,,
html-keyboard-response,526,981751,null,"FINGER",null,word,,,,, 'FINGER',,
html-keyboard-response,527,982085,333.21000000438653,"BASEMENT<img id = ""stim"" ><div class = green_square id = ""topsquare"" ></div><img id = ""stim"" ><div class = green_square  id = ""bottomsquare"" ></div>",32,word_square,response,1,Space,true,,,
html-keyboard-response,528,983588,null,"BASEMENT",null,word,,,,, 'BASEMENT',,
html-keyboard-response,529,984093,null,"IGLOO<img id = ""stim"" ><div class = red_square id = ""topsquare"" ></div><img id = ""stim"" ><div class = red_square  id = ""bottomsquare"" ></div>",null,word_square,response,0,none,true,,,
html-keyboard-response,530,985596,null,"IGLOO",null,word,,,,, 'IGLOO',,
html-keyboard-response,531,986037,440.410000002943,"LEMON<img id = ""stim"" ><div class = green_square id = ""topsquare"" ></div><img id = ""stim"" ><div class = green_square  id = ""bottomsquare"" ></div>",32,word_square,response,1,Space,true,,,
html-keyboard-response,532,987543,null,"LEMON",null,word,,,,, 'LEMON',,
html-keyboard-response,533,988045,null,"SLIDE<img id = ""stim"" ><div class = red_square id = ""topsquare"" ></div><img id = ""stim"" ><div class = red_square  id = ""bottomsquare"" ></div>",null,word_square,response,0,none,true,,,
html-keyboard-response,534,989551,null,"SLIDE",null,word,,,,, 'SLIDE',,
html-keyboard-response,535,990054,null,"PARTY<img id = ""stim"" ><div class = red_square id = ""topsquare"" ></div><img id = ""stim"" ><div class = red_square  id = ""bottomsquare"" ></div>",null,word_square,response,0,none,true,,,
html-keyboard-response,536,991559,null,"PARTY",null,word,,,,, 'PARTY',,
html-keyboard-response,537,991903,342.18999999575317,"BANJO<img id = ""stim"" ><div class = green_square id = ""topsquare"" ></div><img id = ""stim"" ><div class = green_square  id = ""bottomsquare"" ></div>",32,word_square,response,1,Space,true,,,
html-keyboard-response,538,993406,null,"BANJO",null,word,,,,, 'BANJO',,
html-keyboard-response,539,993911,null,"RECORD<img id = ""stim"" ><div class = red_square id = ""topsquare"" ></div><img id = ""stim"" ><div class = red_square  id = ""bottomsquare"" ></div>",null,word_square,response,0,none,true,,,
html-keyboard-response,540,995413,null,"RECORD",null,word,,,,, 'RECORD',,
html-keyboard-response,541,995919,null,"SWATTER<img id = ""stim"" ><div class = red_square id = ""topsquare"" ></div><img id = ""stim"" ><div class = red_square  id = ""bottomsquare"" ></div>",null,word_square,response,0,none,true,,,
html-keyboard-response,542,997423,null,"SWATTER",null,word,,,,, 'SWATTER',,
html-keyboard-response,543,997822,397.3550000010291,"APPLE<img id = ""stim"" ><div class = green_square id = ""topsquare"" ></div><img id = ""stim"" ><div class = green_square  id = ""bottomsquare"" ></div>",32,word_square,response,1,Space,true,,,
html-keyboard-response,544,999327,null,"APPLE",null,word,,,,, 'APPLE',,
html-keyboard-response,545,999757,429.44499999436084,"XEROX<img id = ""stim"" ><div class = green_square id = ""topsquare"" ></div><img id = ""stim"" ><div class = green_square  id = ""bottomsquare"" ></div>",32,word_square,response,1,Space,true,,,
html-keyboard-response,546,1001259,null,"XEROX",null,word,,,,, 'XEROX',,
html-keyboard-response,547,1001763,null,"CLOUD<img id = ""stim"" ><div class = red_square id = ""topsquare"" ></div><img id = ""stim"" ><div class = red_square  id = ""bottomsquare"" ></div>",null,word_square,response,0,none,true,,,
html-keyboard-response,548,1003267,null,"CLOUD",null,word,,,,, 'CLOUD',,
html-keyboard-response,549,1003583,314.5950000034645,"TOOTHBRUSH<img id = ""stim"" ><div class = green_square id = ""topsquare"" ></div><img id = ""stim"" ><div class = green_square  id = ""bottomsquare"" ></div>",32,word_square,response,1,Space,true,,,
html-keyboard-response,550,1005087,null,"TOOTHBRUSH",null,word,,,,, 'TOOTHBRUSH',,
html-keyboard-response,551,1005423,333.72999999835156,"CIRCUS<img id = ""stim"" ><div class = green_square id = ""topsquare"" ></div><img id = ""stim"" ><div class = green_square  id = ""bottomsquare"" ></div>",32,word_square,response,1,Space,true,,,
html-keyboard-response,552,1006927,null,"CIRCUS",null,word,,,,, 'CIRCUS',,
call-function,553,1006928,,"",,,,,,,,,
html-keyboard-response,554,1007031,null,"",null,,,,,,,,
math-period,555,1010310,4651.919999996666,"",,,,,,,,,3
html-keyboard-response,556,1010413,null,"",null,,,,,,,,
math-period,557,1012903,4319.964999995078,"",,,,,,,,,3
html-keyboard-response,558,1013008,null,"",null,,,,,,,,
math-period,559,1014902,3674.829999996349,"",,,,,,,,,1
html-keyboard-response,560,1015007,null,"",null,,,,,,,,
math-period,561,1015927,1660.3099999920232,"",,,,,,,,,2
html-keyboard-response,562,1016032,null,"",null,,,,,,,,
math-period,563,1020622,9025.25500000047,"",,,,,,,,,2
html-keyboard-response,564,1020724,null,"",null,,,,,,,,
math-period,565,1021974,2386.7150000005495,"",,,,,,,,,4
html-keyboard-response,566,1022075,null,"",null,,,,,,,,
math-period,567,1024182,4082.855000000447,"",,,,,,,,,4
html-keyboard-response,568,1024287,null,"",null,,,,,,,,
math-period,569,1027263,5843.955000004033,"",,,,,,,,,5
html-keyboard-response,570,1027368,null,"",null,,,,,,,,
math-period,571,1028470,2058.9349999935366,"",,,,,,,,,2
html-keyboard-response,572,1028576,null,"",null,,,,,,,,
math-period,573,1030931,null,"",,,,,,,,,
html-keyboard-response,574,1031933,null,"Recall Period!",null,,,,,,,,
call-function,575,1031934,,"",,,,,,,,,
html-keyboard-response,576,1032040,null,"",null,,,,,,,,
recall-period,577,1035024,13743.704999993672,"",,,,,,,,,lemon
html-keyboard-response,578,1035125,null,"",null,,,,,,,,
recall-period,579,1043279,43957.92999999714,"",,,,,,,,,banjo
html-keyboard-response,580,1043382,null,"",null,,,,,,,,
recall-period,581,1048247,26607.460000029067,"",,,,,,,,,toothpaste
html-keyboard-response,582,1048350,null,"",null,,,,,,,,
recall-period,583,1056360,19085.534999998054,"",,,,,,,,,lily
html-keyboard-response,584,1056463,null,"",null,,,,,,,,
recall-period,585,1060168,12930.734999993816,"",,,,,,,,,tiger
html-keyboard-response,586,1060273,null,"",null,,,,,,,,
recall-period,587,1080098,36773.26500000362,"",,,,,,,,,apple
html-keyboard-response,588,1080204,null,"",null,,,,,,,,
recall-period,589,1106937,null,"",,,,,,,,,
html-keyboard-response,590,1107441,null,"Time's Up!",null,,,,,,,,
html-keyboard-response,591,1109537,2094.3849999967497,"<p> Good job! You responded correctly to 94% of the GREEN squares.</p>
                  <p>Be sure to keep your accuracy above 80%</p>
                  <p>Press any key to continue the experiment. Thank you!</p>",32,,,,,,,,
html-keyboard-response,592,1110808,1270.065000004135,"<div style=""font-size:48px;"">Press any key to begin list 7 of 24 </div>",32,,,,,,,,
html-keyboard-response,593,1113315,null,"<div style=""font-size:60px;"">+</div>",null,,,,,,,,
html-keyboard-response,594,1113672,355.9949999980163,"MAGNET<img id = ""stim"" ><div class = green_square id = ""topsquare"" ></div><img id = ""stim"" ><div class = green_square  id = ""bottomsquare"" ></div>",32,word_square,response,1,Space,true,,,
html-keyboard-response,595,1115177,null,"MAGNET",null,word,,,,, 'MAGNET',,
html-keyboard-response,596,1115682,null,"MESSAGE<img id = ""stim"" ><div class = red_square id = ""topsquare"" ></div><img id = ""stim"" ><div class = red_square  id = ""bottomsquare"" ></div>",null,word_square,response,0,none,true,,,
html-keyboard-response,597,1117186,null,"MESSAGE",null,word,,,,, 'MESSAGE',,
html-keyboard-response,598,1117592,404.82499999785796,"PORTRAIT<img id = ""stim"" ><div class = green_square id = ""topsquare"" ></div><img id = ""stim"" ><div class = green_square  id = ""bottomsquare"" ></div>",32,word_square,response,1,Space,true,,,
html-keyboard-response,599,1119098,null,"PORTRAIT",null,word,,,,, 'PORTRAIT',,
html-keyboard-response,600,1119545,445.81499999924563,"ATTIC<img id = ""stim"" ><div class = green_square id = ""topsquare"" ></div><img id = ""stim"" ><div class = green_square  id = ""bottomsquare"" ></div>",32,word_square,response,1,Space,true,,,
html-keyboard-response,601,1121049,null,"ATTIC",null,word,,,,, 'ATTIC',,
html-keyboard-response,602,1121488,437.39999999525025,"GRAPE<img id = ""stim"" ><div class = red_square id = ""topsquare"" ></div><img id = ""stim"" ><div class = red_square  id = ""bottomsquare"" ></div>",32,word_square,response,0,none,false,,,
html-keyboard-response,603,1122993,null,"GRAPE",null,word,,,,, 'GRAPE',,
html-keyboard-response,604,1123497,null,"RACKET<img id = ""stim"" ><div class = red_square id = ""topsquare"" ></div><img id = ""stim"" ><div class = red_square  id = ""bottomsquare"" ></div>",null,word_square,response,0,none,true,,,
html-keyboard-response,605,1125001,null,"RACKET",null,word,,,,, 'RACKET',,
html-keyboard-response,606,1125393,389.88999999850057,"JOKER<img id = ""stim"" ><div class = green_square id = ""topsquare"" ></div><img id = ""stim"" ><div class = green_square  id = ""bottomsquare"" ></div>",32,word_square,response,1,Space,true,,,
html-keyboard-response,607,1126898,null,"JOKER",null,word,,,,, 'JOKER',,
html-keyboard-response,608,1127404,null,"PLAYGROUND<img id = ""stim"" ><div class = red_square id = ""topsquare"" ></div><img id = ""stim"" ><div class = red_square  id = ""bottomsquare"" ></div>",null,word_square,response,0,none,true,,,
html-keyboard-response,609,1128906,null,"PLAYGROUND",null,word,,,,, 'PLAYGROUND',,
html-keyboard-response,610,1129240,332.2600000028033,"BABY<img id = ""stim"" ><div class = green_square id = ""topsquare"" ></div><img id = ""stim"" ><div class = green_square  id = ""bottomsquare"" ></div>",32,word_square,response,1,Space,true,,,
html-keyboard-response,611,1130747,null,"BABY",null,word,,,,, 'BABY',,
html-keyboard-response,612,1131209,461.19999999785796,"HORNET<img id = ""stim"" ><div class = green_square id = ""topsquare"" ></div><img id = ""stim"" ><div class = green_square  id = ""bottomsquare"" ></div>",32,word_square,response,1,Space,true,,,
html-keyboard-response,613,1132715,null,"HORNET",null,word,,,,, 'HORNET',,
html-keyboard-response,614,1133222,null,"NEPHEW<img id = ""stim"" ><div class = red_square id = ""topsquare"" ></div><img id = ""stim"" ><div class = red_square  id = ""bottomsquare"" ></div>",null,word_square,response,0,none,true,,,
html-keyboard-response,615,1134725,null,"NEPHEW",null,word,,,,, 'NEPHEW',,
html-keyboard-response,616,1135089,361.9549999930896,"SCAPEGOAT<img id = ""stim"" ><div class = green_square id = ""topsquare"" ></div><img id = ""stim"" ><div class = green_square  id = ""bottomsquare"" ></div>",32,word_square,response,1,Space,true,,,
html-keyboard-response,617,1136593,null,"SCAPEGOAT",null,word,,,,, 'SCAPEGOAT',,
html-keyboard-response,618,1137017,422.4800000011455,"WASP<img id = ""stim"" ><div class = green_square id = ""topsquare"" ></div><img id = ""stim"" ><div class = green_square  id = ""bottomsquare"" ></div>",32,word_square,response,1,Space,true,,,
html-keyboard-response,619,1138522,null,"WASP",null,word,,,,, 'WASP',,
html-keyboard-response,620,1139026,null,"LACE<img id = ""stim"" ><div class = red_square id = ""topsquare"" ></div><img id = ""stim"" ><div class = red_square  id = ""bottomsquare"" ></div>",null,word_square,response,0,none,true,,,
html-keyboard-response,621,1140529,null,"LACE",null,word,,,,, 'LACE',,
html-keyboard-response,622,1141034,null,"SILK<img id = ""stim"" ><div class = red_square id = ""topsquare"" ></div><img id = ""stim"" ><div class = red_square  id = ""bottomsquare"" ></div>",null,word_square,response,0,none,true,,,
html-keyboard-response,623,1142538,null,"SILK",null,word,,,,, 'SILK',,
html-keyboard-response,624,1142914,374.9850000021979,"DAUGHTER<img id = ""stim"" ><div class = green_square id = ""topsquare"" ></div><img id = ""stim"" ><div class = green_square  id = ""bottomsquare"" ></div>",32,word_square,response,1,Space,true,,,
html-keyboard-response,625,1144418,null,"DAUGHTER",null,word,,,,, 'DAUGHTER',,
html-keyboard-response,626,1144923,null,"THREAD<img id = ""stim"" ><div class = red_square id = ""topsquare"" ></div><img id = ""stim"" ><div class = red_square  id = ""bottomsquare"" ></div>",null,word_square,response,0,none,true,,,
html-keyboard-response,627,1146427,null,"THREAD",null,word,,,,, 'THREAD',,
html-keyboard-response,628,1146932,null,"YARN<img id = ""stim"" ><div class = red_square id = ""topsquare"" ></div><img id = ""stim"" ><div class = red_square  id = ""bottomsquare"" ></div>",null,word_square,response,0,none,true,,,
html-keyboard-response,629,1148437,null,"YARN",null,word,,,,, 'YARN',,
call-function,630,1148438,,"",,,,,,,,,
html-keyboard-response,631,1148542,null,"",null,,,,,,,,
math-period,632,1150898,3883.1800000113435,"",,,,,,,,,1
html-keyboard-response,633,1151002,null,"",null,,,,,,,,
math-period,634,1154417,6140.230000011623,"",,,,,,,,,3
html-keyboard-response,635,1154522,null,"",null,,,,,,,,
math-period,636,1155681,2115.1249999895226,"",,,,,,,,,4
html-keyboard-response,637,1155786,null,"",null,,,,,,,,
math-period,638,1156745,1795.4399999943562,"",,,,,,,,,3
html-keyboard-response,639,1156850,null,"",null,,,,,,,,
math-period,640,1157897,1954.7350000063889,"",,,,,,,,,4
html-keyboard-response,641,1158002,null,"",null,,,,,,,,
math-period,642,1159505,2834.6850000091363,"",,,,,,,,,2
html-keyboard-response,643,1159610,null,"",null,,,,,,,,
math-period,644,1161809,4283.294999993872,"",,,,,,,,,5
html-keyboard-response,645,1161914,null,"",null,,,,,,,,
math-period,646,1163353,2746.849999995902,"",,,,,,,,,6
html-keyboard-response,647,1163455,null,"",null,,,,,,,,
math-period,648,1164729,2458.975000008708,"",,,,,,,,,5
html-keyboard-response,649,1164834,null,"",null,,,,,,,,
math-period,650,1166089,2410.989999996498,"",,,,,,,,,2
html-keyboard-response,651,1166194,null,"",null,,,,,,,,
math-period,652,1167786,3052.370000005001,"",,,,,,,,,1
html-keyboard-response,653,1167890,null,"",null,,,,,,,,
math-period,654,1169490,2898.659999998985,"",,,,,,,,,6
html-keyboard-response,655,1169595,null,"",null,,,,,,,,
math-period,656,1170969,2426.650000001071,"",,,,,,,,,2
html-keyboard-response,657,1171072,null,"",null,,,,,,,,
math-period,658,1172353,2256.43999999715,"",,,,,,,,,4
html-keyboard-response,659,1172456,null,"",null,,,,,,,,
math-period,660,1172459,null,"",,,,,,,,,
html-keyboard-response,661,1173463,null,"Recall Period!",null,,,,,,,,
call-function,662,1173463,,"",,,,,,,,,
html-keyboard-response,663,1173566,null,"",null,,,,,,,,
recall-period,664,1175649,10805.574999983422,"",,,,,,,,,attic
html-keyboard-response,665,1175753,null,"",null,,,,,,,,
recall-period,666,1177130,6865.019999989774,"",,,,,,,,,daughter
html-keyboard-response,667,1177233,null,"",null,,,,,,,,
recall-period,668,1184138,32116.170000001555,"",,,,,,,,,wasp
html-keyboard-response,669,1184243,null,"",null,,,,,,,,
recall-period,670,1185131,2852.439999994356,"",,,,,,,,,silk
html-keyboard-response,671,1185234,null,"",null,,,,,,,,
recall-period,672,1192763,26999.08000001521,"",,,,,,,,,magnet
html-keyboard-response,673,1192869,null,"",null,,,,,,,,
recall-period,674,1208011,18474.969999988098,"",,,,,,,,,joker
html-keyboard-response,675,1208115,null,"",null,,,,,,,,
recall-period,676,1216867,11788.934999996796,"",,,,,,,,,yarn
html-keyboard-response,677,1216971,null,"",null,,,,,,,,
recall-period,678,1248469,null,"",,,,,,,,,
html-keyboard-response,679,1248974,null,"Time's Up!",null,,,,,,,,
html-keyboard-response,680,1250814,1838.2750000020023,"<p> Good job! You responded correctly to 94% of the GREEN squares.</p>
                  <p>Be sure to keep your accuracy above 80%</p>
                  <p>Press any key to continue the experiment. Thank you!</p>",32,,,,,,,,
html-keyboard-response,681,1251405,590.1149999990594,"<div style=""font-size:48px;"">Press any key to begin list 8 of 24 </div>",32,,,,,,,,
html-keyboard-response,682,1253914,null,"<div style=""font-size:60px;"">+</div>",null,,,,,,,,
html-keyboard-response,683,1254325,409.09000000101514,"SKUNK<img id = ""stim"" ><div class = green_square id = ""topsquare"" ></div><img id = ""stim"" ><div class = green_square  id = ""bottomsquare"" ></div>",32,word_square,response,1,Space,true,,,
html-keyboard-response,684,1255830,null,"SKUNK",null,word,,,,, 'SKUNK',,
html-keyboard-response,685,1256336,null,"MANSION<img id = ""stim"" ><div class = red_square id = ""topsquare"" ></div><img id = ""stim"" ><div class = red_square  id = ""bottomsquare"" ></div>",null,word_square,response,0,none,true,,,
html-keyboard-response,686,1257840,null,"MANSION",null,word,,,,, 'MANSION',,
html-keyboard-response,687,1258343,null,"STAIRS<img id = ""stim"" ><div class = green_square id = ""topsquare"" ></div><img id = ""stim"" ><div class = green_square  id = ""bottomsquare"" ></div>",null,word_square,response,1,Space,false,,,
html-keyboard-response,688,1259847,null,"STAIRS",null,word,,,,, 'STAIRS',,
html-keyboard-response,689,1260213,364.5150000010617,"ASIA<img id = ""stim"" ><div class = green_square id = ""topsquare"" ></div><img id = ""stim"" ><div class = green_square  id = ""bottomsquare"" ></div>",32,word_square,response,1,Space,true,,,
html-keyboard-response,690,1261716,null,"ASIA",null,word,,,,, 'ASIA',,
html-keyboard-response,691,1262221,null,"WARDROBE<img id = ""stim"" ><div class = red_square id = ""topsquare"" ></div><img id = ""stim"" ><div class = red_square  id = ""bottomsquare"" ></div>",null,word_square,response,0,none,true,,,
html-keyboard-response,692,1263727,null,"WARDROBE",null,word,,,,, 'WARDROBE',,
html-keyboard-response,693,1264232,null,"OUTFIT<img id = ""stim"" ><div class = red_square id = ""topsquare"" ></div><img id = ""stim"" ><div class = red_square  id = ""bottomsquare"" ></div>",null,word_square,response,0,none,true,,,
html-keyboard-response,694,1265736,null,"OUTFIT",null,word,,,,, 'OUTFIT',,
html-keyboard-response,695,1266094,356.2499999969732,"SLIME<img id = ""stim"" ><div class = green_square id = ""topsquare"" ></div><img id = ""stim"" ><div class = green_square  id = ""bottomsquare"" ></div>",32,word_square,response,1,Space,true,,,
html-keyboard-response,696,1267599,null,"SLIME",null,word,,,,, 'SLIME',,
html-keyboard-response,697,1268103,null,"NEPTUNE<img id = ""stim"" ><div class = red_square id = ""topsquare"" ></div><img id = ""stim"" ><div class = red_square  id = ""bottomsquare"" ></div>",null,word_square,response,0,none,true,,,
html-keyboard-response,698,1269607,null,"NEPTUNE",null,word,,,,, 'NEPTUNE',,
html-keyboard-response,699,1269933,325.10500000347383,"SNAKE<img id = ""stim"" ><div class = green_square id = ""topsquare"" ></div><img id = ""stim"" ><div class = green_square  id = ""bottomsquare"" ></div>",32,word_square,response,1,Space,true,,,
html-keyboard-response,700,1271436,null,"SNAKE",null,word,,,,, 'SNAKE',,
html-keyboard-response,701,1271806,368.345000002766,"MOTHER<img id = ""stim"" ><div class = green_square id = ""topsquare"" ></div><img id = ""stim"" ><div class = green_square  id = ""bottomsquare"" ></div>",32,word_square,response,1,Space,true,,,
html-keyboard-response,702,1273308,null,"MOTHER",null,word,,,,, 'MOTHER',,
html-keyboard-response,703,1273814,null,"PEBBLE<img id = ""stim"" ><div class = red_square id = ""topsquare"" ></div><img id = ""stim"" ><div class = red_square  id = ""bottomsquare"" ></div>",null,word_square,response,0,none,true,,,
html-keyboard-response,704,1275317,null,"PEBBLE",null,word,,,,, 'PEBBLE',,
html-keyboard-response,705,1275622,302.9349999995902,"KIDNEY<img id = ""stim"" ><div class = green_square id = ""topsquare"" ></div><img id = ""stim"" ><div class = green_square  id = ""bottomsquare"" ></div>",32,word_square,response,1,Space,true,,,
html-keyboard-response,706,1277128,null,"KIDNEY",null,word,,,,, 'KIDNEY',,
html-keyboard-response,707,1277494,364.98500000010245,"FREEZER<img id = ""stim"" ><div class = green_square id = ""topsquare"" ></div><img id = ""stim"" ><div class = green_square  id = ""bottomsquare"" ></div>",32,word_square,response,1,Space,true,,,
html-keyboard-response,708,1278997,null,"FREEZER",null,word,,,,, 'FREEZER',,
html-keyboard-response,709,1279503,null,"FLIPPER<img id = ""stim"" ><div class = red_square id = ""topsquare"" ></div><img id = ""stim"" ><div class = red_square  id = ""bottomsquare"" ></div>",null,word_square,response,0,none,true,,,
html-keyboard-response,710,1281008,null,"FLIPPER",null,word,,,,, 'FLIPPER',,
html-keyboard-response,711,1281513,null,"FARMER<img id = ""stim"" ><div class = red_square id = ""topsquare"" ></div><img id = ""stim"" ><div class = red_square  id = ""bottomsquare"" ></div>",null,word_square,response,0,none,true,,,
html-keyboard-response,712,1283017,null,"FARMER",null,word,,,,, 'FARMER',,
html-keyboard-response,713,1283437,419.13999999826774,"VILLAGE<img id = ""stim"" ><div class = green_square id = ""topsquare"" ></div><img id = ""stim"" ><div class = green_square  id = ""bottomsquare"" ></div>",32,word_square,response,1,Space,true,,,
html-keyboard-response,714,1284943,null,"VILLAGE",null,word,,,,, 'VILLAGE',,
html-keyboard-response,715,1285448,null,"NOVEL<img id = ""stim"" ><div class = red_square id = ""topsquare"" ></div><img id = ""stim"" ><div class = red_square  id = ""bottomsquare"" ></div>",null,word_square,response,0,none,true,,,
html-keyboard-response,716,1286953,null,"NOVEL",null,word,,,,, 'NOVEL',,
html-keyboard-response,717,1287456,null,"PAPER<img id = ""stim"" ><div class = red_square id = ""topsquare"" ></div><img id = ""stim"" ><div class = red_square  id = ""bottomsquare"" ></div>",null,word_square,response,0,none,true,,,
html-keyboard-response,718,1288961,null,"PAPER",null,word,,,,, 'PAPER',,
call-function,719,1288962,,"",,,,,,,,,
html-keyboard-response,720,1289064,null,"",null,,,,,,,,
math-period,721,1291311,3497.254999994766,"",,,,,,,,,5
html-keyboard-response,722,1291417,null,"",null,,,,,,,,
math-period,723,1294134,5286.944999999832,"",,,,,,,,,3
html-keyboard-response,724,1294237,null,"",null,,,,,,,,
math-period,725,1295358,2135.6199999933597,"",,,,,,,,,4
html-keyboard-response,726,1295461,null,"",null,,,,,,,,
math-period,727,1296550,2087.4149999944493,"",,,,,,,,,4
html-keyboard-response,728,1296652,null,"",null,,,,,,,,
math-period,729,1297638,1841.5299999976996,"",,,,,,,,,3
html-keyboard-response,730,1297743,null,"",null,,,,,,,,
math-period,731,1298918,2244.270000010263,"",,,,,,,,,1
html-keyboard-response,732,1299022,null,"",null,,,,,,,,
math-period,733,1300302,2428.399999997113,"",,,,,,,,,2
html-keyboard-response,734,1300407,null,"",null,,,,,,,,
math-period,735,1302014,3099.5699999984354,"",,,,,,,,,5
html-keyboard-response,736,1302115,null,"",null,,,,,,,,
math-period,737,1303174,2010.3299999900628,"",,,,,,,,,4
html-keyboard-response,738,1303277,null,"",null,,,,,,,,
math-period,739,1304390,2128.490000002552,"",,,,,,,,,1
html-keyboard-response,740,1304494,null,"",null,,,,,,,,
math-period,741,1305574,2029.5150000022259,"",,,,,,,,,4
html-keyboard-response,742,1305678,null,"",null,,,,,,,,
math-period,743,1306478,1493.5700000131037,"",,,,,,,,,2
html-keyboard-response,744,1306581,null,"",null,,,,,,,,
math-period,745,1307646,2008.0550000059884,"",,,,,,,,,1
html-keyboard-response,746,1307752,null,"",null,,,,,,,,
math-period,747,1308934,2258.3599999998696,"",,,,,,,,,4
html-keyboard-response,748,1309039,null,"",null,,,,,,,,
math-period,749,1310222,2283.915000007488,"",,,,,,,,,5
html-keyboard-response,750,1310328,null,"",null,,,,,,,,
math-period,751,1311798,2856.744999989867,"",,,,,,,,,5
html-keyboard-response,752,1311904,null,"",null,,,,,,,,
math-period,753,1312965,1046.2550000010524,"",,,,,,,,,6
html-keyboard-response,754,1313967,null,"Recall Period!",null,,,,,,,,
call-function,755,1313968,,"",,,,,,,,,
html-keyboard-response,756,1314073,null,"",null,,,,,,,,
recall-period,757,1315374,6076.665000014938,"",,,,,,,,,slime
html-keyboard-response,758,1315477,null,"",null,,,,,,,,
recall-period,759,1318039,11847.179999982473,"",,,,,,,,,asia
html-keyboard-response,760,1318143,null,"",null,,,,,,,,
recall-period,761,1319311,5249.4650000308175,"",,,,,,,,,village
html-keyboard-response,762,1319413,null,"",null,,,,,,,,
recall-period,763,1328536,21145.009999978123,"",,,,,,,,,farmer
html-keyboard-response,764,1328640,null,"",null,,,,,,,,
recall-period,765,1333263,26600.519999992568,"",,,,,,,,,paper
html-keyboard-response,766,1333368,null,"",null,,,,,,,,
recall-period,767,1340698,18399.195000004955,"",,,,,,,,,snake
html-keyboard-response,768,1340802,null,"",null,,,,,,,,
recall-period,769,1346282,18627.25499998522,"",,,,,,,,,outfit
html-keyboard-response,770,1346385,null,"",null,,,,,,,,
recall-period,771,1347546,4813.9450000023935,"",,,,,,,,,nephew
html-keyboard-response,772,1347649,null,"",null,,,,,,,,
recall-period,773,1388970,null,"",,,,,,,,,
html-keyboard-response,774,1389475,null,"Time's Up!",null,,,,,,,,
html-keyboard-response,775,1390589,1113.2900000012014,"<p> Good job! You responded correctly to 94% of the GREEN squares.</p>
                  <p>Be sure to keep your accuracy above 80%</p>
                  <p>Press any key to continue the experiment. Thank you!</p>",32,,,,,,,,
html-keyboard-response,776,1390973,382.470000004163,"<div style=""font-size:48px;"">Press any key to begin list 9 of 24 </div>",32,,,,,,,,
html-keyboard-response,777,1393475,null,"<div style=""font-size:60px;"">+</div>",null,,,,,,,,
html-keyboard-response,778,1393980,null,"ELBOW<img id = ""stim"" ><div class = red_square id = ""topsquare"" ></div><img id = ""stim"" ><div class = red_square  id = ""bottomsquare"" ></div>",null,word_square,response,0,none,true,,,
html-keyboard-response,779,1395483,null,"ELBOW",null,word,,,,, 'ELBOW',,
html-keyboard-response,780,1395988,null,"LEG<img id = ""stim"" ><div class = red_square id = ""topsquare"" ></div><img id = ""stim"" ><div class = red_square  id = ""bottomsquare"" ></div>",null,word_square,response,0,none,true,,,
html-keyboard-response,781,1397492,null,"LEG",null,word,,,,, 'LEG',,
html-keyboard-response,782,1397989,495.8299999998417,"SKIRT<img id = ""stim"" ><div class = green_square id = ""topsquare"" ></div><img id = ""stim"" ><div class = green_square  id = ""bottomsquare"" ></div>",32,word_square,response,1,Space,true,,,
html-keyboard-response,783,1399495,null,"SKIRT",null,word,,,,, 'SKIRT',,
html-keyboard-response,784,1399999,null,"VALLEY<img id = ""stim"" ><div class = red_square id = ""topsquare"" ></div><img id = ""stim"" ><div class = red_square  id = ""bottomsquare"" ></div>",null,word_square,response,0,none,true,,,
html-keyboard-response,785,1401503,null,"VALLEY",null,word,,,,, 'VALLEY',,
html-keyboard-response,786,1402008,null,"SERVANT<img id = ""stim"" ><div class = red_square id = ""topsquare"" ></div><img id = ""stim"" ><div class = red_square  id = ""bottomsquare"" ></div>",null,word_square,response,0,none,true,,,
html-keyboard-response,787,1403512,null,"SERVANT",null,word,,,,, 'SERVANT',,
html-keyboard-response,788,1403998,484.65500000026077,"DOORBELL<img id = ""stim"" ><div class = green_square id = ""topsquare"" ></div><img id = ""stim"" ><div class = green_square  id = ""bottomsquare"" ></div>",32,word_square,response,1,Space,true,,,
html-keyboard-response,789,1405503,null,"DOORBELL",null,word,,,,, 'DOORBELL',,
html-keyboard-response,790,1406009,null,"LIPSTICK<img id = ""stim"" ><div class = red_square id = ""topsquare"" ></div><img id = ""stim"" ><div class = red_square  id = ""bottomsquare"" ></div>",null,word_square,response,0,none,true,,,
html-keyboard-response,791,1407512,null,"LIPSTICK",null,word,,,,, 'LIPSTICK',,
html-keyboard-response,792,1407853,340.16999999573454,"EYELASH<img id = ""stim"" ><div class = green_square id = ""topsquare"" ></div><img id = ""stim"" ><div class = green_square  id = ""bottomsquare"" ></div>",32,word_square,response,1,Space,true,,,
html-keyboard-response,793,1409359,null,"EYELASH",null,word,,,,, 'EYELASH',,
html-keyboard-response,794,1409717,356.5749999980908,"ATHLETE<img id = ""stim"" ><div class = green_square id = ""topsquare"" ></div><img id = ""stim"" ><div class = green_square  id = ""bottomsquare"" ></div>",32,word_square,response,1,Space,true,,,
html-keyboard-response,795,1411221,null,"ATHLETE",null,word,,,,, 'ATHLETE',,
html-keyboard-response,796,1411726,null,"TABLE<img id = ""stim"" ><div class = red_square id = ""topsquare"" ></div><img id = ""stim"" ><div class = red_square  id = ""bottomsquare"" ></div>",null,word_square,response,0,none,true,,,
html-keyboard-response,797,1413232,null,"TABLE",null,word,,,,, 'TABLE',,
html-keyboard-response,798,1413606,372.8199999970384,"CEILING<img id = ""stim"" ><div class = green_square id = ""topsquare"" ></div><img id = ""stim"" ><div class = green_square  id = ""bottomsquare"" ></div>",32,word_square,response,1,Space,true,,,
html-keyboard-response,799,1415111,null,"CEILING",null,word,,,,, 'CEILING',,
html-keyboard-response,800,1415615,null,"BLOCKADE<img id = ""stim"" ><div class = red_square id = ""topsquare"" ></div><img id = ""stim"" ><div class = red_square  id = ""bottomsquare"" ></div>",null,word_square,response,0,none,true,,,
html-keyboard-response,801,1417119,null,"BLOCKADE",null,word,,,,, 'BLOCKADE',,
html-keyboard-response,802,1417623,null,"LAGOON<img id = ""stim"" ><div class = red_square id = ""topsquare"" ></div><img id = ""stim"" ><div class = red_square  id = ""bottomsquare"" ></div>",null,word_square,response,0,none,true,,,
html-keyboard-response,803,1419127,null,"LAGOON",null,word,,,,, 'LAGOON',,
html-keyboard-response,804,1419455,325.46500000171363,"COSTUME<img id = ""stim"" ><div class = green_square id = ""topsquare"" ></div><img id = ""stim"" ><div class = green_square  id = ""bottomsquare"" ></div>",32,word_square,response,1,Space,true,,,
html-keyboard-response,805,1420960,null,"COSTUME",null,word,,,,, 'COSTUME',,
html-keyboard-response,806,1421414,452.6250000053551,"SHORTS<img id = ""stim"" ><div class = green_square id = ""topsquare"" ></div><img id = ""stim"" ><div class = green_square  id = ""bottomsquare"" ></div>",32,word_square,response,1,Space,true,,,
html-keyboard-response,807,1422919,null,"SHORTS",null,word,,,,, 'SHORTS',,
html-keyboard-response,808,1423423,null,"PORPOISE<img id = ""stim"" ><div class = red_square id = ""topsquare"" ></div><img id = ""stim"" ><div class = red_square  id = ""bottomsquare"" ></div>",null,word_square,response,0,none,true,,,
html-keyboard-response,809,1424927,null,"PORPOISE",null,word,,,,, 'PORPOISE',,
html-keyboard-response,810,1425237,309.115000003716,"HEEL<img id = ""stim"" ><div class = green_square id = ""topsquare"" ></div><img id = ""stim"" ><div class = green_square  id = ""bottomsquare"" ></div>",32,word_square,response,1,Space,true,,,
html-keyboard-response,811,1426743,null,"HEEL",null,word,,,,, 'HEEL',,
html-keyboard-response,812,1427248,null,"BUREAU<img id = ""stim"" ><div class = green_square id = ""topsquare"" ></div><img id = ""stim"" ><div class = green_square  id = ""bottomsquare"" ></div>",null,word_square,response,1,Space,false,,,
html-keyboard-response,813,1428753,null,"BUREAU",null,word,,,,, 'BUREAU',,
call-function,814,1428754,,"",,,,,,,,,
html-keyboard-response,815,1428859,null,"",null,,,,,,,,
math-period,816,1431567,4869.010000002105,"",,,,,,,,,5
html-keyboard-response,817,1431669,null,"",null,,,,,,,,
math-period,818,1433814,3678.3149999901652,"",,,,,,,,,1
html-keyboard-response,819,1433919,null,"",null,,,,,,,,
math-period,820,1436126,3850.8450000006706,"",,,,,,,,,6
html-keyboard-response,821,1436231,null,"",null,,,,,,,,
math-period,822,1437614,2514.9699999962468,"",,,,,,,,,4
html-keyboard-response,823,1437717,null,"",null,,,,,,,,
math-period,824,1439854,3639.629999990575,"",,,,,,,,,2
html-keyboard-response,825,1439957,null,"",null,,,,,,,,
math-period,826,1442159,3727.9799999888055,"",,,,,,,,,1
html-keyboard-response,827,1442263,null,"",null,,,,,,,,
math-period,828,1444463,3499.290000007255,"",,,,,,,,,1
html-keyboard-response,829,1444565,null,"",null,,,,,,,,
math-period,830,1445886,2135.1750000030734,"",,,,,,,,,3
html-keyboard-response,831,1445992,null,"",null,,,,,,,,
math-period,832,1447854,3249.4650000007823,"",,,,,,,,,2
html-keyboard-response,833,1447957,null,"",null,,,,,,,,
math-period,834,1449278,2334.974999997765,"",,,,,,,,,4
html-keyboard-response,835,1449382,null,"",null,,,,,,,,
math-period,836,1450542,2085.4199999957345,"",,,,,,,,,4
html-keyboard-response,837,1450646,null,"",null,,,,,,,,
math-period,838,1451934,2302.034999993397,"",,,,,,,,,2
html-keyboard-response,839,1452036,null,"",null,,,,,,,,
math-period,840,1452757,null,"",,,,,,,,,
html-keyboard-response,841,1453759,null,"Recall Period!",null,,,,,,,,
call-function,842,1453760,,"",,,,,,,,,
html-keyboard-response,843,1453865,null,"",null,,,,,,,,
recall-period,844,1456102,7973.8750000034925,"",,,,,,,,,leg
html-keyboard-response,845,1456208,null,"",null,,,,,,,,
recall-period,846,1457767,6326.995000010356,"",,,,,,,,,heel
html-keyboard-response,847,1457870,null,"",null,,,,,,,,
recall-period,848,1461095,8907.389999993844,"",,,,,,,,,lagoon
html-keyboard-response,849,1461200,null,"",null,,,,,,,,
recall-period,850,1467966,22249.034999987343,"",,,,,,,,,doorbell
html-keyboard-response,851,1468071,null,"",null,,,,,,,,
recall-period,852,1500002,34859.86500002118,"",,,,,,,,,table
html-keyboard-response,853,1500109,null,"",null,,,,,,,,
recall-period,854,1528766,null,"",,,,,,,,,
html-keyboard-response,855,1529270,null,"Time's Up!",null,,,,,,,,
html-keyboard-response,856,1530293,1021.4049999995623,"<p> Good job! You responded correctly to 94% of the GREEN squares.</p>
                  <p>Be sure to keep your accuracy above 80%</p>
                  <p>Press any key to continue the experiment. Thank you!</p>",32,,,,,,,,
html-keyboard-response,857,1531076,781.9549999986775,"<div style=""font-size:48px;"">Press any key to begin list 10 of 24 </div>",32,,,,,,,,
html-keyboard-response,858,1533581,null,"<div style=""font-size:60px;"">+</div>",null,,,,,,,,
html-keyboard-response,859,1534085,null,"CRITIC<img id = ""stim"" ><div class = red_square id = ""topsquare"" ></div><img id = ""stim"" ><div class = red_square  id = ""bottomsquare"" ></div>",null,word_square,response,0,none,true,,,
html-keyboard-response,860,1535590,null,"CRITIC",null,word,,,,, 'CRITIC',,
html-keyboard-response,861,1536094,null,"PASTA<img id = ""stim"" ><div class = red_square id = ""topsquare"" ></div><img id = ""stim"" ><div class = red_square  id = ""bottomsquare"" ></div>",null,word_square,response,0,none,true,,,
html-keyboard-response,862,1537598,null,"PASTA",null,word,,,,, 'PASTA',,
html-keyboard-response,863,1537948,349.1600000052713,"PRINCE<img id = ""stim"" ><div class = green_square id = ""topsquare"" ></div><img id = ""stim"" ><div class = green_square  id = ""bottomsquare"" ></div>",32,word_square,response,1,Space,true,,,
html-keyboard-response,864,1539450,null,"PRINCE",null,word,,,,, 'PRINCE',,
html-keyboard-response,865,1539954,null,"SCALPEL<img id = ""stim"" ><div class = red_square id = ""topsquare"" ></div><img id = ""stim"" ><div class = red_square  id = ""bottomsquare"" ></div>",null,word_square,response,0,none,true,,,
html-keyboard-response,866,1541458,null,"SCALPEL",null,word,,,,, 'SCALPEL',,
html-keyboard-response,867,1541963,null,"NURSE<img id = ""stim"" ><div class = red_square id = ""topsquare"" ></div><img id = ""stim"" ><div class = red_square  id = ""bottomsquare"" ></div>",null,word_square,response,0,none,true,,,
html-keyboard-response,868,1543468,null,"NURSE",null,word,,,,, 'NURSE',,
html-keyboard-response,869,1543878,407.85000000335276,"COBBLER<img id = ""stim"" ><div class = green_square id = ""topsquare"" ></div><img id = ""stim"" ><div class = green_square  id = ""bottomsquare"" ></div>",32,word_square,response,1,Space,true,,,
html-keyboard-response,870,1545382,null,"COBBLER",null,word,,,,, 'COBBLER',,
html-keyboard-response,871,1545888,null,"INSECT<img id = ""stim"" ><div class = red_square id = ""topsquare"" ></div><img id = ""stim"" ><div class = red_square  id = ""bottomsquare"" ></div>",null,word_square,response,0,none,true,,,
html-keyboard-response,872,1547394,null,"INSECT",null,word,,,,, 'INSECT',,
html-keyboard-response,873,1547797,401.400000002468,"PADDING<img id = ""stim"" ><div class = green_square id = ""topsquare"" ></div><img id = ""stim"" ><div class = green_square  id = ""bottomsquare"" ></div>",32,word_square,response,1,Space,true,,,
html-keyboard-response,874,1549302,null,"PADDING",null,word,,,,, 'PADDING',,
html-keyboard-response,875,1549806,null,"SNOB<img id = ""stim"" ><div class = green_square id = ""topsquare"" ></div><img id = ""stim"" ><div class = green_square  id = ""bottomsquare"" ></div>",null,word_square,response,1,Space,false,,,
html-keyboard-response,876,1551310,null,"SNOB",null,word,,,,, 'SNOB',,
html-keyboard-response,877,1551814,null,"CARTON<img id = ""stim"" ><div class = red_square id = ""topsquare"" ></div><img id = ""stim"" ><div class = red_square  id = ""bottomsquare"" ></div>",null,word_square,response,0,none,true,,,
html-keyboard-response,878,1553319,null,"CARTON",null,word,,,,, 'CARTON',,
html-keyboard-response,879,1553668,348.12500000419095,"MARKER<img id = ""stim"" ><div class = green_square id = ""topsquare"" ></div><img id = ""stim"" ><div class = green_square  id = ""bottomsquare"" ></div>",32,word_square,response,1,Space,true,,,
html-keyboard-response,880,1555170,null,"MARKER",null,word,,,,, 'MARKER',,
html-keyboard-response,881,1555675,null,"SWITCH<img id = ""stim"" ><div class = red_square id = ""topsquare"" ></div><img id = ""stim"" ><div class = red_square  id = ""bottomsquare"" ></div>",null,word_square,response,0,none,true,,,
html-keyboard-response,882,1557180,null,"SWITCH",null,word,,,,, 'SWITCH',,
html-keyboard-response,883,1557684,null,"TUNNEL<img id = ""stim"" ><div class = red_square id = ""topsquare"" ></div><img id = ""stim"" ><div class = red_square  id = ""bottomsquare"" ></div>",null,word_square,response,0,none,true,,,
html-keyboard-response,884,1559188,null,"TUNNEL",null,word,,,,, 'TUNNEL',,
html-keyboard-response,885,1559565,376.1949999970384,"SUGAR<img id = ""stim"" ><div class = green_square id = ""topsquare"" ></div><img id = ""stim"" ><div class = green_square  id = ""bottomsquare"" ></div>",32,word_square,response,1,Space,true,,,
html-keyboard-response,886,1561067,null,"SUGAR",null,word,,,,, 'SUGAR',,
html-keyboard-response,887,1561573,null,"RUBY<img id = ""stim"" ><div class = green_square id = ""topsquare"" ></div><img id = ""stim"" ><div class = green_square  id = ""bottomsquare"" ></div>",null,word_square,response,1,Space,false,,,
html-keyboard-response,888,1563077,null,"RUBY",null,word,,,,, 'RUBY',,
html-keyboard-response,889,1563582,null,"PIGMENT<img id = ""stim"" ><div class = red_square id = ""topsquare"" ></div><img id = ""stim"" ><div class = red_square  id = ""bottomsquare"" ></div>",null,word_square,response,0,none,true,,,
html-keyboard-response,890,1565086,null,"PIGMENT",null,word,,,,, 'PIGMENT',,
html-keyboard-response,891,1565477,388.9649999982212,"GROUND<img id = ""stim"" ><div class = green_square id = ""topsquare"" ></div><img id = ""stim"" ><div class = green_square  id = ""bottomsquare"" ></div>",32,word_square,response,1,Space,true,,,
html-keyboard-response,892,1566979,null,"GROUND",null,word,,,,, 'GROUND',,
html-keyboard-response,893,1567309,328.71499999589287,"FILM<img id = ""stim"" ><div class = green_square id = ""topsquare"" ></div><img id = ""stim"" ><div class = green_square  id = ""bottomsquare"" ></div>",32,word_square,response,1,Space,true,,,
html-keyboard-response,894,1568812,null,"FILM",null,word,,,,, 'FILM',,
call-function,895,1568813,,"",,,,,,,,,
html-keyboard-response,896,1568917,null,"",null,,,,,,,,
math-period,897,1571613,4974.299999994459,"",,,,,,,,,6
html-keyboard-response,898,1571716,null,"",null,,,,,,,,
math-period,899,1573253,2726.715000004042,"",,,,,,,,,5
html-keyboard-response,900,1573359,null,"",null,,,,,,,,
math-period,901,1574397,1970.1300000012852,"",,,,,,,,,4
html-keyboard-response,902,1574502,null,"",null,,,,,,,,
math-period,903,1575501,1922.910000008298,"",,,,,,,,,1
html-keyboard-response,904,1575607,null,"",null,,,,,,,,
math-period,905,1576725,2161.8999999992084,"",,,,,,,,,5
html-keyboard-response,906,1576829,null,"",null,,,,,,,,
math-period,907,1577949,2101.73499999661,"",,,,,,,,,2
html-keyboard-response,908,1578055,null,"",null,,,,,,,,
math-period,909,1579069,1930.3300000028685,"",,,,,,,,,5
html-keyboard-response,910,1579174,null,"",null,,,,,,,,
math-period,911,1580029,1618.7499999939464,"",,,,,,,,,3
html-keyboard-response,912,1580132,null,"",null,,,,,,,,
