trial_type,trial_index,time_elapsed,rt,stimulus,key_press,test_part,task,targ_cond,correctKeyCode,correct,word,value,response
pavlovia,0,3107,,"",,,,,,,,,
external-html,1,12178,8631.394999916665,"",,,,,,,,,
html-keyboard-response,2,15849,3668.390000006184,"Welcome to the experiment. Press any key to begin.",13,,,,,,,,
html-keyboard-response,3,86120,70269.75500001572,"<p>You will see a list of words and colored squares in the following task.<p><p>Press the spacebar whenever you see a red square.<p><p>Do not press a key if the square is green<p><p>Press the spacebar to continue.</p>",32,,,,,,,,
html-keyboard-response,4,94256,7632.670000079088,"<p>Please try to remember as many of the words as you can, and try to think about the meaning of each word as it appears.<p><p>After the detection and encoding task you will be asked to solve some math problems for 24 seconds.<p> Please solve as many problems as you can in the time given. <p>",32,,,,,,,,
html-keyboard-response,5,100170,5411.465000011958,"After solving the math problems, you will be asked to type in as many words <p>from the previous list as you can remember for 75 seconds.<p> If you finish recalling before the 75 seconds are up,<p> just sit tight and try to think of any more words you could have missed. <p><p>We will begin with a brief practice session<p>Press the spacebar to begin the practice.</p>",32,,,,,,,,
html-keyboard-response,6,102676,null,"<div style=""font-size:60px;"">+</div>",null,,,,,,,,
html-keyboard-response,7,103181,null,"HAPPY<img id = ""stim"" ><div class = green_square id = ""topsquare"" ></div><img id = ""stim"" ><div class = green_square  id = ""bottomsquare"" ></div>",null,word_square,prac_response,0,none,true,,,
html-keyboard-response,8,104683,null,"HAPPY",null,word,,,,,HAPPY,,
html-keyboard-response,9,105185,null,"COLD<img id = ""stim"" ><div class = red_square id = ""topsquare"" ></div><img id = ""stim"" ><div class = red_square  id = ""bottomsquare"" ></div>",null,word_square,prac_response,1,Space,false,,,
html-keyboard-response,10,106687,null,"COLD",null,word,,,,,COLD,,
html-keyboard-response,11,107191,null,"HEAVY<img id = ""stim"" ><div class = red_square id = ""topsquare"" ></div><img id = ""stim"" ><div class = red_square  id = ""bottomsquare"" ></div>",null,word_square,prac_response,1,Space,false,,,
html-keyboard-response,12,108693,null,"HEAVY",null,word,,,,,HEAVY,,
html-keyboard-response,13,109195,null,"FUNNY<img id = ""stim"" ><div class = green_square id = ""topsquare"" ></div><img id = ""stim"" ><div class = green_square  id = ""bottomsquare"" ></div>",null,word_square,prac_response,0,none,true,,,
html-keyboard-response,14,110699,null,"FUNNY",null,word,,,,,FUNNY,,
html-keyboard-response,15,111202,null,"SCARY<img id = ""stim"" ><div class = red_square id = ""topsquare"" ></div><img id = ""stim"" ><div class = red_square  id = ""bottomsquare"" ></div>",null,word_square,prac_response,1,Space,false,,,
html-keyboard-response,16,112704,null,"SCARY",null,word,,,,,SCARY,,
html-keyboard-response,17,113207,null,"PEACEFUL<img id = ""stim"" ><div class = red_square id = ""topsquare"" ></div><img id = ""stim"" ><div class = red_square  id = ""bottomsquare"" ></div>",null,word_square,prac_response,1,Space,false,,,
html-keyboard-response,18,114711,null,"PEACEFUL",null,word,,,,,PEACEFUL,,
html-keyboard-response,19,115214,null,"LITTLE<img id = ""stim"" ><div class = green_square id = ""topsquare"" ></div><img id = ""stim"" ><div class = green_square  id = ""bottomsquare"" ></div>",null,word_square,prac_response,0,none,true,,,
html-keyboard-response,20,116717,null,"LITTLE",null,word,,,,,LITTLE,,
html-keyboard-response,21,117221,null,"TIRED<img id = ""stim"" ><div class = green_square id = ""topsquare"" ></div><img id = ""stim"" ><div class = green_square  id = ""bottomsquare"" ></div>",null,word_square,prac_response,0,none,true,,,
html-keyboard-response,22,118723,null,"TIRED",null,word,,,,,TIRED,,
html-keyboard-response,23,119228,null,"ENTERTAINING<img id = ""stim"" ><div class = green_square id = ""topsquare"" ></div><img id = ""stim"" ><div class = green_square  id = ""bottomsquare"" ></div>",null,word_square,prac_response,0,none,true,,,
html-keyboard-response,24,120730,null,"ENTERTAINING",null,word,,,,,ENTERTAINING,,
html-keyboard-response,25,121233,null,"GRATEFUL<img id = ""stim"" ><div class = red_square id = ""topsquare"" ></div><img id = ""stim"" ><div class = red_square  id = ""bottomsquare"" ></div>",null,word_square,prac_response,1,Space,false,,,
html-keyboard-response,26,122736,null,"GRATEFUL",null,word,,,,,GRATEFUL,,
html-keyboard-response,27,123239,null,"LOUD<img id = ""stim"" ><div class = green_square id = ""topsquare"" ></div><img id = ""stim"" ><div class = green_square  id = ""bottomsquare"" ></div>",null,word_square,prac_response,0,none,true,,,
html-keyboard-response,28,124741,null,"LOUD",null,word,,,,,LOUD,,
html-keyboard-response,29,125244,null,"SMART<img id = ""stim"" ><div class = red_square id = ""topsquare"" ></div><img id = ""stim"" ><div class = red_square  id = ""bottomsquare"" ></div>",null,word_square,prac_response,1,Space,false,,,
html-keyboard-response,30,126748,null,"SMART",null,word,,,,,SMART,,
html-keyboard-response,31,127250,null,"SMOOTH<img id = ""stim"" ><div class = red_square id = ""topsquare"" ></div><img id = ""stim"" ><div class = red_square  id = ""bottomsquare"" ></div>",null,word_square,prac_response,1,Space,false,,,
html-keyboard-response,32,128752,null,"SMOOTH",null,word,,,,,SMOOTH,,
html-keyboard-response,33,129255,null,"DISHONEST<img id = ""stim"" ><div class = green_square id = ""topsquare"" ></div><img id = ""stim"" ><div class = green_square  id = ""bottomsquare"" ></div>",null,word_square,prac_response,0,none,true,,,
html-keyboard-response,34,130756,null,"DISHONEST",null,word,,,,,DISHONEST,,
html-keyboard-response,35,131258,null,"WEALTHY<img id = ""stim"" ><div class = red_square id = ""topsquare"" ></div><img id = ""stim"" ><div class = red_square  id = ""bottomsquare"" ></div>",null,word_square,prac_response,1,Space,false,,,
html-keyboard-response,36,132760,null,"WEALTHY",null,word,,,,,WEALTHY,,
html-keyboard-response,37,133262,null,"BEAUTIFUL<img id = ""stim"" ><div class = green_square id = ""topsquare"" ></div><img id = ""stim"" ><div class = green_square  id = ""bottomsquare"" ></div>",null,word_square,prac_response,0,none,true,,,
html-keyboard-response,38,134764,null,"BEAUTIFUL",null,word,,,,,BEAUTIFUL,,
html-keyboard-response,39,135267,null,"DREARY<img id = ""stim"" ><div class = green_square id = ""topsquare"" ></div><img id = ""stim"" ><div class = green_square  id = ""bottomsquare"" ></div>",null,word_square,prac_response,0,none,true,,,
html-keyboard-response,40,136772,null,"DREARY",null,word,,,,,DREARY,,
html-keyboard-response,41,137275,null,"PLAYFUL<img id = ""stim"" ><div class = red_square id = ""topsquare"" ></div><img id = ""stim"" ><div class = red_square  id = ""bottomsquare"" ></div>",null,word_square,prac_response,1,Space,false,,,
html-keyboard-response,42,138778,null,"PLAYFUL",null,word,,,,,PLAYFUL,,
html-keyboard-response,43,144008,5225.8950000396,"<p> Uh oh. You responded correctly on 50% of the red squares.</p>
                  <p>We need you keep your accuracy above 80%</p>
                  <p>We're going to try once more to make sure you understand the task. press any key to continue.</p>",32,,,,,,,,
html-keyboard-response,44,146096,2086.1699999077246,"<p>You will see a list of words and colored squares in the following task.<p><p>Press the spacebar whenever you see a red square.<p><p>Do not press a key if the square is green<p><p>Press the spacebar to continue.</p>",32,,,,,,,,
html-keyboard-response,45,148599,null,"<div style=""font-size:60px;"">+</div>",null,,,,,,,,
html-keyboard-response,46,149101,null,"HAPPY<img id = ""stim"" ><div class = green_square id = ""topsquare"" ></div><img id = ""stim"" ><div class = green_square  id = ""bottomsquare"" ></div>",null,word_square,response,0,none,true,,,
html-keyboard-response,47,150603,null,"HAPPY",null,word,,,,,HAPPY,,
html-keyboard-response,48,151106,null,"COLD<img id = ""stim"" ><div class = red_square id = ""topsquare"" ></div><img id = ""stim"" ><div class = red_square  id = ""bottomsquare"" ></div>",null,word_square,response,1,Space,false,,,
html-keyboard-response,49,152608,null,"COLD",null,word,,,,,COLD,,
html-keyboard-response,50,153111,null,"HEAVY<img id = ""stim"" ><div class = red_square id = ""topsquare"" ></div><img id = ""stim"" ><div class = red_square  id = ""bottomsquare"" ></div>",null,word_square,response,1,Space,false,,,
html-keyboard-response,51,154613,null,"HEAVY",null,word,,,,,HEAVY,,
html-keyboard-response,52,155117,null,"FUNNY<img id = ""stim"" ><div class = green_square id = ""topsquare"" ></div><img id = ""stim"" ><div class = green_square  id = ""bottomsquare"" ></div>",null,word_square,response,0,none,true,,,
html-keyboard-response,53,156620,null,"FUNNY",null,word,,,,,FUNNY,,
html-keyboard-response,54,157032,410.35000002011657,"SCARY<img id = ""stim"" ><div class = red_square id = ""topsquare"" ></div><img id = ""stim"" ><div class = red_square  id = ""bottomsquare"" ></div>",32,word_square,response,1,Space,true,,,
html-keyboard-response,55,158536,null,"SCARY",null,word,,,,,SCARY,,
html-keyboard-response,56,159038,null,"PEACEFUL<img id = ""stim"" ><div class = red_square id = ""topsquare"" ></div><img id = ""stim"" ><div class = red_square  id = ""bottomsquare"" ></div>",null,word_square,response,1,Space,false,,,
html-keyboard-response,57,160541,null,"PEACEFUL",null,word,,,,,PEACEFUL,,
html-keyboard-response,58,161043,null,"LITTLE<img id = ""stim"" ><div class = green_square id = ""topsquare"" ></div><img id = ""stim"" ><div class = green_square  id = ""bottomsquare"" ></div>",null,word_square,response,0,none,true,,,
html-keyboard-response,59,162546,null,"LITTLE",null,word,,,,,LITTLE,,
html-keyboard-response,60,163048,null,"TIRED<img id = ""stim"" ><div class = green_square id = ""topsquare"" ></div><img id = ""stim"" ><div class = green_square  id = ""bottomsquare"" ></div>",null,word_square,response,0,none,true,,,
html-keyboard-response,61,164551,null,"TIRED",null,word,,,,,TIRED,,
html-keyboard-response,62,165055,null,"ENTERTAINING<img id = ""stim"" ><div class = green_square id = ""topsquare"" ></div><img id = ""stim"" ><div class = green_square  id = ""bottomsquare"" ></div>",null,word_square,response,0,none,true,,,
html-keyboard-response,63,166560,null,"ENTERTAINING",null,word,,,,,ENTERTAINING,,
html-keyboard-response,64,167043,479.2249999009073,"GRATEFUL<img id = ""stim"" ><div class = red_square id = ""topsquare"" ></div><img id = ""stim"" ><div class = red_square  id = ""bottomsquare"" ></div>",32,word_square,response,1,Space,true,,,
html-keyboard-response,65,168545,null,"GRATEFUL",null,word,,,,,GRATEFUL,,
html-keyboard-response,66,169047,null,"LOUD<img id = ""stim"" ><div class = green_square id = ""topsquare"" ></div><img id = ""stim"" ><div class = green_square  id = ""bottomsquare"" ></div>",null,word_square,response,0,none,true,,,
html-keyboard-response,67,170550,null,"LOUD",null,word,,,,,LOUD,,
html-keyboard-response,68,171053,null,"SMART<img id = ""stim"" ><div class = red_square id = ""topsquare"" ></div><img id = ""stim"" ><div class = red_square  id = ""bottomsquare"" ></div>",null,word_square,response,1,Space,false,,,
html-keyboard-response,69,172556,null,"SMART",null,word,,,,,SMART,,
html-keyboard-response,70,173025,465.8500000368804,"SMOOTH<img id = ""stim"" ><div class = red_square id = ""topsquare"" ></div><img id = ""stim"" ><div class = red_square  id = ""bottomsquare"" ></div>",32,word_square,response,1,Space,true,,,
html-keyboard-response,71,174529,null,"SMOOTH",null,word,,,,,SMOOTH,,
html-keyboard-response,72,175032,null,"DISHONEST<img id = ""stim"" ><div class = green_square id = ""topsquare"" ></div><img id = ""stim"" ><div class = green_square  id = ""bottomsquare"" ></div>",null,word_square,response,0,none,true,,,
html-keyboard-response,73,176536,null,"DISHONEST",null,word,,,,,DISHONEST,,
html-keyboard-response,74,177033,493.78999997861683,"WEALTHY<img id = ""stim"" ><div class = red_square id = ""topsquare"" ></div><img id = ""stim"" ><div class = red_square  id = ""bottomsquare"" ></div>",32,word_square,response,1,Space,true,,,
html-keyboard-response,75,178537,null,"WEALTHY",null,word,,,,,WEALTHY,,
html-keyboard-response,76,179039,null,"BEAUTIFUL<img id = ""stim"" ><div class = green_square id = ""topsquare"" ></div><img id = ""stim"" ><div class = green_square  id = ""bottomsquare"" ></div>",null,word_square,response,0,none,true,,,
html-keyboard-response,77,180541,null,"BEAUTIFUL",null,word,,,,,BEAUTIFUL,,
html-keyboard-response,78,181044,null,"DREARY<img id = ""stim"" ><div class = green_square id = ""topsquare"" ></div><img id = ""stim"" ><div class = green_square  id = ""bottomsquare"" ></div>",null,word_square,response,0,none,true,,,
html-keyboard-response,79,182546,null,"DREARY",null,word,,,,,DREARY,,
html-keyboard-response,80,183052,null,"PLAYFUL<img id = ""stim"" ><div class = red_square id = ""topsquare"" ></div><img id = ""stim"" ><div class = red_square  id = ""bottomsquare"" ></div>",null,word_square,response,1,Space,false,,,
html-keyboard-response,81,184554,null,"PLAYFUL",null,word,,,,,PLAYFUL,,
html-keyboard-response,82,194376,9819.844999932684,"<p> Uh oh. You responded correctly on 72% of the red squares.</p>
                  <p>We need you keep your accuracy above 80%</p>
                  <p>Press any key to begin the math and recall sections. Thank you!</p>",32,,,,,,,,
call-function,83,194377,,"",,,,,,,,,
html-keyboard-response,84,194479,null,"",null,,,,,,,,
math-period,85,200840,10966.359999962151,"",,,,,,,,,2
html-keyboard-response,86,200942,null,"",null,,,,,,,,
math-period,87,203736,4752.745000063442,"",,,,,,,,,1
html-keyboard-response,88,203838,null,"",null,,,,,,,,
math-period,89,207703,5769.210000056773,"",,,,,,,,,1
html-keyboard-response,90,207806,null,"",null,,,,,,,,
math-period,91,210368,4520.175000070594,"",,,,,,,,,5
html-keyboard-response,92,210469,null,"",null,,,,,,,,
math-period,93,212944,4192.755000083707,"",,,,,,,,,1
html-keyboard-response,94,213046,null,"",null,,,,,,,,
math-period,95,215256,3768.1599999777973,"",,,,,,,,,2
html-keyboard-response,96,215358,null,"",null,,,,,,,,
math-period,97,217360,3369.2550000268966,"",,,,,,,,,3
html-keyboard-response,98,217462,null,"",null,,,,,,,,
math-period,99,218379,null,"",,,,,,,,,
html-keyboard-response,100,219382,null,"Recall Period!",null,,,,,,,,
call-function,101,219383,,"",,,,,,,,,
html-keyboard-response,102,219484,null,"",null,,,,,,,,
recall-period,103,219760,273.90999998897314,"",,,,,,,,,
html-keyboard-response,104,219862,null,"",null,,,,,,,,
recall-period,105,232767,60931.5450002905,"",,,,,,,,,peaceful
html-keyboard-response,106,232870,null,"",null,,,,,,,,
recall-period,107,241120,63047.945000231266,"",,,,,,,,,playful
html-keyboard-response,108,241222,null,"",null,,,,,,,,
recall-period,109,242776,3935.7399999862537,"",,,,,,,,,lod
html-keyboard-response,110,242878,null,"",null,,,,,,,,
recall-period,111,245888,15247.564999735914,"",,,,,,,,,smooth
html-keyboard-response,112,245990,null,"",null,,,,,,,,
recall-period,113,248192,8416.304999846034,"",,,,,,,,,tired
html-keyboard-response,114,248293,null,"",null,,,,,,,,
recall-period,115,251656,12512.349999626167,"",,,,,,,,,scary
html-keyboard-response,116,251757,null,"",null,,,,,,,,
recall-period,117,253760,5780.224999645725,"",,,,,,,,,cold
html-keyboard-response,118,253861,null,"",null,,,,,,,,
recall-period,119,256400,10420.775000238791,"",,,,,,,,,happy
html-keyboard-response,120,256502,null,"",null,,,,,,,,
recall-period,121,262688,27449.125000392087,"",,,,,,,,,tired
html-keyboard-response,122,262790,null,"",null,,,,,,,,
recall-period,123,267552,18240.319999866188,"",,,,,,,,,cold
html-keyboard-response,124,267654,null,"",null,,,,,,,,
recall-period,125,272776,26068.729999940842,"",,,,,,,,,smart
html-keyboard-response,126,272878,null,"",null,,,,,,,,
recall-period,127,280680,35584.420000202954,"",,,,,,,,,loud
html-keyboard-response,128,280781,null,"",null,,,,,,,,
recall-period,129,294385,null,"",,,,,,,,,
html-keyboard-response,130,294889,null,"Time's Up!",null,,,,,,,,
html-keyboard-response,131,361865,66974.12500006612,"<p>We will now begin the experiment!<p><p>Please try to remember all words from each list.<p><p>Press the spacebar whenever you see a red square.<p><p><p><p>Press the spacebar to begin.</p>",32,,,,,,,,
html-keyboard-response,132,365944,3577.560000005178,"<div style=""font-size:48px;"">Press any key to begin list 1 of 24 </div>",32,,,,,,,,
html-keyboard-response,133,368447,null,"<div style=""font-size:60px;"">+</div>",null,,,,,,,,
html-keyboard-response,134,368950,null,"DRAWING<img id = ""stim"" ><div class = red_square id = ""topsquare"" ></div><img id = ""stim"" ><div class = red_square  id = ""bottomsquare"" ></div>",null,word_square,response,1,Space,false,,,
html-keyboard-response,135,370452,null,"DRAWING",null,word,,,,, 'DRAWING',,
html-keyboard-response,136,370955,null,"LODGE<img id = ""stim"" ><div class = green_square id = ""topsquare"" ></div><img id = ""stim"" ><div class = green_square  id = ""bottomsquare"" ></div>",null,word_square,response,0,none,true,,,
html-keyboard-response,137,372456,null,"LODGE",null,word,,,,, 'LODGE',,
html-keyboard-response,138,372959,null,"CABOOSE<img id = ""stim"" ><div class = green_square id = ""topsquare"" ></div><img id = ""stim"" ><div class = green_square  id = ""bottomsquare"" ></div>",null,word_square,response,0,none,true,,,
html-keyboard-response,139,374461,null,"CABOOSE",null,word,,,,, 'CABOOSE',,
html-keyboard-response,140,374963,null,"TYPIST<img id = ""stim"" ><div class = red_square id = ""topsquare"" ></div><img id = ""stim"" ><div class = red_square  id = ""bottomsquare"" ></div>",null,word_square,response,1,Space,false,,,
html-keyboard-response,141,376466,null,"TYPIST",null,word,,,,, 'TYPIST',,
html-keyboard-response,142,376969,null,"OFFICE<img id = ""stim"" ><div class = green_square id = ""topsquare"" ></div><img id = ""stim"" ><div class = green_square  id = ""bottomsquare"" ></div>",null,word_square,response,0,none,true,,,
html-keyboard-response,143,378474,null,"OFFICE",null,word,,,,, 'OFFICE',,
html-keyboard-response,144,378977,null,"SCULPTURE<img id = ""stim"" ><div class = red_square id = ""topsquare"" ></div><img id = ""stim"" ><div class = red_square  id = ""bottomsquare"" ></div>",null,word_square,response,1,Space,false,,,
html-keyboard-response,145,380480,null,"SCULPTURE",null,word,,,,, 'SCULPTURE',,
html-keyboard-response,146,380983,null,"IDOL<img id = ""stim"" ><div class = green_square id = ""topsquare"" ></div><img id = ""stim"" ><div class = green_square  id = ""bottomsquare"" ></div>",null,word_square,response,0,none,true,,,
html-keyboard-response,147,382485,null,"IDOL",null,word,,,,, 'IDOL',,
html-keyboard-response,148,382989,null,"SWORD<img id = ""stim"" ><div class = green_square id = ""topsquare"" ></div><img id = ""stim"" ><div class = green_square  id = ""bottomsquare"" ></div>",null,word_square,response,0,none,true,,,
html-keyboard-response,149,384491,null,"SWORD",null,word,,,,, 'SWORD',,
html-keyboard-response,150,384993,null,"LAGOON<img id = ""stim"" ><div class = red_square id = ""topsquare"" ></div><img id = ""stim"" ><div class = red_square  id = ""bottomsquare"" ></div>",null,word_square,response,1,Space,false,,,
html-keyboard-response,151,386495,null,"LAGOON",null,word,,,,, 'LAGOON',,
html-keyboard-response,152,386998,null,"STAKE<img id = ""stim"" ><div class = green_square id = ""topsquare"" ></div><img id = ""stim"" ><div class = green_square  id = ""bottomsquare"" ></div>",null,word_square,response,0,none,true,,,
html-keyboard-response,153,388499,null,"STAKE",null,word,,,,, 'STAKE',,
html-keyboard-response,154,388984,483.75999997369945,"CABIN<img id = ""stim"" ><div class = red_square id = ""topsquare"" ></div><img id = ""stim"" ><div class = red_square  id = ""bottomsquare"" ></div>",32,word_square,response,1,Space,true,,,
html-keyboard-response,155,390486,null,"CABIN",null,word,,,,, 'CABIN',,
html-keyboard-response,156,390991,null,"SHAMPOO<img id = ""stim"" ><div class = green_square id = ""topsquare"" ></div><img id = ""stim"" ><div class = green_square  id = ""bottomsquare"" ></div>",null,word_square,response,0,none,true,,,
html-keyboard-response,157,392494,null,"SHAMPOO",null,word,,,,, 'SHAMPOO',,
html-keyboard-response,158,392998,null,"BLANKET<img id = ""stim"" ><div class = green_square id = ""topsquare"" ></div><img id = ""stim"" ><div class = green_square  id = ""bottomsquare"" ></div>",null,word_square,response,0,none,true,,,
html-keyboard-response,159,394501,null,"BLANKET",null,word,,,,, 'BLANKET',,
html-keyboard-response,160,395004,null,"HARP<img id = ""stim"" ><div class = red_square id = ""topsquare"" ></div><img id = ""stim"" ><div class = red_square  id = ""bottomsquare"" ></div>",null,word_square,response,1,Space,false,,,
html-keyboard-response,161,396506,null,"HARP",null,word,,,,, 'HARP',,
html-keyboard-response,162,397010,null,"PARCEL<img id = ""stim"" ><div class = red_square id = ""topsquare"" ></div><img id = ""stim"" ><div class = red_square  id = ""bottomsquare"" ></div>",null,word_square,response,1,Space,false,,,
html-keyboard-response,163,398513,null,"PARCEL",null,word,,,,, 'PARCEL',,
html-keyboard-response,164,399015,null,"MOTEL<img id = ""stim"" ><div class = green_square id = ""topsquare"" ></div><img id = ""stim"" ><div class = green_square  id = ""bottomsquare"" ></div>",null,word_square,response,0,none,true,,,
html-keyboard-response,165,400517,null,"MOTEL",null,word,,,,, 'MOTEL',,
html-keyboard-response,166,401016,497.83499992918223,"CRAYON<img id = ""stim"" ><div class = red_square id = ""topsquare"" ></div><img id = ""stim"" ><div class = red_square  id = ""bottomsquare"" ></div>",32,word_square,response,1,Space,true,,,
html-keyboard-response,167,402518,null,"CRAYON",null,word,,,,, 'CRAYON',,
html-keyboard-response,168,403023,null,"DANDRUFF<img id = ""stim"" ><div class = red_square id = ""topsquare"" ></div><img id = ""stim"" ><div class = red_square  id = ""bottomsquare"" ></div>",null,word_square,response,1,Space,false,,,
html-keyboard-response,169,404526,null,"DANDRUFF",null,word,,,,, 'DANDRUFF',,
call-function,170,404529,,"",,,,,,,,,
html-keyboard-response,171,404633,null,"",null,,,,,,,,
math-period,172,408344,6721.635000081733,"",,,,,,,,,2
html-keyboard-response,173,408446,null,"",null,,,,,,,,
math-period,174,412864,8097.769999993034,"",,,,,,,,,4
html-keyboard-response,175,412966,null,"",null,,,,,,,,
math-period,176,415008,3703.2500001369044,"",,,,,,,,,5
html-keyboard-response,177,415110,null,"",null,,,,,,,,
math-period,178,418464,6376.350000151433,"",,,,,,,,,1
html-keyboard-response,179,418566,null,"",null,,,,,,,,
math-period,180,421753,5738.245000015013,"",,,,,,,,,4
html-keyboard-response,181,421854,null,"",null,,,,,,,,
math-period,182,423768,3369.9550001183525,"",,,,,,,,,4
html-keyboard-response,183,423870,null,"",null,,,,,,,,
math-period,184,425632,3257.149999961257,"",,,,,,,,,2
html-keyboard-response,185,425735,null,"",null,,,,,,,,
math-period,186,427624,3481.455000001006,"",,,,,,,,,4
html-keyboard-response,187,427725,null,"",null,,,,,,,,
math-period,188,428529,null,"",,,,,,,,,
html-keyboard-response,189,429532,null,"Recall Period!",null,,,,,,,,
call-function,190,429535,,"",,,,,,,,,
html-keyboard-response,191,429637,null,"",null,,,,,,,,
recall-period,192,437849,56654.76000017952,"",,,,,,,,,shampoo
html-keyboard-response,193,437952,null,"",null,,,,,,,,
recall-period,194,440929,12425.480000209063,"",,,,,,,,,typist
html-keyboard-response,195,441031,null,"",null,,,,,,,,
recall-period,196,445225,17610.61000020709,"",,,,,,,,,cabin
html-keyboard-response,197,445327,null,"",null,,,,,,,,
recall-period,198,450512,25175.679999869317,"",,,,,,,,,sword
html-keyboard-response,199,450616,null,"",null,,,,,,,,
recall-period,200,454024,12715.574999921955,"",,,,,,,,,idol
html-keyboard-response,201,454127,null,"",null,,,,,,,,
recall-period,202,458896,16543.564999708906,"",,,,,,,,,harp
html-keyboard-response,203,458998,null,"",null,,,,,,,,
recall-period,204,462888,14397.690000012517,"",,,,,,,,,lodge
html-keyboard-response,205,462991,null,"",null,,,,,,,,
recall-period,206,466488,13873.219999717548,"",,,,,,,,,parcel
html-keyboard-response,207,466591,null,"",null,,,,,,,,
recall-period,208,468624,7767.520000343211,"",,,,,,,,,crayon
html-keyboard-response,209,468727,null,"",null,,,,,,,,
recall-period,210,504535,null,"",,,,,,,,,
html-keyboard-response,211,505038,null,"Time's Up!",null,,,,,,,,
html-keyboard-response,212,510456,5416.025000042282,"<p> Uh oh. You responded correctly on 67% of the red squares.</p>
                  <p>We need you keep your accuracy above 80%</p>
                  <p>Press any key to continue the experiment. Thank you!</p>",32,,,,,,,,
html-keyboard-response,213,514935,4478.374999947846,"<div style=""font-size:48px;"">Press any key to begin list 2 of 24 </div>",32,,,,,,,,
html-keyboard-response,214,517438,null,"<div style=""font-size:60px;"">+</div>",null,,,,,,,,
html-keyboard-response,215,517913,472.13500004727393,"RODENT<img id = ""stim"" ><div class = red_square id = ""topsquare"" ></div><img id = ""stim"" ><div class = red_square  id = ""bottomsquare"" ></div>",32,word_square,response,1,Space,true,,,
html-keyboard-response,216,519416,null,"RODENT",null,word,,,,, 'RODENT',,
html-keyboard-response,217,519920,null,"THIMBLE<img id = ""stim"" ><div class = green_square id = ""topsquare"" ></div><img id = ""stim"" ><div class = green_square  id = ""bottomsquare"" ></div>",null,word_square,response,0,none,true,,,
html-keyboard-response,218,521422,null,"THIMBLE",null,word,,,,, 'THIMBLE',,
html-keyboard-response,219,521926,null,"COSTUME<img id = ""stim"" ><div class = green_square id = ""topsquare"" ></div><img id = ""stim"" ><div class = green_square  id = ""bottomsquare"" ></div>",null,word_square,response,0,none,true,,,
html-keyboard-response,220,523429,null,"COSTUME",null,word,,,,, 'COSTUME',,
html-keyboard-response,221,523922,489.5750000141561,"JUGGLER<img id = ""stim"" ><div class = red_square id = ""topsquare"" ></div><img id = ""stim"" ><div class = red_square  id = ""bottomsquare"" ></div>",32,word_square,response,1,Space,true,,,
html-keyboard-response,222,525425,null,"JUGGLER",null,word,,,,, 'JUGGLER',,
html-keyboard-response,223,525928,null,"NAPKIN<img id = ""stim"" ><div class = green_square id = ""topsquare"" ></div><img id = ""stim"" ><div class = green_square  id = ""bottomsquare"" ></div>",null,word_square,response,0,none,true,,,
html-keyboard-response,224,527431,null,"NAPKIN",null,word,,,,, 'NAPKIN',,
html-keyboard-response,225,527888,454.7599999932572,"PATROL<img id = ""stim"" ><div class = red_square id = ""topsquare"" ></div><img id = ""stim"" ><div class = red_square  id = ""bottomsquare"" ></div>",32,word_square,response,1,Space,true,,,
html-keyboard-response,226,529391,null,"PATROL",null,word,,,,, 'PATROL',,
html-keyboard-response,227,529893,null,"COLUMN<img id = ""stim"" ><div class = green_square id = ""topsquare"" ></div><img id = ""stim"" ><div class = green_square  id = ""bottomsquare"" ></div>",null,word_square,response,0,none,true,,,
html-keyboard-response,228,531394,null,"COLUMN",null,word,,,,, 'COLUMN',,
html-keyboard-response,229,531897,null,"ANKLE<img id = ""stim"" ><div class = green_square id = ""topsquare"" ></div><img id = ""stim"" ><div class = green_square  id = ""bottomsquare"" ></div>",null,word_square,response,0,none,true,,,
html-keyboard-response,230,533399,null,"ANKLE",null,word,,,,, 'ANKLE',,
html-keyboard-response,231,533857,454.52000002842396,"CIGAR<img id = ""stim"" ><div class = red_square id = ""topsquare"" ></div><img id = ""stim"" ><div class = red_square  id = ""bottomsquare"" ></div>",32,word_square,response,1,Space,true,,,
html-keyboard-response,232,535360,null,"CIGAR",null,word,,,,, 'CIGAR',,
html-keyboard-response,233,535863,null,"MAILMAN<img id = ""stim"" ><div class = green_square id = ""topsquare"" ></div><img id = ""stim"" ><div class = green_square  id = ""bottomsquare"" ></div>",null,word_square,response,0,none,true,,,
html-keyboard-response,234,537366,null,"MAILMAN",null,word,,,,, 'MAILMAN',,
html-keyboard-response,235,537834,464.6049999864772,"FRIES<img id = ""stim"" ><div class = red_square id = ""topsquare"" ></div><img id = ""stim"" ><div class = red_square  id = ""bottomsquare"" ></div>",32,word_square,response,1,Space,true,,,
html-keyboard-response,236,539338,null,"FRIES",null,word,,,,, 'FRIES',,
html-keyboard-response,237,539841,null,"NICKEL<img id = ""stim"" ><div class = green_square id = ""topsquare"" ></div><img id = ""stim"" ><div class = green_square  id = ""bottomsquare"" ></div>",null,word_square,response,0,none,true,,,
html-keyboard-response,238,541345,null,"NICKEL",null,word,,,,, 'NICKEL',,
html-keyboard-response,239,541847,null,"KNAPSACK<img id = ""stim"" ><div class = green_square id = ""topsquare"" ></div><img id = ""stim"" ><div class = green_square  id = ""bottomsquare"" ></div>",null,word_square,response,0,none,true,,,
html-keyboard-response,240,543351,null,"KNAPSACK",null,word,,,,, 'KNAPSACK',,
html-keyboard-response,241,543792,439.58000000566244,"GUARD<img id = ""stim"" ><div class = red_square id = ""topsquare"" ></div><img id = ""stim"" ><div class = red_square  id = ""bottomsquare"" ></div>",32,word_square,response,1,Space,true,,,
html-keyboard-response,242,545295,null,"GUARD",null,word,,,,, 'GUARD',,
html-keyboard-response,243,545797,null,"ACTRESS<img id = ""stim"" ><div class = red_square id = ""topsquare"" ></div><img id = ""stim"" ><div class = red_square  id = ""bottomsquare"" ></div>",null,word_square,response,1,Space,false,,,
html-keyboard-response,244,547299,null,"ACTRESS",null,word,,,,, 'ACTRESS',,
html-keyboard-response,245,547801,null,"PADDING<img id = ""stim"" ><div class = green_square id = ""topsquare"" ></div><img id = ""stim"" ><div class = green_square  id = ""bottomsquare"" ></div>",null,word_square,response,0,none,true,,,
html-keyboard-response,246,549305,null,"PADDING",null,word,,,,, 'PADDING',,
html-keyboard-response,247,549809,null,"VELVET<img id = ""stim"" ><div class = red_square id = ""topsquare"" ></div><img id = ""stim"" ><div class = red_square  id = ""bottomsquare"" ></div>",null,word_square,response,1,Space,false,,,
html-keyboard-response,248,551313,null,"VELVET",null,word,,,,, 'VELVET',,
html-keyboard-response,249,551816,null,"BIBLE<img id = ""stim"" ><div class = red_square id = ""topsquare"" ></div><img id = ""stim"" ><div class = red_square  id = ""bottomsquare"" ></div>",null,word_square,response,1,Space,false,,,
html-keyboard-response,250,553320,null,"BIBLE",null,word,,,,, 'BIBLE',,
call-function,251,553322,,"",,,,,,,,,
html-keyboard-response,252,553425,null,"",null,,,,,,,,
math-period,253,559064,7895.369999925606,"",,,,,,,,,5
html-keyboard-response,254,559175,null,"",null,,,,,,,,
math-period,255,562488,6287.439999869093,"",,,,,,,,,1
html-keyboard-response,256,562589,null,"",null,,,,,,,,
math-period,257,566592,7194.7900000959635,"",,,,,,,,,3
html-keyboard-response,258,566694,null,"",null,,,,,,,,
math-period,259,568240,2880.2899998845533,"",,,,,,,,,5
html-keyboard-response,260,568341,null,"",null,,,,,,,,
math-period,261,569976,3003.0549998627976,"",,,,,,,,,3
html-keyboard-response,262,570079,null,"",null,,,,,,,,
math-period,263,573888,7352.359999902546,"",,,,,,,,,1
html-keyboard-response,264,573991,null,"",null,,,,,,,,
math-period,265,576488,4694.125000038184,"",,,,,,,,,5
html-keyboard-response,266,576591,null,"",null,,,,,,,,
math-period,267,577324,null,"",,,,,,,,,
html-keyboard-response,268,578327,null,"Recall Period!",null,,,,,,,,
call-function,269,578328,,"",,,,,,,,,
html-keyboard-response,270,578429,null,"",null,,,,,,,,
recall-period,271,582504,24627.494999673218,"",,,,,,,,,padding
html-keyboard-response,272,582606,null,"",null,,,,,,,,
recall-period,273,585297,11220.70999990683,"",,,,,,,,,fries
html-keyboard-response,274,585398,null,"",null,,,,,,,,
recall-period,275,588704,13023.009999538772,"",,,,,,,,,patrol
html-keyboard-response,276,588806,null,"",null,,,,,,,,
recall-period,277,591096,8114.144999999553,"",,,,,,,,,napkin
html-keyboard-response,278,591198,null,"",null,,,,,,,,
recall-period,279,595840,28783.84000004735,"",,,,,,,,,costume
html-keyboard-response,280,595943,null,"",null,,,,,,,,
recall-period,281,598616,11092.515000258572,"",,,,,,,,,cigar
html-keyboard-response,282,598718,null,"",null,,,,,,,,
recall-period,283,603672,27729.090000269935,"",,,,,,,,,velvet
html-keyboard-response,284,603774,null,"",null,,,,,,,,
recall-period,285,607880,19158.01500005182,"",,,,,,,,,bible
html-keyboard-response,286,607983,null,"",null,,,,,,,,
recall-period,287,611224,13148.429999826476,"",,,,,,,,,acress
html-keyboard-response,288,611327,null,"",null,,,,,,,,
recall-period,289,614464,12405.91000020504,"",,,,,,,,,napkin
html-keyboard-response,290,614567,null,"",null,,,,,,,,
recall-period,291,617712,15382.324999431148,"",,,,,,,,,juggler
html-keyboard-response,292,617814,null,"",null,,,,,,,,
recall-period,293,620848,13856.82499955874,"",,,,,,,,,costume
html-keyboard-response,294,620950,null,"",null,,,,,,,,
recall-period,295,624560,15626.725000096485,"",,,,,,,,,column
html-keyboard-response,296,624662,null,"",null,,,,,,,,
recall-period,297,628528,15400.019999709912,"",,,,,,,,,rodent
html-keyboard-response,298,628630,null,"",null,,,,,,,,
recall-period,299,632048,16072.465000092052,"",,,,,,,,,guard
html-keyboard-response,300,632150,null,"",null,,,,,,,,
recall-period,301,653329,null,"",,,,,,,,,
html-keyboard-response,302,653832,null,"Time's Up!",null,,,,,,,,
html-keyboard-response,303,659384,5550.764999934472,"<p> Uh oh. You responded correctly on 72% of the red squares.</p>
                  <p>We need you keep your accuracy above 80%</p>
                  <p>Press any key to continue the experiment. Thank you!</p>",32,,,,,,,,
html-keyboard-response,304,662391,3006.2800000887364,"<div style=""font-size:48px;"">Press any key to begin list 3 of 24 </div>",32,,,,,,,,
html-keyboard-response,305,664894,null,"<div style=""font-size:60px;"">+</div>",null,,,,,,,,
html-keyboard-response,306,665398,null,"NEPHEW<img id = ""stim"" ><div class = green_square id = ""topsquare"" ></div><img id = ""stim"" ><div class = green_square  id = ""bottomsquare"" ></div>",null,word_square,response,0,none,true,,,
html-keyboard-response,307,666901,null,"NEPHEW",null,word,,,,, 'NEPHEW',,
html-keyboard-response,308,667403,null,"DESSERT<img id = ""stim"" ><div class = red_square id = ""topsquare"" ></div><img id = ""stim"" ><div class = red_square  id = ""bottomsquare"" ></div>",null,word_square,response,1,Space,false,,,
html-keyboard-response,309,668905,null,"DESSERT",null,word,,,,, 'DESSERT',,
html-keyboard-response,310,669408,null,"BOYFRIEND<img id = ""stim"" ><div class = red_square id = ""topsquare"" ></div><img id = ""stim"" ><div class = red_square  id = ""bottomsquare"" ></div>",null,word_square,response,1,Space,false,,,
html-keyboard-response,311,670910,null,"BOYFRIEND",null,word,,,,, 'BOYFRIEND',,
html-keyboard-response,312,671412,null,"WIFE<img id = ""stim"" ><div class = green_square id = ""topsquare"" ></div><img id = ""stim"" ><div class = green_square  id = ""bottomsquare"" ></div>",null,word_square,response,0,none,true,,,
html-keyboard-response,313,672914,null,"WIFE",null,word,,,,, 'WIFE',,
html-keyboard-response,314,673416,null,"GAUZE<img id = ""stim"" ><div class = red_square id = ""topsquare"" ></div><img id = ""stim"" ><div class = red_square  id = ""bottomsquare"" ></div>",null,word_square,response,1,Space,false,,,
html-keyboard-response,315,674918,null,"GAUZE",null,word,,,,, 'GAUZE',,
html-keyboard-response,316,675421,null,"NOMAD<img id = ""stim"" ><div class = green_square id = ""topsquare"" ></div><img id = ""stim"" ><div class = green_square  id = ""bottomsquare"" ></div>",null,word_square,response,0,none,true,,,
html-keyboard-response,317,676925,null,"NOMAD",null,word,,,,, 'NOMAD',,
html-keyboard-response,318,677428,null,"PECAN<img id = ""stim"" ><div class = red_square id = ""topsquare"" ></div><img id = ""stim"" ><div class = red_square  id = ""bottomsquare"" ></div>",null,word_square,response,1,Space,false,,,
html-keyboard-response,319,678931,null,"PECAN",null,word,,,,, 'PECAN',,
html-keyboard-response,320,679434,null,"FLASK<img id = ""stim"" ><div class = red_square id = ""topsquare"" ></div><img id = ""stim"" ><div class = red_square  id = ""bottomsquare"" ></div>",null,word_square,response,1,Space,false,,,
html-keyboard-response,321,680938,null,"FLASK",null,word,,,,, 'FLASK',,
html-keyboard-response,322,681442,null,"AIRPORT<img id = ""stim"" ><div class = green_square id = ""topsquare"" ></div><img id = ""stim"" ><div class = green_square  id = ""bottomsquare"" ></div>",null,word_square,response,0,none,true,,,
html-keyboard-response,323,682947,null,"AIRPORT",null,word,,,,, 'AIRPORT',,
html-keyboard-response,324,683450,null,"UMPIRE<img id = ""stim"" ><div class = red_square id = ""topsquare"" ></div><img id = ""stim"" ><div class = red_square  id = ""bottomsquare"" ></div>",null,word_square,response,1,Space,false,,,
html-keyboard-response,325,684954,null,"UMPIRE",null,word,,,,, 'UMPIRE',,
html-keyboard-response,326,685456,null,"CATCHER<img id = ""stim"" ><div class = green_square id = ""topsquare"" ></div><img id = ""stim"" ><div class = green_square  id = ""bottomsquare"" ></div>",null,word_square,response,0,none,true,,,
html-keyboard-response,327,686959,null,"CATCHER",null,word,,,,, 'CATCHER',,
html-keyboard-response,328,687462,null,"LOVER<img id = ""stim"" ><div class = red_square id = ""topsquare"" ></div><img id = ""stim"" ><div class = red_square  id = ""bottomsquare"" ></div>",null,word_square,response,1,Space,false,,,
html-keyboard-response,329,688965,null,"LOVER",null,word,,,,, 'LOVER',,
html-keyboard-response,330,689468,null,"BOULDER<img id = ""stim"" ><div class = red_square id = ""topsquare"" ></div><img id = ""stim"" ><div class = red_square  id = ""bottomsquare"" ></div>",null,word_square,response,1,Space,false,,,
html-keyboard-response,331,690970,null,"BOULDER",null,word,,,,, 'BOULDER',,
html-keyboard-response,332,691473,null,"TRANSPLANT<img id = ""stim"" ><div class = green_square id = ""topsquare"" ></div><img id = ""stim"" ><div class = green_square  id = ""bottomsquare"" ></div>",null,word_square,response,0,none,true,,,
html-keyboard-response,333,692976,null,"TRANSPLANT",null,word,,,,, 'TRANSPLANT',,
html-keyboard-response,334,693479,null,"THRONE<img id = ""stim"" ><div class = green_square id = ""topsquare"" ></div><img id = ""stim"" ><div class = green_square  id = ""bottomsquare"" ></div>",null,word_square,response,0,none,true,,,
html-keyboard-response,335,694981,null,"THRONE",null,word,,,,, 'THRONE',,
html-keyboard-response,336,695483,null,"PRINCESS<img id = ""stim"" ><div class = red_square id = ""topsquare"" ></div><img id = ""stim"" ><div class = red_square  id = ""bottomsquare"" ></div>",null,word_square,response,1,Space,false,,,
html-keyboard-response,337,696984,null,"PRINCESS",null,word,,,,, 'PRINCESS',,
html-keyboard-response,338,697486,null,"COCKTAIL<img id = ""stim"" ><div class = green_square id = ""topsquare"" ></div><img id = ""stim"" ><div class = green_square  id = ""bottomsquare"" ></div>",null,word_square,response,0,none,true,,,
html-keyboard-response,339,698989,null,"COCKTAIL",null,word,,,,, 'COCKTAIL',,
html-keyboard-response,340,699490,null,"CRADLE<img id = ""stim"" ><div class = green_square id = ""topsquare"" ></div><img id = ""stim"" ><div class = green_square  id = ""bottomsquare"" ></div>",null,word_square,response,0,none,true,,,
html-keyboard-response,341,700993,null,"CRADLE",null,word,,,,, 'CRADLE',,
call-function,342,700994,,"",,,,,,,,,
html-keyboard-response,343,701096,null,"",null,,,,,,,,
math-period,344,704368,5556.06499989517,"",,,,,,,,,2
html-keyboard-response,345,704470,null,"",null,,,,,,,,
math-period,346,706136,3135.044999886304,"",,,,,,,,,1
html-keyboard-response,347,706238,null,"",null,,,,,,,,
math-period,348,708184,3624.470000038855,"",,,,,,,,,1
html-keyboard-response,349,708286,null,"",null,,,,,,,,
math-period,350,709999,3215.9699999028817,"",,,,,,,,,2
html-keyboard-response,351,710101,null,"",null,,,,,,,,
math-period,352,711479,2536.94500005804,"",,,,,,,,,3
html-keyboard-response,353,711581,null,"",null,,,,,,,,
math-period,354,713088,2816.304999985732,"",,,,,,,,,3
html-keyboard-response,355,713189,null,"",null,,,,,,,,
math-period,356,715440,4266.79000002332,"",,,,,,,,,3
html-keyboard-response,357,715542,null,"",null,,,,,,,,
math-period,358,716744,2191.4450000040233,"",,,,,,,,,2
html-keyboard-response,359,716845,null,"",null,,,,,,,,
math-period,360,718136,2344.9550000950694,"",,,,,,,,,4
html-keyboard-response,361,718238,null,"",null,,,,,,,,
math-period,362,719888,3070.280000101775,"",,,,,,,,,1
html-keyboard-response,363,719990,null,"",null,,,,,,,,
math-period,364,721560,2913.670000154525,"",,,,,,,,,2
html-keyboard-response,365,721662,null,"",null,,,,,,,,
math-period,366,723000,2425.810000160709,"",,,,,,,,,4
html-keyboard-response,367,723103,null,"",null,,,,,,,,
math-period,368,724696,2983.3700000308454,"",,,,,,,,,1
html-keyboard-response,369,724797,null,"",null,,,,,,,,
math-period,370,724995,null,"",,,,,,,,,
html-keyboard-response,371,725998,null,"Recall Period!",null,,,,,,,,
call-function,372,726001,,"",,,,,,,,,
html-keyboard-response,373,726104,null,"",null,,,,,,,,
recall-period,374,730288,22471.060000243597,"",,,,,,,,,nephew
html-keyboard-response,375,730391,null,"",null,,,,,,,,
recall-period,376,732929,10078.749999869615,"",,,,,,,,,flask
html-keyboard-response,377,733031,null,"",null,,,,,,,,
recall-period,378,736752,15314.62500046473,"",,,,,,,,,airport
html-keyboard-response,379,736855,null,"",null,,,,,,,,
recall-period,380,739984,11390.454999753274,"",,,,,,,,,pecan
html-keyboard-response,381,740086,null,"",null,,,,,,,,
recall-period,382,741769,5220.875000231899,"",,,,,,,,,wife
html-keyboard-response,383,741871,null,"",null,,,,,,,,
recall-period,384,747544,40522.30500045698,"",,,,,,,,,boy friend
html-keyboard-response,385,747647,null,"",null,,,,,,,,
recall-period,386,751040,21379.01000014972,"",,,,,,,,,transplant
html-keyboard-response,387,751142,null,"",null,,,,,,,,
recall-period,388,754976,25840.965000214055,"",,,,,,,,,princess
html-keyboard-response,389,755078,null,"",null,,,,,,,,
recall-period,390,761848,33687.8199998755,"",,,,,,,,,cocktail
html-keyboard-response,391,761950,null,"",null,,,,,,,,
recall-period,392,764960,10775.529999751598,"",,,,,,,,,umpire
html-keyboard-response,393,765062,null,"",null,,,,,,,,
recall-period,394,768280,17728.13000017777,"",,,,,,,,,dessert
html-keyboard-response,395,768382,null,"",null,,,,,,,,
recall-period,396,771256,12006.579999695532,"",,,,,,,,,nephew
html-keyboard-response,397,771359,null,"",null,,,,,,,,
recall-period,398,776248,21499.175000586547,"",,,,,,,,,catcher
html-keyboard-response,399,776349,null,"",null,,,,,,,,
recall-period,400,777920,5486.414999817498,"",,,,,,,,,lover
html-keyboard-response,401,778022,null,"",null,,,,,,,,
recall-period,402,780128,9322.130000102334,"",,,,,,,,,boulder
html-keyboard-response,403,780230,null,"",null,,,,,,,,
recall-period,404,786415,15333.889999659732,"",,,,,,,,,gauze
html-keyboard-response,405,786517,null,"",null,,,,,,,,
recall-period,406,789231,5269.02499969583,"",,,,,,,,,wife
html-keyboard-response,407,789334,null,"",null,,,,,,,,
recall-period,408,795399,28905.02499975264,"",,,,,,,,,throne
html-keyboard-response,409,795502,null,"",null,,,,,,,,
recall-period,410,801001,26537.850000313483,"",,,,,,,,,princess
html-keyboard-response,411,801504,null,"Time's Up!",null,,,,,,,,
html-keyboard-response,412,875417,73910.46499996446,"<p> Uh oh. You responded correctly on 67% of the red squares.</p>
                  <p>We need you keep your accuracy above 80%</p>
                  <p>Press any key to continue the experiment. Thank you!</p>",32,,,,,,,,
html-keyboard-response,413,883241,7821.7449999647215,"<div style=""font-size:48px;"">Press any key to begin list 4 of 24 </div>",32,,,,,,,,
html-keyboard-response,414,885745,null,"<div style=""font-size:60px;"">+</div>",null,,,,,,,,
html-keyboard-response,415,886248,null,"BRAKE<img id = ""stim"" ><div class = green_square id = ""topsquare"" ></div><img id = ""stim"" ><div class = green_square  id = ""bottomsquare"" ></div>",null,word_square,response,0,none,true,,,
html-keyboard-response,416,887750,null,"BRAKE",null,word,,,,, 'BRAKE',,
html-keyboard-response,417,888253,null,"WASP<img id = ""stim"" ><div class = red_square id = ""topsquare"" ></div><img id = ""stim"" ><div class = red_square  id = ""bottomsquare"" ></div>",null,word_square,response,1,Space,false,,,
html-keyboard-response,418,889756,null,"WASP",null,word,,,,, 'WASP',,
html-keyboard-response,419,890257,null,"SHRIMP<img id = ""stim"" ><div class = red_square id = ""topsquare"" ></div><img id = ""stim"" ><div class = red_square  id = ""bottomsquare"" ></div>",null,word_square,response,1,Space,false,,,
html-keyboard-response,420,891761,null,"SHRIMP",null,word,,,,, 'SHRIMP',,
html-keyboard-response,421,892176,413.6350000044331,"CLIMBER<img id = ""stim"" ><div class = green_square id = ""topsquare"" ></div><img id = ""stim"" ><div class = green_square  id = ""bottomsquare"" ></div>",32,word_square,response,0,none,false,,,
html-keyboard-response,422,893680,null,"CLIMBER",null,word,,,,, 'CLIMBER',,
html-keyboard-response,423,894184,null,"BRANCH<img id = ""stim"" ><div class = red_square id = ""topsquare"" ></div><img id = ""stim"" ><div class = red_square  id = ""bottomsquare"" ></div>",null,word_square,response,1,Space,false,,,
html-keyboard-response,424,895686,null,"BRANCH",null,word,,,,, 'BRANCH',,
html-keyboard-response,425,896188,null,"HEART<img id = ""stim"" ><div class = green_square id = ""topsquare"" ></div><img id = ""stim"" ><div class = green_square  id = ""bottomsquare"" ></div>",null,word_square,response,0,none,true,,,
html-keyboard-response,426,897690,null,"HEART",null,word,,,,, 'HEART',,
html-keyboard-response,427,898009,316.89999997615814,"BRUNETTE<img id = ""stim"" ><div class = red_square id = ""topsquare"" ></div><img id = ""stim"" ><div class = red_square  id = ""bottomsquare"" ></div>",32,word_square,response,1,Space,true,,,
html-keyboard-response,428,899511,null,"BRUNETTE",null,word,,,,, 'BRUNETTE',,
html-keyboard-response,429,899992,479.85000000335276,"TULIP<img id = ""stim"" ><div class = red_square id = ""topsquare"" ></div><img id = ""stim"" ><div class = red_square  id = ""bottomsquare"" ></div>",32,word_square,response,1,Space,true,,,
html-keyboard-response,430,901495,null,"TULIP",null,word,,,,, 'TULIP',,
html-keyboard-response,431,901832,335.68999997805804,"FAUCET<img id = ""stim"" ><div class = green_square id = ""topsquare"" ></div><img id = ""stim"" ><div class = green_square  id = ""bottomsquare"" ></div>",32,word_square,response,0,none,false,,,
html-keyboard-response,432,903336,null,"FAUCET",null,word,,,,, 'FAUCET',,
html-keyboard-response,433,903760,421.8650000402704,"PATIENT<img id = ""stim"" ><div class = red_square id = ""topsquare"" ></div><img id = ""stim"" ><div class = red_square  id = ""bottomsquare"" ></div>",32,word_square,response,1,Space,true,,,
html-keyboard-response,434,905264,null,"PATIENT",null,word,,,,, 'PATIENT',,
html-keyboard-response,435,905767,null,"NURSE<img id = ""stim"" ><div class = green_square id = ""topsquare"" ></div><img id = ""stim"" ><div class = green_square  id = ""bottomsquare"" ></div>",null,word_square,response,0,none,true,,,
html-keyboard-response,436,907271,null,"NURSE",null,word,,,,, 'NURSE',,
html-keyboard-response,437,907736,464.1600000904873,"TRIGGER<img id = ""stim"" ><div class = red_square id = ""topsquare"" ></div><img id = ""stim"" ><div class = red_square  id = ""bottomsquare"" ></div>",32,word_square,response,1,Space,true,,,
html-keyboard-response,438,909239,null,"TRIGGER",null,word,,,,, 'TRIGGER',,
html-keyboard-response,439,909742,null,"NEPTUNE<img id = ""stim"" ><div class = red_square id = ""topsquare"" ></div><img id = ""stim"" ><div class = red_square  id = ""bottomsquare"" ></div>",null,word_square,response,1,Space,false,,,
html-keyboard-response,440,911245,null,"NEPTUNE",null,word,,,,, 'NEPTUNE',,
html-keyboard-response,441,911747,null,"FLASHLIGHT<img id = ""stim"" ><div class = green_square id = ""topsquare"" ></div><img id = ""stim"" ><div class = green_square  id = ""bottomsquare"" ></div>",null,word_square,response,0,none,true,,,
html-keyboard-response,442,913249,null,"FLASHLIGHT",null,word,,,,, 'FLASHLIGHT',,
html-keyboard-response,443,913753,null,"FRECKLE<img id = ""stim"" ><div class = green_square id = ""topsquare"" ></div><img id = ""stim"" ><div class = green_square  id = ""bottomsquare"" ></div>",null,word_square,response,0,none,true,,,
html-keyboard-response,444,915256,null,"FRECKLE",null,word,,,,, 'FRECKLE',,
html-keyboard-response,445,915673,414.89499993622303,"POLICE<img id = ""stim"" ><div class = red_square id = ""topsquare"" ></div><img id = ""stim"" ><div class = red_square  id = ""bottomsquare"" ></div>",32,word_square,response,1,Space,true,,,
html-keyboard-response,446,917175,null,"POLICE",null,word,,,,, 'POLICE',,
html-keyboard-response,447,917677,null,"AGENT<img id = ""stim"" ><div class = green_square id = ""topsquare"" ></div><img id = ""stim"" ><div class = green_square  id = ""bottomsquare"" ></div>",null,word_square,response,0,none,true,,,
html-keyboard-response,448,919179,null,"AGENT",null,word,,,,, 'AGENT',,
html-keyboard-response,449,919640,459.23499995842576,"DONOR<img id = ""stim"" ><div class = green_square id = ""topsquare"" ></div><img id = ""stim"" ><div class = green_square  id = ""bottomsquare"" ></div>",32,word_square,response,0,none,false,,,
html-keyboard-response,450,921143,null,"DONOR",null,word,,,,, 'DONOR',,
call-function,451,921144,,"",,,,,,,,,
html-keyboard-response,452,921247,null,"",null,,,,,,,,
math-period,453,925648,8111.740000080317,"",,,,,,,,,2
html-keyboard-response,454,925751,null,"",null,,,,,,,,
math-period,455,929456,6751.270000007935,"",,,,,,,,,2
html-keyboard-response,456,929559,null,"",null,,,,,,,,
math-period,457,931272,2911.329999915324,"",,,,,,,,,5numpad
html-keyboard-response,458,931374,null,"",null,,,,,,,,
math-period,459,940848,25025.849999976344,"",,,,,,,,,undefined2 
html-keyboard-response,460,940950,null,"",null,,,,,,,,
math-period,461,945149,6024.790000054054,"",,,,,,,,,5'
html-keyboard-response,462,946152,null,"Recall Period!",null,,,,,,,,
call-function,463,946153,,"",,,,,,,,,
html-keyboard-response,464,946255,null,"",null,,,,,,,,
recall-period,465,954536,36018.53000011761,"",,,,,,,,,wasp
html-keyboard-response,466,954638,null,"",null,,,,,,,,
recall-period,467,960368,34530.17499984708,"",,,,,,,,,climber
html-keyboard-response,468,960470,null,"",null,,,,,,,,
recall-period,469,963032,11088.75000034459,"",,,,,,,,,heart
html-keyboard-response,470,963135,null,"",null,,,,,,,,
recall-period,471,965928,11131.010000128299,"",,,,,,,,,tulip
html-keyboard-response,472,966031,null,"",null,,,,,,,,
recall-period,473,968856,10873.599999817088,"",,,,,,,,,nurse
html-keyboard-response,474,968957,null,"",null,,,,,,,,
recall-period,475,972272,17907.740000402555,"",,,,,,,,,patient
html-keyboard-response,476,972373,null,"",null,,,,,,,,
recall-period,477,976336,21983.034999924712,"",,,,,,,,,police
html-keyboard-response,478,976438,null,"",null,,,,,,,,
recall-period,479,979496,13484.779999940656,"",,,,,,,,,donor
html-keyboard-response,480,979598,null,"",null,,,,,,,,
recall-period,481,983464,17023.5750003485,"",,,,,,,,,triggr
html-keyboard-response,482,983566,null,"",null,,,,,,,,
recall-period,483,986488,11800.614999840036,"",,,,,,,,,agent
html-keyboard-response,484,986589,null,"",null,,,,,,,,
recall-period,485,989935,16231.994999805465,"",,,,,,,,,branch
html-keyboard-response,486,990038,null,"",null,,,,,,,,
recall-period,487,1000336,91545.72999943048,"",,,,,,,,,flashlight
html-keyboard-response,488,1000438,null,"",null,,,,,,,,
recall-period,489,1002711,8615.374999819323,"",,,,,,,,,brake
html-keyboard-response,490,1002813,null,"",null,,,,,,,,
recall-period,491,1009512,6696.979999891482,"",,,,,,,,,
html-keyboard-response,492,1009614,null,"",null,,,,,,,,
recall-period,493,1021154,null,"",,,,,,,,,
html-keyboard-response,494,1021657,null,"Time's Up!",null,,,,,,,,
html-keyboard-response,495,1038984,17324.64499992784,"<p> Uh oh. You responded correctly on 66% of the red squares.</p>
                  <p>We need you keep your accuracy above 80%</p>
                  <p>Press any key to continue the experiment. Thank you!</p>",13,,,,,,,,
html-keyboard-response,496,1040944,1958.284999942407,"<div style=""font-size:48px;"">Press any key to begin list 5 of 24 </div>",13,,,,,,,,
html-keyboard-response,497,1043448,null,"<div style=""font-size:60px;"">+</div>",null,,,,,,,,
html-keyboard-response,498,1043952,null,"PUMPKIN<img id = ""stim"" ><div class = green_square id = ""topsquare"" ></div><img id = ""stim"" ><div class = green_square  id = ""bottomsquare"" ></div>",null,word_square,response,0,none,true,,,
html-keyboard-response,499,1045453,null,"PUMPKIN",null,word,,,,, 'PUMPKIN',,
html-keyboard-response,500,1045956,null,"TEAPOT<img id = ""stim"" ><div class = green_square id = ""topsquare"" ></div><img id = ""stim"" ><div class = green_square  id = ""bottomsquare"" ></div>",null,word_square,response,0,none,true,,,
html-keyboard-response,501,1047461,null,"TEAPOT",null,word,,,,, 'TEAPOT',,
html-keyboard-response,502,1047964,null,"TRUCK<img id = ""stim"" ><div class = red_square id = ""topsquare"" ></div><img id = ""stim"" ><div class = red_square  id = ""bottomsquare"" ></div>",null,word_square,response,1,Space,false,,,
html-keyboard-response,503,1049467,null,"TRUCK",null,word,,,,, 'TRUCK',,
html-keyboard-response,504,1049944,474.9950000550598,"GARBAGE<img id = ""stim"" ><div class = red_square id = ""topsquare"" ></div><img id = ""stim"" ><div class = red_square  id = ""bottomsquare"" ></div>",32,word_square,response,1,Space,true,,,
html-keyboard-response,505,1051446,null,"GARBAGE",null,word,,,,, 'GARBAGE',,
html-keyboard-response,506,1051864,416.800000006333,"CLERK<img id = ""stim"" ><div class = red_square id = ""topsquare"" ></div><img id = ""stim"" ><div class = red_square  id = ""bottomsquare"" ></div>",32,word_square,response,1,Space,true,,,
html-keyboard-response,507,1053366,null,"CLERK",null,word,,,,, 'CLERK',,
html-keyboard-response,508,1053868,null,"VIRUS<img id = ""stim"" ><div class = green_square id = ""topsquare"" ></div><img id = ""stim"" ><div class = green_square  id = ""bottomsquare"" ></div>",null,word_square,response,0,none,true,,,
html-keyboard-response,509,1055371,null,"VIRUS",null,word,,,,, 'VIRUS',,
html-keyboard-response,510,1055873,null,"CRIB<img id = ""stim"" ><div class = green_square id = ""topsquare"" ></div><img id = ""stim"" ><div class = green_square  id = ""bottomsquare"" ></div>",null,word_square,response,0,none,true,,,
html-keyboard-response,511,1057376,null,"CRIB",null,word,,,,, 'CRIB',,
html-keyboard-response,512,1057721,342.1150000067428,"BRICK<img id = ""stim"" ><div class = red_square id = ""topsquare"" ></div><img id = ""stim"" ><div class = red_square  id = ""bottomsquare"" ></div>",32,word_square,response,1,Space,true,,,
html-keyboard-response,513,1059224,null,"BRICK",null,word,,,,, 'BRICK',,
html-keyboard-response,514,1059727,null,"FARMER<img id = ""stim"" ><div class = green_square id = ""topsquare"" ></div><img id = ""stim"" ><div class = green_square  id = ""bottomsquare"" ></div>",null,word_square,response,0,none,true,,,
html-keyboard-response,515,1061230,null,"FARMER",null,word,,,,, 'FARMER',,
html-keyboard-response,516,1061733,null,"HEDGE<img id = ""stim"" ><div class = green_square id = ""topsquare"" ></div><img id = ""stim"" ><div class = green_square  id = ""bottomsquare"" ></div>",null,word_square,response,0,none,true,,,
html-keyboard-response,517,1063236,null,"HEDGE",null,word,,,,, 'HEDGE',,
html-keyboard-response,518,1063705,467.01999998185784,"STABLE<img id = ""stim"" ><div class = red_square id = ""topsquare"" ></div><img id = ""stim"" ><div class = red_square  id = ""bottomsquare"" ></div>",32,word_square,response,1,Space,true,,,
html-keyboard-response,519,1065208,null,"STABLE",null,word,,,,, 'STABLE',,
html-keyboard-response,520,1065712,null,"WIDOW<img id = ""stim"" ><div class = green_square id = ""topsquare"" ></div><img id = ""stim"" ><div class = green_square  id = ""bottomsquare"" ></div>",null,word_square,response,0,none,true,,,
html-keyboard-response,521,1067215,null,"WIDOW",null,word,,,,, 'WIDOW',,
html-keyboard-response,522,1067608,391.69000007677823,"GLACIER<img id = ""stim"" ><div class = red_square id = ""topsquare"" ></div><img id = ""stim"" ><div class = red_square  id = ""bottomsquare"" ></div>",32,word_square,response,1,Space,true,,,
html-keyboard-response,523,1069110,null,"GLACIER",null,word,,,,, 'GLACIER',,
html-keyboard-response,524,1069615,null,"FREEZER<img id = ""stim"" ><div class = green_square id = ""topsquare"" ></div><img id = ""stim"" ><div class = green_square  id = ""bottomsquare"" ></div>",null,word_square,response,0,none,true,,,
html-keyboard-response,525,1071119,null,"FREEZER",null,word,,,,, 'FREEZER',,
html-keyboard-response,526,1071600,479.76500005461276,"SQUIRREL<img id = ""stim"" ><div class = red_square id = ""topsquare"" ></div><img id = ""stim"" ><div class = red_square  id = ""bottomsquare"" ></div>",32,word_square,response,1,Space,true,,,
html-keyboard-response,527,1073103,null,"SQUIRREL",null,word,,,,, 'SQUIRREL',,
html-keyboard-response,528,1073605,null,"ZIPPER<img id = ""stim"" ><div class = red_square id = ""topsquare"" ></div><img id = ""stim"" ><div class = red_square  id = ""bottomsquare"" ></div>",null,word_square,response,1,Space,false,,,
html-keyboard-response,529,1075108,null,"ZIPPER",null,word,,,,, 'ZIPPER',,
html-keyboard-response,530,1075611,null,"SKIRT<img id = ""stim"" ><div class = green_square id = ""topsquare"" ></div><img id = ""stim"" ><div class = green_square  id = ""bottomsquare"" ></div>",null,word_square,response,0,none,true,,,
html-keyboard-response,531,1077114,null,"SKIRT",null,word,,,,, 'SKIRT',,
html-keyboard-response,532,1077560,444.6699999971315,"BANDIT<img id = ""stim"" ><div class = red_square id = ""topsquare"" ></div><img id = ""stim"" ><div class = red_square  id = ""bottomsquare"" ></div>",32,word_square,response,1,Space,true,,,
html-keyboard-response,533,1079063,null,"BANDIT",null,word,,,,, 'BANDIT',,
call-function,534,1079064,,"",,,,,,,,,
html-keyboard-response,535,1079166,null,"",null,,,,,,,,
math-period,536,1083040,6441.529999952763,"",,,,,,,,,1
html-keyboard-response,537,1083142,null,"",null,,,,,,,,
math-period,538,1085760,4400.799999944866,"",,,,,,,,,5
html-keyboard-response,539,1085862,null,"",null,,,,,,,,
math-period,540,1088624,5465.684999944642,"",,,,,,,,,1
html-keyboard-response,541,1088725,null,"",null,,,,,,,,
math-period,542,1091512,5362.099999911152,"",,,,,,,,,0
html-keyboard-response,543,1091614,null,"",null,,,,,,,,
math-period,544,1093624,3800.535000045784,"",,,,,,,,,5
html-keyboard-response,545,1093725,null,"",null,,,,,,,,
math-period,546,1095929,4186.21999991592,"",,,,,,,,,1
html-keyboard-response,547,1096031,null,"",null,,,,,,,,
math-period,548,1097688,3117.835000040941,"",,,,,,,,,4
html-keyboard-response,549,1097791,null,"",null,,,,,,,,
math-period,550,1100672,5543.174999998882,"",,,,,,,,,1
html-keyboard-response,551,1100775,null,"",null,,,,,,,,
math-period,552,1102856,3968.0249999510124,"",,,,,,,,,4
html-keyboard-response,553,1102958,null,"",null,,,,,,,,
math-period,554,1103066,null,"",,,,,,,,,
html-keyboard-response,555,1104070,null,"Recall Period!",null,,,,,,,,
call-function,556,1104072,,"",,,,,,,,,
html-keyboard-response,557,1104173,null,"",null,,,,,,,,
recall-period,558,1112368,40590.624999953434,"",,,,,,,,,truck
html-keyboard-response,559,1112471,null,"",null,,,,,,,,
recall-period,560,1114672,9143.809999688528,"",,,,,,,,,clerk
html-keyboard-response,561,1114774,null,"",null,,,,,,,,
recall-period,562,1118736,16003.464999841526,"",,,,,,,,,crib
html-keyboard-response,563,1118839,null,"",null,,,,,,,,
recall-period,564,1122152,17473.794999998063,"",,,,,,,,,farmer
html-keyboard-response,565,1122255,null,"",null,,,,,,,,
recall-period,566,1126776,20816.800000262447,"",,,,,,,,,wdow
html-keyboard-response,567,1126879,null,"",null,,,,,,,,
recall-period,568,1131224,24581.555000389926,"",,,,,,,,,freezer
html-keyboard-response,569,1131326,null,"",null,,,,,,,,
recall-period,570,1137016,31871.874999953434,"",,,,,,,,,bindit
html-keyboard-response,571,1137118,null,"",null,,,,,,,,
recall-period,572,1140760,16612.705000094138,"",,,,,,,,,brick
html-keyboard-response,573,1140864,null,"",null,,,,,,,,
recall-period,574,1147624,37992.24999989383,"",,,,,,,,,pumpkin
html-keyboard-response,575,1147727,null,"",null,,,,,,,,
recall-period,576,1151816,19268.69999966584,"",,,,,,,,,teapot
html-keyboard-response,577,1151918,null,"",null,,,,,,,,
recall-period,578,1154840,12705.910000251606,"",,,,,,,,,virus
html-keyboard-response,579,1154942,null,"",null,,,,,,,,
recall-period,580,1157960,14878.87499970384,"",,,,,,,,,stable
html-keyboard-response,581,1158062,null,"",null,,,,,,,,
recall-period,582,1162688,22762.909999699332,"",,,,,,,,,garbage
html-keyboard-response,583,1162789,null,"",null,,,,,,,,
recall-period,584,1172712,52335.779999848455,"",,,,,,,,,widow
html-keyboard-response,585,1172814,null,"",null,,,,,,,,
recall-period,586,1179073,null,"",,,,,,,,,
html-keyboard-response,587,1179576,null,"Time's Up!",null,,,,,,,,
html-keyboard-response,588,1288817,109238.23000001721,"<p> Uh oh. You responded correctly on 69% of the red squares.</p>
                  <p>We need you keep your accuracy above 80%</p>
                  <p>Press any key to continue the experiment. Thank you!</p>",32,,,,,,,,
html-keyboard-response,589,1289935,1116.2799999583513,"<div style=""font-size:48px;"">Press any key to begin list 6 of 24 </div>",32,,,,,,,,
html-keyboard-response,590,1292441,null,"<div style=""font-size:60px;"">+</div>",null,,,,,,,,
html-keyboard-response,591,1292946,null,"ROBBER<img id = ""stim"" ><div class = green_square id = ""topsquare"" ></div><img id = ""stim"" ><div class = green_square  id = ""bottomsquare"" ></div>",null,word_square,response,0,none,true,,,
html-keyboard-response,592,1294449,null,"ROBBER",null,word,,,,, 'ROBBER',,
html-keyboard-response,593,1294952,null,"BANK<img id = ""stim"" ><div class = green_square id = ""topsquare"" ></div><img id = ""stim"" ><div class = green_square  id = ""bottomsquare"" ></div>",null,word_square,response,0,none,true,,,
html-keyboard-response,594,1296455,null,"BANK",null,word,,,,, 'BANK',,
html-keyboard-response,595,1296888,431.10500008333474,"MOTHER<img id = ""stim"" ><div class = red_square id = ""topsquare"" ></div><img id = ""stim"" ><div class = red_square  id = ""bottomsquare"" ></div>",32,word_square,response,1,Space,true,,,
html-keyboard-response,596,1298391,null,"MOTHER",null,word,,,,, 'MOTHER',,
html-keyboard-response,597,1298880,487.0600000722334,"WITNESS<img id = ""stim"" ><div class = red_square id = ""topsquare"" ></div><img id = ""stim"" ><div class = red_square  id = ""bottomsquare"" ></div>",32,word_square,response,1,Space,true,,,
html-keyboard-response,598,1300383,null,"WITNESS",null,word,,,,, 'WITNESS',,
html-keyboard-response,599,1300808,423.25999995227903,"OUTLAW<img id = ""stim"" ><div class = red_square id = ""topsquare"" ></div><img id = ""stim"" ><div class = red_square  id = ""bottomsquare"" ></div>",32,word_square,response,1,Space,true,,,
html-keyboard-response,600,1302310,null,"OUTLAW",null,word,,,,, 'OUTLAW',,
html-keyboard-response,601,1302813,null,"SQUID<img id = ""stim"" ><div class = green_square id = ""topsquare"" ></div><img id = ""stim"" ><div class = green_square  id = ""bottomsquare"" ></div>",null,word_square,response,0,none,true,,,
html-keyboard-response,602,1304315,null,"SQUID",null,word,,,,, 'SQUID',,
html-keyboard-response,603,1304818,null,"GLOVE<img id = ""stim"" ><div class = green_square id = ""topsquare"" ></div><img id = ""stim"" ><div class = green_square  id = ""bottomsquare"" ></div>",null,word_square,response,0,none,true,,,
html-keyboard-response,604,1306320,null,"GLOVE",null,word,,,,, 'GLOVE',,
html-keyboard-response,605,1306657,334.61000001989305,"CONTRACT<img id = ""stim"" ><div class = red_square id = ""topsquare"" ></div><img id = ""stim"" ><div class = red_square  id = ""bottomsquare"" ></div>",32,word_square,response,1,Space,true,,,
html-keyboard-response,606,1308160,null,"CONTRACT",null,word,,,,, 'CONTRACT',,
html-keyboard-response,607,1308663,null,"VILLAGE<img id = ""stim"" ><div class = green_square id = ""topsquare"" ></div><img id = ""stim"" ><div class = green_square  id = ""bottomsquare"" ></div>",null,word_square,response,0,none,true,,,
html-keyboard-response,608,1310166,null,"VILLAGE",null,word,,,,, 'VILLAGE',,
html-keyboard-response,609,1310696,null,"LOBBY<img id = ""stim"" ><div class = green_square id = ""topsquare"" ></div><img id = ""stim"" ><div class = green_square  id = ""bottomsquare"" ></div>",null,word_square,response,0,none,true,,,
html-keyboard-response,610,1312198,null,"LOBBY",null,word,,,,, 'LOBBY',,
html-keyboard-response,611,1312624,424.86000002827495,"NOVEL<img id = ""stim"" ><div class = red_square id = ""topsquare"" ></div><img id = ""stim"" ><div class = red_square  id = ""bottomsquare"" ></div>",32,word_square,response,1,Space,true,,,
html-keyboard-response,612,1314128,null,"NOVEL",null,word,,,,, 'NOVEL',,
html-keyboard-response,613,1314631,null,"GUITAR<img id = ""stim"" ><div class = green_square id = ""topsquare"" ></div><img id = ""stim"" ><div class = green_square  id = ""bottomsquare"" ></div>",null,word_square,response,0,none,true,,,
html-keyboard-response,614,1316134,null,"GUITAR",null,word,,,,, 'GUITAR',,
html-keyboard-response,615,1316624,488.14000003039837,"FOOTBALL<img id = ""stim"" ><div class = red_square id = ""topsquare"" ></div><img id = ""stim"" ><div class = red_square  id = ""bottomsquare"" ></div>",32,word_square,response,1,Space,true,,,
html-keyboard-response,616,1318126,null,"FOOTBALL",null,word,,,,, 'FOOTBALL',,
html-keyboard-response,617,1318629,null,"SOFTBALL<img id = ""stim"" ><div class = green_square id = ""topsquare"" ></div><img id = ""stim"" ><div class = green_square  id = ""bottomsquare"" ></div>",null,word_square,response,0,none,true,,,
html-keyboard-response,618,1320132,null,"SOFTBALL",null,word,,,,, 'SOFTBALL',,
html-keyboard-response,619,1320602,467.10500004701316,"CAFE<img id = ""stim"" ><div class = red_square id = ""topsquare"" ></div><img id = ""stim"" ><div class = red_square  id = ""bottomsquare"" ></div>",32,word_square,response,1,Space,true,,,
html-keyboard-response,620,1322105,null,"CAFE",null,word,,,,, 'CAFE',,
html-keyboard-response,621,1322608,null,"CREEK<img id = ""stim"" ><div class = red_square id = ""topsquare"" ></div><img id = ""stim"" ><div class = red_square  id = ""bottomsquare"" ></div>",null,word_square,response,1,Space,false,,,
html-keyboard-response,622,1324112,null,"CREEK",null,word,,,,, 'CREEK',,
html-keyboard-response,623,1324615,null,"DRESS<img id = ""stim"" ><div class = green_square id = ""topsquare"" ></div><img id = ""stim"" ><div class = green_square  id = ""bottomsquare"" ></div>",null,word_square,response,0,none,true,,,
html-keyboard-response,624,1326118,null,"DRESS",null,word,,,,, 'DRESS',,
html-keyboard-response,625,1326560,440.30000001657754,"SICKLE<img id = ""stim"" ><div class = red_square id = ""topsquare"" ></div><img id = ""stim"" ><div class = red_square  id = ""bottomsquare"" ></div>",32,word_square,response,1,Space,true,,,
html-keyboard-response,626,1328064,null,"SICKLE",null,word,,,,, 'SICKLE',,
call-function,627,1328068,,"",,,,,,,,,
html-keyboard-response,628,1328171,null,"",null,,,,,,,,
math-period,629,1331113,5668.230000068434,"",,,,,,,,,2
html-keyboard-response,630,1331216,null,"",null,,,,,,,,
math-period,631,1333208,3782.6600001426414,"",,,,,,,,,2
html-keyboard-response,632,1333310,null,"",null,,,,,,,,
math-period,633,1335472,4144.800000125542,"",,,,,,,,,5
html-keyboard-response,634,1335574,null,"",null,,,,,,,,
math-period,635,1338720,6080.894999904558,"",,,,,,,,,2
html-keyboard-response,636,1338822,null,"",null,,,,,,,,
math-period,637,1340664,3480.5149999447167,"",,,,,,,,,3
html-keyboard-response,638,1340766,null,"",null,,,,,,,,
math-period,639,1342688,3656.194999930449,"",,,,,,,,,6
html-keyboard-response,640,1342790,null,"",null,,,,,,,,
math-period,641,1345080,4329.214999917895,"",,,,,,,,,1
html-keyboard-response,642,1345181,null,"",null,,,,,,,,
math-period,643,1346888,3225.3149999305606,"",,,,,,,,,5
html-keyboard-response,644,1346990,null,"",null,,,,,,,,
math-period,645,1348528,2905.034999945201,"",,,,,,,,,5
html-keyboard-response,646,1348630,null,"",null,,,,,,,,
math-period,647,1350520,3568.885000073351,"",,,,,,,,,4
html-keyboard-response,648,1350622,null,"",null,,,,,,,,
math-period,649,1352069,1415.7800000393763,"",,,,,,,,,5
html-keyboard-response,650,1353071,null,"Recall Period!",null,,,,,,,,
call-function,651,1353072,,"",,,,,,,,,
html-keyboard-response,652,1353174,null,"",null,,,,,,,,
recall-period,653,1361384,38741.845000418834,"",,,,,,,,,mother
html-keyboard-response,654,1361486,null,"",null,,,,,,,,
recall-period,655,1364016,7887.310000136495,"",,,,,,,,,novel
html-keyboard-response,656,1364119,null,"",null,,,,,,,,
recall-period,657,1368120,17862.470000050962,"",,,,,,,,,creek
html-keyboard-response,658,1368222,null,"",null,,,,,,,,
recall-period,659,1371632,17229.72999990452,"",,,,,,,,,outlaw
html-keyboard-response,660,1371735,null,"",null,,,,,,,,
recall-period,661,1376704,32493.35000035353,"",,,,,,,,,witness
html-keyboard-response,662,1376806,null,"",null,,,,,,,,
recall-period,663,1384640,51588.70999945793,"",,,,,,,,,football
html-keyboard-response,664,1384743,null,"",null,,,,,,,,
recall-period,665,1388792,11804.394999984652,"",,,,,,,,,cafe
html-keyboard-response,666,1388894,null,"",null,,,,,,,,
recall-period,667,1393328,15936.864999704994,"",,,,,,,,,contract
html-keyboard-response,668,1393430,null,"",null,,,,,,,,
recall-period,669,1396928,12493.984999833629,"",,,,,,,,,sickle
html-keyboard-response,670,1397030,null,"",null,,,,,,,,
recall-period,671,1428075,null,"",,,,,,,,,
html-keyboard-response,672,1428579,null,"Time's Up!",null,,,,,,,,
html-keyboard-response,673,1444008,15426.375000039116,"<p> Uh oh. You responded correctly on 73% of the red squares.</p>
                  <p>We need you keep your accuracy above 80%</p>
                  <p>Press any key to continue the experiment. Thank you!</p>",32,,,,,,,,
html-keyboard-response,674,1444843,831.2849999638274,"<div style=""font-size:48px;"">Press any key to begin list 7 of 24 </div>",32,,,,,,,,
html-keyboard-response,675,1447347,null,"<div style=""font-size:60px;"">+</div>",null,,,,,,,,
html-keyboard-response,676,1447768,418.5900000156835,"PACKAGE<img id = ""stim"" ><div class = red_square id = ""topsquare"" ></div><img id = ""stim"" ><div class = red_square  id = ""bottomsquare"" ></div>",32,word_square,response,1,Space,true,,,
html-keyboard-response,677,1449271,null,"PACKAGE",null,word,,,,, 'PACKAGE',,
html-keyboard-response,678,1449752,480.0299999769777,"GIFT<img id = ""stim"" ><div class = red_square id = ""topsquare"" ></div><img id = ""stim"" ><div class = red_square  id = ""bottomsquare"" ></div>",32,word_square,response,1,Space,true,,,
html-keyboard-response,679,1451256,null,"GIFT",null,word,,,,, 'GIFT',,
html-keyboard-response,680,1451760,null,"ADULT<img id = ""stim"" ><div class = green_square id = ""topsquare"" ></div><img id = ""stim"" ><div class = green_square  id = ""bottomsquare"" ></div>",null,word_square,response,0,none,true,,,
html-keyboard-response,681,1453265,null,"ADULT",null,word,,,,, 'ADULT',,
html-keyboard-response,682,1453769,null,"JOURNAL<img id = ""stim"" ><div class = green_square id = ""topsquare"" ></div><img id = ""stim"" ><div class = green_square  id = ""bottomsquare"" ></div>",null,word_square,response,0,none,true,,,
html-keyboard-response,683,1455272,null,"JOURNAL",null,word,,,,, 'JOURNAL',,
html-keyboard-response,684,1455775,null,"LUGGAGE<img id = ""stim"" ><div class = green_square id = ""topsquare"" ></div><img id = ""stim"" ><div class = green_square  id = ""bottomsquare"" ></div>",null,word_square,response,0,none,true,,,
html-keyboard-response,685,1457279,null,"LUGGAGE",null,word,,,,, 'LUGGAGE',,
html-keyboard-response,686,1457649,367.51000001095235,"BASKET<img id = ""stim"" ><div class = red_square id = ""topsquare"" ></div><img id = ""stim"" ><div class = red_square  id = ""bottomsquare"" ></div>",32,word_square,response,1,Space,true,,,
html-keyboard-response,687,1459152,null,"BASKET",null,word,,,,, 'BASKET',,
html-keyboard-response,688,1459552,398.30000000074506,"LIVER<img id = ""stim"" ><div class = red_square id = ""topsquare"" ></div><img id = ""stim"" ><div class = red_square  id = ""bottomsquare"" ></div>",32,word_square,response,1,Space,true,,,
html-keyboard-response,689,1461055,null,"LIVER",null,word,,,,, 'LIVER',,
html-keyboard-response,690,1461558,null,"TOOTHBRUSH<img id = ""stim"" ><div class = green_square id = ""topsquare"" ></div><img id = ""stim"" ><div class = green_square  id = ""bottomsquare"" ></div>",null,word_square,response,0,none,true,,,
html-keyboard-response,691,1463061,null,"TOOTHBRUSH",null,word,,,,, 'TOOTHBRUSH',,
html-keyboard-response,692,1463520,457.2449999395758,"WARDROBE<img id = ""stim"" ><div class = red_square id = ""topsquare"" ></div><img id = ""stim"" ><div class = red_square  id = ""bottomsquare"" ></div>",32,word_square,response,1,Space,true,,,
html-keyboard-response,693,1465023,null,"WARDROBE",null,word,,,,, 'WARDROBE',,
html-keyboard-response,694,1465526,null,"KETTLE<img id = ""stim"" ><div class = red_square id = ""topsquare"" ></div><img id = ""stim"" ><div class = red_square  id = ""bottomsquare"" ></div>",null,word_square,response,1,Space,false,,,
html-keyboard-response,695,1467030,null,"KETTLE",null,word,,,,, 'KETTLE',,
html-keyboard-response,696,1467533,null,"COBWEB<img id = ""stim"" ><div class = green_square id = ""topsquare"" ></div><img id = ""stim"" ><div class = green_square  id = ""bottomsquare"" ></div>",null,word_square,response,0,none,true,,,
html-keyboard-response,697,1469036,null,"COBWEB",null,word,,,,, 'COBWEB',,
html-keyboard-response,698,1469408,370.91000005602837,"BUTLER<img id = ""stim"" ><div class = red_square id = ""topsquare"" ></div><img id = ""stim"" ><div class = red_square  id = ""bottomsquare"" ></div>",32,word_square,response,1,Space,true,,,
html-keyboard-response,699,1470911,null,"BUTLER",null,word,,,,, 'BUTLER',,
html-keyboard-response,700,1471412,null,"BEEF<img id = ""stim"" ><div class = green_square id = ""topsquare"" ></div><img id = ""stim"" ><div class = green_square  id = ""bottomsquare"" ></div>",null,word_square,response,0,none,true,,,
html-keyboard-response,701,1472916,null,"BEEF",null,word,,,,, 'BEEF',,
html-keyboard-response,702,1473280,362.7850000048056,"STAPLE<img id = ""stim"" ><div class = red_square id = ""topsquare"" ></div><img id = ""stim"" ><div class = red_square  id = ""bottomsquare"" ></div>",32,word_square,response,1,Space,true,,,
html-keyboard-response,703,1474784,null,"STAPLE",null,word,,,,, 'STAPLE',,
html-keyboard-response,704,1475287,null,"NOTEBOOK<img id = ""stim"" ><div class = green_square id = ""topsquare"" ></div><img id = ""stim"" ><div class = green_square  id = ""bottomsquare"" ></div>",null,word_square,response,0,none,true,,,
html-keyboard-response,705,1476792,null,"NOTEBOOK",null,word,,,,, 'NOTEBOOK',,
html-keyboard-response,706,1477296,null,"POND<img id = ""stim"" ><div class = green_square id = ""topsquare"" ></div><img id = ""stim"" ><div class = green_square  id = ""bottomsquare"" ></div>",null,word_square,response,0,none,true,,,
html-keyboard-response,707,1478801,null,"POND",null,word,,,,, 'POND',,
html-keyboard-response,708,1479234,429.4350000564009,"RADISH<img id = ""stim"" ><div class = red_square id = ""topsquare"" ></div><img id = ""stim"" ><div class = red_square  id = ""bottomsquare"" ></div>",32,word_square,response,1,Space,true,,,
html-keyboard-response,709,1480738,null,"RADISH",null,word,,,,, 'RADISH',,
html-keyboard-response,710,1481241,null,"BINDER<img id = ""stim"" ><div class = green_square id = ""topsquare"" ></div><img id = ""stim"" ><div class = green_square  id = ""bottomsquare"" ></div>",null,word_square,response,0,none,true,,,
html-keyboard-response,711,1482743,null,"BINDER",null,word,,,,, 'BINDER',,
call-function,712,1482745,,"",,,,,,,,,
html-keyboard-response,713,1482847,null,"",null,,,,,,,,
math-period,714,1485192,4214.464999968186,"",,,,,,,,,5
html-keyboard-response,715,1485294,null,"",null,,,,,,,,
math-period,716,1486920,3016.869999933988,"",,,,,,,,,4
html-keyboard-response,717,1487022,null,"",null,,,,,,,,
math-period,718,1488264,2311.49499991443,"",,,,,,,,,4
html-keyboard-response,719,1488366,null,"",null,,,,,,,,
math-period,720,1491336,5727.635000017472,"",,,,,,,,,3
html-keyboard-response,721,1491438,null,"",null,,,,,,,,
math-period,722,1493000,2936.6750001208857,"",,,,,,,,,4
html-keyboard-response,723,1493102,null,"",null,,,,,,,,
math-period,724,1494696,2993.50000009872,"",,,,,,,,,2
html-keyboard-response,725,1494798,null,"",null,,,,,,,,
math-period,726,1496440,3225.2700000535697,"",,,,,,,,,4
html-keyboard-response,727,1496542,null,"",null,,,,,,,,
math-period,728,1499568,5344.814999960363,"",,,,,,,,,2
html-keyboard-response,729,1499669,null,"",null,,,,,,,,
math-period,730,1502096,4665.930000017397,"",,,,,,,,,1
html-keyboard-response,731,1502198,null,"",null,,,,,,,,
math-period,732,1506746,3968.174999929033,"",,,,,,,,,1
html-keyboard-response,733,1507748,null,"Recall Period!",null,,,,,,,,
call-function,734,1507749,,"",,,,,,,,,
html-keyboard-response,735,1507851,null,"",null,,,,,,,,
recall-period,736,1513584,32604.74000032991,"",,,,,,,,,butler
html-keyboard-response,737,1513687,null,"",null,,,,,,,,
recall-period,738,1516352,10204.494999954477,"",,,,,,,,,beef
html-keyboard-response,739,1516453,null,"",null,,,,,,,,
recall-period,740,1522256,27702.065000194125,"",,,,,,,,,basket
html-keyboard-response,741,1522357,null,"",null,,,,,,,,
recall-period,742,1524536,7646.804999676533,"",,,,,,,,,adult
html-keyboard-response,743,1524637,null,"",null,,,,,,,,
recall-period,744,1527640,10638.530000345781,"",,,,,,,,,gift
html-keyboard-response,745,1527742,null,"",null,,,,,,,,
recall-period,746,1531232,27041.449999785982,"",,,,,,,,,toothbrush
html-keyboard-response,747,1531334,null,"",null,,,,,,,,
recall-period,748,1534192,17011.140000191517,"",,,,,,,,,package
html-keyboard-response,749,1534294,null,"",null,,,,,,,,
recall-period,750,1536360,7129.5950000640005,"",,,,,,,,,beef
html-keyboard-response,751,1536462,null,"",null,,,,,,,,
recall-period,752,1540376,28591.145000071265,"",,,,,,,,,noteboook
html-keyboard-response,753,1540478,null,"",null,,,,,,,,
recall-period,754,1544440,14113.515000091866,"",,,,,,,,,pond
html-keyboard-response,755,1544542,null,"",null,,,,,,,,
recall-period,756,1551879,36219.17000005487,"",,,,,,,,,heart
html-keyboard-response,757,1551981,null,"",null,,,,,,,,
recall-period,758,1559247,48974.04500038829,"",,,,,,,,,softball
html-keyboard-response,759,1559349,null,"",null,,,,,,,,
recall-period,760,1582752,null,"",,,,,,,,,
html-keyboard-response,761,1583255,null,"Time's Up!",null,,,,,,,,
html-keyboard-response,762,1595105,11847.565000061877,"<p> Uh oh. You responded correctly on 76% of the red squares.</p>
                  <p>We need you keep your accuracy above 80%</p>
                  <p>Press any key to continue the experiment. Thank you!</p>",32,,,,,,,,
html-keyboard-response,763,1595823,715.6100000720471,"<div style=""font-size:48px;"">Press any key to begin list 8 of 24 </div>",32,,,,,,,,
html-keyboard-response,764,1598326,null,"<div style=""font-size:60px;"">+</div>",null,,,,,,,,
html-keyboard-response,765,1598829,null,"ACTOR<img id = ""stim"" ><div class = red_square id = ""topsquare"" ></div><img id = ""stim"" ><div class = red_square  id = ""bottomsquare"" ></div>",null,word_square,response,1,Space,false,,,
html-keyboard-response,766,1600331,null,"ACTOR",null,word,,,,, 'ACTOR',,
html-keyboard-response,767,1600833,null,"FILM<img id = ""stim"" ><div class = red_square id = ""topsquare"" ></div><img id = ""stim"" ><div class = red_square  id = ""bottomsquare"" ></div>",null,word_square,response,1,Space,false,,,
html-keyboard-response,768,1602336,null,"FILM",null,word,,,,, 'FILM',,
html-keyboard-response,769,1602839,null,"PLANET<img id = ""stim"" ><div class = green_square id = ""topsquare"" ></div><img id = ""stim"" ><div class = green_square  id = ""bottomsquare"" ></div>",null,word_square,response,0,none,true,,,
html-keyboard-response,770,1604343,null,"PLANET",null,word,,,,, 'PLANET',,
html-keyboard-response,771,1604846,null,"SERPENT<img id = ""stim"" ><div class = green_square id = ""topsquare"" ></div><img id = ""stim"" ><div class = green_square  id = ""bottomsquare"" ></div>",null,word_square,response,0,none,true,,,
html-keyboard-response,772,1606350,null,"SERPENT",null,word,,,,, 'SERPENT',,
html-keyboard-response,773,1606853,null,"MUFFIN<img id = ""stim"" ><div class = green_square id = ""topsquare"" ></div><img id = ""stim"" ><div class = green_square  id = ""bottomsquare"" ></div>",null,word_square,response,0,none,true,,,
html-keyboard-response,774,1608355,null,"MUFFIN",null,word,,,,, 'MUFFIN',,
html-keyboard-response,775,1608858,null,"FATHER<img id = ""stim"" ><div class = red_square id = ""topsquare"" ></div><img id = ""stim"" ><div class = red_square  id = ""bottomsquare"" ></div>",null,word_square,response,1,Space,false,,,
html-keyboard-response,776,1610360,null,"FATHER",null,word,,,,, 'FATHER',,
html-keyboard-response,777,1610862,null,"COLLEGE<img id = ""stim"" ><div class = red_square id = ""topsquare"" ></div><img id = ""stim"" ><div class = red_square  id = ""bottomsquare"" ></div>",null,word_square,response,1,Space,false,,,
html-keyboard-response,778,1612364,null,"COLLEGE",null,word,,,,, 'COLLEGE',,
html-keyboard-response,779,1612867,null,"NIGHTGOWN<img id = ""stim"" ><div class = green_square id = ""topsquare"" ></div><img id = ""stim"" ><div class = green_square  id = ""bottomsquare"" ></div>",null,word_square,response,0,none,true,,,
html-keyboard-response,780,1614370,null,"NIGHTGOWN",null,word,,,,, 'NIGHTGOWN',,
html-keyboard-response,781,1614873,null,"BANKER<img id = ""stim"" ><div class = red_square id = ""topsquare"" ></div><img id = ""stim"" ><div class = red_square  id = ""bottomsquare"" ></div>",null,word_square,response,1,Space,false,,,
html-keyboard-response,782,1616377,null,"BANKER",null,word,,,,, 'BANKER',,
html-keyboard-response,783,1616880,null,"COIN<img id = ""stim"" ><div class = red_square id = ""topsquare"" ></div><img id = ""stim"" ><div class = red_square  id = ""bottomsquare"" ></div>",null,word_square,response,1,Space,false,,,
html-keyboard-response,784,1618382,null,"COIN",null,word,,,,, 'COIN',,
html-keyboard-response,785,1618886,null,"PARTNER<img id = ""stim"" ><div class = green_square id = ""topsquare"" ></div><img id = ""stim"" ><div class = green_square  id = ""bottomsquare"" ></div>",null,word_square,response,0,none,true,,,
html-keyboard-response,786,1620390,null,"PARTNER",null,word,,,,, 'PARTNER',,
html-keyboard-response,787,1620894,null,"PEOPLE<img id = ""stim"" ><div class = red_square id = ""topsquare"" ></div><img id = ""stim"" ><div class = red_square  id = ""bottomsquare"" ></div>",null,word_square,response,1,Space,false,,,
html-keyboard-response,788,1622397,null,"PEOPLE",null,word,,,,, 'PEOPLE',,
html-keyboard-response,789,1622899,null,"PENCIL<img id = ""stim"" ><div class = green_square id = ""topsquare"" ></div><img id = ""stim"" ><div class = green_square  id = ""bottomsquare"" ></div>",null,word_square,response,0,none,true,,,
html-keyboard-response,790,1624401,null,"PENCIL",null,word,,,,, 'PENCIL',,
html-keyboard-response,791,1624904,null,"FRIEND<img id = ""stim"" ><div class = red_square id = ""topsquare"" ></div><img id = ""stim"" ><div class = red_square  id = ""bottomsquare"" ></div>",null,word_square,response,1,Space,false,,,
html-keyboard-response,792,1626405,null,"FRIEND",null,word,,,,, 'FRIEND',,
html-keyboard-response,793,1626910,null,"SPONGE<img id = ""stim"" ><div class = green_square id = ""topsquare"" ></div><img id = ""stim"" ><div class = green_square  id = ""bottomsquare"" ></div>",null,word_square,response,0,none,true,,,
html-keyboard-response,794,1628414,null,"SPONGE",null,word,,,,, 'SPONGE',,
html-keyboard-response,795,1628916,null,"ISLAND<img id = ""stim"" ><div class = green_square id = ""topsquare"" ></div><img id = ""stim"" ><div class = green_square  id = ""bottomsquare"" ></div>",null,word_square,response,0,none,true,,,
html-keyboard-response,796,1630419,null,"ISLAND",null,word,,,,, 'ISLAND',,
html-keyboard-response,797,1630912,491.3149999920279,"PIMPLE<img id = ""stim"" ><div class = red_square id = ""topsquare"" ></div><img id = ""stim"" ><div class = red_square  id = ""bottomsquare"" ></div>",32,word_square,response,1,Space,true,,,
html-keyboard-response,798,1632414,null,"PIMPLE",null,word,,,,, 'PIMPLE',,
html-keyboard-response,799,1632917,null,"RAFT<img id = ""stim"" ><div class = green_square id = ""topsquare"" ></div><img id = ""stim"" ><div class = green_square  id = ""bottomsquare"" ></div>",null,word_square,response,0,none,true,,,
html-keyboard-response,800,1634419,null,"RAFT",null,word,,,,, 'RAFT',,
call-function,801,1634420,,"",,,,,,,,,
html-keyboard-response,802,1634523,null,"",null,,,,,,,,
math-period,803,1637072,4366.894999984652,"",,,,,,,,,4
html-keyboard-response,804,1637174,null,"",null,,,,,,,,
math-period,805,1639376,3944.634999963455,"",,,,,,,,,1
html-keyboard-response,806,1639478,null,"",null,,,,,,,,
math-period,807,1641616,4040.8399999141693,"",,,,,,,,,5
html-keyboard-response,808,1641718,null,"",null,,,,,,,,
math-period,809,1646184,14758.769999956712,"",,,,,,,,,1
html-keyboard-response,810,1646286,null,"",null,,,,,,,,
math-period,811,1649040,5303.900000057183,"",,,,,,,,,2
html-keyboard-response,812,1649141,null,"",null,,,,,,,,
math-period,813,1650688,2897.739999811165,"",,,,,,,,,5
html-keyboard-response,814,1650790,null,"",null,,,,,,,,
math-period,815,1652936,3623.8950000843033,"",,,,,,,,,5
html-keyboard-response,816,1653037,null,"",null,,,,,,,,
math-period,817,1655928,5601.6949999611825,"",,,,,,,,,2
html-keyboard-response,818,1656031,null,"",null,,,,,,,,
math-period,819,1658422,2383.4949999582022,"",,,,,,,,,2
html-keyboard-response,820,1659425,null,"Recall Period!",null,,,,,,,,
call-function,821,1659429,,"",,,,,,,,,
html-keyboard-response,822,1659532,null,"",null,,,,,,,,
recall-period,823,1663944,19279.420000268146,"",,,,,,,,,coin
html-keyboard-response,824,1664047,null,"",null,,,,,,,,
recall-period,825,1667831,20322.105000144802,"",,,,,,,,,father
html-keyboard-response,826,1667934,null,"",null,,,,,,,,
recall-period,827,1670167,8317.41000013426,"",,,,,,,,,film
html-keyboard-response,828,1670269,null,"",null,,,,,,,,
recall-period,829,1672391,9118.265000055544,"",,,,,,,,,actor
html-keyboard-response,830,1672493,null,"",null,,,,,,,,
recall-period,831,1675287,17828.09000008274,"",,,,,,,,,bankeer
html-keyboard-response,832,1675390,null,"",null,,,,,,,,
recall-period,833,1678191,14157.555000158027,"",,,,,,,,,planet
html-keyboard-response,834,1678293,null,"",null,,,,,,,,
recall-period,835,1681439,13718.76000019256,"",,,,,,,,,pencil
html-keyboard-response,836,1681542,null,"",null,,,,,,,,
recall-period,837,1685871,24137.04999955371,"",,,,,,,,,padding
html-keyboard-response,838,1685973,null,"",null,,,,,,,,
recall-period,839,1688287,13930.679999873973,"",,,,,,,,,people
html-keyboard-response,840,1688390,null,"",null,,,,,,,,
recall-period,841,1690792,12150.90499992948,"",,,,,,,,,pinple
html-keyboard-response,842,1690894,null,"",null,,,,,,,,
recall-period,843,1694504,12982.829999760725,"",,,,,,,,,sharp
html-keyboard-response,844,1694607,null,"",null,,,,,,,,
recall-period,845,1734430,null,"",,,,,,,,,
html-keyboard-response,846,1734935,null,"Time's Up!",null,,,,,,,,
html-keyboard-response,847,1760137,25199.170000036247,"<p> Uh oh. You responded correctly on 73% of the red squares.</p>
                  <p>We need you keep your accuracy above 80%</p>
                  <p>Press any key to continue the experiment. Thank you!</p>",32,,,,,,,,
html-keyboard-response,848,1760992,852.8349999105558,"<div style=""font-size:48px;"">Press any key to begin list 9 of 24 </div>",32,,,,,,,,
html-keyboard-response,849,1763495,null,"<div style=""font-size:60px;"">+</div>",null,,,,,,,,
html-keyboard-response,850,1763999,null,"HORSE<img id = ""stim"" ><div class = red_square id = ""topsquare"" ></div><img id = ""stim"" ><div class = red_square  id = ""bottomsquare"" ></div>",null,word_square,response,1,Space,false,,,
html-keyboard-response,851,1765503,null,"HORSE",null,word,,,,, 'HORSE',,
html-keyboard-response,852,1766008,null,"PARSLEY<img id = ""stim"" ><div class = green_square id = ""topsquare"" ></div><img id = ""stim"" ><div class = green_square  id = ""bottomsquare"" ></div>",null,word_square,response,0,none,true,,,
html-keyboard-response,853,1767512,null,"PARSLEY",null,word,,,,, 'PARSLEY',,
html-keyboard-response,854,1768016,null,"CRAB<img id = ""stim"" ><div class = red_square id = ""topsquare"" ></div><img id = ""stim"" ><div class = red_square  id = ""bottomsquare"" ></div>",null,word_square,response,1,Space,false,,,
html-keyboard-response,855,1769519,null,"CRAB",null,word,,,,, 'CRAB',,
html-keyboard-response,856,1770021,null,"PLIERS<img id = ""stim"" ><div class = red_square id = ""topsquare"" ></div><img id = ""stim"" ><div class = red_square  id = ""bottomsquare"" ></div>",null,word_square,response,1,Space,false,,,
html-keyboard-response,857,1771524,null,"PLIERS",null,word,,,,, 'PLIERS',,
html-keyboard-response,858,1772027,null,"SHEPHERD<img id = ""stim"" ><div class = green_square id = ""topsquare"" ></div><img id = ""stim"" ><div class = green_square  id = ""bottomsquare"" ></div>",null,word_square,response,0,none,true,,,
html-keyboard-response,859,1773531,null,"SHEPHERD",null,word,,,,, 'SHEPHERD',,
html-keyboard-response,860,1774036,null,"PLASTER<img id = ""stim"" ><div class = green_square id = ""topsquare"" ></div><img id = ""stim"" ><div class = green_square  id = ""bottomsquare"" ></div>",null,word_square,response,0,none,true,,,
html-keyboard-response,861,1775540,null,"PLASTER",null,word,,,,, 'PLASTER',,
html-keyboard-response,862,1776025,481.49999999441206,"CEILING<img id = ""stim"" ><div class = red_square id = ""topsquare"" ></div><img id = ""stim"" ><div class = red_square  id = ""bottomsquare"" ></div>",32,word_square,response,1,Space,true,,,
html-keyboard-response,863,1777528,null,"CEILING",null,word,,,,, 'CEILING',,
html-keyboard-response,864,1778031,null,"SNAKE<img id = ""stim"" ><div class = green_square id = ""topsquare"" ></div><img id = ""stim"" ><div class = green_square  id = ""bottomsquare"" ></div>",null,word_square,response,0,none,true,,,
html-keyboard-response,865,1779533,null,"SNAKE",null,word,,,,, 'SNAKE',,
html-keyboard-response,866,1780037,null,"COBRA<img id = ""stim"" ><div class = red_square id = ""topsquare"" ></div><img id = ""stim"" ><div class = red_square  id = ""bottomsquare"" ></div>",null,word_square,response,1,Space,false,,,
html-keyboard-response,867,1781541,null,"COBRA",null,word,,,,, 'COBRA',,
html-keyboard-response,868,1782044,null,"CHICKEN<img id = ""stim"" ><div class = green_square id = ""topsquare"" ></div><img id = ""stim"" ><div class = green_square  id = ""bottomsquare"" ></div>",null,word_square,response,0,none,true,,,
html-keyboard-response,869,1783547,null,"CHICKEN",null,word,,,,, 'CHICKEN',,
html-keyboard-response,870,1784050,null,"BISON<img id = ""stim"" ><div class = green_square id = ""topsquare"" ></div><img id = ""stim"" ><div class = green_square  id = ""bottomsquare"" ></div>",null,word_square,response,0,none,true,,,
html-keyboard-response,871,1785554,null,"BISON",null,word,,,,, 'BISON',,
html-keyboard-response,872,1785984,427.4100000038743,"RUBY<img id = ""stim"" ><div class = red_square id = ""topsquare"" ></div><img id = ""stim"" ><div class = red_square  id = ""bottomsquare"" ></div>",32,word_square,response,1,Space,true,,,
html-keyboard-response,873,1787487,null,"RUBY",null,word,,,,, 'RUBY',,
html-keyboard-response,874,1787959,470.49500001594424,"GANGSTER<img id = ""stim"" ><div class = red_square id = ""topsquare"" ></div><img id = ""stim"" ><div class = red_square  id = ""bottomsquare"" ></div>",32,word_square,response,1,Space,true,,,
html-keyboard-response,875,1789462,null,"GANGSTER",null,word,,,,, 'GANGSTER',,
html-keyboard-response,876,1789965,null,"BUSH<img id = ""stim"" ><div class = green_square id = ""topsquare"" ></div><img id = ""stim"" ><div class = green_square  id = ""bottomsquare"" ></div>",null,word_square,response,0,none,true,,,
html-keyboard-response,877,1791468,null,"BUSH",null,word,,,,, 'BUSH',,
html-keyboard-response,878,1791972,null,"WRENCH<img id = ""stim"" ><div class = green_square id = ""topsquare"" ></div><img id = ""stim"" ><div class = green_square  id = ""bottomsquare"" ></div>",null,word_square,response,0,none,true,,,
html-keyboard-response,879,1793475,null,"WRENCH",null,word,,,,, 'WRENCH',,
html-keyboard-response,880,1793936,458.81499990355223,"LACE<img id = ""stim"" ><div class = red_square id = ""topsquare"" ></div><img id = ""stim"" ><div class = red_square  id = ""bottomsquare"" ></div>",32,word_square,response,1,Space,true,,,
html-keyboard-response,881,1795439,null,"LACE",null,word,,,,, 'LACE',,
html-keyboard-response,882,1795941,null,"PRIEST<img id = ""stim"" ><div class = green_square id = ""topsquare"" ></div><img id = ""stim"" ><div class = green_square  id = ""bottomsquare"" ></div>",null,word_square,response,0,none,true,,,
html-keyboard-response,883,1797444,null,"PRIEST",null,word,,,,, 'PRIEST',,
html-keyboard-response,884,1797839,392.70500000566244,"SAUCER<img id = ""stim"" ><div class = red_square id = ""topsquare"" ></div><img id = ""stim"" ><div class = red_square  id = ""bottomsquare"" ></div>",32,word_square,response,1,Space,true,,,
html-keyboard-response,885,1799342,null,"SAUCER",null,word,,,,, 'SAUCER',,
call-function,886,1799344,,"",,,,,,,,,
html-keyboard-response,887,1799446,null,"",null,,,,,,,,
math-period,888,1801631,3877.0100000547245,"",,,,,,,,,3
html-keyboard-response,889,1801733,null,"",null,,,,,,,,
math-period,890,1803839,3985.7500001089647,"",,,,,,,,,2
html-keyboard-response,891,1803941,null,"",null,,,,,,,,
math-period,892,1806239,4361.3349999068305,"",,,,,,,,,2
html-keyboard-response,893,1806342,null,"",null,,,,,,,,
math-period,894,1808079,3246.0699998773634,"",,,,,,,,,2
html-keyboard-response,895,1808182,null,"",null,,,,,,,,
math-period,896,1810479,4375.80499984324,"",,,,,,,,,2
html-keyboard-response,897,1810582,null,"",null,,,,,,,,
math-period,898,1812103,2831.0349999228492,"",,,,,,,,,4
html-keyboard-response,899,1812206,null,"",null,,,,,,,,
math-period,900,1813607,2598.160000052303,"",,,,,,,,,4
html-keyboard-response,901,1813711,null,"",null,,,,,,,,
math-period,902,1815695,3755.809999885969,"",,,,,,,,,1
html-keyboard-response,903,1815798,null,"",null,,,,,,,,
math-period,904,1817472,3135.450000059791,"",,,,,,,,,3
html-keyboard-response,905,1817574,null,"",null,,,,,,,,
math-period,906,1819199,2958.3449999336153,"",,,,,,,,,1
html-keyboard-response,907,1819302,null,"",null,,,,,,,,
math-period,908,1822231,5536.005000001751,"",,,,,,,,,2
html-keyboard-response,909,1822333,null,"",null,,,,,,,,
math-period,910,1823346,null,"",,,,,,,,,
html-keyboard-response,911,1824349,null,"Recall Period!",null,,,,,,,,
call-function,912,1824350,,"",,,,,,,,,
html-keyboard-response,913,1824452,null,"",null,,,,,,,,
recall-period,914,1825303,849.2499999701977,"",,,,,,,,,
html-keyboard-response,915,1825405,null,"",null,,,,,,,,
recall-period,916,1829135,15631.88999996055,"",,,,,,,,,grab
html-keyboard-response,917,1829238,null,"",null,,,,,,,,
recall-period,918,1832943,20931.334999855608,"",,,,,,,,,plaster
html-keyboard-response,919,1833046,null,"",null,,,,,,,,
recall-period,920,1835095,7973.774999496527,"",,,,,,,,,snake
html-keyboard-response,921,1835197,null,"",null,,,,,,,,
recall-period,922,1840167,16600.48000025563,"",,,,,,,,,cobra
html-keyboard-response,923,1840270,null,"",null,,,,,,,,
recall-period,924,1843351,16262.445000349544,"",,,,,,,,,chicken
html-keyboard-response,925,1843454,null,"",null,,,,,,,,
recall-period,926,1845551,7182.130000204779,"",,,,,,,,,bush
html-keyboard-response,927,1845653,null,"",null,,,,,,,,
recall-period,928,1849976,23016.960000037216,"",,,,,,,,,wrench
html-keyboard-response,929,1850077,null,"",null,,,,,,,,
recall-period,930,1853288,10659.169999998994,"",,,,,,,,,lace
html-keyboard-response,931,1853390,null,"",null,,,,,,,,
recall-period,932,1857344,18889.700000407174,"",,,,,,,,,horse
html-keyboard-response,933,1857447,null,"",null,,,,,,,,
recall-period,934,1862448,20722.38000028301,"",,,,,,,,,saucer
html-keyboard-response,935,1862551,null,"",null,,,,,,,,
recall-period,936,1864655,6703.604999696836,"",,,,,,,,,ruby
html-keyboard-response,937,1864758,null,"",null,,,,,,,,
recall-period,938,1869048,17537.175000063144,"",,,,,,,,,bison
html-keyboard-response,939,1869150,null,"",null,,,,,,,,
recall-period,940,1873727,18473.48499961663,"",,,,,,,,,ceiling
html-keyboard-response,941,1873829,null,"",null,,,,,,,,
recall-period,942,1899352,null,"",,,,,,,,,
html-keyboard-response,943,1899855,null,"Time's Up!",null,,,,,,,,
html-keyboard-response,944,1911721,11862.914999946952,"<p> Uh oh. You responded correctly on 74% of the red squares.</p>
                  <p>We need you keep your accuracy above 80%</p>
                  <p>Press any key to continue the experiment. Thank you!</p>",32,,,,,,,,
html-keyboard-response,945,1914335,2612.459999974817,"<div style=""font-size:48px;"">Press any key to begin list 10 of 24 </div>",32,,,,,,,,
html-keyboard-response,946,1916841,null,"<div style=""font-size:60px;"">+</div>",null,,,,,,,,
html-keyboard-response,947,1917344,null,"JEEP<img id = ""stim"" ><div class = red_square id = ""topsquare"" ></div><img id = ""stim"" ><div class = red_square  id = ""bottomsquare"" ></div>",null,word_square,response,1,Space,false,,,
html-keyboard-response,948,1918847,null,"JEEP",null,word,,,,, 'JEEP',,
html-keyboard-response,949,1919349,null,"DWARF<img id = ""stim"" ><div class = green_square id = ""topsquare"" ></div><img id = ""stim"" ><div class = green_square  id = ""bottomsquare"" ></div>",null,word_square,response,0,none,true,,,
html-keyboard-response,950,1920852,null,"DWARF",null,word,,,,, 'DWARF',,
html-keyboard-response,951,1921313,457.5549999717623,"CLOTHES<img id = ""stim"" ><div class = red_square id = ""topsquare"" ></div><img id = ""stim"" ><div class = red_square  id = ""bottomsquare"" ></div>",32,word_square,response,1,Space,true,,,
html-keyboard-response,952,1922816,null,"CLOTHES",null,word,,,,, 'CLOTHES',,
html-keyboard-response,953,1923319,null,"BLOUSE<img id = ""stim"" ><div class = red_square id = ""topsquare"" ></div><img id = ""stim"" ><div class = red_square  id = ""bottomsquare"" ></div>",null,word_square,response,1,Space,false,,,
html-keyboard-response,954,1924822,null,"BLOUSE",null,word,,,,, 'BLOUSE',,
html-keyboard-response,955,1925325,null,"MUMMY<img id = ""stim"" ><div class = green_square id = ""topsquare"" ></div><img id = ""stim"" ><div class = green_square  id = ""bottomsquare"" ></div>",null,word_square,response,0,none,true,,,
html-keyboard-response,956,1926828,null,"MUMMY",null,word,,,,, 'MUMMY',,
