trial_type,trial_index,time_elapsed,rt,stimulus,key_press,test_part,task,targ_cond,correctKeyCode,correct,word,value,response
pavlovia,0,1088,,"",,,,,,,,,
external-html,1,166639,165361.55000003055,"",,,,,,,,,
html-keyboard-response,2,168701,2056.0500000137836,"Welcome to the experiment. Press any key to begin.",32,,,,,,,,
html-keyboard-response,3,188003,19300.309999962337,"<p>You will see a list of words and colored squares in the following task.<p><p>Press the spacebar whenever you see a GREEN square.<p><p>Do not press a key if the square is RED<p><p>Press the spacebar to continue.</p>",32,,,,,,,,
html-keyboard-response,4,199546,11039.675000007264,"<p>Please try to remember as many of the words as you can, and try to think about the meaning of each word as it appears.<p><p>After the detection and encoding task you will be asked to solve some math problems for 24 seconds.<p> Please solve as many problems as you can in the time given. <p>",32,,,,,,,,
html-keyboard-response,5,213745,13696.259999996983,"After solving the math problems, you will be asked to type in as many words <p>from the previous list as you can remember for 75 seconds.<p> If you finish recalling before the 75 seconds are up,<p> just sit tight and try to think of any more words you could have missed. <p><p>We will begin with a brief practice session<p>Press the spacebar to begin the practice.</p>",32,,,,,,,,
html-keyboard-response,6,216251,null,"<div style=""font-size:60px;"">+</div>",null,,,,,,,,
html-keyboard-response,7,216781,null,"HAPPY<img id = ""stim"" ><div class = red_square id = ""topsquare"" ></div><img id = ""stim"" ><div class = red_square  id = ""bottomsquare"" ></div>",null,word_square,prac_response,0,none,true,,,
html-keyboard-response,8,218298,null,"HAPPY",null,word,,,,,HAPPY,,
html-keyboard-response,9,218804,null,"COLD<img id = ""stim"" ><div class = green_square id = ""topsquare"" ></div><img id = ""stim"" ><div class = green_square  id = ""bottomsquare"" ></div>",null,word_square,prac_response,1,Space,false,,,
html-keyboard-response,10,220307,null,"COLD",null,word,,,,,COLD,,
html-keyboard-response,11,220811,null,"HEAVY<img id = ""stim"" ><div class = green_square id = ""topsquare"" ></div><img id = ""stim"" ><div class = green_square  id = ""bottomsquare"" ></div>",null,word_square,prac_response,1,Space,false,,,
html-keyboard-response,12,222313,null,"HEAVY",null,word,,,,,HEAVY,,
html-keyboard-response,13,222817,null,"FUNNY<img id = ""stim"" ><div class = red_square id = ""topsquare"" ></div><img id = ""stim"" ><div class = red_square  id = ""bottomsquare"" ></div>",null,word_square,prac_response,0,none,true,,,
html-keyboard-response,14,224320,null,"FUNNY",null,word,,,,,FUNNY,,
html-keyboard-response,15,224823,null,"SCARY<img id = ""stim"" ><div class = green_square id = ""topsquare"" ></div><img id = ""stim"" ><div class = green_square  id = ""bottomsquare"" ></div>",null,word_square,prac_response,1,Space,false,,,
html-keyboard-response,16,226326,null,"SCARY",null,word,,,,,SCARY,,
html-keyboard-response,17,226829,null,"PEACEFUL<img id = ""stim"" ><div class = green_square id = ""topsquare"" ></div><img id = ""stim"" ><div class = green_square  id = ""bottomsquare"" ></div>",null,word_square,prac_response,1,Space,false,,,
html-keyboard-response,18,228332,null,"PEACEFUL",null,word,,,,,PEACEFUL,,
html-keyboard-response,19,228835,null,"LITTLE<img id = ""stim"" ><div class = red_square id = ""topsquare"" ></div><img id = ""stim"" ><div class = red_square  id = ""bottomsquare"" ></div>",null,word_square,prac_response,0,none,true,,,
html-keyboard-response,20,230338,null,"LITTLE",null,word,,,,,LITTLE,,
html-keyboard-response,21,230841,null,"TIRED<img id = ""stim"" ><div class = red_square id = ""topsquare"" ></div><img id = ""stim"" ><div class = red_square  id = ""bottomsquare"" ></div>",null,word_square,prac_response,0,none,true,,,
html-keyboard-response,22,232343,null,"TIRED",null,word,,,,,TIRED,,
html-keyboard-response,23,232846,null,"ENTERTAINING<img id = ""stim"" ><div class = red_square id = ""topsquare"" ></div><img id = ""stim"" ><div class = red_square  id = ""bottomsquare"" ></div>",null,word_square,prac_response,0,none,true,,,
html-keyboard-response,24,234348,null,"ENTERTAINING",null,word,,,,,ENTERTAINING,,
html-keyboard-response,25,234850,null,"GRATEFUL<img id = ""stim"" ><div class = green_square id = ""topsquare"" ></div><img id = ""stim"" ><div class = green_square  id = ""bottomsquare"" ></div>",null,word_square,prac_response,1,Space,false,,,
html-keyboard-response,26,236352,null,"GRATEFUL",null,word,,,,,GRATEFUL,,
html-keyboard-response,27,236854,null,"LOUD<img id = ""stim"" ><div class = red_square id = ""topsquare"" ></div><img id = ""stim"" ><div class = red_square  id = ""bottomsquare"" ></div>",null,word_square,prac_response,0,none,true,,,
html-keyboard-response,28,238356,null,"LOUD",null,word,,,,,LOUD,,
html-keyboard-response,29,238859,null,"SMART<img id = ""stim"" ><div class = green_square id = ""topsquare"" ></div><img id = ""stim"" ><div class = green_square  id = ""bottomsquare"" ></div>",null,word_square,prac_response,1,Space,false,,,
html-keyboard-response,30,240361,null,"SMART",null,word,,,,,SMART,,
html-keyboard-response,31,240862,null,"SMOOTH<img id = ""stim"" ><div class = green_square id = ""topsquare"" ></div><img id = ""stim"" ><div class = green_square  id = ""bottomsquare"" ></div>",null,word_square,prac_response,1,Space,false,,,
html-keyboard-response,32,242365,null,"SMOOTH",null,word,,,,,SMOOTH,,
html-keyboard-response,33,242867,null,"DISHONEST<img id = ""stim"" ><div class = red_square id = ""topsquare"" ></div><img id = ""stim"" ><div class = red_square  id = ""bottomsquare"" ></div>",null,word_square,prac_response,0,none,true,,,
html-keyboard-response,34,244369,null,"DISHONEST",null,word,,,,,DISHONEST,,
html-keyboard-response,35,244871,466.58499992918223,"WEALTHY<img id = ""stim"" ><div class = green_square id = ""topsquare"" ></div><img id = ""stim"" ><div class = green_square  id = ""bottomsquare"" ></div>",32,word_square,prac_response,1,Space,true,,,
html-keyboard-response,36,246375,null,"WEALTHY",null,word,,,,,WEALTHY,,
html-keyboard-response,37,246877,null,"BEAUTIFUL<img id = ""stim"" ><div class = red_square id = ""topsquare"" ></div><img id = ""stim"" ><div class = red_square  id = ""bottomsquare"" ></div>",null,word_square,prac_response,0,none,true,,,
html-keyboard-response,38,248379,null,"BEAUTIFUL",null,word,,,,,BEAUTIFUL,,
html-keyboard-response,39,248881,null,"DREARY<img id = ""stim"" ><div class = red_square id = ""topsquare"" ></div><img id = ""stim"" ><div class = red_square  id = ""bottomsquare"" ></div>",null,word_square,prac_response,0,none,true,,,
html-keyboard-response,40,250383,null,"DREARY",null,word,,,,,DREARY,,
html-keyboard-response,41,250885,null,"PLAYFUL<img id = ""stim"" ><div class = green_square id = ""topsquare"" ></div><img id = ""stim"" ><div class = green_square  id = ""bottomsquare"" ></div>",null,word_square,prac_response,1,Space,false,,,
html-keyboard-response,42,252388,null,"PLAYFUL",null,word,,,,,PLAYFUL,,
html-keyboard-response,43,261421,9026.684999931604,"<p> Uh oh. You responded correctly on 56% of the GREEN squares.</p>
                  <p>We need you keep your accuracy above 80%</p>
                  <p>We're going to try once more to make sure you understand the task. press any key to continue.</p>",32,,,,,,,,
html-keyboard-response,44,266438,5015.480000060052,"<p>You will see a list of words and colored squares in the following task.<p><p>Press the spacebar whenever you see a GREEN square.<p><p>Do not press a key if the square is RED<p><p>Press the spacebar to continue.</p>",32,,,,,,,,
html-keyboard-response,45,268946,null,"<div style=""font-size:60px;"">+</div>",null,,,,,,,,
html-keyboard-response,46,269450,null,"HAPPY<img id = ""stim"" ><div class = red_square id = ""topsquare"" ></div><img id = ""stim"" ><div class = red_square  id = ""bottomsquare"" ></div>",null,word_square,response,0,none,true,,,
html-keyboard-response,47,270953,null,"HAPPY",null,word,,,,,HAPPY,,
html-keyboard-response,48,271433,479.384999955073,"COLD<img id = ""stim"" ><div class = green_square id = ""topsquare"" ></div><img id = ""stim"" ><div class = green_square  id = ""bottomsquare"" ></div>",32,word_square,response,1,Space,true,,,
html-keyboard-response,49,272935,null,"COLD",null,word,,,,,COLD,,
html-keyboard-response,50,273437,null,"HEAVY<img id = ""stim"" ><div class = green_square id = ""topsquare"" ></div><img id = ""stim"" ><div class = green_square  id = ""bottomsquare"" ></div>",null,word_square,response,1,Space,false,,,
html-keyboard-response,51,274941,null,"HEAVY",null,word,,,,,HEAVY,,
html-keyboard-response,52,275443,null,"FUNNY<img id = ""stim"" ><div class = red_square id = ""topsquare"" ></div><img id = ""stim"" ><div class = red_square  id = ""bottomsquare"" ></div>",null,word_square,response,0,none,true,,,
html-keyboard-response,53,276945,null,"FUNNY",null,word,,,,,FUNNY,,
html-keyboard-response,54,277306,358.43999998178333,"SCARY<img id = ""stim"" ><div class = green_square id = ""topsquare"" ></div><img id = ""stim"" ><div class = green_square  id = ""bottomsquare"" ></div>",32,word_square,response,1,Space,true,,,
html-keyboard-response,55,278808,null,"SCARY",null,word,,,,,SCARY,,
html-keyboard-response,56,279195,385.7599999755621,"PEACEFUL<img id = ""stim"" ><div class = green_square id = ""topsquare"" ></div><img id = ""stim"" ><div class = green_square  id = ""bottomsquare"" ></div>",32,word_square,response,1,Space,true,,,
html-keyboard-response,57,280698,null,"PEACEFUL",null,word,,,,,PEACEFUL,,
html-keyboard-response,58,281220,null,"LITTLE<img id = ""stim"" ><div class = red_square id = ""topsquare"" ></div><img id = ""stim"" ><div class = red_square  id = ""bottomsquare"" ></div>",null,word_square,response,0,none,true,,,
html-keyboard-response,59,282723,null,"LITTLE",null,word,,,,,LITTLE,,
html-keyboard-response,60,283227,null,"TIRED<img id = ""stim"" ><div class = red_square id = ""topsquare"" ></div><img id = ""stim"" ><div class = red_square  id = ""bottomsquare"" ></div>",null,word_square,response,0,none,true,,,
html-keyboard-response,61,284729,null,"TIRED",null,word,,,,,TIRED,,
html-keyboard-response,62,285232,null,"ENTERTAINING<img id = ""stim"" ><div class = red_square id = ""topsquare"" ></div><img id = ""stim"" ><div class = red_square  id = ""bottomsquare"" ></div>",null,word_square,response,0,none,true,,,
html-keyboard-response,63,286735,null,"ENTERTAINING",null,word,,,,,ENTERTAINING,,
html-keyboard-response,64,287142,405.2300000330433,"GRATEFUL<img id = ""stim"" ><div class = green_square id = ""topsquare"" ></div><img id = ""stim"" ><div class = green_square  id = ""bottomsquare"" ></div>",32,word_square,response,1,Space,true,,,
html-keyboard-response,65,288644,null,"GRATEFUL",null,word,,,,,GRATEFUL,,
html-keyboard-response,66,289147,null,"LOUD<img id = ""stim"" ><div class = red_square id = ""topsquare"" ></div><img id = ""stim"" ><div class = red_square  id = ""bottomsquare"" ></div>",null,word_square,response,0,none,true,,,
html-keyboard-response,67,290649,null,"LOUD",null,word,,,,,LOUD,,
html-keyboard-response,68,291152,null,"SMART<img id = ""stim"" ><div class = green_square id = ""topsquare"" ></div><img id = ""stim"" ><div class = green_square  id = ""bottomsquare"" ></div>",null,word_square,response,1,Space,false,,,
html-keyboard-response,69,292654,null,"SMART",null,word,,,,,SMART,,
html-keyboard-response,70,293078,422.23000002559274,"SMOOTH<img id = ""stim"" ><div class = green_square id = ""topsquare"" ></div><img id = ""stim"" ><div class = green_square  id = ""bottomsquare"" ></div>",32,word_square,response,1,Space,true,,,
html-keyboard-response,71,294581,null,"SMOOTH",null,word,,,,,SMOOTH,,
html-keyboard-response,72,295083,null,"DISHONEST<img id = ""stim"" ><div class = red_square id = ""topsquare"" ></div><img id = ""stim"" ><div class = red_square  id = ""bottomsquare"" ></div>",null,word_square,response,0,none,true,,,
html-keyboard-response,73,296586,null,"DISHONEST",null,word,,,,,DISHONEST,,
html-keyboard-response,74,296973,385.98000002093613,"WEALTHY<img id = ""stim"" ><div class = green_square id = ""topsquare"" ></div><img id = ""stim"" ><div class = green_square  id = ""bottomsquare"" ></div>",32,word_square,response,1,Space,true,,,
html-keyboard-response,75,298476,null,"WEALTHY",null,word,,,,,WEALTHY,,
html-keyboard-response,76,298980,null,"BEAUTIFUL<img id = ""stim"" ><div class = red_square id = ""topsquare"" ></div><img id = ""stim"" ><div class = red_square  id = ""bottomsquare"" ></div>",null,word_square,response,0,none,true,,,
html-keyboard-response,77,300483,null,"BEAUTIFUL",null,word,,,,,BEAUTIFUL,,
html-keyboard-response,78,300985,null,"DREARY<img id = ""stim"" ><div class = red_square id = ""topsquare"" ></div><img id = ""stim"" ><div class = red_square  id = ""bottomsquare"" ></div>",null,word_square,response,0,none,true,,,
html-keyboard-response,79,302487,null,"DREARY",null,word,,,,,DREARY,,
html-keyboard-response,80,302889,399.7599999420345,"PLAYFUL<img id = ""stim"" ><div class = green_square id = ""topsquare"" ></div><img id = ""stim"" ><div class = green_square  id = ""bottomsquare"" ></div>",32,word_square,response,1,Space,true,,,
html-keyboard-response,81,304391,null,"PLAYFUL",null,word,,,,,PLAYFUL,,
html-keyboard-response,82,311708,7315.249999985099,"<p> Good job! You responded correctly to 89% of the GREEN squares.</p>
                  <p>Be sure to keep your accuracy above 80%</p>
                  <p>Press any key to begin the math and recall sections. Thank you!</p>",32,,,,,,,,
call-function,83,311716,,"",,,,,,,,,
html-keyboard-response,84,311817,null,"",null,,,,,,,,
math-period,85,318324,15396.779999835417,"",,,,,,,,,2 
html-keyboard-response,86,318428,null,"",null,,,,,,,,
math-period,87,321181,5178.890000097454,"",,,,,,,,,4
html-keyboard-response,88,321282,null,"",null,,,,,,,,
math-period,89,324466,5936.584999901243,"",,,,,,,,,3
html-keyboard-response,90,324581,null,"",null,,,,,,,,
math-period,91,327617,5684.664999949746,"",,,,,,,,,3
html-keyboard-response,92,327720,null,"",null,,,,,,,,
math-period,93,330473,5075.410000164993,"",,,,,,,,,4
html-keyboard-response,94,330585,null,"",null,,,,,,,,
math-period,95,333241,5017.270000069402,"",,,,,,,,,4
html-keyboard-response,96,333344,null,"",null,,,,,,,,
math-period,97,335715,null,"",,,,,,,,,
html-keyboard-response,98,336727,null,"Recall Period!",null,,,,,,,,
call-function,99,336728,,"",,,,,,,,,
html-keyboard-response,100,336830,null,"",null,,,,,,,,
recall-period,101,340666,6880.729999975301,"",,,,,,,,, 
html-keyboard-response,102,340768,null,"",null,,,,,,,,
recall-period,103,352074,100201.78000000305,"",,,,,,,,,grateful
html-keyboard-response,104,352176,null,"",null,,,,,,,,
recall-period,105,354706,5711.074999999255,"",,,,,,,,,loud
html-keyboard-response,106,354808,null,"",null,,,,,,,,
recall-period,107,358913,12684.585000388324,"",,,,,,,,,peaceful
html-keyboard-response,108,359015,null,"",null,,,,,,,,
recall-period,109,366046,30408.035000320524,"",,,,,,,,,thankful
html-keyboard-response,110,366149,null,"",null,,,,,,,,
recall-period,111,368949,9147.3799997475,"",,,,,,,,,honest
html-keyboard-response,112,369051,null,"",null,,,,,,,,
recall-period,113,372346,14677.700000116602,"",,,,,,,,,moral
html-keyboard-response,114,372448,null,"",null,,,,,,,,
recall-period,115,376486,14896.914999582805,"",,,,,,,,,dishonest
html-keyboard-response,116,376589,null,"",null,,,,,,,,
recall-period,117,380290,7293.3699996210635,"",,,,,,,,,steal
html-keyboard-response,118,380392,null,"",null,,,,,,,,
recall-period,119,382157,6491.215000394732,"",,,,,,,,,kind
html-keyboard-response,120,382261,null,"",null,,,,,,,,
recall-period,121,384676,6314.430000144057,"",,,,,,,,,peace
html-keyboard-response,122,384778,null,"",null,,,,,,,,
recall-period,123,394193,68209.37999966554,"",,,,,,,,,enduring
html-keyboard-response,124,394296,null,"",null,,,,,,,,
recall-period,125,398132,23212.5050004106,"",,,,,,,,,thinking
html-keyboard-response,126,398234,null,"",null,,,,,,,,
recall-period,127,401191,6889.254999929108,"",,,,,,,,,peace
html-keyboard-response,128,401295,null,"",null,,,,,,,,
recall-period,129,403801,6843.220000388101,"",,,,,,,,,happy
html-keyboard-response,130,403913,null,"",null,,,,,,,,
recall-period,131,411429,42003.65499977488,"",,,,,,,,,ready
html-keyboard-response,132,411531,null,"",null,,,,,,,,
recall-period,133,411729,null,"",,,,,,,,,
html-keyboard-response,134,412232,null,"Time's Up!",null,,,,,,,,
html-keyboard-response,135,423378,11144.710000022314,"<p>We will now begin the experiment!<p><p>Please try to remember all words from each list.<p><p>Press the spacebar whenever you see a GREEN square.<p><p><p><p>Press the spacebar to begin.</p>",32,,,,,,,,
html-keyboard-response,136,428434,4553.349999943748,"<div style=""font-size:48px;"">Press any key to begin list 1 of 24 </div>",32,,,,,,,,
html-keyboard-response,137,430938,null,"<div style=""font-size:60px;"">+</div>",null,,,,,,,,
html-keyboard-response,138,431450,null,"SHINGLE<img id = ""stim"" ><div class = red_square id = ""topsquare"" ></div><img id = ""stim"" ><div class = red_square  id = ""bottomsquare"" ></div>",null,word_square,response,0,none,true,,,
html-keyboard-response,139,432953,null,"SHINGLE",null,word,,,,, 'SHINGLE',,
html-keyboard-response,140,433456,null,"BARLEY<img id = ""stim"" ><div class = red_square id = ""topsquare"" ></div><img id = ""stim"" ><div class = red_square  id = ""bottomsquare"" ></div>",null,word_square,response,0,none,true,,,
html-keyboard-response,141,434958,null,"BARLEY",null,word,,,,, 'BARLEY',,
html-keyboard-response,142,435460,501.0850001126528,"POISON<img id = ""stim"" ><div class = green_square id = ""topsquare"" ></div><img id = ""stim"" ><div class = green_square  id = ""bottomsquare"" ></div>",32,word_square,response,1,Space,true,,,
html-keyboard-response,143,436963,null,"POISON",null,word,,,,, 'POISON',,
html-keyboard-response,144,437465,null,"WARDROBE<img id = ""stim"" ><div class = green_square id = ""topsquare"" ></div><img id = ""stim"" ><div class = green_square  id = ""bottomsquare"" ></div>",null,word_square,response,1,Space,false,,,
html-keyboard-response,145,438970,null,"WARDROBE",null,word,,,,, 'WARDROBE',,
html-keyboard-response,146,439473,null,"BLUEJAY<img id = ""stim"" ><div class = red_square id = ""topsquare"" ></div><img id = ""stim"" ><div class = red_square  id = ""bottomsquare"" ></div>",null,word_square,response,0,none,true,,,
html-keyboard-response,147,440977,null,"BLUEJAY",null,word,,,,, 'BLUEJAY',,
html-keyboard-response,148,441480,null,"SEAFOOD<img id = ""stim"" ><div class = green_square id = ""topsquare"" ></div><img id = ""stim"" ><div class = green_square  id = ""bottomsquare"" ></div>",null,word_square,response,1,Space,false,,,
html-keyboard-response,149,442987,null,"SEAFOOD",null,word,,,,, 'SEAFOOD',,
html-keyboard-response,150,443489,null,"OX<img id = ""stim"" ><div class = green_square id = ""topsquare"" ></div><img id = ""stim"" ><div class = green_square  id = ""bottomsquare"" ></div>",null,word_square,response,1,Space,false,,,
html-keyboard-response,151,444992,null,"OX",null,word,,,,, 'OX',,
html-keyboard-response,152,445495,null,"LOBBY<img id = ""stim"" ><div class = green_square id = ""topsquare"" ></div><img id = ""stim"" ><div class = green_square  id = ""bottomsquare"" ></div>",null,word_square,response,1,Space,false,,,
html-keyboard-response,153,446997,null,"LOBBY",null,word,,,,, 'LOBBY',,
html-keyboard-response,154,447499,null,"CARPET<img id = ""stim"" ><div class = red_square id = ""topsquare"" ></div><img id = ""stim"" ><div class = red_square  id = ""bottomsquare"" ></div>",null,word_square,response,0,none,true,,,
html-keyboard-response,155,449001,null,"CARPET",null,word,,,,, 'CARPET',,
html-keyboard-response,156,449503,null,"MOTOR<img id = ""stim"" ><div class = red_square id = ""topsquare"" ></div><img id = ""stim"" ><div class = red_square  id = ""bottomsquare"" ></div>",null,word_square,response,0,none,true,,,
html-keyboard-response,157,451006,null,"MOTOR",null,word,,,,, 'MOTOR',,
html-keyboard-response,158,451508,null,"PEDAL<img id = ""stim"" ><div class = green_square id = ""topsquare"" ></div><img id = ""stim"" ><div class = green_square  id = ""bottomsquare"" ></div>",null,word_square,response,1,Space,false,,,
html-keyboard-response,159,453011,null,"PEDAL",null,word,,,,, 'PEDAL',,
html-keyboard-response,160,453513,null,"PRIEST<img id = ""stim"" ><div class = red_square id = ""topsquare"" ></div><img id = ""stim"" ><div class = red_square  id = ""bottomsquare"" ></div>",null,word_square,response,0,none,true,,,
html-keyboard-response,161,455015,null,"PRIEST",null,word,,,,, 'PRIEST',,
html-keyboard-response,162,455518,null,"BROOK<img id = ""stim"" ><div class = red_square id = ""topsquare"" ></div><img id = ""stim"" ><div class = red_square  id = ""bottomsquare"" ></div>",null,word_square,response,0,none,true,,,
html-keyboard-response,163,457019,null,"BROOK",null,word,,,,, 'BROOK',,
html-keyboard-response,164,457522,null,"PUDDLE<img id = ""stim"" ><div class = green_square id = ""topsquare"" ></div><img id = ""stim"" ><div class = green_square  id = ""bottomsquare"" ></div>",null,word_square,response,1,Space,false,,,
html-keyboard-response,165,459026,null,"PUDDLE",null,word,,,,, 'PUDDLE',,
html-keyboard-response,166,459536,null,"FAUCET<img id = ""stim"" ><div class = red_square id = ""topsquare"" ></div><img id = ""stim"" ><div class = red_square  id = ""bottomsquare"" ></div>",null,word_square,response,0,none,true,,,
html-keyboard-response,167,461038,null,"FAUCET",null,word,,,,, 'FAUCET',,
html-keyboard-response,168,461514,474.8300000792369,"HUMAN<img id = ""stim"" ><div class = green_square id = ""topsquare"" ></div><img id = ""stim"" ><div class = green_square  id = ""bottomsquare"" ></div>",32,word_square,response,1,Space,true,,,
html-keyboard-response,169,463016,null,"HUMAN",null,word,,,,, 'HUMAN',,
html-keyboard-response,170,463519,null,"BODY<img id = ""stim"" ><div class = red_square id = ""topsquare"" ></div><img id = ""stim"" ><div class = red_square  id = ""bottomsquare"" ></div>",null,word_square,response,0,none,true,,,
html-keyboard-response,171,465021,null,"BODY",null,word,,,,, 'BODY',,
html-keyboard-response,172,465524,null,"TULIP<img id = ""stim"" ><div class = green_square id = ""topsquare"" ></div><img id = ""stim"" ><div class = green_square  id = ""bottomsquare"" ></div>",null,word_square,response,1,Space,false,,,
html-keyboard-response,173,467026,null,"TULIP",null,word,,,,, 'TULIP',,
call-function,174,467026,,"",,,,,,,,,
html-keyboard-response,175,467129,null,"",null,,,,,,,,
math-period,176,474294,25623.404999962077,"",,,,,,,,,1
html-keyboard-response,177,474396,null,"",null,,,,,,,,
math-period,178,476927,4135.5550000444055,"",,,,,,,,,3
html-keyboard-response,179,477029,null,"",null,,,,,,,,
math-period,180,480505,6587.345000123605,"",,,,,,,,,5
html-keyboard-response,181,480611,null,"",null,,,,,,,,
math-period,182,483633,5679.439999978058,"",,,,,,,,,2
html-keyboard-response,183,483735,null,"",null,,,,,,,,
math-period,184,485951,4087.5499999383464,"",,,,,,,,,5
html-keyboard-response,185,486053,null,"",null,,,,,,,,
math-period,186,488042,3615.500000072643,"",,,,,,,,,5
html-keyboard-response,187,488144,null,"",null,,,,,,,,
math-period,188,490700,4811.474999994971,"",,,,,,,,,6
html-keyboard-response,189,490803,null,"",null,,,,,,,,
math-period,190,491029,null,"",,,,,,,,,
html-keyboard-response,191,492034,null,"Recall Period!",null,,,,,,,,
call-function,192,492037,,"",,,,,,,,,
html-keyboard-response,193,492139,null,"",null,,,,,,,,
recall-period,194,496007,17214.984999853186,"",,,,,,,,,human
html-keyboard-response,195,496109,null,"",null,,,,,,,,
recall-period,196,498099,6408.2949998555705,"",,,,,,,,,body
html-keyboard-response,197,498201,null,"",null,,,,,,,,
recall-period,198,502015,8030.204999959096,"",,,,,,,,,tullip
html-keyboard-response,199,502118,null,"",null,,,,,,,,
recall-period,200,504557,12664.559999713674,"",,,,,,,,,blanket
html-keyboard-response,201,504669,null,"",null,,,,,,,,
recall-period,202,507753,5644.009999930859,"",,,,,,,,,table
html-keyboard-response,203,507856,null,"",null,,,,,,,,
recall-period,204,515808,39509.69000044279,"",,,,,,,,,march
html-keyboard-response,205,515910,null,"",null,,,,,,,,
recall-period,206,518507,10435.524999978952,"",,,,,,,,,tall
html-keyboard-response,207,518610,null,"",null,,,,,,,,
recall-period,208,522221,22283.750000060536,"",,,,,,,,,grateful
html-keyboard-response,209,522324,null,"",null,,,,,,,,
recall-period,210,527913,29077.87999988068,"",,,,,,,,,puddle
html-keyboard-response,211,528017,null,"",null,,,,,,,,
recall-period,212,532728,25677.18500015326,"",,,,,,,,,ladder
html-keyboard-response,213,532830,null,"",null,,,,,,,,
recall-period,214,539659,31478.85000007227,"",,,,,,,,,king
html-keyboard-response,215,539762,null,"",null,,,,,,,,
recall-period,216,557365,101324.23499994911,"",,,,,,,,,timer
html-keyboard-response,217,557468,null,"",null,,,,,,,,
recall-period,218,567037,null,"",,,,,,,,,
html-keyboard-response,219,567541,null,"Time's Up!",null,,,,,,,,
html-keyboard-response,220,680149,112606.9950000383,"<p> Uh oh. You responded correctly on 75% of the GREEN squares.</p>
                  <p>We need you keep your accuracy above 80%</p>
                  <p>Press any key to continue the experiment. Thank you!</p>",32,,,,,,,,
html-keyboard-response,221,682579,2428.74500004109,"<div style=""font-size:48px;"">Press any key to begin list 2 of 24 </div>",32,,,,,,,,
html-keyboard-response,222,685081,null,"<div style=""font-size:60px;"">+</div>",null,,,,,,,,
html-keyboard-response,223,685591,null,"BUILDING<img id = ""stim"" ><div class = red_square id = ""topsquare"" ></div><img id = ""stim"" ><div class = red_square  id = ""bottomsquare"" ></div>",null,word_square,response,0,none,true,,,
html-keyboard-response,224,687094,null,"BUILDING",null,word,,,,, 'BUILDING',,
html-keyboard-response,225,687596,null,"ASIA<img id = ""stim"" ><div class = red_square id = ""topsquare"" ></div><img id = ""stim"" ><div class = red_square  id = ""bottomsquare"" ></div>",null,word_square,response,0,none,true,,,
html-keyboard-response,226,689099,null,"ASIA",null,word,,,,, 'ASIA',,
html-keyboard-response,227,689487,387.1349999681115,"LIZARD<img id = ""stim"" ><div class = green_square id = ""topsquare"" ></div><img id = ""stim"" ><div class = green_square  id = ""bottomsquare"" ></div>",32,word_square,response,1,Space,true,,,
html-keyboard-response,228,690990,null,"LIZARD",null,word,,,,, 'LIZARD',,
html-keyboard-response,229,691494,null,"SHORTS<img id = ""stim"" ><div class = green_square id = ""topsquare"" ></div><img id = ""stim"" ><div class = green_square  id = ""bottomsquare"" ></div>",null,word_square,response,1,Space,false,,,
html-keyboard-response,230,692996,null,"SHORTS",null,word,,,,, 'SHORTS',,
html-keyboard-response,231,693499,null,"SCARECROW<img id = ""stim"" ><div class = red_square id = ""topsquare"" ></div><img id = ""stim"" ><div class = red_square  id = ""bottomsquare"" ></div>",null,word_square,response,0,none,true,,,
html-keyboard-response,232,695001,null,"SCARECROW",null,word,,,,, 'SCARECROW',,
html-keyboard-response,233,695428,425.39500002749264,"CASKET<img id = ""stim"" ><div class = green_square id = ""topsquare"" ></div><img id = ""stim"" ><div class = green_square  id = ""bottomsquare"" ></div>",32,word_square,response,1,Space,true,,,
html-keyboard-response,234,696934,null,"CASKET",null,word,,,,, 'CASKET',,
html-keyboard-response,235,697318,382.1699999971315,"TOMBSTONE<img id = ""stim"" ><div class = green_square id = ""topsquare"" ></div><img id = ""stim"" ><div class = green_square  id = ""bottomsquare"" ></div>",32,word_square,response,1,Space,true,,,
html-keyboard-response,236,698821,null,"TOMBSTONE",null,word,,,,, 'TOMBSTONE',,
html-keyboard-response,237,699230,407.13499998673797,"TEAPOT<img id = ""stim"" ><div class = green_square id = ""topsquare"" ></div><img id = ""stim"" ><div class = green_square  id = ""bottomsquare"" ></div>",32,word_square,response,1,Space,true,,,
html-keyboard-response,238,700734,null,"TEAPOT",null,word,,,,, 'TEAPOT',,
html-keyboard-response,239,701238,null,"SEASHORE<img id = ""stim"" ><div class = red_square id = ""topsquare"" ></div><img id = ""stim"" ><div class = red_square  id = ""bottomsquare"" ></div>",null,word_square,response,0,none,true,,,
html-keyboard-response,240,702740,null,"SEASHORE",null,word,,,,, 'SEASHORE',,
html-keyboard-response,241,703242,null,"FOLDER<img id = ""stim"" ><div class = red_square id = ""topsquare"" ></div><img id = ""stim"" ><div class = red_square  id = ""bottomsquare"" ></div>",null,word_square,response,0,none,true,,,
html-keyboard-response,242,704744,null,"FOLDER",null,word,,,,, 'FOLDER',,
html-keyboard-response,243,705081,335.1249999832362,"COBBLER<img id = ""stim"" ><div class = green_square id = ""topsquare"" ></div><img id = ""stim"" ><div class = green_square  id = ""bottomsquare"" ></div>",32,word_square,response,1,Space,true,,,
html-keyboard-response,244,706583,null,"COBBLER",null,word,,,,, 'COBBLER',,
html-keyboard-response,245,707086,null,"POCKET<img id = ""stim"" ><div class = red_square id = ""topsquare"" ></div><img id = ""stim"" ><div class = red_square  id = ""bottomsquare"" ></div>",null,word_square,response,0,none,true,,,
html-keyboard-response,246,708588,null,"POCKET",null,word,,,,, 'POCKET',,
html-keyboard-response,247,709091,null,"PARROT<img id = ""stim"" ><div class = red_square id = ""topsquare"" ></div><img id = ""stim"" ><div class = red_square  id = ""bottomsquare"" ></div>",null,word_square,response,0,none,true,,,
html-keyboard-response,248,710593,null,"PARROT",null,word,,,,, 'PARROT',,
html-keyboard-response,249,710929,334.51000007335097,"SPRINKLE<img id = ""stim"" ><div class = green_square id = ""topsquare"" ></div><img id = ""stim"" ><div class = green_square  id = ""bottomsquare"" ></div>",32,word_square,response,1,Space,true,,,
html-keyboard-response,250,712432,null,"SPRINKLE",null,word,,,,, 'SPRINKLE',,
html-keyboard-response,251,712934,null,"NECKLACE<img id = ""stim"" ><div class = red_square id = ""topsquare"" ></div><img id = ""stim"" ><div class = red_square  id = ""bottomsquare"" ></div>",null,word_square,response,0,none,true,,,
html-keyboard-response,252,714436,null,"NECKLACE",null,word,,,,, 'NECKLACE',,
html-keyboard-response,253,714867,429.4349999399856,"RATTLE<img id = ""stim"" ><div class = green_square id = ""topsquare"" ></div><img id = ""stim"" ><div class = green_square  id = ""bottomsquare"" ></div>",32,word_square,response,1,Space,true,,,
html-keyboard-response,254,716370,null,"RATTLE",null,word,,,,, 'RATTLE',,
html-keyboard-response,255,716873,null,"POSTAGE<img id = ""stim"" ><div class = red_square id = ""topsquare"" ></div><img id = ""stim"" ><div class = red_square  id = ""bottomsquare"" ></div>",null,word_square,response,0,none,true,,,
html-keyboard-response,256,718375,null,"POSTAGE",null,word,,,,, 'POSTAGE',,
html-keyboard-response,257,718805,429.38499990850687,"PACKAGE<img id = ""stim"" ><div class = green_square id = ""topsquare"" ></div><img id = ""stim"" ><div class = green_square  id = ""bottomsquare"" ></div>",32,word_square,response,1,Space,true,,,
html-keyboard-response,258,720307,null,"PACKAGE",null,word,,,,, 'PACKAGE',,
call-function,259,720308,,"",,,,,,,,,
html-keyboard-response,260,720410,null,"",null,,,,,,,,
math-period,261,724003,8297.560000093654,"",,,,,,,,,5 
html-keyboard-response,262,724105,null,"",null,,,,,,,,
math-period,263,727333,5958.509999909438,"",,,,,,,,,1
html-keyboard-response,264,727436,null,"",null,,,,,,,,
math-period,265,730527,5887.235000031069,"",,,,,,,,,5
html-keyboard-response,266,730630,null,"",null,,,,,,,,
math-period,267,734397,7239.2499999841675,"",,,,,,,,,1
html-keyboard-response,268,734500,null,"",null,,,,,,,,
math-period,269,736355,3345.74000001885,"",,,,,,,,,3
html-keyboard-response,270,736457,null,"",null,,,,,,,,
math-period,271,738132,2941.450000042096,"",,,,,,,,,4
html-keyboard-response,272,738238,null,"",null,,,,,,,,
math-period,273,740428,4039.625000092201,"",,,,,,,,,6
html-keyboard-response,274,740531,null,"",null,,,,,,,,
math-period,275,744162,6854.48500001803,"",,,,,,,,,1
html-keyboard-response,276,744268,null,"",null,,,,,,,,
math-period,277,744310,null,"",,,,,,,,,
html-keyboard-response,278,745313,null,"Recall Period!",null,,,,,,,,
call-function,279,745313,,"",,,,,,,,,
html-keyboard-response,280,745415,null,"",null,,,,,,,,
recall-period,281,746457,1041.0749999573454,"",,,,,,,,,
html-keyboard-response,282,746561,null,"",null,,,,,,,,
recall-period,283,751047,33819.99499944504,"",,,,,,,,,tombstone
html-keyboard-response,284,751150,null,"",null,,,,,,,,
recall-period,285,753343,7597.775000380352,"",,,,,,,,,teapot
html-keyboard-response,286,753446,null,"",null,,,,,,,,
recall-period,287,756786,10569.749999907799,"",,,,,,,,,cobbler
html-keyboard-response,288,756888,null,"",null,,,,,,,,
recall-period,289,760362,16372.160000028089,"",,,,,,,,,ladder
html-keyboard-response,290,760464,null,"",null,,,,,,,,
recall-period,291,763670,9189.840000355616,"",,,,,,,,,landing
html-keyboard-response,292,763773,null,"",null,,,,,,,,
recall-period,293,770105,64483.33499988075,"",,,,,,,,,hatchet
html-keyboard-response,294,770208,null,"",null,,,,,,,,
recall-period,295,773188,17830.25500026997,"",,,,,,,,,thinking
html-keyboard-response,296,773296,null,"",null,,,,,,,,
recall-period,297,792561,143300.7899997756,"",,,,,,,,,tempted
html-keyboard-response,298,792662,null,"",null,,,,,,,,
recall-period,299,816141,138116.68999993708,"",,,,,,,,,items
html-keyboard-response,300,816243,null,"",null,,,,,,,,
recall-period,301,820316,null,"",,,,,,,,,
html-keyboard-response,302,820819,null,"Time's Up!",null,,,,,,,,
html-keyboard-response,303,827841,7020.460000028834,"<p> Good job! You responded correctly to 81% of the GREEN squares.</p>
                  <p>Be sure to keep your accuracy above 80%</p>
                  <p>Press any key to continue the experiment. Thank you!</p>",32,,,,,,,,
html-keyboard-response,304,829079,1235.5099999113008,"<div style=""font-size:48px;"">Press any key to begin list 3 of 24 </div>",32,,,,,,,,
html-keyboard-response,305,831583,null,"<div style=""font-size:60px;"">+</div>",null,,,,,,,,
html-keyboard-response,306,832085,null,"CROOK<img id = ""stim"" ><div class = green_square id = ""topsquare"" ></div><img id = ""stim"" ><div class = green_square  id = ""bottomsquare"" ></div>",null,word_square,response,1,Space,false,,,
html-keyboard-response,307,833588,null,"CROOK",null,word,,,,, 'CROOK',,
html-keyboard-response,308,834006,416.1800000583753,"LUGGAGE<img id = ""stim"" ><div class = green_square id = ""topsquare"" ></div><img id = ""stim"" ><div class = green_square  id = ""bottomsquare"" ></div>",32,word_square,response,1,Space,true,,,
html-keyboard-response,309,835508,null,"LUGGAGE",null,word,,,,, 'LUGGAGE',,
html-keyboard-response,310,836010,null,"WRIST<img id = ""stim"" ><div class = red_square id = ""topsquare"" ></div><img id = ""stim"" ><div class = red_square  id = ""bottomsquare"" ></div>",null,word_square,response,0,none,true,,,
html-keyboard-response,311,837514,null,"WRIST",null,word,,,,, 'WRIST',,
html-keyboard-response,312,838016,null,"CHIPMUNK<img id = ""stim"" ><div class = red_square id = ""topsquare"" ></div><img id = ""stim"" ><div class = red_square  id = ""bottomsquare"" ></div>",null,word_square,response,0,none,true,,,
html-keyboard-response,313,839519,null,"CHIPMUNK",null,word,,,,, 'CHIPMUNK',,
html-keyboard-response,314,839930,409.25999998580664,"CARTON<img id = ""stim"" ><div class = green_square id = ""topsquare"" ></div><img id = ""stim"" ><div class = green_square  id = ""bottomsquare"" ></div>",32,word_square,response,1,Space,true,,,
html-keyboard-response,315,841433,null,"CARTON",null,word,,,,, 'CARTON',,
html-keyboard-response,316,841936,null,"HORSE<img id = ""stim"" ><div class = red_square id = ""topsquare"" ></div><img id = ""stim"" ><div class = red_square  id = ""bottomsquare"" ></div>",null,word_square,response,0,none,true,,,
html-keyboard-response,317,843438,null,"HORSE",null,word,,,,, 'HORSE',,
html-keyboard-response,318,843942,null,"BATHTUB<img id = ""stim"" ><div class = red_square id = ""topsquare"" ></div><img id = ""stim"" ><div class = red_square  id = ""bottomsquare"" ></div>",null,word_square,response,0,none,true,,,
html-keyboard-response,319,845444,null,"BATHTUB",null,word,,,,, 'BATHTUB',,
html-keyboard-response,320,845947,null,"VAMPIRE<img id = ""stim"" ><div class = red_square id = ""topsquare"" ></div><img id = ""stim"" ><div class = red_square  id = ""bottomsquare"" ></div>",null,word_square,response,0,none,true,,,
html-keyboard-response,321,847450,null,"VAMPIRE",null,word,,,,, 'VAMPIRE',,
html-keyboard-response,322,847889,438.289999961853,"PARENT<img id = ""stim"" ><div class = green_square id = ""topsquare"" ></div><img id = ""stim"" ><div class = green_square  id = ""bottomsquare"" ></div>",32,word_square,response,1,Space,true,,,
html-keyboard-response,323,849391,null,"PARENT",null,word,,,,, 'PARENT',,
html-keyboard-response,324,849893,null,"SISTER<img id = ""stim"" ><div class = green_square id = ""topsquare"" ></div><img id = ""stim"" ><div class = green_square  id = ""bottomsquare"" ></div>",null,word_square,response,1,Space,false,,,
html-keyboard-response,325,851395,null,"SISTER",null,word,,,,, 'SISTER',,
html-keyboard-response,326,851897,null,"CRYSTAL<img id = ""stim"" ><div class = red_square id = ""topsquare"" ></div><img id = ""stim"" ><div class = red_square  id = ""bottomsquare"" ></div>",null,word_square,response,0,none,true,,,
html-keyboard-response,327,853400,null,"CRYSTAL",null,word,,,,, 'CRYSTAL',,
html-keyboard-response,328,853761,360.4650000343099,"POPCORN<img id = ""stim"" ><div class = green_square id = ""topsquare"" ></div><img id = ""stim"" ><div class = green_square  id = ""bottomsquare"" ></div>",32,word_square,response,1,Space,true,,,
html-keyboard-response,329,855264,null,"POPCORN",null,word,,,,, 'POPCORN',,
html-keyboard-response,330,855766,null,"COCOON<img id = ""stim"" ><div class = green_square id = ""topsquare"" ></div><img id = ""stim"" ><div class = green_square  id = ""bottomsquare"" ></div>",null,word_square,response,1,Space,false,,,
html-keyboard-response,331,857268,null,"COCOON",null,word,,,,, 'COCOON',,
html-keyboard-response,332,857770,null,"FINGER<img id = ""stim"" ><div class = red_square id = ""topsquare"" ></div><img id = ""stim"" ><div class = red_square  id = ""bottomsquare"" ></div>",null,word_square,response,0,none,true,,,
html-keyboard-response,333,859273,null,"FINGER",null,word,,,,, 'FINGER',,
html-keyboard-response,334,859634,359.2499999795109,"REPORT<img id = ""stim"" ><div class = green_square id = ""topsquare"" ></div><img id = ""stim"" ><div class = green_square  id = ""bottomsquare"" ></div>",32,word_square,response,1,Space,true,,,
html-keyboard-response,335,861136,null,"REPORT",null,word,,,,, 'REPORT',,
html-keyboard-response,336,861638,null,"NOTEBOOK<img id = ""stim"" ><div class = red_square id = ""topsquare"" ></div><img id = ""stim"" ><div class = red_square  id = ""bottomsquare"" ></div>",null,word_square,response,0,none,true,,,
html-keyboard-response,337,863141,null,"NOTEBOOK",null,word,,,,, 'NOTEBOOK',,
html-keyboard-response,338,863595,452.8149999678135,"TUNNEL<img id = ""stim"" ><div class = green_square id = ""topsquare"" ></div><img id = ""stim"" ><div class = green_square  id = ""bottomsquare"" ></div>",32,word_square,response,1,Space,true,,,
html-keyboard-response,339,865097,null,"TUNNEL",null,word,,,,, 'TUNNEL',,
html-keyboard-response,340,865599,null,"SALMON<img id = ""stim"" ><div class = red_square id = ""topsquare"" ></div><img id = ""stim"" ><div class = red_square  id = ""bottomsquare"" ></div>",null,word_square,response,0,none,true,,,
html-keyboard-response,341,867101,null,"SALMON",null,word,,,,, 'SALMON',,
call-function,342,867101,,"",,,,,,,,,
html-keyboard-response,343,867204,null,"",null,,,,,,,,
math-period,344,869467,4208.104999968782,"",,,,,,,,,1
html-keyboard-response,345,869570,null,"",null,,,,,,,,
math-period,346,871650,3301.2800000142306,"",,,,,,,,,3
html-keyboard-response,347,871752,null,"",null,,,,,,,,
math-period,348,874485,4967.420000000857,"",,,,,,,,,6
html-keyboard-response,349,874586,null,"",null,,,,,,,,
math-period,350,877477,4967.985000112094,"",,,,,,,,,5
html-keyboard-response,351,877579,null,"",null,,,,,,,,
math-period,352,879232,2942.4300000537187,"",,,,,,,,,5
html-keyboard-response,353,879340,null,"",null,,,,,,,,
math-period,354,881054,3132.759999949485,"",,,,,,,,,2
html-keyboard-response,355,881157,null,"",null,,,,,,,,
math-period,356,883102,3636.9950000662357,"",,,,,,,,,4
html-keyboard-response,357,883204,null,"",null,,,,,,,,
math-period,358,885082,3392.845000140369,"",,,,,,,,,5
html-keyboard-response,359,885183,null,"",null,,,,,,,,
math-period,360,886770,2831.3799999887124,"",,,,,,,,,3
html-keyboard-response,361,886873,null,"",null,,,,,,,,
math-period,362,888929,3524.250000016764,"",,,,,,,,,2
html-keyboard-response,363,889032,null,"",null,,,,,,,,
math-period,364,890843,3167.3550001578405,"",,,,,,,,,3
html-keyboard-response,365,890945,null,"",null,,,,,,,,
math-period,366,891103,null,"",,,,,,,,,
html-keyboard-response,367,892106,null,"Recall Period!",null,,,,,,,,
call-function,368,892107,,"",,,,,,,,,
html-keyboard-response,369,892209,null,"",null,,,,,,,,
recall-period,370,896467,12539.87500036601,"",,,,,,,,,parent
html-keyboard-response,371,896570,null,"",null,,,,,,,,
recall-period,372,900945,20282.67999959644,"",,,,,,,,,chipmonk
html-keyboard-response,373,901047,null,"",null,,,,,,,,
recall-period,374,902834,5979.019999853335,"",,,,,,,,,report
html-keyboard-response,375,902937,null,"",null,,,,,,,,
recall-period,376,904522,5504.115000250749,"",,,,,,,,,tunnel
html-keyboard-response,377,904625,null,"",null,,,,,,,,
recall-period,378,909225,22739.029999938793,"",,,,,,,,,sweet
html-keyboard-response,379,909330,null,"",null,,,,,,,,
recall-period,380,918742,57615.735000232235,"",,,,,,,,,teapot
html-keyboard-response,381,918844,null,"",null,,,,,,,,
recall-period,382,925470,35404.38000007998,"",,,,,,,,,table
html-keyboard-response,383,925573,null,"",null,,,,,,,,
recall-period,384,963315,257522.30999979656,"",,,,,,,,,tunnel
html-keyboard-response,385,963432,null,"",null,,,,,,,,
recall-period,386,965476,9282.790000084788,"",,,,,,,,,tower
html-keyboard-response,387,965577,null,"",null,,,,,,,,
recall-period,388,967108,null,"",,,,,,,,,
html-keyboard-response,389,967611,null,"Time's Up!",null,,,,,,,,
html-keyboard-response,390,972472,4860.684999963269,"<p> Good job! You responded correctly to 82% of the GREEN squares.</p>
                  <p>Be sure to keep your accuracy above 80%</p>
                  <p>Press any key to continue the experiment. Thank you!</p>",32,,,,,,,,
html-keyboard-response,391,974430,1956.0749999945983,"<div style=""font-size:48px;"">Press any key to begin list 4 of 24 </div>",32,,,,,,,,
html-keyboard-response,392,976933,null,"<div style=""font-size:60px;"">+</div>",null,,,,,,,,
html-keyboard-response,393,977355,420.58999999426305,"LOVER<img id = ""stim"" ><div class = green_square id = ""topsquare"" ></div><img id = ""stim"" ><div class = green_square  id = ""bottomsquare"" ></div>",32,word_square,response,1,Space,true,,,
html-keyboard-response,394,978858,null,"LOVER",null,word,,,,, 'LOVER',,
html-keyboard-response,395,979245,385.7500000158325,"BROTHER<img id = ""stim"" ><div class = green_square id = ""topsquare"" ></div><img id = ""stim"" ><div class = green_square  id = ""bottomsquare"" ></div>",32,word_square,response,1,Space,true,,,
html-keyboard-response,396,980748,null,"BROTHER",null,word,,,,, 'BROTHER',,
html-keyboard-response,397,981247,497.9649999877438,"LOUNGE<img id = ""stim"" ><div class = red_square id = ""topsquare"" ></div><img id = ""stim"" ><div class = red_square  id = ""bottomsquare"" ></div>",32,word_square,response,0,none,false,,,
html-keyboard-response,398,982749,null,"LOUNGE",null,word,,,,, 'LOUNGE',,
html-keyboard-response,399,983252,null,"APRON<img id = ""stim"" ><div class = red_square id = ""topsquare"" ></div><img id = ""stim"" ><div class = red_square  id = ""bottomsquare"" ></div>",null,word_square,response,0,none,true,,,
html-keyboard-response,400,984754,null,"APRON",null,word,,,,, 'APRON',,
html-keyboard-response,401,985140,384.78500000201166,"STOVE<img id = ""stim"" ><div class = green_square id = ""topsquare"" ></div><img id = ""stim"" ><div class = green_square  id = ""bottomsquare"" ></div>",32,word_square,response,1,Space,true,,,
html-keyboard-response,402,986643,null,"STOVE",null,word,,,,, 'STOVE',,
html-keyboard-response,403,987145,null,"GAZELLE<img id = ""stim"" ><div class = red_square id = ""topsquare"" ></div><img id = ""stim"" ><div class = red_square  id = ""bottomsquare"" ></div>",null,word_square,response,0,none,true,,,
html-keyboard-response,404,988648,null,"GAZELLE",null,word,,,,, 'GAZELLE',,
html-keyboard-response,405,989151,null,"WAITRESS<img id = ""stim"" ><div class = red_square id = ""topsquare"" ></div><img id = ""stim"" ><div class = red_square  id = ""bottomsquare"" ></div>",null,word_square,response,0,none,true,,,
html-keyboard-response,406,990654,null,"WAITRESS",null,word,,,,, 'WAITRESS',,
html-keyboard-response,407,991156,null,"MARBLE<img id = ""stim"" ><div class = red_square id = ""topsquare"" ></div><img id = ""stim"" ><div class = red_square  id = ""bottomsquare"" ></div>",null,word_square,response,0,none,true,,,
html-keyboard-response,408,992658,null,"MARBLE",null,word,,,,, 'MARBLE',,
html-keyboard-response,409,993082,423.61000005621463,"JOINT<img id = ""stim"" ><div class = green_square id = ""topsquare"" ></div><img id = ""stim"" ><div class = green_square  id = ""bottomsquare"" ></div>",32,word_square,response,1,Space,true,,,
html-keyboard-response,410,994586,null,"JOINT",null,word,,,,, 'JOINT',,
html-keyboard-response,411,995062,474.1850000573322,"ANTLER<img id = ""stim"" ><div class = green_square id = ""topsquare"" ></div><img id = ""stim"" ><div class = green_square  id = ""bottomsquare"" ></div>",32,word_square,response,1,Space,true,,,
html-keyboard-response,412,996564,null,"ANTLER",null,word,,,,, 'ANTLER',,
html-keyboard-response,413,997070,null,"YARD<img id = ""stim"" ><div class = red_square id = ""topsquare"" ></div><img id = ""stim"" ><div class = red_square  id = ""bottomsquare"" ></div>",null,word_square,response,0,none,true,,,
html-keyboard-response,414,998574,null,"YARD",null,word,,,,, 'YARD',,
html-keyboard-response,415,999001,425.6700000260025,"BUNNY<img id = ""stim"" ><div class = green_square id = ""topsquare"" ></div><img id = ""stim"" ><div class = green_square  id = ""bottomsquare"" ></div>",32,word_square,response,1,Space,true,,,
html-keyboard-response,416,1000503,null,"BUNNY",null,word,,,,, 'BUNNY',,
html-keyboard-response,417,1001005,null,"DOORBELL<img id = ""stim"" ><div class = green_square id = ""topsquare"" ></div><img id = ""stim"" ><div class = green_square  id = ""bottomsquare"" ></div>",null,word_square,response,1,Space,false,,,
html-keyboard-response,418,1002508,null,"DOORBELL",null,word,,,,, 'DOORBELL',,
html-keyboard-response,419,1003011,null,"PLAZA<img id = ""stim"" ><div class = red_square id = ""topsquare"" ></div><img id = ""stim"" ><div class = red_square  id = ""bottomsquare"" ></div>",null,word_square,response,0,none,true,,,
html-keyboard-response,420,1004514,null,"PLAZA",null,word,,,,, 'PLAZA',,
html-keyboard-response,421,1004896,379.57500002812594,"CASHIER<img id = ""stim"" ><div class = green_square id = ""topsquare"" ></div><img id = ""stim"" ><div class = green_square  id = ""bottomsquare"" ></div>",32,word_square,response,1,Space,true,,,
html-keyboard-response,422,1006398,null,"CASHIER",null,word,,,,, 'CASHIER',,
html-keyboard-response,423,1006901,null,"LITTER<img id = ""stim"" ><div class = red_square id = ""topsquare"" ></div><img id = ""stim"" ><div class = red_square  id = ""bottomsquare"" ></div>",null,word_square,response,0,none,true,,,
html-keyboard-response,424,1008404,null,"LITTER",null,word,,,,, 'LITTER',,
html-keyboard-response,425,1008787,382.1849999949336,"MARKET<img id = ""stim"" ><div class = green_square id = ""topsquare"" ></div><img id = ""stim"" ><div class = green_square  id = ""bottomsquare"" ></div>",32,word_square,response,1,Space,true,,,
html-keyboard-response,426,1010290,null,"MARKET",null,word,,,,, 'MARKET',,
html-keyboard-response,427,1010797,null,"BUTLER<img id = ""stim"" ><div class = red_square id = ""topsquare"" ></div><img id = ""stim"" ><div class = red_square  id = ""bottomsquare"" ></div>",null,word_square,response,0,none,true,,,
html-keyboard-response,428,1012299,null,"BUTLER",null,word,,,,, 'BUTLER',,
call-function,429,1012301,,"",,,,,,,,,
html-keyboard-response,430,1012403,null,"",null,,,,,,,,
math-period,431,1014975,4760.085000074469,"",,,,,,,,,3
html-keyboard-response,432,1015077,null,"",null,,,,,,,,
math-period,433,1020038,9625.690000015311,"",,,,,,,,,5
html-keyboard-response,434,1020142,null,"",null,,,,,,,,
math-period,435,1024380,8201.594999874942,"",,,,,,,,,1
html-keyboard-response,436,1024483,null,"",null,,,,,,,,
math-period,437,1026090,3009.745000046678,"",,,,,,,,,5
html-keyboard-response,438,1026198,null,"",null,,,,,,,,
math-period,439,1027845,3110.1400000043213,"",,,,,,,,,4
html-keyboard-response,440,1027948,null,"",null,,,,,,,,
math-period,441,1030410,3976.950000040233,"",,,,,,,,,5
html-keyboard-response,442,1030513,null,"",null,,,,,,,,
math-period,443,1034348,7420.105000142939,"",,,,,,,,,1
html-keyboard-response,444,1034452,null,"",null,,,,,,,,
math-period,445,1036317,null,"",,,,,,,,,
html-keyboard-response,446,1037320,null,"Recall Period!",null,,,,,,,,
call-function,447,1037320,,"",,,,,,,,,
html-keyboard-response,448,1037422,null,"",null,,,,,,,,
recall-period,449,1040040,9248.345000203699,"",,,,,,,,,lover
html-keyboard-response,450,1040142,null,"",null,,,,,,,,
recall-period,451,1042088,8581.864999840036,"",,,,,,,,,brother
html-keyboard-response,452,1042191,null,"",null,,,,,,,,
recall-period,453,1043888,7327.8149999678135,"",,,,,,,,,lounge
html-keyboard-response,454,1043991,null,"",null,,,,,,,,
recall-period,455,1045217,3514.219999895431,"",,,,,,,,,stone
html-keyboard-response,456,1045329,null,"",null,,,,,,,,
recall-period,457,1049268,8381.875000195578,"",,,,,,,,,butler
html-keyboard-response,458,1049370,null,"",null,,,,,,,,
recall-period,459,1055094,10611.140000051819,"",,,,,,,,,succeed
html-keyboard-response,460,1055197,null,"",null,,,,,,,,
recall-period,461,1061461,27757.949999999255,"",,,,,,,,,land
html-keyboard-response,462,1061568,null,"",null,,,,,,,,
recall-period,463,1107294,271569.5850002812,"",,,,,,,,,loner
html-keyboard-response,464,1107403,null,"",null,,,,,,,,
recall-period,465,1112323,null,"",,,,,,,,,
html-keyboard-response,466,1112825,null,"Time's Up!",null,,,,,,,,
html-keyboard-response,467,1118028,5200.369999976829,"<p> Good job! You responded correctly to 83% of the GREEN squares.</p>
                  <p>Be sure to keep your accuracy above 80%</p>
                  <p>Press any key to continue the experiment. Thank you!</p>",32,,,,,,,,
html-keyboard-response,468,1118806,776.8299999879673,"<div style=""font-size:48px;"">Press any key to begin list 5 of 24 </div>",32,,,,,,,,
html-keyboard-response,469,1121309,null,"<div style=""font-size:60px;"">+</div>",null,,,,,,,,
html-keyboard-response,470,1121784,473.85499998927116,"SNAIL<img id = ""stim"" ><div class = green_square id = ""topsquare"" ></div><img id = ""stim"" ><div class = green_square  id = ""bottomsquare"" ></div>",32,word_square,response,1,Space,true,,,
html-keyboard-response,471,1123286,null,"SNAIL",null,word,,,,, 'SNAIL',,
html-keyboard-response,472,1123788,null,"TRACTOR<img id = ""stim"" ><div class = red_square id = ""topsquare"" ></div><img id = ""stim"" ><div class = red_square  id = ""bottomsquare"" ></div>",null,word_square,response,0,none,true,,,
html-keyboard-response,473,1125290,null,"TRACTOR",null,word,,,,, 'TRACTOR',,
html-keyboard-response,474,1125792,null,"SKUNK<img id = ""stim"" ><div class = red_square id = ""topsquare"" ></div><img id = ""stim"" ><div class = red_square  id = ""bottomsquare"" ></div>",null,word_square,response,0,none,true,,,
html-keyboard-response,475,1127295,null,"SKUNK",null,word,,,,, 'SKUNK',,
html-keyboard-response,476,1127702,404.8699999693781,"SUGAR<img id = ""stim"" ><div class = green_square id = ""topsquare"" ></div><img id = ""stim"" ><div class = green_square  id = ""bottomsquare"" ></div>",32,word_square,response,1,Space,true,,,
html-keyboard-response,477,1129209,null,"SUGAR",null,word,,,,, 'SUGAR',,
html-keyboard-response,478,1129712,null,"COSTUME<img id = ""stim"" ><div class = red_square id = ""topsquare"" ></div><img id = ""stim"" ><div class = red_square  id = ""bottomsquare"" ></div>",null,word_square,response,0,none,true,,,
html-keyboard-response,479,1131215,null,"COSTUME",null,word,,,,, 'COSTUME',,
html-keyboard-response,480,1131618,401.4500000048429,"FARMER<img id = ""stim"" ><div class = green_square id = ""topsquare"" ></div><img id = ""stim"" ><div class = green_square  id = ""bottomsquare"" ></div>",32,word_square,response,1,Space,true,,,
html-keyboard-response,481,1133121,null,"FARMER",null,word,,,,, 'FARMER',,
html-keyboard-response,482,1133624,null,"JURY<img id = ""stim"" ><div class = red_square id = ""topsquare"" ></div><img id = ""stim"" ><div class = red_square  id = ""bottomsquare"" ></div>",null,word_square,response,0,none,true,,,
html-keyboard-response,483,1135127,null,"JURY",null,word,,,,, 'JURY',,
html-keyboard-response,484,1135629,null,"HAWK<img id = ""stim"" ><div class = red_square id = ""topsquare"" ></div><img id = ""stim"" ><div class = red_square  id = ""bottomsquare"" ></div>",null,word_square,response,0,none,true,,,
html-keyboard-response,485,1137131,null,"HAWK",null,word,,,,, 'HAWK',,
html-keyboard-response,486,1137602,465.3900000266731,"PATROL<img id = ""stim"" ><div class = green_square id = ""topsquare"" ></div><img id = ""stim"" ><div class = green_square  id = ""bottomsquare"" ></div>",32,word_square,response,1,Space,true,,,
html-keyboard-response,487,1139105,null,"PATROL",null,word,,,,, 'PATROL',,
html-keyboard-response,488,1139608,null,"POLICE<img id = ""stim"" ><div class = green_square id = ""topsquare"" ></div><img id = ""stim"" ><div class = green_square  id = ""bottomsquare"" ></div>",null,word_square,response,1,Space,false,,,
html-keyboard-response,489,1141110,null,"POLICE",null,word,,,,, 'POLICE',,
html-keyboard-response,490,1141612,null,"CHAPEL<img id = ""stim"" ><div class = red_square id = ""topsquare"" ></div><img id = ""stim"" ><div class = red_square  id = ""bottomsquare"" ></div>",null,word_square,response,0,none,true,,,
html-keyboard-response,491,1143115,null,"CHAPEL",null,word,,,,, 'CHAPEL',,
html-keyboard-response,492,1143543,426.0299999732524,"DOG<img id = ""stim"" ><div class = green_square id = ""topsquare"" ></div><img id = ""stim"" ><div class = green_square  id = ""bottomsquare"" ></div>",32,word_square,response,1,Space,true,,,
html-keyboard-response,493,1145045,null,"DOG",null,word,,,,, 'DOG',,
html-keyboard-response,494,1145548,null,"CAFE<img id = ""stim"" ><div class = green_square id = ""topsquare"" ></div><img id = ""stim"" ><div class = green_square  id = ""bottomsquare"" ></div>",null,word_square,response,1,Space,false,,,
html-keyboard-response,495,1147050,null,"CAFE",null,word,,,,, 'CAFE',,
html-keyboard-response,496,1147552,null,"PERSON<img id = ""stim"" ><div class = red_square id = ""topsquare"" ></div><img id = ""stim"" ><div class = red_square  id = ""bottomsquare"" ></div>",null,word_square,response,0,none,true,,,
html-keyboard-response,497,1149054,null,"PERSON",null,word,,,,, 'PERSON',,
html-keyboard-response,498,1149505,449.26000002305955,"TRIBE<img id = ""stim"" ><div class = green_square id = ""topsquare"" ></div><img id = ""stim"" ><div class = green_square  id = ""bottomsquare"" ></div>",32,word_square,response,1,Space,true,,,
html-keyboard-response,499,1151007,null,"TRIBE",null,word,,,,, 'TRIBE',,
html-keyboard-response,500,1151513,null,"NOMAD<img id = ""stim"" ><div class = red_square id = ""topsquare"" ></div><img id = ""stim"" ><div class = red_square  id = ""bottomsquare"" ></div>",null,word_square,response,0,none,true,,,
html-keyboard-response,501,1153015,null,"NOMAD",null,word,,,,, 'NOMAD',,
html-keyboard-response,502,1153518,null,"CREEK<img id = ""stim"" ><div class = red_square id = ""topsquare"" ></div><img id = ""stim"" ><div class = red_square  id = ""bottomsquare"" ></div>",null,word_square,response,0,none,true,,,
html-keyboard-response,503,1155020,null,"CREEK",null,word,,,,, 'CREEK',,
html-keyboard-response,504,1155423,402.0050000399351,"TURTLE<img id = ""stim"" ><div class = green_square id = ""topsquare"" ></div><img id = ""stim"" ><div class = green_square  id = ""bottomsquare"" ></div>",32,word_square,response,1,Space,true,,,
html-keyboard-response,505,1156925,null,"TURTLE",null,word,,,,, 'TURTLE',,
call-function,506,1156926,,"",,,,,,,,,
html-keyboard-response,507,1157029,null,"",null,,,,,,,,
math-period,508,1161070,7404.510000138544,"",,,,,,,,,2
html-keyboard-response,509,1161173,null,"",null,,,,,,,,
math-period,510,1163073,3502.3899999214336,"",,,,,,,,,2
html-keyboard-response,511,1163187,null,"",null,,,,,,,,
math-period,512,1164738,2850.7199998712167,"",,,,,,,,,4
html-keyboard-response,513,1164841,null,"",null,,,,,,,,
math-period,514,1166965,3975.9850001428276,"",,,,,,,,,1
html-keyboard-response,515,1167067,null,"",null,,,,,,,,
math-period,516,1169980,5641.639999812469,"",,,,,,,,,4
html-keyboard-response,517,1170082,null,"",null,,,,,,,,
math-period,518,1171735,3100.304999970831,"",,,,,,,,,2
html-keyboard-response,519,1171847,null,"",null,,,,,,,,
math-period,520,1175671,5689.929999876767,"",,,,,,,,,2
html-keyboard-response,521,1175773,null,"",null,,,,,,,,
math-period,522,1177360,2899.419999914244,"",,,,,,,,,3
html-keyboard-response,523,1177463,null,"",null,,,,,,,,
math-period,524,1180927,null,"",,,,,,,,,
html-keyboard-response,525,1181929,null,"Recall Period!",null,,,,,,,,
call-function,526,1181930,,"",,,,,,,,,
html-keyboard-response,527,1182032,null,"",null,,,,,,,,
recall-period,528,1184335,9714.980000047944,"",,,,,,,,,snail
html-keyboard-response,529,1184438,null,"",null,,,,,,,,
recall-period,530,1186338,7558.27500007581,"",,,,,,,,,tractor
html-keyboard-response,531,1186441,null,"",null,,,,,,,,
recall-period,532,1188903,7924.239999731071,"",,,,,,,,,trunk
html-keyboard-response,533,1189004,null,"",null,,,,,,,,
recall-period,534,1190320,4490.139999776147,"",,,,,,,,,sugar
html-keyboard-response,535,1190423,null,"",null,,,,,,,,
recall-period,536,1192953,3901.1400000890717,"",,,,,,,,,dog
html-keyboard-response,537,1193056,null,"",null,,,,,,,,
recall-period,538,1196080,11171.350000426173,"",,,,,,,,,tunnel
html-keyboard-response,539,1196189,null,"",null,,,,,,,,
recall-period,540,1216466,79367.91999987327,"",,,,,,,,,dog
html-keyboard-response,541,1216570,null,"",null,,,,,,,,
recall-period,542,1220651,18303.005000110716,"",,,,,,,,,deer
html-keyboard-response,543,1220767,null,"",null,,,,,,,,
recall-period,544,1228323,35937.35500006005,"",,,,,,,,,house
html-keyboard-response,545,1228425,null,"",null,,,,,,,,
recall-period,546,1230101,6455.43000032194,"",,,,,,,,,chapel
html-keyboard-response,547,1230205,null,"",null,,,,,,,,
recall-period,548,1238876,41258.534999913536,"",,,,,,,,,hunt
html-keyboard-response,549,1238978,null,"",null,,,,,,,,
recall-period,550,1256932,null,"",,,,,,,,,
html-keyboard-response,551,1257436,null,"Time's Up!",null,,,,,,,,
html-keyboard-response,552,1290923,33484.395000035875,"<p> Good job! You responded correctly to 84% of the GREEN squares.</p>
                  <p>Be sure to keep your accuracy above 80%</p>
                  <p>Press any key to continue the experiment. Thank you!</p>",32,,,,,,,,
html-keyboard-response,553,1291842,916.7750000488013,"<div style=""font-size:48px;"">Press any key to begin list 6 of 24 </div>",32,,,,,,,,
html-keyboard-response,554,1294345,null,"<div style=""font-size:60px;"">+</div>",null,,,,,,,,
html-keyboard-response,555,1294861,null,"PROTON<img id = ""stim"" ><div class = green_square id = ""topsquare"" ></div><img id = ""stim"" ><div class = green_square  id = ""bottomsquare"" ></div>",null,word_square,response,1,Space,false,,,
html-keyboard-response,556,1296382,null,"PROTON",null,word,,,,, 'PROTON',,
html-keyboard-response,557,1296885,null,"THREAD<img id = ""stim"" ><div class = red_square id = ""topsquare"" ></div><img id = ""stim"" ><div class = red_square  id = ""bottomsquare"" ></div>",null,word_square,response,0,none,true,,,
html-keyboard-response,558,1298389,null,"THREAD",null,word,,,,, 'THREAD',,
html-keyboard-response,559,1298892,null,"YARN<img id = ""stim"" ><div class = red_square id = ""topsquare"" ></div><img id = ""stim"" ><div class = red_square  id = ""bottomsquare"" ></div>",null,word_square,response,0,none,true,,,
html-keyboard-response,560,1300394,null,"YARN",null,word,,,,, 'YARN',,
html-keyboard-response,561,1300864,469.11499998532236,"FLASK<img id = ""stim"" ><div class = green_square id = ""topsquare"" ></div><img id = ""stim"" ><div class = green_square  id = ""bottomsquare"" ></div>",32,word_square,response,1,Space,true,,,
html-keyboard-response,562,1302367,null,"FLASK",null,word,,,,, 'FLASK',,
html-keyboard-response,563,1302870,null,"FOSSIL<img id = ""stim"" ><div class = red_square id = ""topsquare"" ></div><img id = ""stim"" ><div class = red_square  id = ""bottomsquare"" ></div>",null,word_square,response,0,none,true,,,
html-keyboard-response,564,1304373,null,"FOSSIL",null,word,,,,, 'FOSSIL',,
html-keyboard-response,565,1304875,null,"PEBBLE<img id = ""stim"" ><div class = green_square id = ""topsquare"" ></div><img id = ""stim"" ><div class = green_square  id = ""bottomsquare"" ></div>",null,word_square,response,1,Space,false,,,
html-keyboard-response,566,1306378,null,"PEBBLE",null,word,,,,, 'PEBBLE',,
html-keyboard-response,567,1306880,null,"COOKBOOK<img id = ""stim"" ><div class = red_square id = ""topsquare"" ></div><img id = ""stim"" ><div class = red_square  id = ""bottomsquare"" ></div>",null,word_square,response,0,none,true,,,
html-keyboard-response,568,1308384,null,"COOKBOOK",null,word,,,,, 'COOKBOOK',,
html-keyboard-response,569,1308887,null,"RAILROAD<img id = ""stim"" ><div class = red_square id = ""topsquare"" ></div><img id = ""stim"" ><div class = red_square  id = ""bottomsquare"" ></div>",null,word_square,response,0,none,true,,,
html-keyboard-response,570,1310389,null,"RAILROAD",null,word,,,,, 'RAILROAD',,
html-keyboard-response,571,1310787,396.84000005945563,"FLESH<img id = ""stim"" ><div class = green_square id = ""topsquare"" ></div><img id = ""stim"" ><div class = green_square  id = ""bottomsquare"" ></div>",32,word_square,response,1,Space,true,,,
html-keyboard-response,572,1312294,null,"FLESH",null,word,,,,, 'FLESH',,
html-keyboard-response,573,1312766,467.2850000206381,"WINDSHIELD<img id = ""stim"" ><div class = green_square id = ""topsquare"" ></div><img id = ""stim"" ><div class = green_square  id = ""bottomsquare"" ></div>",32,word_square,response,1,Space,true,,,
html-keyboard-response,574,1314268,null,"WINDSHIELD",null,word,,,,, 'WINDSHIELD',,
html-keyboard-response,575,1314771,null,"SAUSAGE<img id = ""stim"" ><div class = red_square id = ""topsquare"" ></div><img id = ""stim"" ><div class = red_square  id = ""bottomsquare"" ></div>",null,word_square,response,0,none,true,,,
html-keyboard-response,576,1316274,null,"SAUSAGE",null,word,,,,, 'SAUSAGE',,
html-keyboard-response,577,1316749,473.72999996878207,"ADULT<img id = ""stim"" ><div class = green_square id = ""topsquare"" ></div><img id = ""stim"" ><div class = green_square  id = ""bottomsquare"" ></div>",32,word_square,response,1,Space,true,,,
html-keyboard-response,578,1318256,null,"ADULT",null,word,,,,, 'ADULT',,
html-keyboard-response,579,1318758,null,"GHETTO<img id = ""stim"" ><div class = green_square id = ""topsquare"" ></div><img id = ""stim"" ><div class = green_square  id = ""bottomsquare"" ></div>",null,word_square,response,1,Space,false,,,
html-keyboard-response,580,1320260,null,"GHETTO",null,word,,,,, 'GHETTO',,
html-keyboard-response,581,1320763,null,"HOOD<img id = ""stim"" ><div class = red_square id = ""topsquare"" ></div><img id = ""stim"" ><div class = red_square  id = ""bottomsquare"" ></div>",null,word_square,response,0,none,true,,,
html-keyboard-response,582,1322265,null,"HOOD",null,word,,,,, 'HOOD',,
html-keyboard-response,583,1322769,null,"THIMBLE<img id = ""stim"" ><div class = green_square id = ""topsquare"" ></div><img id = ""stim"" ><div class = green_square  id = ""bottomsquare"" ></div>",null,word_square,response,1,Space,false,,,
html-keyboard-response,584,1324271,null,"THIMBLE",null,word,,,,, 'THIMBLE',,
html-keyboard-response,585,1324774,null,"STONE<img id = ""stim"" ><div class = red_square id = ""topsquare"" ></div><img id = ""stim"" ><div class = red_square  id = ""bottomsquare"" ></div>",null,word_square,response,0,none,true,,,
html-keyboard-response,586,1326279,null,"STONE",null,word,,,,, 'STONE',,
html-keyboard-response,587,1326782,null,"COBWEB<img id = ""stim"" ><div class = red_square id = ""topsquare"" ></div><img id = ""stim"" ><div class = red_square  id = ""bottomsquare"" ></div>",null,word_square,response,0,none,true,,,
html-keyboard-response,588,1328289,null,"COBWEB",null,word,,,,, 'COBWEB',,
html-keyboard-response,589,1328652,362.0100000407547,"FARM<img id = ""stim"" ><div class = green_square id = ""topsquare"" ></div><img id = ""stim"" ><div class = green_square  id = ""bottomsquare"" ></div>",32,word_square,response,1,Space,true,,,
html-keyboard-response,590,1330155,null,"FARM",null,word,,,,, 'FARM',,
call-function,591,1330157,,"",,,,,,,,,
html-keyboard-response,592,1330259,null,"",null,,,,,,,,
math-period,593,1334772,8864.695000112988,"",,,,,,,,,1
html-keyboard-response,594,1334875,null,"",null,,,,,,,,
math-period,595,1336639,3322.1400000620633,"",,,,,,,,,1
html-keyboard-response,596,1336741,null,"",null,,,,,,,,
math-period,597,1338597,3326.820000074804,"",,,,,,,,,5
html-keyboard-response,598,1338699,null,"",null,,,,,,,,
math-period,599,1340329,3033.8449999690056,"",,,,,,,,,6
html-keyboard-response,600,1340441,null,"",null,,,,,,,,
math-period,601,1343434,5691.920000012033,"",,,,,,,,,3
html-keyboard-response,602,1343536,null,"",null,,,,,,,,
math-period,603,1345483,3663.8750000856817,"",,,,,,,,,4
html-keyboard-response,604,1345592,null,"",null,,,,,,,,
math-period,605,1347969,4581.7599998554215,"",,,,,,,,,2
html-keyboard-response,606,1348071,null,"",null,,,,,,,,
math-period,607,1351512,6609.700000029989,"",,,,,,,,,5
html-keyboard-response,608,1351615,null,"",null,,,,,,,,
math-period,609,1353807,4178.079999983311,"",,,,,,,,,2
html-keyboard-response,610,1353938,null,"",null,,,,,,,,
math-period,611,1354172,null,"",,,,,,,,,
html-keyboard-response,612,1355175,null,"Recall Period!",null,,,,,,,,
call-function,613,1355177,,"",,,,,,,,,
html-keyboard-response,614,1355279,null,"",null,,,,,,,,
recall-period,615,1356620,1339.5550000714138,"",,,,,,,,,
html-keyboard-response,616,1356721,null,"",null,,,,,,,,
recall-period,617,1361255,28984.655000269413,"",,,,,,,,,thimble
html-keyboard-response,618,1361358,null,"",null,,,,,,,,
recall-period,619,1362381,2148.389999871142,"",,,,,,,,,web
html-keyboard-response,620,1362484,null,"",null,,,,,,,,
recall-period,621,1364878,8938.014999730512,"",,,,,,,,,cobweb
html-keyboard-response,622,1364980,null,"",null,,,,,,,,
recall-period,623,1368545,5797.190000070259,"",,,,,,,,,farm
html-keyboard-response,624,1368655,null,"",null,,,,,,,,
recall-period,625,1370503,6194.025000091642,"",,,,,,,,,think
html-keyboard-response,626,1370606,null,"",null,,,,,,,,
recall-period,627,1375115,21170.694999862462,"",,,,,,,,,cloud
html-keyboard-response,628,1375218,null,"",null,,,,,,,,
recall-period,629,1377613,10929.98500005342,"",,,,,,,,,cobbler
html-keyboard-response,630,1377715,null,"",null,,,,,,,,
recall-period,631,1390214,59916.18499986362,"",,,,,,,,,farm
html-keyboard-response,632,1390317,null,"",null,,,,,,,,
recall-period,633,1430178,null,"",,,,,,,,,
html-keyboard-response,634,1430681,null,"Time's Up!",null,,,,,,,,
html-keyboard-response,635,1433459,2775.7949999067932,"<p> Good job! You responded correctly to 83% of the GREEN squares.</p>
                  <p>Be sure to keep your accuracy above 80%</p>
                  <p>Press any key to continue the experiment. Thank you!</p>",32,,,,,,,,
html-keyboard-response,636,1434988,1527.3049999959767,"<div style=""font-size:48px;"">Press any key to begin list 7 of 24 </div>",32,,,,,,,,
html-keyboard-response,637,1437492,null,"<div style=""font-size:60px;"">+</div>",null,,,,,,,,
html-keyboard-response,638,1437995,null,"VILLAIN<img id = ""stim"" ><div class = red_square id = ""topsquare"" ></div><img id = ""stim"" ><div class = red_square  id = ""bottomsquare"" ></div>",null,word_square,response,0,none,true,,,
html-keyboard-response,639,1439496,null,"VILLAIN",null,word,,,,, 'VILLAIN',,
html-keyboard-response,640,1439983,485.0050000241026,"BRIDE<img id = ""stim"" ><div class = green_square id = ""topsquare"" ></div><img id = ""stim"" ><div class = green_square  id = ""bottomsquare"" ></div>",32,word_square,response,1,Space,true,,,
html-keyboard-response,641,1441486,null,"BRIDE",null,word,,,,, 'BRIDE',,
html-keyboard-response,642,1441964,476.4300000388175,"COOKIE<img id = ""stim"" ><div class = green_square id = ""topsquare"" ></div><img id = ""stim"" ><div class = green_square  id = ""bottomsquare"" ></div>",32,word_square,response,1,Space,true,,,
html-keyboard-response,643,1443467,null,"COOKIE",null,word,,,,, 'COOKIE',,
html-keyboard-response,644,1443970,null,"CHICKEN<img id = ""stim"" ><div class = red_square id = ""topsquare"" ></div><img id = ""stim"" ><div class = red_square  id = ""bottomsquare"" ></div>",null,word_square,response,0,none,true,,,
html-keyboard-response,645,1445472,null,"CHICKEN",null,word,,,,, 'CHICKEN',,
html-keyboard-response,646,1445833,359.885000041686,"BARREL<img id = ""stim"" ><div class = green_square id = ""topsquare"" ></div><img id = ""stim"" ><div class = green_square  id = ""bottomsquare"" ></div>",32,word_square,response,1,Space,true,,,
html-keyboard-response,647,1447336,null,"BARREL",null,word,,,,, 'BARREL',,
html-keyboard-response,648,1447839,null,"CRUTCH<img id = ""stim"" ><div class = red_square id = ""topsquare"" ></div><img id = ""stim"" ><div class = red_square  id = ""bottomsquare"" ></div>",null,word_square,response,0,none,true,,,
html-keyboard-response,649,1449342,null,"CRUTCH",null,word,,,,, 'CRUTCH',,
html-keyboard-response,650,1449776,430.4800000973046,"FOOT<img id = ""stim"" ><div class = green_square id = ""topsquare"" ></div><img id = ""stim"" ><div class = green_square  id = ""bottomsquare"" ></div>",32,word_square,response,1,Space,true,,,
html-keyboard-response,651,1451279,null,"FOOT",null,word,,,,, 'FOOT',,
html-keyboard-response,652,1451781,null,"BUCKLE<img id = ""stim"" ><div class = green_square id = ""topsquare"" ></div><img id = ""stim"" ><div class = green_square  id = ""bottomsquare"" ></div>",null,word_square,response,1,Space,false,,,
html-keyboard-response,653,1453284,null,"BUCKLE",null,word,,,,, 'BUCKLE',,
html-keyboard-response,654,1453787,null,"PORPOISE<img id = ""stim"" ><div class = red_square id = ""topsquare"" ></div><img id = ""stim"" ><div class = red_square  id = ""bottomsquare"" ></div>",null,word_square,response,0,none,true,,,
html-keyboard-response,655,1455290,null,"PORPOISE",null,word,,,,, 'PORPOISE',,
html-keyboard-response,656,1455793,null,"GUITAR<img id = ""stim"" ><div class = red_square id = ""topsquare"" ></div><img id = ""stim"" ><div class = red_square  id = ""bottomsquare"" ></div>",null,word_square,response,0,none,true,,,
html-keyboard-response,657,1457295,null,"GUITAR",null,word,,,,, 'GUITAR',,
html-keyboard-response,658,1457781,485.344999935478,"SHELTER<img id = ""stim"" ><div class = green_square id = ""topsquare"" ></div><img id = ""stim"" ><div class = green_square  id = ""bottomsquare"" ></div>",32,word_square,response,1,Space,true,,,
html-keyboard-response,659,1459283,null,"SHELTER",null,word,,,,, 'SHELTER',,
html-keyboard-response,660,1459785,null,"KLEENEX<img id = ""stim"" ><div class = red_square id = ""topsquare"" ></div><img id = ""stim"" ><div class = red_square  id = ""bottomsquare"" ></div>",null,word_square,response,0,none,true,,,
html-keyboard-response,661,1461288,null,"KLEENEX",null,word,,,,, 'KLEENEX',,
html-keyboard-response,662,1461790,null,"CATCHER<img id = ""stim"" ><div class = red_square id = ""topsquare"" ></div><img id = ""stim"" ><div class = red_square  id = ""bottomsquare"" ></div>",null,word_square,response,0,none,true,,,
html-keyboard-response,663,1463292,null,"CATCHER",null,word,,,,, 'CATCHER',,
html-keyboard-response,664,1463722,427.90000000968575,"SURGEON<img id = ""stim"" ><div class = green_square id = ""topsquare"" ></div><img id = ""stim"" ><div class = green_square  id = ""bottomsquare"" ></div>",32,word_square,response,1,Space,true,,,
html-keyboard-response,665,1465225,null,"SURGEON",null,word,,,,, 'SURGEON',,
html-keyboard-response,666,1465727,null,"WHISTLE<img id = ""stim"" ><div class = red_square id = ""topsquare"" ></div><img id = ""stim"" ><div class = red_square  id = ""bottomsquare"" ></div>",null,word_square,response,0,none,true,,,
html-keyboard-response,667,1467228,null,"WHISTLE",null,word,,,,, 'WHISTLE',,
html-keyboard-response,668,1467730,null,"DRAWER<img id = ""stim"" ><div class = green_square id = ""topsquare"" ></div><img id = ""stim"" ><div class = green_square  id = ""bottomsquare"" ></div>",null,word_square,response,1,Space,false,,,
html-keyboard-response,669,1469233,null,"DRAWER",null,word,,,,, 'DRAWER',,
html-keyboard-response,670,1469737,null,"HONEY<img id = ""stim"" ><div class = green_square id = ""topsquare"" ></div><img id = ""stim"" ><div class = green_square  id = ""bottomsquare"" ></div>",null,word_square,response,1,Space,false,,,
html-keyboard-response,671,1471240,null,"HONEY",null,word,,,,, 'HONEY',,
html-keyboard-response,672,1471742,null,"MUSTARD<img id = ""stim"" ><div class = red_square id = ""topsquare"" ></div><img id = ""stim"" ><div class = red_square  id = ""bottomsquare"" ></div>",null,word_square,response,0,none,true,,,
html-keyboard-response,673,1473244,null,"MUSTARD",null,word,,,,, 'MUSTARD',,
call-function,674,1473245,,"",,,,,,,,,
html-keyboard-response,675,1473347,null,"",null,,,,,,,,
math-period,676,1477266,7496.675000176765,"",,,,,,,,,1
html-keyboard-response,677,1477370,null,"",null,,,,,,,,
math-period,678,1479065,3073.780000093393,"",,,,,,,,,2
html-keyboard-response,679,1479168,null,"",null,,,,,,,,
math-period,680,1480888,3166.0000000847504,"",,,,,,,,,1
html-keyboard-response,681,1480991,null,"",null,,,,,,,,
math-period,682,1482846,3527.445000014268,"",,,,,,,,,4
html-keyboard-response,683,1482948,null,"",null,,,,,,,,
math-period,684,1484916,3707.5550000881776,"",,,,,,,,,1
html-keyboard-response,685,1485022,null,"",null,,,,,,,,
math-period,686,1487188,4103.864999953657,"",,,,,,,,,4
html-keyboard-response,687,1487290,null,"",null,,,,,,,,
math-period,688,1489236,3730.60500016436,"",,,,,,,,,4
html-keyboard-response,689,1489340,null,"",null,,,,,,,,
math-period,690,1491418,3950.3100001020357,"",,,,,,,,,4
html-keyboard-response,691,1491521,null,"",null,,,,,,,,
math-period,692,1493945,4656.8249999545515,"",,,,,,,,,1
html-keyboard-response,693,1494050,null,"",null,,,,,,,,
math-period,694,1497201,6118.769999942742,"",,,,,,,,,5
html-keyboard-response,695,1497304,null,"",null,,,,,,,,
math-period,696,1497309,null,"",,,,,,,,,
html-keyboard-response,697,1498312,null,"Recall Period!",null,,,,,,,,
call-function,698,1498313,,"",,,,,,,,,
html-keyboard-response,699,1498415,null,"",null,,,,,,,,
recall-period,700,1502039,15993.514999281615,"",,,,,,,,,chicken
html-keyboard-response,701,1502142,null,"",null,,,,,,,,
recall-period,702,1505976,34498.13500093296,"",,,,,,,,,barrel
html-keyboard-response,703,1506078,null,"",null,,,,,,,,
recall-period,704,1507506,3155.509999836795,"",,,,,,,,,foot
html-keyboard-response,705,1507616,null,"",null,,,,,,,,
recall-period,706,1509059,4301.305000088178,"",,,,,,,,,honey
html-keyboard-response,707,1509161,null,"",null,,,,,,,,
recall-period,708,1513671,24978.830000385642,"",,,,,,,,,hammack
html-keyboard-response,709,1513783,null,"",null,,,,,,,,
recall-period,710,1515404,4357.484999578446,"",,,,,,,,,cloud
html-keyboard-response,711,1515507,null,"",null,,,,,,,,
recall-period,712,1544586,143386.0650000861,"",,,,,,,,,land
html-keyboard-response,713,1544689,null,"",null,,,,,,,,
recall-period,714,1573314,null,"",,,,,,,,,
html-keyboard-response,715,1573817,null,"Time's Up!",null,,,,,,,,
html-keyboard-response,716,1653063,79241.51500000153,"<p> Good job! You responded correctly to 83% of the GREEN squares.</p>
                  <p>Be sure to keep your accuracy above 80%</p>
                  <p>Press any key to continue the experiment. Thank you!</p>",32,,,,,,,,
html-keyboard-response,717,1657831,4766.4199999999255,"<div style=""font-size:48px;"">Press any key to begin list 8 of 24 </div>",32,,,,,,,,
html-keyboard-response,718,1660335,null,"<div style=""font-size:60px;"">+</div>",null,,,,,,,,
html-keyboard-response,719,1660838,null,"BELT<img id = ""stim"" ><div class = red_square id = ""topsquare"" ></div><img id = ""stim"" ><div class = red_square  id = ""bottomsquare"" ></div>",null,word_square,response,0,none,true,,,
html-keyboard-response,720,1662341,null,"BELT",null,word,,,,, 'BELT',,
html-keyboard-response,721,1662781,438.4050000226125,"PREACHER<img id = ""stim"" ><div class = green_square id = ""topsquare"" ></div><img id = ""stim"" ><div class = green_square  id = ""bottomsquare"" ></div>",32,word_square,response,1,Space,true,,,
html-keyboard-response,722,1664284,null,"PREACHER",null,word,,,,, 'PREACHER',,
html-keyboard-response,723,1664786,null,"IDOL<img id = ""stim"" ><div class = green_square id = ""topsquare"" ></div><img id = ""stim"" ><div class = green_square  id = ""bottomsquare"" ></div>",null,word_square,response,1,Space,false,,,
html-keyboard-response,724,1666288,null,"IDOL",null,word,,,,, 'IDOL',,
html-keyboard-response,725,1666792,null,"SOCKET<img id = ""stim"" ><div class = red_square id = ""topsquare"" ></div><img id = ""stim"" ><div class = red_square  id = ""bottomsquare"" ></div>",null,word_square,response,0,none,true,,,
html-keyboard-response,726,1668293,null,"SOCKET",null,word,,,,, 'SOCKET',,
html-keyboard-response,727,1668797,null,"DIVER<img id = ""stim"" ><div class = green_square id = ""topsquare"" ></div><img id = ""stim"" ><div class = green_square  id = ""bottomsquare"" ></div>",null,word_square,response,1,Space,false,,,
html-keyboard-response,728,1670299,null,"DIVER",null,word,,,,, 'DIVER',,
html-keyboard-response,729,1670802,null,"WINDOW<img id = ""stim"" ><div class = red_square id = ""topsquare"" ></div><img id = ""stim"" ><div class = red_square  id = ""bottomsquare"" ></div>",null,word_square,response,0,none,true,,,
html-keyboard-response,730,1672303,null,"WINDOW",null,word,,,,, 'WINDOW',,
html-keyboard-response,731,1672806,null,"MARINE<img id = ""stim"" ><div class = green_square id = ""topsquare"" ></div><img id = ""stim"" ><div class = green_square  id = ""bottomsquare"" ></div>",null,word_square,response,1,Space,false,,,
html-keyboard-response,732,1674307,null,"MARINE",null,word,,,,, 'MARINE',,
html-keyboard-response,733,1674750,441.7100000428036,"ATTIC<img id = ""stim"" ><div class = green_square id = ""topsquare"" ></div><img id = ""stim"" ><div class = green_square  id = ""bottomsquare"" ></div>",32,word_square,response,1,Space,true,,,
html-keyboard-response,734,1676252,null,"ATTIC",null,word,,,,, 'ATTIC',,
html-keyboard-response,735,1676768,null,"SALESMAN<img id = ""stim"" ><div class = red_square id = ""topsquare"" ></div><img id = ""stim"" ><div class = red_square  id = ""bottomsquare"" ></div>",null,word_square,response,0,none,true,,,
html-keyboard-response,736,1678271,null,"SALESMAN",null,word,,,,, 'SALESMAN',,
html-keyboard-response,737,1678773,null,"STREAM<img id = ""stim"" ><div class = red_square id = ""topsquare"" ></div><img id = ""stim"" ><div class = red_square  id = ""bottomsquare"" ></div>",null,word_square,response,0,none,true,,,
html-keyboard-response,738,1680276,null,"STREAM",null,word,,,,, 'STREAM',,
html-keyboard-response,739,1680646,368.9399999566376,"HAMMER<img id = ""stim"" ><div class = green_square id = ""topsquare"" ></div><img id = ""stim"" ><div class = green_square  id = ""bottomsquare"" ></div>",32,word_square,response,1,Space,true,,,
html-keyboard-response,740,1682148,null,"HAMMER",null,word,,,,, 'HAMMER',,
html-keyboard-response,741,1682656,null,"TUTU<img id = ""stim"" ><div class = red_square id = ""topsquare"" ></div><img id = ""stim"" ><div class = red_square  id = ""bottomsquare"" ></div>",null,word_square,response,0,none,true,,,
html-keyboard-response,742,1684159,null,"TUTU",null,word,,,,, 'TUTU',,
html-keyboard-response,743,1684663,null,"XEROX<img id = ""stim"" ><div class = red_square id = ""topsquare"" ></div><img id = ""stim"" ><div class = red_square  id = ""bottomsquare"" ></div>",null,word_square,response,0,none,true,,,
html-keyboard-response,744,1686166,null,"XEROX",null,word,,,,, 'XEROX',,
html-keyboard-response,745,1686668,null,"WRENCH<img id = ""stim"" ><div class = green_square id = ""topsquare"" ></div><img id = ""stim"" ><div class = green_square  id = ""bottomsquare"" ></div>",null,word_square,response,1,Space,false,,,
html-keyboard-response,746,1688171,null,"WRENCH",null,word,,,,, 'WRENCH',,
html-keyboard-response,747,1688673,null,"HATCHET<img id = ""stim"" ><div class = red_square id = ""topsquare"" ></div><img id = ""stim"" ><div class = red_square  id = ""bottomsquare"" ></div>",null,word_square,response,0,none,true,,,
html-keyboard-response,748,1690176,null,"HATCHET",null,word,,,,, 'HATCHET',,
html-keyboard-response,749,1690678,null,"STRANGER<img id = ""stim"" ><div class = green_square id = ""topsquare"" ></div><img id = ""stim"" ><div class = green_square  id = ""bottomsquare"" ></div>",null,word_square,response,1,Space,false,,,
html-keyboard-response,750,1692180,null,"STRANGER",null,word,,,,, 'STRANGER',,
html-keyboard-response,751,1692683,null,"GLASS<img id = ""stim"" ><div class = green_square id = ""topsquare"" ></div><img id = ""stim"" ><div class = green_square  id = ""bottomsquare"" ></div>",null,word_square,response,1,Space,false,,,
html-keyboard-response,752,1694185,null,"GLASS",null,word,,,,, 'GLASS',,
html-keyboard-response,753,1694687,null,"BLUEPRINT<img id = ""stim"" ><div class = red_square id = ""topsquare"" ></div><img id = ""stim"" ><div class = red_square  id = ""bottomsquare"" ></div>",null,word_square,response,0,none,true,,,
html-keyboard-response,754,1696190,null,"BLUEPRINT",null,word,,,,, 'BLUEPRINT',,
call-function,755,1696191,,"",,,,,,,,,
html-keyboard-response,756,1696294,null,"",null,,,,,,,,
math-period,757,1701032,10561.149999964982,"",,,,,,,,,6 
html-keyboard-response,758,1701142,null,"",null,,,,,,,,
math-period,759,1703640,4429.7949998872355,"",,,,,,,,,6
html-keyboard-response,760,1703742,null,"",null,,,,,,,,
math-period,761,1706836,5597.489999956451,"",,,,,,,,,5
html-keyboard-response,762,1706938,null,"",null,,,,,,,,
math-period,763,1709386,4116.489999811165,"",,,,,,,,,4
html-keyboard-response,764,1709490,null,"",null,,,,,,,,
math-period,765,1711539,3391.1850000731647,"",,,,,,,,,5
html-keyboard-response,766,1711642,null,"",null,,,,,,,,
math-period,767,1714171,4602.735000080429,"",,,,,,,,,5
html-keyboard-response,768,1714274,null,"",null,,,,,,,,
math-period,769,1716375,3703.31500004977,"",,,,,,,,,4
html-keyboard-response,770,1716477,null,"",null,,,,,,,,
math-period,771,1718491,3313.4599999757484,"",,,,,,,,,3
html-keyboard-response,772,1718598,null,"",null,,,,,,,,
math-period,773,1720191,null,"",,,,,,,,,
html-keyboard-response,774,1721193,null,"Recall Period!",null,,,,,,,,
call-function,775,1721194,,"",,,,,,,,,
html-keyboard-response,776,1721297,null,"",null,,,,,,,,
recall-period,777,1725758,16807.414999813773,"",,,,,,,,,belt
html-keyboard-response,778,1725868,null,"",null,,,,,,,,
recall-period,779,1729087,17490.685000200756,"",,,,,,,,,preacher
html-keyboard-response,780,1729189,null,"",null,,,,,,,,
recall-period,781,1731338,6931.535000214353,"",,,,,,,,,item
html-keyboard-response,782,1731450,null,"",null,,,,,,,,
recall-period,783,1734286,11066.994999768212,"",,,,,,,,,window
html-keyboard-response,784,1734388,null,"",null,,,,,,,,
recall-period,785,1738493,19003.005000180565,"",,,,,,,,,hammer
html-keyboard-response,786,1738600,null,"",null,,,,,,,,
recall-period,787,1742251,14858.845000271685,"",,,,,,,,,hatchet
html-keyboard-response,788,1742354,null,"",null,,,,,,,,
recall-period,789,1765966,175879.3949999381,"",,,,,,,,,stumble
html-keyboard-response,790,1766069,null,"",null,,,,,,,,
recall-period,791,1796194,null,"",,,,,,,,,
html-keyboard-response,792,1796701,null,"Time's Up!",null,,,,,,,,
html-keyboard-response,793,1798998,2292.769999941811,"<p> Good job! You responded correctly to 81% of the GREEN squares.</p>
                  <p>Be sure to keep your accuracy above 80%</p>
                  <p>Press any key to continue the experiment. Thank you!</p>",32,,,,,,,,
html-keyboard-response,794,1800121,1122.3350000800565,"<div style=""font-size:48px;"">Press any key to begin list 9 of 24 </div>",32,,,,,,,,
html-keyboard-response,795,1802624,null,"<div style=""font-size:60px;"">+</div>",null,,,,,,,,
html-keyboard-response,796,1803127,null,"SERVER<img id = ""stim"" ><div class = red_square id = ""topsquare"" ></div><img id = ""stim"" ><div class = red_square  id = ""bottomsquare"" ></div>",null,word_square,response,0,none,true,,,
html-keyboard-response,797,1804629,null,"SERVER",null,word,,,,, 'SERVER',,
html-keyboard-response,798,1805026,395.66000003833324,"CLIPPERS<img id = ""stim"" ><div class = green_square id = ""topsquare"" ></div><img id = ""stim"" ><div class = green_square  id = ""bottomsquare"" ></div>",32,word_square,response,1,Space,true,,,
html-keyboard-response,799,1806532,null,"CLIPPERS",null,word,,,,, 'CLIPPERS',,
html-keyboard-response,800,1807034,null,"BATHROOM<img id = ""stim"" ><div class = green_square id = ""topsquare"" ></div><img id = ""stim"" ><div class = green_square  id = ""bottomsquare"" ></div>",null,word_square,response,1,Space,false,,,
html-keyboard-response,801,1808537,null,"BATHROOM",null,word,,,,, 'BATHROOM',,
html-keyboard-response,802,1809043,null,"CLAM<img id = ""stim"" ><div class = red_square id = ""topsquare"" ></div><img id = ""stim"" ><div class = red_square  id = ""bottomsquare"" ></div>",null,word_square,response,0,none,true,,,
html-keyboard-response,803,1810546,null,"CLAM",null,word,,,,, 'CLAM',,
html-keyboard-response,804,1811049,null,"SLOPE<img id = ""stim"" ><div class = red_square id = ""topsquare"" ></div><img id = ""stim"" ><div class = red_square  id = ""bottomsquare"" ></div>",null,word_square,response,0,none,true,,,
html-keyboard-response,805,1812551,null,"SLOPE",null,word,,,,, 'SLOPE',,
html-keyboard-response,806,1812947,393.79500003997236,"SUMMIT<img id = ""stim"" ><div class = green_square id = ""topsquare"" ></div><img id = ""stim"" ><div class = green_square  id = ""bottomsquare"" ></div>",32,word_square,response,1,Space,true,,,
html-keyboard-response,807,1814451,null,"SUMMIT",null,word,,,,, 'SUMMIT',,
html-keyboard-response,808,1814954,null,"SNOB<img id = ""stim"" ><div class = red_square id = ""topsquare"" ></div><img id = ""stim"" ><div class = red_square  id = ""bottomsquare"" ></div>",null,word_square,response,0,none,true,,,
html-keyboard-response,809,1816458,null,"SNOB",null,word,,,,, 'SNOB',,
html-keyboard-response,810,1816960,null,"CABOOSE<img id = ""stim"" ><div class = red_square id = ""topsquare"" ></div><img id = ""stim"" ><div class = red_square  id = ""bottomsquare"" ></div>",null,word_square,response,0,none,true,,,
html-keyboard-response,811,1818462,null,"CABOOSE",null,word,,,,, 'CABOOSE',,
html-keyboard-response,812,1818843,378.2849999843165,"PISTON<img id = ""stim"" ><div class = green_square id = ""topsquare"" ></div><img id = ""stim"" ><div class = green_square  id = ""bottomsquare"" ></div>",32,word_square,response,1,Space,true,,,
html-keyboard-response,813,1820345,null,"PISTON",null,word,,,,, 'PISTON',,
html-keyboard-response,814,1820848,null,"CAPE<img id = ""stim"" ><div class = red_square id = ""topsquare"" ></div><img id = ""stim"" ><div class = red_square  id = ""bottomsquare"" ></div>",null,word_square,response,0,none,true,,,
html-keyboard-response,815,1822352,null,"CAPE",null,word,,,,, 'CAPE',,
html-keyboard-response,816,1822712,359.00000005494803,"OFFICE<img id = ""stim"" ><div class = green_square id = ""topsquare"" ></div><img id = ""stim"" ><div class = green_square  id = ""bottomsquare"" ></div>",32,word_square,response,1,Space,true,,,
html-keyboard-response,817,1824214,null,"OFFICE",null,word,,,,, 'OFFICE',,
html-keyboard-response,818,1824715,499.1900000022724,"ROBOT<img id = ""stim"" ><div class = green_square id = ""topsquare"" ></div><img id = ""stim"" ><div class = green_square  id = ""bottomsquare"" ></div>",32,word_square,response,1,Space,true,,,
html-keyboard-response,819,1826218,null,"ROBOT",null,word,,,,, 'ROBOT',,
html-keyboard-response,820,1826721,null,"DART<img id = ""stim"" ><div class = red_square id = ""topsquare"" ></div><img id = ""stim"" ><div class = red_square  id = ""bottomsquare"" ></div>",null,word_square,response,0,none,true,,,
html-keyboard-response,821,1828224,null,"DART",null,word,,,,, 'DART',,
html-keyboard-response,822,1828728,null,"WAITER<img id = ""stim"" ><div class = red_square id = ""topsquare"" ></div><img id = ""stim"" ><div class = red_square  id = ""bottomsquare"" ></div>",null,word_square,response,0,none,true,,,
html-keyboard-response,823,1830231,null,"WAITER",null,word,,,,, 'WAITER',,
html-keyboard-response,824,1830587,354.8299999674782,"SHEARS<img id = ""stim"" ><div class = green_square id = ""topsquare"" ></div><img id = ""stim"" ><div class = green_square  id = ""bottomsquare"" ></div>",32,word_square,response,1,Space,true,,,
html-keyboard-response,825,1832090,null,"SHEARS",null,word,,,,, 'SHEARS',,
html-keyboard-response,826,1832593,null,"TAVERN<img id = ""stim"" ><div class = red_square id = ""topsquare"" ></div><img id = ""stim"" ><div class = red_square  id = ""bottomsquare"" ></div>",null,word_square,response,0,none,true,,,
html-keyboard-response,827,1834095,null,"TAVERN",null,word,,,,, 'TAVERN',,
html-keyboard-response,828,1834597,null,"CRAB<img id = ""stim"" ><div class = green_square id = ""topsquare"" ></div><img id = ""stim"" ><div class = green_square  id = ""bottomsquare"" ></div>",null,word_square,response,1,Space,false,,,
html-keyboard-response,829,1836100,null,"CRAB",null,word,,,,, 'CRAB',,
html-keyboard-response,830,1836609,null,"FLEET<img id = ""stim"" ><div class = green_square id = ""topsquare"" ></div><img id = ""stim"" ><div class = green_square  id = ""bottomsquare"" ></div>",null,word_square,response,1,Space,false,,,
html-keyboard-response,831,1838112,null,"FLEET",null,word,,,,, 'FLEET',,
call-function,832,1838114,,"",,,,,,,,,
html-keyboard-response,833,1838216,null,"",null,,,,,,,,
math-period,834,1843075,9122.900000074878,"",,,,,,,,,1
html-keyboard-response,835,1843177,null,"",null,,,,,,,,
math-period,836,1846068,5260.66999998875,"",,,,,,,,,1
html-keyboard-response,837,1846169,null,"",null,,,,,,,,
math-period,838,1848655,4452.639999915846,"",,,,,,,,,4
html-keyboard-response,839,1848758,null,"",null,,,,,,,,
math-period,840,1852165,6270.6949999555945,"",,,,,,,,,1
html-keyboard-response,841,1852277,null,"",null,,,,,,,,
math-period,842,1854753,4408.045000163838,"",,,,,,,,,1
html-keyboard-response,843,1854854,null,"",null,,,,,,,,
math-period,844,1856732,3168.3450000127777,"",,,,,,,,,3
html-keyboard-response,845,1856835,null,"",null,,,,,,,,
math-period,846,1858803,3392.985000042245,"",,,,,,,,,4
html-keyboard-response,847,1858907,null,"",null,,,,,,,,
math-period,848,1861053,3748.20000003092,"",,,,,,,,,1
html-keyboard-response,849,1861158,null,"",null,,,,,,,,
math-period,850,1862115,null,"",,,,,,,,,
html-keyboard-response,851,1863118,null,"Recall Period!",null,,,,,,,,
call-function,852,1863119,,"",,,,,,,,,
html-keyboard-response,853,1863221,null,"",null,,,,,,,,
recall-period,854,1867857,24217.92000019923,"",,,,,,,,,clippers
html-keyboard-response,855,1867959,null,"",null,,,,,,,,
recall-period,856,1870908,15334.650000324473,"",,,,,,,,,bathroom
html-keyboard-response,857,1871011,null,"",null,,,,,,,,
recall-period,858,1876848,29252.045000670478,"",,,,,,,,,summit
html-keyboard-response,859,1876950,null,"",null,,,,,,,,
recall-period,860,1880154,12853.359999833629,"",,,,,,,,,audit
html-keyboard-response,861,1880257,null,"",null,,,,,,,,
recall-period,862,1884183,13541.679999907501,"",,,,,,,,,hammer
html-keyboard-response,863,1884292,null,"",null,,,,,,,,
recall-period,864,1892259,35083.324999781325,"",,,,,,,,,land
html-keyboard-response,865,1892372,null,"",null,,,,,,,,
recall-period,866,1899302,45075.690000434406,"",,,,,,,,,salesman
html-keyboard-response,867,1899404,null,"",null,,,,,,,,
recall-period,868,1915165,250262.32000114396,"",,,,,,,,,cattle
html-keyboard-response,869,1915267,null,"",null,,,,,,,,
recall-period,870,1936630,103505.52499992773,"",,,,,,,,,task
html-keyboard-response,871,1936733,null,"",null,,,,,,,,
recall-period,872,1938122,null,"",,,,,,,,,
html-keyboard-response,873,1938626,null,"Time's Up!",null,,,,,,,,
html-keyboard-response,874,1940163,1535.840000025928,"<p> Good job! You responded correctly to 82% of the GREEN squares.</p>
                  <p>Be sure to keep your accuracy above 80%</p>
                  <p>Press any key to continue the experiment. Thank you!</p>",32,,,,,,,,
html-keyboard-response,875,1941468,1303.0199999921024,"<div style=""font-size:48px;"">Press any key to begin list 10 of 24 </div>",32,,,,,,,,
html-keyboard-response,876,1943978,null,"<div style=""font-size:60px;"">+</div>",null,,,,,,,,
html-keyboard-response,877,1944481,null,"CAMEL<img id = ""stim"" ><div class = red_square id = ""topsquare"" ></div><img id = ""stim"" ><div class = red_square  id = ""bottomsquare"" ></div>",null,word_square,response,0,none,true,,,
html-keyboard-response,878,1945984,null,"CAMEL",null,word,,,,, 'CAMEL',,
html-keyboard-response,879,1946419,433.24000004213303,"CIGAR<img id = ""stim"" ><div class = green_square id = ""topsquare"" ></div><img id = ""stim"" ><div class = green_square  id = ""bottomsquare"" ></div>",32,word_square,response,1,Space,true,,,
html-keyboard-response,880,1947921,null,"CIGAR",null,word,,,,, 'CIGAR',,
html-keyboard-response,881,1948399,476.4450000366196,"SERPENT<img id = ""stim"" ><div class = green_square id = ""topsquare"" ></div><img id = ""stim"" ><div class = green_square  id = ""bottomsquare"" ></div>",32,word_square,response,1,Space,true,,,
html-keyboard-response,882,1949901,null,"SERPENT",null,word,,,,, 'SERPENT',,
html-keyboard-response,883,1950403,null,"STAIRS<img id = ""stim"" ><div class = red_square id = ""topsquare"" ></div><img id = ""stim"" ><div class = red_square  id = ""bottomsquare"" ></div>",null,word_square,response,0,none,true,,,
html-keyboard-response,884,1951906,null,"STAIRS",null,word,,,,, 'STAIRS',,
html-keyboard-response,885,1952409,null,"SUPPER<img id = ""stim"" ><div class = red_square id = ""topsquare"" ></div><img id = ""stim"" ><div class = red_square  id = ""bottomsquare"" ></div>",null,word_square,response,0,none,true,,,
html-keyboard-response,886,1953912,null,"SUPPER",null,word,,,,, 'SUPPER',,
html-keyboard-response,887,1954361,446.73999992664903,"STICKER<img id = ""stim"" ><div class = green_square id = ""topsquare"" ></div><img id = ""stim"" ><div class = green_square  id = ""bottomsquare"" ></div>",32,word_square,response,1,Space,true,,,
html-keyboard-response,888,1955863,null,"STICKER",null,word,,,,, 'STICKER',,
html-keyboard-response,889,1956366,null,"TRENCH<img id = ""stim"" ><div class = red_square id = ""topsquare"" ></div><img id = ""stim"" ><div class = red_square  id = ""bottomsquare"" ></div>",null,word_square,response,0,none,true,,,
html-keyboard-response,890,1957868,null,"TRENCH",null,word,,,,, 'TRENCH',,
html-keyboard-response,891,1958371,null,"RULER<img id = ""stim"" ><div class = red_square id = ""topsquare"" ></div><img id = ""stim"" ><div class = red_square  id = ""bottomsquare"" ></div>",null,word_square,response,0,none,true,,,
html-keyboard-response,892,1959873,null,"RULER",null,word,,,,, 'RULER',,
html-keyboard-response,893,1960377,null,"BOULDER<img id = ""stim"" ><div class = green_square id = ""topsquare"" ></div><img id = ""stim"" ><div class = green_square  id = ""bottomsquare"" ></div>",null,word_square,response,1,Space,false,,,
html-keyboard-response,894,1961894,null,"BOULDER",null,word,,,,, 'BOULDER',,
html-keyboard-response,895,1962397,null,"GARBAGE<img id = ""stim"" ><div class = red_square id = ""topsquare"" ></div><img id = ""stim"" ><div class = red_square  id = ""bottomsquare"" ></div>",null,word_square,response,0,none,true,,,
html-keyboard-response,896,1963900,null,"GARBAGE",null,word,,,,, 'GARBAGE',,
html-keyboard-response,897,1964373,471.9500000355765,"DOCTOR<img id = ""stim"" ><div class = green_square id = ""topsquare"" ></div><img id = ""stim"" ><div class = green_square  id = ""bottomsquare"" ></div>",32,word_square,response,1,Space,true,,,
html-keyboard-response,898,1965875,null,"DOCTOR",null,word,,,,, 'DOCTOR',,
html-keyboard-response,899,1966378,null,"GLACIER<img id = ""stim"" ><div class = green_square id = ""topsquare"" ></div><img id = ""stim"" ><div class = green_square  id = ""bottomsquare"" ></div>",null,word_square,response,1,Space,false,,,
html-keyboard-response,900,1967880,null,"GLACIER",null,word,,,,, 'GLACIER',,
html-keyboard-response,901,1968383,null,"BACON<img id = ""stim"" ><div class = red_square id = ""topsquare"" ></div><img id = ""stim"" ><div class = red_square  id = ""bottomsquare"" ></div>",null,word_square,response,0,none,true,,,
html-keyboard-response,902,1969886,null,"BACON",null,word,,,,, 'BACON',,
html-keyboard-response,903,1970388,null,"LUNCH<img id = ""stim"" ><div class = red_square id = ""topsquare"" ></div><img id = ""stim"" ><div class = red_square  id = ""bottomsquare"" ></div>",null,word_square,response,0,none,true,,,
html-keyboard-response,904,1971891,null,"LUNCH",null,word,,,,, 'LUNCH',,
html-keyboard-response,905,1972295,402.085000067018,"SHELF<img id = ""stim"" ><div class = green_square id = ""topsquare"" ></div><img id = ""stim"" ><div class = green_square  id = ""bottomsquare"" ></div>",32,word_square,response,1,Space,true,,,
html-keyboard-response,906,1973798,null,"SHELF",null,word,,,,, 'SHELF',,
html-keyboard-response,907,1974301,null,"PASSAGE<img id = ""stim"" ><div class = red_square id = ""topsquare"" ></div><img id = ""stim"" ><div class = red_square  id = ""bottomsquare"" ></div>",null,word_square,response,0,none,true,,,
html-keyboard-response,908,1975806,null,"PASSAGE",null,word,,,,, 'PASSAGE',,
html-keyboard-response,909,1976311,null,"KNAPSACK<img id = ""stim"" ><div class = green_square id = ""topsquare"" ></div><img id = ""stim"" ><div class = green_square  id = ""bottomsquare"" ></div>",null,word_square,response,1,Space,false,,,
html-keyboard-response,910,1977815,null,"KNAPSACK",null,word,,,,, 'KNAPSACK',,
html-keyboard-response,911,1978302,484.17000006884336,"FRIES<img id = ""stim"" ><div class = green_square id = ""topsquare"" ></div><img id = ""stim"" ><div class = green_square  id = ""bottomsquare"" ></div>",32,word_square,response,1,Space,true,,,
html-keyboard-response,912,1979804,null,"FRIES",null,word,,,,, 'FRIES',,
