trial_type,trial_index,time_elapsed,rt,stimulus,key_press,test_part,targ_cond,correct_response,word,responses
pavlovia,0,1147,,"",,,,,,
external-html,1,14871,13548,"",,,,,,
html-keyboard-response,2,16765,1891,"Welcome to the experiment. Press any key to begin.",32,,,,,
html-keyboard-response,3,29261,12494,"<p>You will see a list of words and colored squares in the following task.<p><p>Press the spacebar whenever you see a red square.<p><p>Do not press a key if the square is green<p><p>Press the spacebar to continue.</p>",32,,,,,
html-keyboard-response,4,36285,6521,"<p>Please try to remember as many of the words as you can, and try to think about the meaning of each word as it appears.<p><p>After the detection and encoding task you will be asked to solve some math problems for 24 seconds.<p> Please solve as many problems as you can in the time given. <p>",32,,,,,
html-keyboard-response,5,41303,4514,"After solving the math problems, you will be asked to type in as many words <p>from the previous list as you can remember for 75 seconds.<p> If you finish recalling before the 75 seconds are up,<p> just sit tight and try to think of any more words you could have missed. <p><p>We will begin with a brief practice session<p>Press the spacebar to begin the practice.</p>",32,,,,,
html-keyboard-response,6,43809,null,"<div style=""font-size:60px;"">+</div>",null,,,,,
html-keyboard-response,7,44315,null,"HAPPY<img id = ""stim"" ><div class = green_square id = ""topsquare"" ></div><img id = ""stim"" ><div class = green_square  id = ""bottomsquare"" ></div>",null,word_square,D,none,,
html-keyboard-response,8,45819,null,"HAPPY",null,word,,,HAPPY,
html-keyboard-response,9,45826,null,"COLD<img id = ""stim"" ><div class = red_square id = ""topsquare"" ></div><img id = ""stim"" ><div class = red_square  id = ""bottomsquare"" ></div>",null,word_square,T,SPACEBAR,,
html-keyboard-response,10,47330,null,"COLD",null,word,,,COLD,
html-keyboard-response,11,47337,null,"HEAVY<img id = ""stim"" ><div class = red_square id = ""topsquare"" ></div><img id = ""stim"" ><div class = red_square  id = ""bottomsquare"" ></div>",null,word_square,T,SPACEBAR,,
html-keyboard-response,12,48840,null,"HEAVY",null,word,,,HEAVY,
html-keyboard-response,13,49344,null,"FUNNY<img id = ""stim"" ><div class = green_square id = ""topsquare"" ></div><img id = ""stim"" ><div class = green_square  id = ""bottomsquare"" ></div>",null,word_square,D,none,,
html-keyboard-response,14,50848,null,"FUNNY",null,word,,,FUNNY,
html-keyboard-response,15,50856,null,"SCARY<img id = ""stim"" ><div class = red_square id = ""topsquare"" ></div><img id = ""stim"" ><div class = red_square  id = ""bottomsquare"" ></div>",null,word_square,T,SPACEBAR,,
html-keyboard-response,16,52358,null,"SCARY",null,word,,,SCARY,
html-keyboard-response,17,52365,null,"PEACEFUL<img id = ""stim"" ><div class = red_square id = ""topsquare"" ></div><img id = ""stim"" ><div class = red_square  id = ""bottomsquare"" ></div>",null,word_square,T,SPACEBAR,,
html-keyboard-response,18,53869,null,"PEACEFUL",null,word,,,PEACEFUL,
html-keyboard-response,19,54373,null,"LITTLE<img id = ""stim"" ><div class = green_square id = ""topsquare"" ></div><img id = ""stim"" ><div class = green_square  id = ""bottomsquare"" ></div>",null,word_square,D,none,,
html-keyboard-response,20,55877,null,"LITTLE",null,word,,,LITTLE,
html-keyboard-response,21,56381,null,"TIRED<img id = ""stim"" ><div class = green_square id = ""topsquare"" ></div><img id = ""stim"" ><div class = green_square  id = ""bottomsquare"" ></div>",null,word_square,D,none,,
html-keyboard-response,22,57884,null,"TIRED",null,word,,,TIRED,
html-keyboard-response,23,58388,null,"ENTERTAINING<img id = ""stim"" ><div class = green_square id = ""topsquare"" ></div><img id = ""stim"" ><div class = green_square  id = ""bottomsquare"" ></div>",null,word_square,D,none,,
html-keyboard-response,24,59892,null,"ENTERTAINING",null,word,,,ENTERTAINING,
html-keyboard-response,25,59899,null,"GRATEFUL<img id = ""stim"" ><div class = red_square id = ""topsquare"" ></div><img id = ""stim"" ><div class = red_square  id = ""bottomsquare"" ></div>",null,word_square,T,SPACEBAR,,
html-keyboard-response,26,61402,null,"GRATEFUL",null,word,,,GRATEFUL,
html-keyboard-response,27,61906,null,"LOUD<img id = ""stim"" ><div class = green_square id = ""topsquare"" ></div><img id = ""stim"" ><div class = green_square  id = ""bottomsquare"" ></div>",null,word_square,D,none,,
html-keyboard-response,28,63409,null,"LOUD",null,word,,,LOUD,
html-keyboard-response,29,63415,null,"SMART<img id = ""stim"" ><div class = red_square id = ""topsquare"" ></div><img id = ""stim"" ><div class = red_square  id = ""bottomsquare"" ></div>",null,word_square,T,SPACEBAR,,
html-keyboard-response,30,64917,null,"SMART",null,word,,,SMART,
html-keyboard-response,31,64924,null,"SMOOTH<img id = ""stim"" ><div class = red_square id = ""topsquare"" ></div><img id = ""stim"" ><div class = red_square  id = ""bottomsquare"" ></div>",null,word_square,T,SPACEBAR,,
html-keyboard-response,32,66426,null,"SMOOTH",null,word,,,SMOOTH,
html-keyboard-response,33,66929,null,"DISHONEST<img id = ""stim"" ><div class = green_square id = ""topsquare"" ></div><img id = ""stim"" ><div class = green_square  id = ""bottomsquare"" ></div>",null,word_square,D,none,,
html-keyboard-response,34,68431,null,"DISHONEST",null,word,,,DISHONEST,
html-keyboard-response,35,68439,null,"WEALTHY<img id = ""stim"" ><div class = red_square id = ""topsquare"" ></div><img id = ""stim"" ><div class = red_square  id = ""bottomsquare"" ></div>",null,word_square,T,SPACEBAR,,
html-keyboard-response,36,69941,null,"WEALTHY",null,word,,,WEALTHY,
html-keyboard-response,37,70444,null,"BEAUTIFUL<img id = ""stim"" ><div class = green_square id = ""topsquare"" ></div><img id = ""stim"" ><div class = green_square  id = ""bottomsquare"" ></div>",null,word_square,D,none,,
html-keyboard-response,38,71947,null,"BEAUTIFUL",null,word,,,BEAUTIFUL,
html-keyboard-response,39,72449,null,"DREARY<img id = ""stim"" ><div class = green_square id = ""topsquare"" ></div><img id = ""stim"" ><div class = green_square  id = ""bottomsquare"" ></div>",null,word_square,D,none,,
html-keyboard-response,40,73952,null,"DREARY",null,word,,,DREARY,
html-keyboard-response,41,74455,null,"PLAYFUL<img id = ""stim"" ><div class = green_square id = ""topsquare"" ></div><img id = ""stim"" ><div class = green_square  id = ""bottomsquare"" ></div>",null,word_square,D,none,,
html-keyboard-response,42,75958,null,"PLAYFUL",null,word,,,PLAYFUL,
survey-text,43,77603,1625,"",,,,,,{"Q0":"3"}
survey-text,44,78789,1181.9999999999854,"",,,,,,{"Q0":"2"}
survey-text,45,80089,1294,"",,,,,,{"Q0":"5"}
survey-text,46,81617,1524.9999999999854,"",,,,,,{"Q0":"5"}
survey-text,47,83788,2165,"",,,,,,{"Q0":"1"}
survey-text,48,85072,1280,"",,,,,,{"Q0":"4"}
survey-text,49,86270,1193,"",,,,,,{"Q0":"4"}
survey-text,50,87427,1153,"",,,,,,{"Q0":"6"}
survey-text,51,88538,1107,"",,,,,,{"Q0":"3"}
survey-text,52,89455,913.0000000000146,"",,,,,,{"Q0":"2"}
survey-text,53,90425,965,"",,,,,,{"Q0":"3"}
survey-text,54,91338,910,"",,,,,,{"Q0":"3"}
survey-text,55,92936,1596,"",,,,,,{"Q0":"1"}
survey-text,56,94849,1908.0000000000146,"",,,,,,{"Q0":"2"}
survey-text,57,96207,1354,"",,,,,,{"Q0":"4"}
survey-text,58,97390,1178.9999999999854,"",,,,,,{"Q0":"1"}
survey-text,59,98866,1473.0000000000146,"",,,,,,{"Q0":"4"}
survey-text,60,100183,1312.9999999999854,"",,,,,,{"Q0":"4"}
survey-text,61,107142,6955,"",,,,,,{"Q0":"return"}
survey-text,62,109131,1986,"",,,,,,{"Q0":"happy"}
survey-text,63,112232,3096,"",,,,,,{"Q0":"cold"}
survey-text,64,113546,1308,"",,,,,,{"Q0":"heavy"}
survey-text,65,115428,1877,"",,,,,,{"Q0":"dreary"}
survey-text,66,117193,1760,"",,,,,,{"Q0":"peaceful"}
survey-text,67,123599,6403,"",,,,,,{"Q0":"beautiful"}
survey-text,68,124728,1125,"",,,,,,{"Q0":"funny"}
survey-text,69,127264,2530.9999999999854,"",,,,,,{"Q0":"little"}
survey-text,70,130288,3019.0000000000146,"",,,,,,{"Q0":"heavy"}
survey-text,71,131002,710,"",,,,,,{"Q0":"cold"}
survey-text,72,134973,3966,"",,,,,,{"Q0":"smart"}
survey-text,73,149943,14965.00000000003,"",,,,,,{"Q0":"playful"}
survey-text,74,155485,5537.999999999971,"",,,,,,{"Q0":"entertaining"}
survey-text,75,158170,2682,"",,,,,,{"Q0":"loud"}
survey-text,76,186257,28083,"",,,,,,{"Q0":"exciting"}
html-keyboard-response,77,189662,3403,"<p>We will now begin the experiment!<p><p>Please try to remember all words from each list.<p><p>Press the spacebar whenever you see a red square.<p><p><p><p>Press the spacebar to begin.</p>",32,,,,,
html-keyboard-response,78,192711,2546,"<div style=""font-size:48px;"">Press any key to begin list 1 of 24 </div>",32,,,,,
html-keyboard-response,79,195215,null,"<div style=""font-size:60px;"">+</div>",null,,,,,
html-keyboard-response,80,195717,null,"NICKEL<img id = ""stim"" ><div class = green_square id = ""topsquare"" ></div><img id = ""stim"" ><div class = green_square  id = ""bottomsquare"" ></div>",null,word_square,0,SPACEBAR,,
html-keyboard-response,81,197221,null,"NICKEL",null,word,,, 'NICKEL',
html-keyboard-response,82,197723,null,"FIREPLACE<img id = ""stim"" ><div class = green_square id = ""topsquare"" ></div><img id = ""stim"" ><div class = green_square  id = ""bottomsquare"" ></div>",null,word_square,0,SPACEBAR,,
html-keyboard-response,83,199225,null,"FIREPLACE",null,word,,, 'FIREPLACE',
html-keyboard-response,84,199728,null,"ROCKET<img id = ""stim"" ><div class = red_square id = ""topsquare"" ></div><img id = ""stim"" ><div class = red_square  id = ""bottomsquare"" ></div>",null,word_square,1,SPACEBAR,,
html-keyboard-response,85,201231,null,"ROCKET",null,word,,, 'ROCKET',
html-keyboard-response,86,201734,null,"MOTEL<img id = ""stim"" ><div class = green_square id = ""topsquare"" ></div><img id = ""stim"" ><div class = green_square  id = ""bottomsquare"" ></div>",null,word_square,0,SPACEBAR,,
html-keyboard-response,87,203236,null,"MOTEL",null,word,,, 'MOTEL',
html-keyboard-response,88,203739,null,"DUNGEON<img id = ""stim"" ><div class = red_square id = ""topsquare"" ></div><img id = ""stim"" ><div class = red_square  id = ""bottomsquare"" ></div>",null,word_square,1,SPACEBAR,,
html-keyboard-response,89,205242,null,"DUNGEON",null,word,,, 'DUNGEON',
html-keyboard-response,90,205745,null,"ELK<img id = ""stim"" ><div class = red_square id = ""topsquare"" ></div><img id = ""stim"" ><div class = red_square  id = ""bottomsquare"" ></div>",null,word_square,1,SPACEBAR,,
html-keyboard-response,91,207247,null,"ELK",null,word,,, 'ELK',
html-keyboard-response,92,207750,null,"GRIZZLY<img id = ""stim"" ><div class = red_square id = ""topsquare"" ></div><img id = ""stim"" ><div class = red_square  id = ""bottomsquare"" ></div>",null,word_square,1,SPACEBAR,,
html-keyboard-response,93,209253,null,"GRIZZLY",null,word,,, 'GRIZZLY',
html-keyboard-response,94,209756,null,"RADISH<img id = ""stim"" ><div class = green_square id = ""topsquare"" ></div><img id = ""stim"" ><div class = green_square  id = ""bottomsquare"" ></div>",null,word_square,0,SPACEBAR,,
html-keyboard-response,95,211259,null,"RADISH",null,word,,, 'RADISH',
html-keyboard-response,96,211761,null,"MATCH<img id = ""stim"" ><div class = red_square id = ""topsquare"" ></div><img id = ""stim"" ><div class = red_square  id = ""bottomsquare"" ></div>",null,word_square,1,SPACEBAR,,
html-keyboard-response,97,213264,null,"MATCH",null,word,,, 'MATCH',
html-keyboard-response,98,213767,null,"FIREMAN<img id = ""stim"" ><div class = green_square id = ""topsquare"" ></div><img id = ""stim"" ><div class = green_square  id = ""bottomsquare"" ></div>",null,word_square,0,SPACEBAR,,
html-keyboard-response,99,215269,null,"FIREMAN",null,word,,, 'FIREMAN',
html-keyboard-response,100,215772,null,"TRANSPLANT<img id = ""stim"" ><div class = red_square id = ""topsquare"" ></div><img id = ""stim"" ><div class = red_square  id = ""bottomsquare"" ></div>",null,word_square,1,SPACEBAR,,
html-keyboard-response,101,217275,null,"TRANSPLANT",null,word,,, 'TRANSPLANT',
html-keyboard-response,102,217778,null,"GARBAGE<img id = ""stim"" ><div class = green_square id = ""topsquare"" ></div><img id = ""stim"" ><div class = green_square  id = ""bottomsquare"" ></div>",null,word_square,0,SPACEBAR,,
html-keyboard-response,103,219281,null,"GARBAGE",null,word,,, 'GARBAGE',
html-keyboard-response,104,219784,null,"FILM<img id = ""stim"" ><div class = green_square id = ""topsquare"" ></div><img id = ""stim"" ><div class = green_square  id = ""bottomsquare"" ></div>",null,word_square,0,SPACEBAR,,
html-keyboard-response,105,221287,null,"FILM",null,word,,, 'FILM',
html-keyboard-response,106,221790,null,"DRIVEWAY<img id = ""stim"" ><div class = red_square id = ""topsquare"" ></div><img id = ""stim"" ><div class = red_square  id = ""bottomsquare"" ></div>",null,word_square,1,SPACEBAR,,
html-keyboard-response,107,223294,null,"DRIVEWAY",null,word,,, 'DRIVEWAY',
html-keyboard-response,108,223796,null,"FUNGUS<img id = ""stim"" ><div class = red_square id = ""topsquare"" ></div><img id = ""stim"" ><div class = red_square  id = ""bottomsquare"" ></div>",null,word_square,1,SPACEBAR,,
html-keyboard-response,109,225299,null,"FUNGUS",null,word,,, 'FUNGUS',
html-keyboard-response,110,225801,null,"RAFT<img id = ""stim"" ><div class = green_square id = ""topsquare"" ></div><img id = ""stim"" ><div class = green_square  id = ""bottomsquare"" ></div>",null,word_square,0,SPACEBAR,,
html-keyboard-response,111,227304,null,"RAFT",null,word,,, 'RAFT',
html-keyboard-response,112,227807,null,"PORTRAIT<img id = ""stim"" ><div class = green_square id = ""topsquare"" ></div><img id = ""stim"" ><div class = green_square  id = ""bottomsquare"" ></div>",null,word_square,0,SPACEBAR,,
html-keyboard-response,113,229309,null,"PORTRAIT",null,word,,, 'PORTRAIT',
html-keyboard-response,114,229812,null,"CATTLE<img id = ""stim"" ><div class = red_square id = ""topsquare"" ></div><img id = ""stim"" ><div class = red_square  id = ""bottomsquare"" ></div>",null,word_square,1,SPACEBAR,,
html-keyboard-response,115,231315,null,"CATTLE",null,word,,, 'CATTLE',
survey-text,116,242552,11228,"",,,,,,{"Q0":"3"}
survey-text,117,243690,1132,"",,,,,,{"Q0":"4"}
survey-text,118,244693,1000,"",,,,,,{"Q0":"4"}
survey-text,119,245690,994,"",,,,,,{"Q0":"5"}
survey-text,120,246651,958,"",,,,,,{"Q0":"2"}
survey-text,121,247629,972.9999999999709,"",,,,,,{"Q0":"4"}
survey-text,122,248838,1204.999999999971,"",,,,,,{"Q0":"1"}
survey-text,123,249912,1069.000000000029,"",,,,,,{"Q0":"4"}
survey-text,124,250976,1059,"",,,,,,{"Q0":"3"}
survey-text,125,252124,1143,"",,,,,,{"Q0":"4"}
survey-text,126,252993,865,"",,,,,,{"Q0":"4"}
survey-text,127,254209,1212.999999999971,"",,,,,,{"Q0":"3"}
survey-text,128,256396,2183,"",,,,,,{"Q0":"1"}
survey-text,129,260478,4077.999999999971,"",,,,,,{"Q0":"dungeon"}
survey-text,130,261783,1300.000000000029,"",,,,,,{"Q0":"cattle"}
survey-text,131,263483,1695,"",,,,,,{"Q0":"nickel"}
survey-text,132,264981,1493.0000000000582,"",,,,,,{"Q0":"motel"}
survey-text,133,267406,2421,"",,,,,,{"Q0":"fireplace"}
survey-text,134,268282,872,"",,,,,,{"Q0":"elk"}
survey-text,135,274097,5809,"",,,,,,{"Q0":"radish"}
survey-text,136,279926,5823,"",,,,,,{"Q0":"match"}
survey-text,137,282492,2561,"",,,,,,{"Q0":"cattle"}
survey-text,138,292459,9963,"",,,,,,{"Q0":"fireplace"}
survey-text,139,300001,7537,"",,,,,,{"Q0":"raft"}
survey-text,140,373775,73770,"",,,,,,{"Q0":"im not too sure"}
html-keyboard-response,141,376885,3107,"<div style=""font-size:48px;"">Press any key to begin list 2 of 24 </div>",32,,,,,
html-keyboard-response,142,379390,null,"<div style=""font-size:60px;"">+</div>",null,,,,,
html-keyboard-response,143,379894,null,"CONVICT<img id = ""stim"" ><div class = green_square id = ""topsquare"" ></div><img id = ""stim"" ><div class = green_square  id = ""bottomsquare"" ></div>",null,word_square,0,SPACEBAR,,
html-keyboard-response,144,381398,null,"CONVICT",null,word,,, 'CONVICT',
html-keyboard-response,145,381902,null,"OUTLAW<img id = ""stim"" ><div class = green_square id = ""topsquare"" ></div><img id = ""stim"" ><div class = green_square  id = ""bottomsquare"" ></div>",null,word_square,0,SPACEBAR,,
html-keyboard-response,146,383405,null,"OUTLAW",null,word,,, 'OUTLAW',
html-keyboard-response,147,383909,null,"COUGAR<img id = ""stim"" ><div class = red_square id = ""topsquare"" ></div><img id = ""stim"" ><div class = red_square  id = ""bottomsquare"" ></div>",null,word_square,1,SPACEBAR,,
html-keyboard-response,148,385413,null,"COUGAR",null,word,,, 'COUGAR',
html-keyboard-response,149,385917,null,"BOX<img id = ""stim"" ><div class = green_square id = ""topsquare"" ></div><img id = ""stim"" ><div class = green_square  id = ""bottomsquare"" ></div>",null,word_square,0,SPACEBAR,,
html-keyboard-response,150,387420,null,"BOX",null,word,,, 'BOX',
html-keyboard-response,151,387924,null,"TRIBE<img id = ""stim"" ><div class = red_square id = ""topsquare"" ></div><img id = ""stim"" ><div class = red_square  id = ""bottomsquare"" ></div>",null,word_square,1,SPACEBAR,,
html-keyboard-response,152,389427,null,"TRIBE",null,word,,, 'TRIBE',
html-keyboard-response,153,389931,null,"GIRL<img id = ""stim"" ><div class = red_square id = ""topsquare"" ></div><img id = ""stim"" ><div class = red_square  id = ""bottomsquare"" ></div>",null,word_square,1,SPACEBAR,,
html-keyboard-response,154,391435,null,"GIRL",null,word,,, 'GIRL',
html-keyboard-response,155,391939,null,"SHERIFF<img id = ""stim"" ><div class = red_square id = ""topsquare"" ></div><img id = ""stim"" ><div class = red_square  id = ""bottomsquare"" ></div>",null,word_square,1,SPACEBAR,,
html-keyboard-response,156,393443,null,"SHERIFF",null,word,,, 'SHERIFF',
html-keyboard-response,157,393947,null,"SENATE<img id = ""stim"" ><div class = green_square id = ""topsquare"" ></div><img id = ""stim"" ><div class = green_square  id = ""bottomsquare"" ></div>",null,word_square,0,SPACEBAR,,
html-keyboard-response,158,395451,null,"SENATE",null,word,,, 'SENATE',
html-keyboard-response,159,395955,null,"KEEPER<img id = ""stim"" ><div class = red_square id = ""topsquare"" ></div><img id = ""stim"" ><div class = red_square  id = ""bottomsquare"" ></div>",null,word_square,1,SPACEBAR,,
html-keyboard-response,160,397459,null,"KEEPER",null,word,,, 'KEEPER',
html-keyboard-response,161,397962,null,"DONOR<img id = ""stim"" ><div class = green_square id = ""topsquare"" ></div><img id = ""stim"" ><div class = green_square  id = ""bottomsquare"" ></div>",null,word_square,0,SPACEBAR,,
html-keyboard-response,162,399466,null,"DONOR",null,word,,, 'DONOR',
html-keyboard-response,163,399970,null,"MASK<img id = ""stim"" ><div class = red_square id = ""topsquare"" ></div><img id = ""stim"" ><div class = red_square  id = ""bottomsquare"" ></div>",null,word_square,1,SPACEBAR,,
html-keyboard-response,164,401474,null,"MASK",null,word,,, 'MASK',
html-keyboard-response,165,401978,null,"SCARF<img id = ""stim"" ><div class = green_square id = ""topsquare"" ></div><img id = ""stim"" ><div class = green_square  id = ""bottomsquare"" ></div>",null,word_square,0,SPACEBAR,,
html-keyboard-response,166,403481,null,"SCARF",null,word,,, 'SCARF',
html-keyboard-response,167,403985,null,"CRADLE<img id = ""stim"" ><div class = green_square id = ""topsquare"" ></div><img id = ""stim"" ><div class = green_square  id = ""bottomsquare"" ></div>",null,word_square,0,SPACEBAR,,
html-keyboard-response,168,405489,null,"CRADLE",null,word,,, 'CRADLE',
html-keyboard-response,169,405993,null,"BRAKE<img id = ""stim"" ><div class = red_square id = ""topsquare"" ></div><img id = ""stim"" ><div class = red_square  id = ""bottomsquare"" ></div>",null,word_square,1,SPACEBAR,,
html-keyboard-response,170,407497,null,"BRAKE",null,word,,, 'BRAKE',
html-keyboard-response,171,408001,null,"FIST<img id = ""stim"" ><div class = red_square id = ""topsquare"" ></div><img id = ""stim"" ><div class = red_square  id = ""bottomsquare"" ></div>",null,word_square,1,SPACEBAR,,
html-keyboard-response,172,409505,null,"FIST",null,word,,, 'FIST',
html-keyboard-response,173,410009,null,"HONEY<img id = ""stim"" ><div class = green_square id = ""topsquare"" ></div><img id = ""stim"" ><div class = green_square  id = ""bottomsquare"" ></div>",null,word_square,0,SPACEBAR,,
html-keyboard-response,174,411512,null,"HONEY",null,word,,, 'HONEY',
html-keyboard-response,175,412016,null,"HORNET<img id = ""stim"" ><div class = green_square id = ""topsquare"" ></div><img id = ""stim"" ><div class = green_square  id = ""bottomsquare"" ></div>",null,word_square,0,SPACEBAR,,
html-keyboard-response,176,413520,null,"HORNET",null,word,,, 'HORNET',
html-keyboard-response,177,414024,null,"BADGE<img id = ""stim"" ><div class = red_square id = ""topsquare"" ></div><img id = ""stim"" ><div class = red_square  id = ""bottomsquare"" ></div>",null,word_square,1,SPACEBAR,,
html-keyboard-response,178,415528,null,"BADGE",null,word,,, 'BADGE',
survey-text,179,418763,3227,"",,,,,,{"Q0":"1"}
survey-text,180,419690,923,"",,,,,,{"Q0":"3"}
survey-text,181,422055,2359.999999999942,"",,,,,,{"Q0":"3"}
survey-text,182,424066,2007,"",,,,,,{"Q0":"5"}
survey-text,183,425198,1128,"",,,,,,{"Q0":"5"}
survey-text,184,426225,1022,"",,,,,,{"Q0":"5"}
survey-text,185,427121,892,"",,,,,,{"Q0":"3"}
survey-text,186,428121,996,"",,,,,,{"Q0":"45"}
survey-text,187,430100,1975.0000000000582,"",,,,,,{"Q0":"6"}
survey-text,188,431426,1321,"",,,,,,{"Q0":"5"}
survey-text,189,432525,1095,"",,,,,,{"Q0":"5"}
survey-text,190,433621,1090,"",,,,,,{"Q0":"4"}
survey-text,191,434783,1158.0000000000582,"",,,,,,{"Q0":"5"}
survey-text,192,436044,1257.0000000000582,"",,,,,,{"Q0":"4"}
survey-text,193,437094,1047,"",,,,,,{"Q0":"6"}
survey-text,194,438491,1392,"",,,,,,{"Q0":"4"}
survey-text,195,439473,977,"",,,,,,{"Q0":"2"}
survey-text,196,440497,1020,"",,,,,,{"Q0":"5"}
survey-text,197,443121,2621,"",,,,,,{"Q0":"girl"}
survey-text,198,446484,3358,"",,,,,,{"Q0":"convict"}
survey-text,199,448331,1841.0000000000582,"",,,,,,{"Q0":"outlaw"}
survey-text,200,454625,6289,"",,,,,,{"Q0":"brake"}
survey-text,201,456299,1671,"",,,,,,{"Q0":"senate"}
survey-text,202,469171,12866.000000000058,"",,,,,,{"Q0":"mask"}
survey-text,203,472369,3194,"",,,,,,{"Q0":"scarf"}
survey-text,204,601626,129255,"",,,,,,{"Q0":" idk"}
html-keyboard-response,205,602598,970,"<div style=""font-size:48px;"">Press any key to begin list 3 of 24 </div>",32,,,,,
html-keyboard-response,206,605103,null,"<div style=""font-size:60px;"">+</div>",null,,,,,
html-keyboard-response,207,605607,null,"JUNGLE<img id = ""stim"" ><div class = red_square id = ""topsquare"" ></div><img id = ""stim"" ><div class = red_square  id = ""bottomsquare"" ></div>",null,word_square,1,SPACEBAR,,
html-keyboard-response,208,607110,null,"JUNGLE",null,word,,, 'JUNGLE',
html-keyboard-response,209,607614,null,"PRIMATE<img id = ""stim"" ><div class = red_square id = ""topsquare"" ></div><img id = ""stim"" ><div class = red_square  id = ""bottomsquare"" ></div>",null,word_square,1,SPACEBAR,,
html-keyboard-response,210,609118,null,"PRIMATE",null,word,,, 'PRIMATE',
html-keyboard-response,211,609621,null,"CLIMBER<img id = ""stim"" ><div class = green_square id = ""topsquare"" ></div><img id = ""stim"" ><div class = green_square  id = ""bottomsquare"" ></div>",null,word_square,0,SPACEBAR,,
html-keyboard-response,212,611125,null,"CLIMBER",null,word,,, 'CLIMBER',
html-keyboard-response,213,611629,null,"SUMMIT<img id = ""stim"" ><div class = red_square id = ""topsquare"" ></div><img id = ""stim"" ><div class = red_square  id = ""bottomsquare"" ></div>",null,word_square,1,SPACEBAR,,
html-keyboard-response,214,613132,null,"SUMMIT",null,word,,, 'SUMMIT',
html-keyboard-response,215,613636,null,"FLESH<img id = ""stim"" ><div class = green_square id = ""topsquare"" ></div><img id = ""stim"" ><div class = green_square  id = ""bottomsquare"" ></div>",null,word_square,0,SPACEBAR,,
html-keyboard-response,216,615140,null,"FLESH",null,word,,, 'FLESH',
html-keyboard-response,217,615643,null,"QUAIL<img id = ""stim"" ><div class = green_square id = ""topsquare"" ></div><img id = ""stim"" ><div class = green_square  id = ""bottomsquare"" ></div>",null,word_square,0,SPACEBAR,,
html-keyboard-response,218,617147,null,"QUAIL",null,word,,, 'QUAIL',
html-keyboard-response,219,617651,null,"STRING<img id = ""stim"" ><div class = green_square id = ""topsquare"" ></div><img id = ""stim"" ><div class = green_square  id = ""bottomsquare"" ></div>",null,word_square,0,SPACEBAR,,
html-keyboard-response,220,619155,null,"STRING",null,word,,, 'STRING',
html-keyboard-response,221,619659,null,"POSTAGE<img id = ""stim"" ><div class = red_square id = ""topsquare"" ></div><img id = ""stim"" ><div class = red_square  id = ""bottomsquare"" ></div>",null,word_square,1,SPACEBAR,,
html-keyboard-response,222,621162,null,"POSTAGE",null,word,,, 'POSTAGE',
html-keyboard-response,223,621666,null,"ARTIST<img id = ""stim"" ><div class = green_square id = ""topsquare"" ></div><img id = ""stim"" ><div class = green_square  id = ""bottomsquare"" ></div>",null,word_square,0,SPACEBAR,,
html-keyboard-response,224,623170,null,"ARTIST",null,word,,, 'ARTIST',
html-keyboard-response,225,623674,null,"SHOULDER<img id = ""stim"" ><div class = red_square id = ""topsquare"" ></div><img id = ""stim"" ><div class = red_square  id = ""bottomsquare"" ></div>",null,word_square,1,SPACEBAR,,
html-keyboard-response,226,625177,null,"SHOULDER",null,word,,, 'SHOULDER',
html-keyboard-response,227,625681,null,"GARAGE<img id = ""stim"" ><div class = green_square id = ""topsquare"" ></div><img id = ""stim"" ><div class = green_square  id = ""bottomsquare"" ></div>",null,word_square,0,SPACEBAR,,
html-keyboard-response,228,627185,null,"GARAGE",null,word,,, 'GARAGE',
html-keyboard-response,229,627689,null,"PUPPY<img id = ""stim"" ><div class = red_square id = ""topsquare"" ></div><img id = ""stim"" ><div class = red_square  id = ""bottomsquare"" ></div>",null,word_square,1,SPACEBAR,,
html-keyboard-response,230,629193,null,"PUPPY",null,word,,, 'PUPPY',
html-keyboard-response,231,629697,null,"MONEY<img id = ""stim"" ><div class = red_square id = ""topsquare"" ></div><img id = ""stim"" ><div class = red_square  id = ""bottomsquare"" ></div>",null,word_square,1,SPACEBAR,,
html-keyboard-response,232,631200,null,"MONEY",null,word,,, 'MONEY',
html-keyboard-response,233,631704,null,"DRILL<img id = ""stim"" ><div class = green_square id = ""topsquare"" ></div><img id = ""stim"" ><div class = green_square  id = ""bottomsquare"" ></div>",null,word_square,0,SPACEBAR,,
html-keyboard-response,234,633208,null,"DRILL",null,word,,, 'DRILL',
html-keyboard-response,235,633712,null,"BLUEPRINT<img id = ""stim"" ><div class = green_square id = ""topsquare"" ></div><img id = ""stim"" ><div class = green_square  id = ""bottomsquare"" ></div>",null,word_square,0,SPACEBAR,,
html-keyboard-response,236,635215,null,"BLUEPRINT",null,word,,, 'BLUEPRINT',
html-keyboard-response,237,635718,null,"COURSE<img id = ""stim"" ><div class = red_square id = ""topsquare"" ></div><img id = ""stim"" ><div class = red_square  id = ""bottomsquare"" ></div>",null,word_square,1,SPACEBAR,,
html-keyboard-response,238,637222,null,"COURSE",null,word,,, 'COURSE',
html-keyboard-response,239,637725,null,"MAILBOX<img id = ""stim"" ><div class = red_square id = ""topsquare"" ></div><img id = ""stim"" ><div class = red_square  id = ""bottomsquare"" ></div>",null,word_square,1,SPACEBAR,,
html-keyboard-response,240,639229,null,"MAILBOX",null,word,,, 'MAILBOX',
html-keyboard-response,241,639731,null,"HAND<img id = ""stim"" ><div class = green_square id = ""topsquare"" ></div><img id = ""stim"" ><div class = green_square  id = ""bottomsquare"" ></div>",null,word_square,0,SPACEBAR,,
html-keyboard-response,242,641234,null,"HAND",null,word,,, 'HAND',
survey-text,243,642601,1359.0000000001164,"",,,,,,{"Q0":"4"}
survey-text,244,644168,1561.9999999998836,"",,,,,,{"Q0":"1"}
survey-text,245,645246,1074,"",,,,,,{"Q0":"6"}
survey-text,246,646409,1159.0000000001164,"",,,,,,{"Q0":"4"}
survey-text,247,647477,1064,"",,,,,,{"Q0":"3"}
survey-text,248,648697,1215,"",,,,,,{"Q0":"4"}
survey-text,249,649753,1053,"",,,,,,{"Q0":"4"}
survey-text,250,650922,1165,"",,,,,,{"Q0":"5"}
survey-text,251,653131,2203.9999999998836,"",,,,,,{"Q0":"11"}
survey-text,252,655848,2712,"",,,,,,{"Q0":"3"}
survey-text,253,657898,2045,"",,,,,,{"Q0":"0"}
survey-text,254,659062,1160.0000000001164,"",,,,,,{"Q0":"4"}
survey-text,255,660090,1024,"",,,,,,{"Q0":"4"}
survey-text,256,661259,1165.0000000001164,"",,,,,,{"Q0":"1"}
survey-text,257,663302,2039,"",,,,,,{"Q0":"0"}
survey-text,258,665410,2102.9999999998836,"",,,,,,{"Q0":"2"}
survey-text,259,668124,2711,"",,,,,,{"Q0":"jungle"}
survey-text,260,669591,1463,"",,,,,,{"Q0":"primate"}
survey-text,261,676072,6477,"",,,,,,{"Q0":"garage"}
survey-text,262,677571,1493.9999999998836,"",,,,,,{"Q0":"flesh"}
survey-text,263,679299,1724,"",,,,,,{"Q0":"shoulder"}
survey-text,264,692621,13317,"",,,,,,{"Q0":"climber"}
survey-text,265,705868,13242,"",,,,,,{"Q0":"primate"}
survey-text,266,710915,5041,"",,,,,,{"Q0":"idk"}
survey-text,267,713617,2698,"",,,,,,{"Q0":"not sure"}
survey-text,268,819418,105796,"",,,,,,{"Q0":"idk"}
html-keyboard-response,269,830475,11053,"<div style=""font-size:48px;"">Press any key to begin list 4 of 24 </div>",32,,,,,
html-keyboard-response,270,832980,null,"<div style=""font-size:60px;"">+</div>",null,,,,,
html-keyboard-response,271,833484,null,"PONY<img id = ""stim"" ><div class = red_square id = ""topsquare"" ></div><img id = ""stim"" ><div class = red_square  id = ""bottomsquare"" ></div>",null,word_square,1,SPACEBAR,,
html-keyboard-response,272,834988,null,"PONY",null,word,,, 'PONY',
html-keyboard-response,273,835491,null,"FREEZER<img id = ""stim"" ><div class = red_square id = ""topsquare"" ></div><img id = ""stim"" ><div class = red_square  id = ""bottomsquare"" ></div>",null,word_square,1,SPACEBAR,,
html-keyboard-response,274,836995,null,"FREEZER",null,word,,, 'FREEZER',
html-keyboard-response,275,837499,null,"SHELF<img id = ""stim"" ><div class = green_square id = ""topsquare"" ></div><img id = ""stim"" ><div class = green_square  id = ""bottomsquare"" ></div>",null,word_square,0,SPACEBAR,,
html-keyboard-response,276,839003,null,"SHELF",null,word,,, 'SHELF',
html-keyboard-response,277,839507,null,"ELBOW<img id = ""stim"" ><div class = red_square id = ""topsquare"" ></div><img id = ""stim"" ><div class = red_square  id = ""bottomsquare"" ></div>",null,word_square,1,SPACEBAR,,
html-keyboard-response,278,841011,null,"ELBOW",null,word,,, 'ELBOW',
html-keyboard-response,279,841515,null,"GODDESS<img id = ""stim"" ><div class = green_square id = ""topsquare"" ></div><img id = ""stim"" ><div class = green_square  id = ""bottomsquare"" ></div>",null,word_square,0,SPACEBAR,,
html-keyboard-response,280,843019,null,"GODDESS",null,word,,, 'GODDESS',
html-keyboard-response,281,843523,null,"PITCHFORK<img id = ""stim"" ><div class = green_square id = ""topsquare"" ></div><img id = ""stim"" ><div class = green_square  id = ""bottomsquare"" ></div>",null,word_square,0,SPACEBAR,,
html-keyboard-response,282,845027,null,"PITCHFORK",null,word,,, 'PITCHFORK',
html-keyboard-response,283,845531,null,"CLAMP<img id = ""stim"" ><div class = green_square id = ""topsquare"" ></div><img id = ""stim"" ><div class = green_square  id = ""bottomsquare"" ></div>",null,word_square,0,SPACEBAR,,
html-keyboard-response,284,847034,null,"CLAMP",null,word,,, 'CLAMP',
html-keyboard-response,285,847538,null,"LIZARD<img id = ""stim"" ><div class = red_square id = ""topsquare"" ></div><img id = ""stim"" ><div class = red_square  id = ""bottomsquare"" ></div>",null,word_square,1,SPACEBAR,,
html-keyboard-response,286,849042,null,"LIZARD",null,word,,, 'LIZARD',
html-keyboard-response,287,849546,null,"POISON<img id = ""stim"" ><div class = green_square id = ""topsquare"" ></div><img id = ""stim"" ><div class = green_square  id = ""bottomsquare"" ></div>",null,word_square,0,SPACEBAR,,
html-keyboard-response,288,851049,null,"POISON",null,word,,, 'POISON',
html-keyboard-response,289,851553,null,"OUTFIT<img id = ""stim"" ><div class = red_square id = ""topsquare"" ></div><img id = ""stim"" ><div class = red_square  id = ""bottomsquare"" ></div>",null,word_square,1,SPACEBAR,,
html-keyboard-response,290,853057,null,"OUTFIT",null,word,,, 'OUTFIT',
html-keyboard-response,291,853561,null,"PIGEON<img id = ""stim"" ><div class = green_square id = ""topsquare"" ></div><img id = ""stim"" ><div class = green_square  id = ""bottomsquare"" ></div>",null,word_square,0,SPACEBAR,,
html-keyboard-response,292,855065,null,"PIGEON",null,word,,, 'PIGEON',
html-keyboard-response,293,855569,null,"TURKEY<img id = ""stim"" ><div class = red_square id = ""topsquare"" ></div><img id = ""stim"" ><div class = red_square  id = ""bottomsquare"" ></div>",null,word_square,1,SPACEBAR,,
html-keyboard-response,294,857073,null,"TURKEY",null,word,,, 'TURKEY',
html-keyboard-response,295,857577,null,"LADDER<img id = ""stim"" ><div class = red_square id = ""topsquare"" ></div><img id = ""stim"" ><div class = red_square  id = ""bottomsquare"" ></div>",null,word_square,1,SPACEBAR,,
html-keyboard-response,296,859080,null,"LADDER",null,word,,, 'LADDER',
html-keyboard-response,297,859584,null,"CAFE<img id = ""stim"" ><div class = green_square id = ""topsquare"" ></div><img id = ""stim"" ><div class = green_square  id = ""bottomsquare"" ></div>",null,word_square,0,SPACEBAR,,
html-keyboard-response,298,861088,null,"CAFE",null,word,,, 'CAFE',
html-keyboard-response,299,861592,null,"COOKBOOK<img id = ""stim"" ><div class = green_square id = ""topsquare"" ></div><img id = ""stim"" ><div class = green_square  id = ""bottomsquare"" ></div>",null,word_square,0,SPACEBAR,,
html-keyboard-response,300,863096,null,"COOKBOOK",null,word,,, 'COOKBOOK',
html-keyboard-response,301,863600,null,"CLOSET<img id = ""stim"" ><div class = red_square id = ""topsquare"" ></div><img id = ""stim"" ><div class = red_square  id = ""bottomsquare"" ></div>",null,word_square,1,SPACEBAR,,
html-keyboard-response,302,865103,null,"CLOSET",null,word,,, 'CLOSET',
html-keyboard-response,303,865607,null,"CRATER<img id = ""stim"" ><div class = red_square id = ""topsquare"" ></div><img id = ""stim"" ><div class = red_square  id = ""bottomsquare"" ></div>",null,word_square,1,SPACEBAR,,
html-keyboard-response,304,867111,null,"CRATER",null,word,,, 'CRATER',
html-keyboard-response,305,867615,null,"VALLEY<img id = ""stim"" ><div class = green_square id = ""topsquare"" ></div><img id = ""stim"" ><div class = green_square  id = ""bottomsquare"" ></div>",null,word_square,0,SPACEBAR,,
html-keyboard-response,306,869119,null,"VALLEY",null,word,,, 'VALLEY',
survey-text,307,872544,3416,"",,,,,,{"Q0":"5"}
survey-text,308,873575,1027.0000000001164,"",,,,,,{"Q0":"4"}
survey-text,309,874853,1274,"",,,,,,{"Q0":"2"}
survey-text,310,876017,1159,"",,,,,,{"Q0":"3"}
survey-text,311,877825,1803,"",,,,,,{"Q0":"5"}
survey-text,312,878765,935,"",,,,,,{"Q0":"3"}
survey-text,313,879915,1146,"",,,,,,{"Q0":"1"}
survey-text,314,881070,1151.0000000001164,"",,,,,,{"Q0":"5"}
survey-text,315,882193,1119,"",,,,,,{"Q0":"5"}
survey-text,316,883326,1130,"",,,,,,{"Q0":"5"}
survey-text,317,884413,1084,"",,,,,,{"Q0":"2"}
survey-text,318,886091,1673,"",,,,,,{"Q0":"2"}
survey-text,319,887444,1348,"",,,,,,{"Q0":"1"}
survey-text,320,889793,2345,"",,,,,,{"Q0":"2"}
survey-text,321,890975,1177.0000000001164,"",,,,,,{"Q0":"5"}
survey-text,322,891980,1000,"",,,,,,{"Q0":"3"}
survey-text,323,893244,1258.9999999998836,"",,,,,,{"Q0":"1"}
survey-text,324,895816,2566.9999999998836,"",,,,,,{"Q0":"pony"}
survey-text,325,897819,1997.9999999998836,"",,,,,,{"Q0":"ladder"}
survey-text,326,901874,4051,"",,,,,,{"Q0":"elbow"}
survey-text,327,904228,2351,"",,,,,,{"Q0":"shelf"}
survey-text,328,905974,1741,"",,,,,,{"Q0":"freezer"}
survey-text,329,909864,3886,"",,,,,,{"Q0":"poison"}
survey-text,330,911889,2022,"",,,,,,{"Q0":"trukey"}
survey-text,331,913822,1928,"",,,,,,{"Q0":"turkey"}
survey-text,332,915648,1821.0000000001164,"",,,,,,{"Q0":"pigeon"}
survey-text,333,921616,5962,"",,,,,,{"Q0":"lizard "}
survey-text,334,930139,8518,"",,,,,,{"Q0":"cafe"}
survey-text,335,937076,6931.000000000116,"",,,,,,{"Q0":"pitchfork"}
survey-text,336,944344,7262.999999999884,"",,,,,,{"Q0":"idk"}
survey-text,337,1003870,59520.99999999988,"",,,,,,{"Q0":"idk"}
html-keyboard-response,338,1004862,987.9999999998836,"<div style=""font-size:48px;"">Press any key to begin list 5 of 24 </div>",32,,,,,
html-keyboard-response,339,1007366,null,"<div style=""font-size:60px;"">+</div>",null,,,,,
html-keyboard-response,340,1007870,null,"PALACE<img id = ""stim"" ><div class = green_square id = ""topsquare"" ></div><img id = ""stim"" ><div class = green_square  id = ""bottomsquare"" ></div>",null,word_square,0,SPACEBAR,,
html-keyboard-response,341,1009374,null,"PALACE",null,word,,, 'PALACE',
html-keyboard-response,342,1009878,null,"MILDEW<img id = ""stim"" ><div class = red_square id = ""topsquare"" ></div><img id = ""stim"" ><div class = red_square  id = ""bottomsquare"" ></div>",null,word_square,1,SPACEBAR,,
html-keyboard-response,343,1011382,null,"MILDEW",null,word,,, 'MILDEW',
html-keyboard-response,344,1011886,null,"SLIME<img id = ""stim"" ><div class = green_square id = ""topsquare"" ></div><img id = ""stim"" ><div class = green_square  id = ""bottomsquare"" ></div>",null,word_square,0,SPACEBAR,,
html-keyboard-response,345,1013390,null,"SLIME",null,word,,, 'SLIME',
html-keyboard-response,346,1013894,null,"EMPIRE<img id = ""stim"" ><div class = green_square id = ""topsquare"" ></div><img id = ""stim"" ><div class = green_square  id = ""bottomsquare"" ></div>",null,word_square,0,SPACEBAR,,
html-keyboard-response,347,1015397,null,"EMPIRE",null,word,,, 'EMPIRE',
html-keyboard-response,348,1015902,null,"STABLE<img id = ""stim"" ><div class = red_square id = ""topsquare"" ></div><img id = ""stim"" ><div class = red_square  id = ""bottomsquare"" ></div>",null,word_square,1,SPACEBAR,,
html-keyboard-response,349,1017405,null,"STABLE",null,word,,, 'STABLE',
html-keyboard-response,350,1017910,null,"DRIVER<img id = ""stim"" ><div class = red_square id = ""topsquare"" ></div><img id = ""stim"" ><div class = red_square  id = ""bottomsquare"" ></div>",null,word_square,1,SPACEBAR,,
html-keyboard-response,351,1019413,null,"DRIVER",null,word,,, 'DRIVER',
html-keyboard-response,352,1019917,null,"PUMPKIN<img id = ""stim"" ><div class = green_square id = ""topsquare"" ></div><img id = ""stim"" ><div class = green_square  id = ""bottomsquare"" ></div>",null,word_square,0,SPACEBAR,,
html-keyboard-response,353,1021421,null,"PUMPKIN",null,word,,, 'PUMPKIN',
html-keyboard-response,354,1021926,null,"MAJOR<img id = ""stim"" ><div class = red_square id = ""topsquare"" ></div><img id = ""stim"" ><div class = red_square  id = ""bottomsquare"" ></div>",null,word_square,1,SPACEBAR,,
html-keyboard-response,355,1023429,null,"MAJOR",null,word,,, 'MAJOR',
html-keyboard-response,356,1023934,null,"SPIDER<img id = ""stim"" ><div class = green_square id = ""topsquare"" ></div><img id = ""stim"" ><div class = green_square  id = ""bottomsquare"" ></div>",null,word_square,0,SPACEBAR,,
html-keyboard-response,357,1025437,null,"SPIDER",null,word,,, 'SPIDER',
html-keyboard-response,358,1025942,null,"PASTRY<img id = ""stim"" ><div class = red_square id = ""topsquare"" ></div><img id = ""stim"" ><div class = red_square  id = ""bottomsquare"" ></div>",null,word_square,1,SPACEBAR,,
html-keyboard-response,359,1027445,null,"PASTRY",null,word,,, 'PASTRY',
html-keyboard-response,360,1027950,null,"DRAWING<img id = ""stim"" ><div class = green_square id = ""topsquare"" ></div><img id = ""stim"" ><div class = green_square  id = ""bottomsquare"" ></div>",null,word_square,0,SPACEBAR,,
html-keyboard-response,361,1029453,null,"DRAWING",null,word,,, 'DRAWING',
html-keyboard-response,362,1029958,null,"FRAME<img id = ""stim"" ><div class = green_square id = ""topsquare"" ></div><img id = ""stim"" ><div class = green_square  id = ""bottomsquare"" ></div>",null,word_square,0,SPACEBAR,,
html-keyboard-response,363,1031462,null,"FRAME",null,word,,, 'FRAME',
html-keyboard-response,364,1031965,null,"ROBOT<img id = ""stim"" ><div class = red_square id = ""topsquare"" ></div><img id = ""stim"" ><div class = red_square  id = ""bottomsquare"" ></div>",null,word_square,1,SPACEBAR,,
html-keyboard-response,365,1033468,null,"ROBOT",null,word,,, 'ROBOT',
html-keyboard-response,366,1033973,null,"RECORD<img id = ""stim"" ><div class = red_square id = ""topsquare"" ></div><img id = ""stim"" ><div class = red_square  id = ""bottomsquare"" ></div>",null,word_square,1,SPACEBAR,,
html-keyboard-response,367,1035476,null,"RECORD",null,word,,, 'RECORD',
html-keyboard-response,368,1035980,null,"INSECT<img id = ""stim"" ><div class = red_square id = ""topsquare"" ></div><img id = ""stim"" ><div class = red_square  id = ""bottomsquare"" ></div>",null,word_square,1,SPACEBAR,,
html-keyboard-response,369,1037484,null,"INSECT",null,word,,, 'INSECT',
html-keyboard-response,370,1037988,null,"BACKBONE<img id = ""stim"" ><div class = green_square id = ""topsquare"" ></div><img id = ""stim"" ><div class = green_square  id = ""bottomsquare"" ></div>",null,word_square,0,SPACEBAR,,
html-keyboard-response,371,1039492,null,"BACKBONE",null,word,,, 'BACKBONE',
html-keyboard-response,372,1039995,null,"DOUGHNUT<img id = ""stim"" ><div class = green_square id = ""topsquare"" ></div><img id = ""stim"" ><div class = green_square  id = ""bottomsquare"" ></div>",null,word_square,0,SPACEBAR,,
html-keyboard-response,373,1041499,null,"DOUGHNUT",null,word,,, 'DOUGHNUT',
html-keyboard-response,374,1042003,null,"CRICKET<img id = ""stim"" ><div class = red_square id = ""topsquare"" ></div><img id = ""stim"" ><div class = red_square  id = ""bottomsquare"" ></div>",null,word_square,1,SPACEBAR,,
html-keyboard-response,375,1043507,null,"CRICKET",null,word,,, 'CRICKET',
survey-text,376,1048905,5388.999999999884,"",,,,,,{"Q0":"0"}
survey-text,377,1050659,1750,"",,,,,,{"Q0":"1"}
survey-text,378,1052330,1667,"",,,,,,{"Q0":"1"}
survey-text,379,1053449,1114,"",,,,,,{"Q0":"3"}
survey-text,380,1054425,972,"",,,,,,{"Q0":"4"}
survey-text,381,1055604,1174,"",,,,,,{"Q0":"1"}
survey-text,382,1057448,1840,"",,,,,,{"Q0":"0"}
survey-text,383,1059327,1874,"",,,,,,{"Q0":"2"}
survey-text,384,1061060,1727.9999999997672,"",,,,,,{"Q0":"1"}
survey-text,385,1063902,2837,"",,,,,,{"Q0":"2"}
survey-text,386,1065391,1484,"",,,,,,{"Q0":"1"}
survey-text,387,1066512,1116,"",,,,,,{"Q0":"2"}
survey-text,388,1068339,1823,"",,,,,,{"Q0":"1"}
survey-text,389,1071343,2998,"",,,,,,{"Q0":"palace"}
survey-text,390,1072423,1075,"",,,,,,{"Q0":"stable"}
survey-text,391,1073992,1563.9999999997672,"",,,,,,{"Q0":"empire"}
survey-text,392,1081026,7028.999999999767,"",,,,,,{"Q0":"spider"}
survey-text,393,1085012,3981,"",,,,,,{"Q0":"mildew"}
survey-text,394,1112030,27013,"",,,,,,{"Q0":"drawing"}
survey-text,395,1113552,1517.9999999997672,"",,,,,,{"Q0":"insect"}
survey-text,396,1120949,7394,"",,,,,,{"Q0":"cricket"}
survey-text,397,1133591,12639,"",,,,,,{"Q0":"idk"}
survey-text,398,1211405,77810,"",,,,,,{"Q0":"idk"}
html-keyboard-response,399,1217696,6286.999999999767,"<div style=""font-size:48px;"">Press any key to begin list 6 of 24 </div>",32,,,,,
html-keyboard-response,400,1220200,null,"<div style=""font-size:60px;"">+</div>",null,,,,,
html-keyboard-response,401,1220702,null,"MAMMAL<img id = ""stim"" ><div class = green_square id = ""topsquare"" ></div><img id = ""stim"" ><div class = green_square  id = ""bottomsquare"" ></div>",null,word_square,0,SPACEBAR,,
html-keyboard-response,402,1222205,null,"MAMMAL",null,word,,, 'MAMMAL',
html-keyboard-response,403,1222709,null,"SNAKE<img id = ""stim"" ><div class = red_square id = ""topsquare"" ></div><img id = ""stim"" ><div class = red_square  id = ""bottomsquare"" ></div>",null,word_square,1,SPACEBAR,,
html-keyboard-response,404,1224213,null,"SNAKE",null,word,,, 'SNAKE',
html-keyboard-response,405,1224717,null,"BUGLE<img id = ""stim"" ><div class = green_square id = ""topsquare"" ></div><img id = ""stim"" ><div class = green_square  id = ""bottomsquare"" ></div>",null,word_square,0,SPACEBAR,,
html-keyboard-response,406,1226221,null,"BUGLE",null,word,,, 'BUGLE',
html-keyboard-response,407,1226725,null,"BISON<img id = ""stim"" ><div class = green_square id = ""topsquare"" ></div><img id = ""stim"" ><div class = green_square  id = ""bottomsquare"" ></div>",null,word_square,0,SPACEBAR,,
html-keyboard-response,408,1228229,null,"BISON",null,word,,, 'BISON',
html-keyboard-response,409,1228733,null,"BENCH<img id = ""stim"" ><div class = red_square id = ""topsquare"" ></div><img id = ""stim"" ><div class = red_square  id = ""bottomsquare"" ></div>",null,word_square,1,SPACEBAR,,
html-keyboard-response,410,1230237,null,"BENCH",null,word,,, 'BENCH',
html-keyboard-response,411,1230742,null,"DART<img id = ""stim"" ><div class = red_square id = ""topsquare"" ></div><img id = ""stim"" ><div class = red_square  id = ""bottomsquare"" ></div>",null,word_square,1,SPACEBAR,,
html-keyboard-response,412,1232245,null,"DART",null,word,,, 'DART',
html-keyboard-response,413,1232750,null,"FRIEND<img id = ""stim"" ><div class = green_square id = ""topsquare"" ></div><img id = ""stim"" ><div class = green_square  id = ""bottomsquare"" ></div>",null,word_square,0,SPACEBAR,,
html-keyboard-response,414,1234253,null,"FRIEND",null,word,,, 'FRIEND',
html-keyboard-response,415,1234757,null,"BROTHER<img id = ""stim"" ><div class = red_square id = ""topsquare"" ></div><img id = ""stim"" ><div class = red_square  id = ""bottomsquare"" ></div>",null,word_square,1,SPACEBAR,,
html-keyboard-response,416,1236261,null,"BROTHER",null,word,,, 'BROTHER',
html-keyboard-response,417,1236765,null,"WOMAN<img id = ""stim"" ><div class = green_square id = ""topsquare"" ></div><img id = ""stim"" ><div class = green_square  id = ""bottomsquare"" ></div>",null,word_square,0,SPACEBAR,,
html-keyboard-response,418,1238269,null,"WOMAN",null,word,,, 'WOMAN',
html-keyboard-response,419,1238773,null,"ANTLER<img id = ""stim"" ><div class = red_square id = ""topsquare"" ></div><img id = ""stim"" ><div class = red_square  id = ""bottomsquare"" ></div>",null,word_square,1,SPACEBAR,,
html-keyboard-response,420,1240277,null,"ANTLER",null,word,,, 'ANTLER',
html-keyboard-response,421,1240780,null,"DINER<img id = ""stim"" ><div class = green_square id = ""topsquare"" ></div><img id = ""stim"" ><div class = green_square  id = ""bottomsquare"" ></div>",null,word_square,0,SPACEBAR,,
html-keyboard-response,422,1242284,null,"DINER",null,word,,, 'DINER',
html-keyboard-response,423,1242788,null,"DOLPHIN<img id = ""stim"" ><div class = green_square id = ""topsquare"" ></div><img id = ""stim"" ><div class = green_square  id = ""bottomsquare"" ></div>",null,word_square,0,SPACEBAR,,
html-keyboard-response,424,1244292,null,"DOLPHIN",null,word,,, 'DOLPHIN',
html-keyboard-response,425,1244796,null,"ATLAS<img id = ""stim"" ><div class = red_square id = ""topsquare"" ></div><img id = ""stim"" ><div class = red_square  id = ""bottomsquare"" ></div>",null,word_square,1,SPACEBAR,,
html-keyboard-response,426,1246300,null,"ATLAS",null,word,,, 'ATLAS',
html-keyboard-response,427,1246804,null,"GLOBE<img id = ""stim"" ><div class = red_square id = ""topsquare"" ></div><img id = ""stim"" ><div class = red_square  id = ""bottomsquare"" ></div>",null,word_square,1,SPACEBAR,,
html-keyboard-response,428,1248308,null,"GLOBE",null,word,,, 'GLOBE',
html-keyboard-response,429,1248812,null,"LASER<img id = ""stim"" ><div class = red_square id = ""topsquare"" ></div><img id = ""stim"" ><div class = red_square  id = ""bottomsquare"" ></div>",null,word_square,1,SPACEBAR,,
html-keyboard-response,430,1250316,null,"LASER",null,word,,, 'LASER',
html-keyboard-response,431,1250820,null,"VENUS<img id = ""stim"" ><div class = green_square id = ""topsquare"" ></div><img id = ""stim"" ><div class = green_square  id = ""bottomsquare"" ></div>",null,word_square,0,SPACEBAR,,
html-keyboard-response,432,1252324,null,"VENUS",null,word,,, 'VENUS',
html-keyboard-response,433,1252828,null,"NEPTUNE<img id = ""stim"" ><div class = green_square id = ""topsquare"" ></div><img id = ""stim"" ><div class = green_square  id = ""bottomsquare"" ></div>",null,word_square,0,SPACEBAR,,
html-keyboard-response,434,1254332,null,"NEPTUNE",null,word,,, 'NEPTUNE',
html-keyboard-response,435,1254837,null,"PIMPLE<img id = ""stim"" ><div class = red_square id = ""topsquare"" ></div><img id = ""stim"" ><div class = red_square  id = ""bottomsquare"" ></div>",null,word_square,1,SPACEBAR,,
html-keyboard-response,436,1256340,null,"PIMPLE",null,word,,, 'PIMPLE',
survey-text,437,1257794,1448.0000000002328,"",,,,,,{"Q0":"1"}
survey-text,438,1259137,1340,"",,,,,,{"Q0":"1"}
survey-text,439,1259880,738,"",,,,,,{"Q0":"1"}
survey-text,440,1261047,1161,"",,,,,,{"Q0":"4"}
survey-text,441,1261781,730,"",,,,,,{"Q0":"4"}
survey-text,442,1263685,1899,"",,,,,,{"Q0":"3"}
survey-text,443,1264898,1210.0000000002328,"",,,,,,{"Q0":"1"}
survey-text,444,1265965,1061,"",,,,,,{"Q0":"4"}
survey-text,445,1267004,1035.0000000002328,"",,,,,,{"Q0":"2"}
survey-text,446,1268002,993,"",,,,,,{"Q0":"3"}
survey-text,447,1269033,1027.0000000002328,"",,,,,,{"Q0":"1"}
survey-text,448,1270403,1366,"",,,,,,{"Q0":"4"}
survey-text,449,1271859,1453,"",,,,,,{"Q0":"3"}
survey-text,450,1272946,1082.0000000002328,"",,,,,,{"Q0":"3"}
survey-text,451,1274706,1757.0000000002328,"",,,,,,{"Q0":"2"}
survey-text,452,1276013,1301,"",,,,,,{"Q0":"4"}
survey-text,453,1277046,1028,"",,,,,,{"Q0":"3"}
survey-text,454,1278182,1132,"",,,,,,{"Q0":"5"}
survey-text,455,1279211,1023.9999999997672,"",,,,,,{"Q0":"3"}
survey-text,456,1280083,867,"",,,,,,{"Q0":"3"}
survey-text,457,1281090,1003,"",,,,,,{"Q0":"4"}
survey-text,458,1283924,2830,"",,,,,,{"Q0":"friend"}
survey-text,459,1285820,1891,"",,,,,,{"Q0":"brother"}
survey-text,460,1289736,3911,"",,,,,,{"Q0":"woman"}
survey-text,461,1292028,2286,"",,,,,,{"Q0":"atlas"}
survey-text,462,1293233,1200,"",,,,,,{"Q0":"globe"}
survey-text,463,1294642,1404,"",,,,,,{"Q0":"venus"}
survey-text,464,1295971,1325,"",,,,,,{"Q0":"neptune"}
survey-text,465,1348449,52473,"",,,,,,{"Q0":"idk"}
survey-text,466,1380550,32096,"",,,,,,{"Q0":"idk"}
html-keyboard-response,467,1381441,888,"<div style=""font-size:48px;"">Press any key to begin list 7 of 24 </div>",32,,,,,
html-keyboard-response,468,1383944,null,"<div style=""font-size:60px;"">+</div>",null,,,,,
html-keyboard-response,469,1384447,null,"HELMET<img id = ""stim"" ><div class = red_square id = ""topsquare"" ></div><img id = ""stim"" ><div class = red_square  id = ""bottomsquare"" ></div>",null,word_square,1,SPACEBAR,,
html-keyboard-response,470,1385950,null,"HELMET",null,word,,, 'HELMET',
html-keyboard-response,471,1386454,null,"BUCKET<img id = ""stim"" ><div class = green_square id = ""topsquare"" ></div><img id = ""stim"" ><div class = green_square  id = ""bottomsquare"" ></div>",null,word_square,0,SPACEBAR,,
html-keyboard-response,472,1387958,null,"BUCKET",null,word,,, 'BUCKET',
html-keyboard-response,473,1388461,null,"SPARROW<img id = ""stim"" ><div class = red_square id = ""topsquare"" ></div><img id = ""stim"" ><div class = red_square  id = ""bottomsquare"" ></div>",null,word_square,1,SPACEBAR,,
html-keyboard-response,474,1389964,null,"SPARROW",null,word,,, 'SPARROW',
html-keyboard-response,475,1390468,null,"RAZOR<img id = ""stim"" ><div class = red_square id = ""topsquare"" ></div><img id = ""stim"" ><div class = red_square  id = ""bottomsquare"" ></div>",null,word_square,1,SPACEBAR,,
html-keyboard-response,476,1391972,null,"RAZOR",null,word,,, 'RAZOR',
html-keyboard-response,477,1392475,null,"SWORD<img id = ""stim"" ><div class = green_square id = ""topsquare"" ></div><img id = ""stim"" ><div class = green_square  id = ""bottomsquare"" ></div>",null,word_square,0,SPACEBAR,,
html-keyboard-response,478,1393979,null,"SWORD",null,word,,, 'SWORD',
html-keyboard-response,479,1394483,null,"INFANT<img id = ""stim"" ><div class = green_square id = ""topsquare"" ></div><img id = ""stim"" ><div class = green_square  id = ""bottomsquare"" ></div>",null,word_square,0,SPACEBAR,,
html-keyboard-response,480,1395987,null,"INFANT",null,word,,, 'INFANT',
html-keyboard-response,481,1396490,null,"BABY<img id = ""stim"" ><div class = red_square id = ""topsquare"" ></div><img id = ""stim"" ><div class = red_square  id = ""bottomsquare"" ></div>",null,word_square,1,SPACEBAR,,
html-keyboard-response,482,1397994,null,"BABY",null,word,,, 'BABY',
html-keyboard-response,483,1398498,null,"BRANDY<img id = ""stim"" ><div class = green_square id = ""topsquare"" ></div><img id = ""stim"" ><div class = green_square  id = ""bottomsquare"" ></div>",null,word_square,0,SPACEBAR,,
html-keyboard-response,484,1400002,null,"BRANDY",null,word,,, 'BRANDY',
html-keyboard-response,485,1400506,null,"EAGLE<img id = ""stim"" ><div class = red_square id = ""topsquare"" ></div><img id = ""stim"" ><div class = red_square  id = ""bottomsquare"" ></div>",null,word_square,1,SPACEBAR,,
html-keyboard-response,486,1402009,null,"EAGLE",null,word,,, 'EAGLE',
html-keyboard-response,487,1402514,null,"POCKET<img id = ""stim"" ><div class = green_square id = ""topsquare"" ></div><img id = ""stim"" ><div class = green_square  id = ""bottomsquare"" ></div>",null,word_square,0,SPACEBAR,,
html-keyboard-response,488,1404017,null,"POCKET",null,word,,, 'POCKET',
html-keyboard-response,489,1404521,null,"DOORBELL<img id = ""stim"" ><div class = red_square id = ""topsquare"" ></div><img id = ""stim"" ><div class = red_square  id = ""bottomsquare"" ></div>",null,word_square,1,SPACEBAR,,
html-keyboard-response,490,1406025,null,"DOORBELL",null,word,,, 'DOORBELL',
html-keyboard-response,491,1406529,null,"VAGRANT<img id = ""stim"" ><div class = red_square id = ""topsquare"" ></div><img id = ""stim"" ><div class = red_square  id = ""bottomsquare"" ></div>",null,word_square,1,SPACEBAR,,
html-keyboard-response,492,1408032,null,"VAGRANT",null,word,,, 'VAGRANT',
html-keyboard-response,493,1408536,null,"NOMAD<img id = ""stim"" ><div class = green_square id = ""topsquare"" ></div><img id = ""stim"" ><div class = green_square  id = ""bottomsquare"" ></div>",null,word_square,0,SPACEBAR,,
html-keyboard-response,494,1410040,null,"NOMAD",null,word,,, 'NOMAD',
html-keyboard-response,495,1410544,null,"GLASSES<img id = ""stim"" ><div class = green_square id = ""topsquare"" ></div><img id = ""stim"" ><div class = green_square  id = ""bottomsquare"" ></div>",null,word_square,0,SPACEBAR,,
html-keyboard-response,496,1412048,null,"GLASSES",null,word,,, 'GLASSES',
html-keyboard-response,497,1412552,null,"HOOD<img id = ""stim"" ><div class = green_square id = ""topsquare"" ></div><img id = ""stim"" ><div class = green_square  id = ""bottomsquare"" ></div>",null,word_square,0,SPACEBAR,,
html-keyboard-response,498,1414055,null,"HOOD",null,word,,, 'HOOD',
html-keyboard-response,499,1414559,null,"SHORTS<img id = ""stim"" ><div class = red_square id = ""topsquare"" ></div><img id = ""stim"" ><div class = red_square  id = ""bottomsquare"" ></div>",null,word_square,1,SPACEBAR,,
html-keyboard-response,500,1416063,null,"SHORTS",null,word,,, 'SHORTS',
html-keyboard-response,501,1416567,null,"SIRLOIN<img id = ""stim"" ><div class = red_square id = ""topsquare"" ></div><img id = ""stim"" ><div class = red_square  id = ""bottomsquare"" ></div>",null,word_square,1,SPACEBAR,,
html-keyboard-response,502,1418071,null,"SIRLOIN",null,word,,, 'SIRLOIN',
html-keyboard-response,503,1418575,null,"ACTOR<img id = ""stim"" ><div class = green_square id = ""topsquare"" ></div><img id = ""stim"" ><div class = green_square  id = ""bottomsquare"" ></div>",null,word_square,0,SPACEBAR,,
html-keyboard-response,504,1420079,null,"ACTOR",null,word,,, 'ACTOR',
survey-text,505,1421990,1904,"",,,,,,{"Q0":"6"}
survey-text,506,1422936,941.9999999997672,"",,,,,,{"Q0":"2"}
survey-text,507,1424978,2038,"",,,,,,{"Q0":"0"}
survey-text,508,1425884,901,"",,,,,,{"Q0":"4"}
survey-text,509,1427519,1629.9999999997672,"",,,,,,{"Q0":"2"}
survey-text,510,1429710,2185,"",,,,,,{"Q0":"-1"}
survey-text,511,1432014,2299.000000000233,"",,,,,,{"Q0":"2"}
survey-text,512,1433024,1005,"",,,,,,{"Q0":"3"}
survey-text,513,1434893,1865,"",,,,,,{"Q0":"2"}
survey-text,514,1436188,1289.9999999997672,"",,,,,,{"Q0":"1"}
survey-text,515,1437492,1300,"",,,,,,{"Q0":"1"}
survey-text,516,1438608,1110,"",,,,,,{"Q0":"4"}
survey-text,517,1439732,1119,"",,,,,,{"Q0":"5"}
survey-text,518,1440877,1141,"",,,,,,{"Q0":"5"}
survey-text,519,1442048,1167,"",,,,,,{"Q0":"2"}
survey-text,520,1443020,967,"",,,,,,{"Q0":"3"}
survey-text,521,1444348,1323,"",,,,,,{"Q0":"1"}
survey-text,522,1447056,2703,"",,,,,,{"Q0":"baby"}
survey-text,523,1448155,1094,"",,,,,,{"Q0":"sword"}
survey-text,524,1454774,6613,"",,,,,,{"Q0":"hood"}
survey-text,525,1457858,3081.000000000233,"",,,,,,{"Q0":"helmet"}
survey-text,526,1459341,1479.0000000002328,"",,,,,,{"Q0":"shorts"}
survey-text,527,1464636,5290,"",,,,,,{"Q0":"bucket"}
survey-text,528,1465606,966,"",,,,,,{"Q0":"eagle"}
survey-text,529,1468811,3201.000000000233,"",,,,,,{"Q0":"sirloin "}
survey-text,530,1471949,3134,"",,,,,,{"Q0":"sparrow"}
survey-text,531,1477945,5992.000000000233,"",,,,,,{"Q0":"glasses"}
survey-text,532,1483644,5693,"",,,,,,{"Q0":"idk"}
survey-text,533,1540541,56891,"",,,,,,{"Q0":"idk"}
html-keyboard-response,534,1541268,724,"<div style=""font-size:48px;"">Press any key to begin list 8 of 24 </div>",32,,,,,
html-keyboard-response,535,1543773,null,"<div style=""font-size:60px;"">+</div>",null,,,,,
html-keyboard-response,536,1544277,null,"CURTAIN<img id = ""stim"" ><div class = red_square id = ""topsquare"" ></div><img id = ""stim"" ><div class = red_square  id = ""bottomsquare"" ></div>",null,word_square,1,SPACEBAR,,
html-keyboard-response,537,1545780,null,"CURTAIN",null,word,,, 'CURTAIN',
html-keyboard-response,538,1546284,null,"SHIRT<img id = ""stim"" ><div class = green_square id = ""topsquare"" ></div><img id = ""stim"" ><div class = green_square  id = ""bottomsquare"" ></div>",null,word_square,0,SPACEBAR,,
html-keyboard-response,539,1547788,null,"SHIRT",null,word,,, 'SHIRT',
html-keyboard-response,540,1548292,null,"CANVAS<img id = ""stim"" ><div class = red_square id = ""topsquare"" ></div><img id = ""stim"" ><div class = red_square  id = ""bottomsquare"" ></div>",null,word_square,1,SPACEBAR,,
html-keyboard-response,541,1549795,null,"CANVAS",null,word,,, 'CANVAS',
html-keyboard-response,542,1550299,null,"PENCIL<img id = ""stim"" ><div class = red_square id = ""topsquare"" ></div><img id = ""stim"" ><div class = red_square  id = ""bottomsquare"" ></div>",null,word_square,1,SPACEBAR,,
html-keyboard-response,543,1551802,null,"PENCIL",null,word,,, 'PENCIL',
html-keyboard-response,544,1552306,null,"MARROW<img id = ""stim"" ><div class = green_square id = ""topsquare"" ></div><img id = ""stim"" ><div class = green_square  id = ""bottomsquare"" ></div>",null,word_square,0,SPACEBAR,,
html-keyboard-response,545,1553810,null,"MARROW",null,word,,, 'MARROW',
html-keyboard-response,546,1554314,null,"JAPAN<img id = ""stim"" ><div class = green_square id = ""topsquare"" ></div><img id = ""stim"" ><div class = green_square  id = ""bottomsquare"" ></div>",null,word_square,0,SPACEBAR,,
html-keyboard-response,547,1555817,null,"JAPAN",null,word,,, 'JAPAN',
html-keyboard-response,548,1556321,null,"BEAVER<img id = ""stim"" ><div class = red_square id = ""topsquare"" ></div><img id = ""stim"" ><div class = red_square  id = ""bottomsquare"" ></div>",null,word_square,1,SPACEBAR,,
html-keyboard-response,549,1557825,null,"BEAVER",null,word,,, 'BEAVER',
html-keyboard-response,550,1558329,null,"HAMMER<img id = ""stim"" ><div class = green_square id = ""topsquare"" ></div><img id = ""stim"" ><div class = green_square  id = ""bottomsquare"" ></div>",null,word_square,0,SPACEBAR,,
html-keyboard-response,551,1559832,null,"HAMMER",null,word,,, 'HAMMER',
html-keyboard-response,552,1560336,null,"STONE<img id = ""stim"" ><div class = red_square id = ""topsquare"" ></div><img id = ""stim"" ><div class = red_square  id = ""bottomsquare"" ></div>",null,word_square,1,SPACEBAR,,
html-keyboard-response,553,1561840,null,"STONE",null,word,,, 'STONE',
html-keyboard-response,554,1562344,null,"VICTIM<img id = ""stim"" ><div class = green_square id = ""topsquare"" ></div><img id = ""stim"" ><div class = green_square  id = ""bottomsquare"" ></div>",null,word_square,0,SPACEBAR,,
html-keyboard-response,555,1563848,null,"VICTIM",null,word,,, 'VICTIM',
html-keyboard-response,556,1564351,null,"SUSPECT<img id = ""stim"" ><div class = red_square id = ""topsquare"" ></div><img id = ""stim"" ><div class = red_square  id = ""bottomsquare"" ></div>",null,word_square,1,SPACEBAR,,
html-keyboard-response,557,1565855,null,"SUSPECT",null,word,,, 'SUSPECT',
html-keyboard-response,558,1566359,null,"CREVICE<img id = ""stim"" ><div class = red_square id = ""topsquare"" ></div><img id = ""stim"" ><div class = red_square  id = ""bottomsquare"" ></div>",null,word_square,1,SPACEBAR,,
html-keyboard-response,559,1567862,null,"CREVICE",null,word,,, 'CREVICE',
html-keyboard-response,560,1568366,null,"POSSUM<img id = ""stim"" ><div class = green_square id = ""topsquare"" ></div><img id = ""stim"" ><div class = green_square  id = ""bottomsquare"" ></div>",null,word_square,0,SPACEBAR,,
html-keyboard-response,561,1569870,null,"POSSUM",null,word,,, 'POSSUM',
html-keyboard-response,562,1570374,null,"HAWK<img id = ""stim"" ><div class = green_square id = ""topsquare"" ></div><img id = ""stim"" ><div class = green_square  id = ""bottomsquare"" ></div>",null,word_square,0,SPACEBAR,,
html-keyboard-response,563,1571878,null,"HAWK",null,word,,, 'HAWK',
html-keyboard-response,564,1572382,null,"SCARECROW<img id = ""stim"" ><div class = green_square id = ""topsquare"" ></div><img id = ""stim"" ><div class = green_square  id = ""bottomsquare"" ></div>",null,word_square,0,SPACEBAR,,
html-keyboard-response,565,1573885,null,"SCARECROW",null,word,,, 'SCARECROW',
html-keyboard-response,566,1574389,null,"SUNSET<img id = ""stim"" ><div class = red_square id = ""topsquare"" ></div><img id = ""stim"" ><div class = red_square  id = ""bottomsquare"" ></div>",null,word_square,1,SPACEBAR,,
html-keyboard-response,567,1575893,null,"SUNSET",null,word,,, 'SUNSET',
html-keyboard-response,568,1576397,null,"SUNRISE<img id = ""stim"" ><div class = red_square id = ""topsquare"" ></div><img id = ""stim"" ><div class = red_square  id = ""bottomsquare"" ></div>",null,word_square,1,SPACEBAR,,
html-keyboard-response,569,1577900,null,"SUNRISE",null,word,,, 'SUNRISE',
html-keyboard-response,570,1578404,null,"STAMP<img id = ""stim"" ><div class = green_square id = ""topsquare"" ></div><img id = ""stim"" ><div class = green_square  id = ""bottomsquare"" ></div>",null,word_square,0,SPACEBAR,,
html-keyboard-response,571,1579908,null,"STAMP",null,word,,, 'STAMP',
survey-text,572,1581610,1694.0000000002328,"",,,,,,{"Q0":"6"}
survey-text,573,1582560,945,"",,,,,,{"Q0":"4"}
survey-text,574,1583870,1304.0000000002328,"",,,,,,{"Q0":"5"}
survey-text,575,1584795,921,"",,,,,,{"Q0":"4"}
survey-text,576,1585856,1054.9999999997672,"",,,,,,{"Q0":"4"}
survey-text,577,1587261,1400,"",,,,,,{"Q0":"4"}
survey-text,578,1588449,1183,"",,,,,,{"Q0":"5"}
survey-text,579,1589556,1102,"",,,,,,{"Q0":"4"}
survey-text,580,1590898,1337.0000000002328,"",,,,,,{"Q0":"3"}
survey-text,581,1593329,2426,"",,,,,,{"Q0":"3"}
survey-text,582,1594297,965,"",,,,,,{"Q0":"3"}
survey-text,583,1595120,817.0000000002328,"",,,,,,{"Q0":"3"}
survey-text,584,1596358,1234,"",,,,,,{"Q0":"5"}
survey-text,585,1597496,1134,"",,,,,,{"Q0":"6"}
survey-text,586,1598843,1344,"",,,,,,{"Q0":"2"}
survey-text,587,1599861,1014,"",,,,,,{"Q0":"5"}
survey-text,588,1602451,2585,"",,,,,,{"Q0":"2"}
survey-text,589,1603592,1135,"",,,,,,{"Q0":"5"}
survey-text,590,1605002,1406,"",,,,,,{"Q0":"3"}
survey-text,591,1609127,4119,"",,,,,,{"Q0":"victim"}
survey-text,592,1610688,1556,"",,,,,,{"Q0":"suspect"}
survey-text,593,1612919,2226,"",,,,,,{"Q0":"shirt"}
survey-text,594,1613913,988,"",,,,,,{"Q0":"stone"}
survey-text,595,1614982,1064.9999999997672,"",,,,,,{"Q0":"hammer"}
survey-text,596,1619265,4277,"",,,,,,{"Q0":"marrow"}
survey-text,597,1639059,19791,"",,,,,,{"Q0":"Japan"}
survey-text,598,1642409,3344,"",,,,,,{"Q0":"crevice"}
survey-text,599,1741739,99326,"",,,,,,{"Q0":"idk"}
html-keyboard-response,600,1748730,6988,"<div style=""font-size:48px;"">Press any key to begin list 9 of 24 </div>",32,,,,,
html-keyboard-response,601,1751235,null,"<div style=""font-size:60px;"">+</div>",null,,,,,
html-keyboard-response,602,1751739,null,"POND<img id = ""stim"" ><div class = red_square id = ""topsquare"" ></div><img id = ""stim"" ><div class = red_square  id = ""bottomsquare"" ></div>",null,word_square,1,SPACEBAR,,
html-keyboard-response,603,1753243,null,"POND",null,word,,, 'POND',
html-keyboard-response,604,1753747,null,"GYMNAST<img id = ""stim"" ><div class = green_square id = ""topsquare"" ></div><img id = ""stim"" ><div class = green_square  id = ""bottomsquare"" ></div>",null,word_square,0,SPACEBAR,,
html-keyboard-response,605,1755251,null,"GYMNAST",null,word,,, 'GYMNAST',
html-keyboard-response,606,1755755,null,"MEDAL<img id = ""stim"" ><div class = red_square id = ""topsquare"" ></div><img id = ""stim"" ><div class = red_square  id = ""bottomsquare"" ></div>",null,word_square,1,SPACEBAR,,
html-keyboard-response,607,1757259,null,"MEDAL",null,word,,, 'MEDAL',
html-keyboard-response,608,1757764,null,"CIRCUS<img id = ""stim"" ><div class = red_square id = ""topsquare"" ></div><img id = ""stim"" ><div class = red_square  id = ""bottomsquare"" ></div>",null,word_square,1,SPACEBAR,,
html-keyboard-response,609,1759268,null,"CIRCUS",null,word,,, 'CIRCUS',
html-keyboard-response,610,1759772,null,"DENTIST<img id = ""stim"" ><div class = green_square id = ""topsquare"" ></div><img id = ""stim"" ><div class = green_square  id = ""bottomsquare"" ></div>",null,word_square,0,SPACEBAR,,
html-keyboard-response,611,1761276,null,"DENTIST",null,word,,, 'DENTIST',
html-keyboard-response,612,1761780,null,"FLASHLIGHT<img id = ""stim"" ><div class = red_square id = ""topsquare"" ></div><img id = ""stim"" ><div class = red_square  id = ""bottomsquare"" ></div>",null,word_square,1,SPACEBAR,,
html-keyboard-response,613,1763284,null,"FLASHLIGHT",null,word,,, 'FLASHLIGHT',
html-keyboard-response,614,1763788,null,"CRACKER<img id = ""stim"" ><div class = green_square id = ""topsquare"" ></div><img id = ""stim"" ><div class = green_square  id = ""bottomsquare"" ></div>",null,word_square,0,SPACEBAR,,
html-keyboard-response,615,1765292,null,"CRACKER",null,word,,, 'CRACKER',
html-keyboard-response,616,1765796,null,"MONSTER<img id = ""stim"" ><div class = green_square id = ""topsquare"" ></div><img id = ""stim"" ><div class = green_square  id = ""bottomsquare"" ></div>",null,word_square,0,SPACEBAR,,
html-keyboard-response,617,1767300,null,"MONSTER",null,word,,, 'MONSTER',
html-keyboard-response,618,1767805,null,"PEANUT<img id = ""stim"" ><div class = red_square id = ""topsquare"" ></div><img id = ""stim"" ><div class = red_square  id = ""bottomsquare"" ></div>",null,word_square,1,SPACEBAR,,
html-keyboard-response,619,1769309,null,"PEANUT",null,word,,, 'PEANUT',
html-keyboard-response,620,1769813,null,"BUNNY<img id = ""stim"" ><div class = red_square id = ""topsquare"" ></div><img id = ""stim"" ><div class = red_square  id = ""bottomsquare"" ></div>",null,word_square,1,SPACEBAR,,
html-keyboard-response,621,1771317,null,"BUNNY",null,word,,, 'BUNNY',
html-keyboard-response,622,1771821,null,"BLACKBOARD<img id = ""stim"" ><div class = green_square id = ""topsquare"" ></div><img id = ""stim"" ><div class = green_square  id = ""bottomsquare"" ></div>",null,word_square,0,SPACEBAR,,
html-keyboard-response,623,1773325,null,"BLACKBOARD",null,word,,, 'BLACKBOARD',
html-keyboard-response,624,1773828,null,"BOARD<img id = ""stim"" ><div class = green_square id = ""topsquare"" ></div><img id = ""stim"" ><div class = green_square  id = ""bottomsquare"" ></div>",null,word_square,0,SPACEBAR,,
html-keyboard-response,625,1775331,null,"BOARD",null,word,,, 'BOARD',
html-keyboard-response,626,1775835,null,"COLLEGE<img id = ""stim"" ><div class = red_square id = ""topsquare"" ></div><img id = ""stim"" ><div class = red_square  id = ""bottomsquare"" ></div>",null,word_square,1,SPACEBAR,,
html-keyboard-response,627,1777339,null,"COLLEGE",null,word,,, 'COLLEGE',
html-keyboard-response,628,1777843,null,"THRONE<img id = ""stim"" ><div class = green_square id = ""topsquare"" ></div><img id = ""stim"" ><div class = green_square  id = ""bottomsquare"" ></div>",null,word_square,0,SPACEBAR,,
html-keyboard-response,629,1779347,null,"THRONE",null,word,,, 'THRONE',
html-keyboard-response,630,1779851,null,"ZEBRA<img id = ""stim"" ><div class = red_square id = ""topsquare"" ></div><img id = ""stim"" ><div class = red_square  id = ""bottomsquare"" ></div>",null,word_square,1,SPACEBAR,,
html-keyboard-response,631,1781355,null,"ZEBRA",null,word,,, 'ZEBRA',
html-keyboard-response,632,1781859,null,"BUGGY<img id = ""stim"" ><div class = green_square id = ""topsquare"" ></div><img id = ""stim"" ><div class = green_square  id = ""bottomsquare"" ></div>",null,word_square,0,SPACEBAR,,
html-keyboard-response,633,1783363,null,"BUGGY",null,word,,, 'BUGGY',
html-keyboard-response,634,1783867,null,"WINGS<img id = ""stim"" ><div class = green_square id = ""topsquare"" ></div><img id = ""stim"" ><div class = green_square  id = ""bottomsquare"" ></div>",null,word_square,0,SPACEBAR,,
html-keyboard-response,635,1785372,null,"WINGS",null,word,,, 'WINGS',
html-keyboard-response,636,1785876,null,"TEACHER<img id = ""stim"" ><div class = red_square id = ""topsquare"" ></div><img id = ""stim"" ><div class = red_square  id = ""bottomsquare"" ></div>",null,word_square,1,SPACEBAR,,
html-keyboard-response,637,1787380,null,"TEACHER",null,word,,, 'TEACHER',
survey-text,638,1790068,2682,"",,,,,,{"Q0":"3"}
survey-text,639,1793087,3015,"",,,,,,{"Q0":"2"}
survey-text,640,1794381,1288,"",,,,,,{"Q0":"2"}
survey-text,641,1796583,2198,"",,,,,,{"Q0":"2"}
survey-text,642,1797892,1305,"",,,,,,{"Q0":"4"}
survey-text,643,1798848,952,"",,,,,,{"Q0":"4"}
survey-text,644,1800109,1257,"",,,,,,{"Q0":"4"}
survey-text,645,1801961,1846,"",,,,,,{"Q0":"2"}
survey-text,646,1802598,632,"",,,,,,{"Q0":"2"}
survey-text,647,1804876,2274,"",,,,,,{"Q0":"2"}
survey-text,648,1806579,1700,"",,,,,,{"Q0":"1"}
survey-text,649,1808253,1671,"",,,,,,{"Q0":"1"}
survey-text,650,1809265,1006,"",,,,,,{"Q0":"2"}
survey-text,651,1810534,1264,"",,,,,,{"Q0":"4"}
survey-text,652,1811760,1223,"",,,,,,{"Q0":"3"}
survey-text,653,1816217,4452,"",,,,,,{"Q0":"gymnast"}
survey-text,654,1818161,1939,"",,,,,,{"Q0":"dentist"}
survey-text,655,1821534,3367.999999999767,"",,,,,,{"Q0":"medal"}
survey-text,656,1824102,2563,"",,,,,,{"Q0":"throne"}
survey-text,657,1826732,2625,"",,,,,,{"Q0":"buggy"}
survey-text,658,1830476,3739,"",,,,,,{"Q0":"teacher"}
survey-text,659,1832604,2119,"",,,,,,{"Q0":"blackboard"}
survey-text,660,1834429,1818,"",,,,,,{"Q0":"board"}
survey-text,661,1839278,4844,"",,,,,,{"Q0":"pond"}
survey-text,662,1851424,12141,"",,,,,,{"Q0":"college"}
survey-text,663,1853150,1721,"",,,,,,{"Q0":"zebra"}
survey-text,664,1871478,18321.999999999767,"",,,,,,{"Q0":"circus"}
survey-text,665,1873871,2387.999999999767,"",,,,,,{"Q0":"flashlight"}
survey-text,666,1911244,37369,"",,,,,,{"Q0":"idk "}
html-keyboard-response,667,1923473,12227.000000000233,"<div style=""font-size:48px;"">Press any key to begin list 10 of 24 </div>",32,,,,,
html-keyboard-response,668,1925978,null,"<div style=""font-size:60px;"">+</div>",null,,,,,
html-keyboard-response,669,1926482,null,"VIKING<img id = ""stim"" ><div class = red_square id = ""topsquare"" ></div><img id = ""stim"" ><div class = red_square  id = ""bottomsquare"" ></div>",null,word_square,1,SPACEBAR,,
html-keyboard-response,670,1927986,null,"VIKING",null,word,,, 'VIKING',
html-keyboard-response,671,1928491,null,"YACHT<img id = ""stim"" ><div class = green_square id = ""topsquare"" ></div><img id = ""stim"" ><div class = green_square  id = ""bottomsquare"" ></div>",null,word_square,0,SPACEBAR,,
html-keyboard-response,672,1929994,null,"YACHT",null,word,,, 'YACHT',
html-keyboard-response,673,1930498,null,"TOURIST<img id = ""stim"" ><div class = red_square id = ""topsquare"" ></div><img id = ""stim"" ><div class = red_square  id = ""bottomsquare"" ></div>",null,word_square,1,SPACEBAR,,
html-keyboard-response,674,1932002,null,"TOURIST",null,word,,, 'TOURIST',
html-keyboard-response,675,1932506,null,"DIME<img id = ""stim"" ><div class = red_square id = ""topsquare"" ></div><img id = ""stim"" ><div class = red_square  id = ""bottomsquare"" ></div>",null,word_square,1,SPACEBAR,,
html-keyboard-response,676,1934010,null,"DIME",null,word,,, 'DIME',
html-keyboard-response,677,1934514,null,"PERCH<img id = ""stim"" ><div class = green_square id = ""topsquare"" ></div><img id = ""stim"" ><div class = green_square  id = ""bottomsquare"" ></div>",null,word_square,0,SPACEBAR,,
html-keyboard-response,678,1936019,null,"PERCH",null,word,,, 'PERCH',
html-keyboard-response,679,1936523,null,"JUDGE<img id = ""stim"" ><div class = red_square id = ""topsquare"" ></div><img id = ""stim"" ><div class = red_square  id = ""bottomsquare"" ></div>",null,word_square,1,SPACEBAR,,
html-keyboard-response,680,1938027,null,"JUDGE",null,word,,, 'JUDGE',
html-keyboard-response,681,1938531,null,"BLADE<img id = ""stim"" ><div class = green_square id = ""topsquare"" ></div><img id = ""stim"" ><div class = green_square  id = ""bottomsquare"" ></div>",null,word_square,0,SPACEBAR,,
html-keyboard-response,682,1940035,null,"BLADE",null,word,,, 'BLADE',
html-keyboard-response,683,1940539,null,"SCISSORS<img id = ""stim"" ><div class = green_square id = ""topsquare"" ></div><img id = ""stim"" ><div class = green_square  id = ""bottomsquare"" ></div>",null,word_square,0,SPACEBAR,,
html-keyboard-response,684,1942043,null,"SCISSORS",null,word,,, 'SCISSORS',
html-keyboard-response,685,1942548,null,"HAYSTACK<img id = ""stim"" ><div class = red_square id = ""topsquare"" ></div><img id = ""stim"" ><div class = red_square  id = ""bottomsquare"" ></div>",null,word_square,1,SPACEBAR,,
html-keyboard-response,686,1944051,null,"HAYSTACK",null,word,,, 'HAYSTACK',
html-keyboard-response,687,1944555,null,"SUITCASE<img id = ""stim"" ><div class = red_square id = ""topsquare"" ></div><img id = ""stim"" ><div class = red_square  id = ""bottomsquare"" ></div>",null,word_square,1,SPACEBAR,,
html-keyboard-response,688,1946059,null,"SUITCASE",null,word,,, 'SUITCASE',
html-keyboard-response,689,1946563,null,"PAPER<img id = ""stim"" ><div class = green_square id = ""topsquare"" ></div><img id = ""stim"" ><div class = green_square  id = ""bottomsquare"" ></div>",null,word_square,0,SPACEBAR,,
html-keyboard-response,690,1948067,null,"PAPER",null,word,,, 'PAPER',
html-keyboard-response,691,1948572,null,"JOURNAL<img id = ""stim"" ><div class = green_square id = ""topsquare"" ></div><img id = ""stim"" ><div class = green_square  id = ""bottomsquare"" ></div>",null,word_square,0,SPACEBAR,,
html-keyboard-response,692,1950076,null,"JOURNAL",null,word,,, 'JOURNAL',
html-keyboard-response,693,1950580,null,"STRANGER<img id = ""stim"" ><div class = red_square id = ""topsquare"" ></div><img id = ""stim"" ><div class = red_square  id = ""bottomsquare"" ></div>",null,word_square,1,SPACEBAR,,
html-keyboard-response,694,1952084,null,"STRANGER",null,word,,, 'STRANGER',
html-keyboard-response,695,1952589,null,"EUROPE<img id = ""stim"" ><div class = green_square id = ""topsquare"" ></div><img id = ""stim"" ><div class = green_square  id = ""bottomsquare"" ></div>",null,word_square,0,SPACEBAR,,
html-keyboard-response,696,1954093,null,"EUROPE",null,word,,, 'EUROPE',
html-keyboard-response,697,1954597,null,"SARDINE<img id = ""stim"" ><div class = red_square id = ""topsquare"" ></div><img id = ""stim"" ><div class = red_square  id = ""bottomsquare"" ></div>",null,word_square,1,SPACEBAR,,
html-keyboard-response,698,1956101,null,"SARDINE",null,word,,, 'SARDINE',
html-keyboard-response,699,1956605,null,"HOOK<img id = ""stim"" ><div class = green_square id = ""topsquare"" ></div><img id = ""stim"" ><div class = green_square  id = ""bottomsquare"" ></div>",null,word_square,0,SPACEBAR,,
html-keyboard-response,700,1958109,null,"HOOK",null,word,,, 'HOOK',
html-keyboard-response,701,1958614,null,"ORANGE<img id = ""stim"" ><div class = green_square id = ""topsquare"" ></div><img id = ""stim"" ><div class = green_square  id = ""bottomsquare"" ></div>",null,word_square,0,SPACEBAR,,
html-keyboard-response,702,1960118,null,"ORANGE",null,word,,, 'ORANGE',
html-keyboard-response,703,1960622,null,"DAISY<img id = ""stim"" ><div class = red_square id = ""topsquare"" ></div><img id = ""stim"" ><div class = red_square  id = ""bottomsquare"" ></div>",null,word_square,1,SPACEBAR,,
html-keyboard-response,704,1962126,null,"DAISY",null,word,,, 'DAISY',
survey-text,705,1965233,3099.000000000233,"",,,,,,{"Q0":"5"}
survey-text,706,1966313,1076,"",,,,,,{"Q0":"3"}
survey-text,707,1967580,1262,"",,,,,,{"Q0":"1"}
survey-text,708,1968552,968,"",,,,,,{"Q0":"4"}
survey-text,709,1969857,1302.0000000002328,"",,,,,,{"Q0":"1"}
survey-text,710,1970828,966,"",,,,,,{"Q0":"4"}
survey-text,711,1971899,1068,"",,,,,,{"Q0":"5"}
survey-text,712,1973695,1791.0000000002328,"",,,,,,{"Q0":"2"}
survey-text,713,1974612,913,"",,,,,,{"Q0":"3"}
survey-text,714,1975716,1098.9999999997672,"",,,,,,{"Q0":"5"}
survey-text,715,1977241,1521.0000000002328,"",,,,,,{"Q0":"1"}
survey-text,716,1978455,1210,"",,,,,,{"Q0":"5"}
survey-text,717,1980492,2032.0000000002328,"",,,,,,{"Q0":"3"}
survey-text,718,1981818,1324,"",,,,,,{"Q0":"6"}
survey-text,719,1982825,1003,"",,,,,,{"Q0":"4"}
survey-text,720,1983884,1054.9999999997672,"",,,,,,{"Q0":"4"}
survey-text,721,1985459,1570,"",,,,,,{"Q0":"1"}
survey-text,722,1987096,1632.9999999997672,"",,,,,,{"Q0":"1"}
survey-text,723,1992889,5789,"",,,,,,{"Q0":"perch"}
survey-text,724,1996885,3990,"",,,,,,{"Q0":"blade"}
survey-text,725,1998378,1489,"",,,,,,{"Q0":"scissors"}
survey-text,726,2016461,18080,"",,,,,,{"Q0":"paper"}
survey-text,727,2021513,5046,"",,,,,,{"Q0":"journal"}
survey-text,728,2032279,10762.000000000233,"",,,,,,{"Q0":"Europe "}
survey-text,729,2034454,2169.000000000233,"",,,,,,{"Q0":"stranger"}
survey-text,730,2078912,44454.00000000023,"",,,,,,{"Q0":"idk"}
html-keyboard-response,731,2086492,7577.000000000233,"<div style=""font-size:48px;"">Press any key to begin list 11 of 24 </div>",32,,,,,
html-keyboard-response,732,2088997,null,"<div style=""font-size:60px;"">+</div>",null,,,,,
html-keyboard-response,733,2089502,null,"BACON<img id = ""stim"" ><div class = green_square id = ""topsquare"" ></div><img id = ""stim"" ><div class = green_square  id = ""bottomsquare"" ></div>",null,word_square,0,SPACEBAR,,
html-keyboard-response,734,2091006,null,"BACON",null,word,,, 'BACON',
html-keyboard-response,735,2091514,null,"SKUNK<img id = ""stim"" ><div class = red_square id = ""topsquare"" ></div><img id = ""stim"" ><div class = red_square  id = ""bottomsquare"" ></div>",null,word_square,1,SPACEBAR,,
html-keyboard-response,736,2093018,null,"SKUNK",null,word,,, 'SKUNK',
html-keyboard-response,737,2093522,null,"CARPET<img id = ""stim"" ><div class = green_square id = ""topsquare"" ></div><img id = ""stim"" ><div class = green_square  id = ""bottomsquare"" ></div>",null,word_square,0,SPACEBAR,,
html-keyboard-response,738,2095026,null,"CARPET",null,word,,, 'CARPET',
html-keyboard-response,739,2095530,null,"GUARD<img id = ""stim"" ><div class = green_square id = ""topsquare"" ></div><img id = ""stim"" ><div class = green_square  id = ""bottomsquare"" ></div>",null,word_square,0,SPACEBAR,,
html-keyboard-response,740,2097034,null,"GUARD",null,word,,, 'GUARD',
html-keyboard-response,741,2097539,null,"GROUND<img id = ""stim"" ><div class = red_square id = ""topsquare"" ></div><img id = ""stim"" ><div class = red_square  id = ""bottomsquare"" ></div>",null,word_square,1,SPACEBAR,,
html-keyboard-response,742,2099043,null,"GROUND",null,word,,, 'GROUND',
html-keyboard-response,743,2099547,null,"ANKLE<img id = ""stim"" ><div class = green_square id = ""topsquare"" ></div><img id = ""stim"" ><div class = green_square  id = ""bottomsquare"" ></div>",null,word_square,0,SPACEBAR,,
html-keyboard-response,744,2101051,null,"ANKLE",null,word,,, 'ANKLE',
html-keyboard-response,745,2101555,null,"LODGE<img id = ""stim"" ><div class = red_square id = ""topsquare"" ></div><img id = ""stim"" ><div class = red_square  id = ""bottomsquare"" ></div>",null,word_square,1,SPACEBAR,,
html-keyboard-response,746,2103060,null,"LODGE",null,word,,, 'LODGE',
html-keyboard-response,747,2103564,null,"DOG<img id = ""stim"" ><div class = red_square id = ""topsquare"" ></div><img id = ""stim"" ><div class = red_square  id = ""bottomsquare"" ></div>",null,word_square,1,SPACEBAR,,
html-keyboard-response,748,2105067,null,"DOG",null,word,,, 'DOG',
html-keyboard-response,749,2105572,null,"SEAFOOD<img id = ""stim"" ><div class = green_square id = ""topsquare"" ></div><img id = ""stim"" ><div class = green_square  id = ""bottomsquare"" ></div>",null,word_square,0,SPACEBAR,,
html-keyboard-response,750,2107076,null,"SEAFOOD",null,word,,, 'SEAFOOD',
html-keyboard-response,751,2107580,null,"BANQUET<img id = ""stim"" ><div class = green_square id = ""topsquare"" ></div><img id = ""stim"" ><div class = green_square  id = ""bottomsquare"" ></div>",null,word_square,0,SPACEBAR,,
html-keyboard-response,752,2109084,null,"BANQUET",null,word,,, 'BANQUET',
html-keyboard-response,753,2109588,null,"DORM<img id = ""stim"" ><div class = red_square id = ""topsquare"" ></div><img id = ""stim"" ><div class = red_square  id = ""bottomsquare"" ></div>",null,word_square,1,SPACEBAR,,
html-keyboard-response,754,2111092,null,"DORM",null,word,,, 'DORM',
html-keyboard-response,755,2111596,null,"OMELET<img id = ""stim"" ><div class = red_square id = ""topsquare"" ></div><img id = ""stim"" ><div class = red_square  id = ""bottomsquare"" ></div>",null,word_square,1,SPACEBAR,,
html-keyboard-response,756,2113101,null,"OMELET",null,word,,, 'OMELET',
html-keyboard-response,757,2113605,null,"HUSBAND<img id = ""stim"" ><div class = green_square id = ""topsquare"" ></div><img id = ""stim"" ><div class = green_square  id = ""bottomsquare"" ></div>",null,word_square,0,SPACEBAR,,
html-keyboard-response,758,2115109,null,"HUSBAND",null,word,,, 'HUSBAND',
html-keyboard-response,759,2115613,null,"COLONEL<img id = ""stim"" ><div class = red_square id = ""topsquare"" ></div><img id = ""stim"" ><div class = red_square  id = ""bottomsquare"" ></div>",null,word_square,1,SPACEBAR,,
html-keyboard-response,760,2117117,null,"COLONEL",null,word,,, 'COLONEL',
html-keyboard-response,761,2117622,null,"CLIFF<img id = ""stim"" ><div class = green_square id = ""topsquare"" ></div><img id = ""stim"" ><div class = green_square  id = ""bottomsquare"" ></div>",null,word_square,0,SPACEBAR,,
html-keyboard-response,762,2119126,null,"CLIFF",null,word,,, 'CLIFF',
html-keyboard-response,763,2119630,null,"LAGOON<img id = ""stim"" ><div class = red_square id = ""topsquare"" ></div><img id = ""stim"" ><div class = red_square  id = ""bottomsquare"" ></div>",null,word_square,1,SPACEBAR,,
html-keyboard-response,764,2121134,null,"LAGOON",null,word,,, 'LAGOON',
html-keyboard-response,765,2121638,null,"BUREAU<img id = ""stim"" ><div class = red_square id = ""topsquare"" ></div><img id = ""stim"" ><div class = red_square  id = ""bottomsquare"" ></div>",null,word_square,1,SPACEBAR,,
html-keyboard-response,766,2123142,null,"BUREAU",null,word,,, 'BUREAU',
html-keyboard-response,767,2123646,null,"CHEST<img id = ""stim"" ><div class = green_square id = ""topsquare"" ></div><img id = ""stim"" ><div class = green_square  id = ""bottomsquare"" ></div>",null,word_square,0,SPACEBAR,,
html-keyboard-response,768,2125151,null,"CHEST",null,word,,, 'CHEST',
survey-text,769,2128068,2907.9999999995343,"",,,,,,{"Q0":"2"}
survey-text,770,2129566,1494,"",,,,,,{"Q0":"4"}
survey-text,771,2130929,1358,"",,,,,,{"Q0":"4"}
survey-text,772,2132273,1340,"",,,,,,{"Q0":"4"}
survey-text,773,2133923,1645,"",,,,,,{"Q0":"1"}
survey-text,774,2135253,1326,"",,,,,,{"Q0":"2"}
survey-text,775,2136842,1584.0000000004657,"",,,,,,{"Q0":"1"}
survey-text,776,2138307,1461,"",,,,,,{"Q0":"4"}
survey-text,777,2141177,2863.9999999995343,"",,,,,,{"Q0":"5"}
survey-text,778,2142876,1693,"",,,,,,{"Q0":"2"}
survey-text,779,2144289,1407.9999999995343,"",,,,,,{"Q0":"3"}
survey-text,780,2145950,1659,"",,,,,,{"Q0":"1"}
survey-text,781,2147521,1567,"",,,,,,{"Q0":"2'"}
survey-text,782,2148906,1380,"",,,,,,{"Q0":"3"}
survey-text,783,2150496,1586.0000000004657,"",,,,,,{"Q0":"4"}
survey-text,784,2153289,2787,"",,,,,,{"Q0":"bacon"}
survey-text,785,2156558,3265,"",,,,,,{"Q0":"skunk "}
survey-text,786,2160170,3605.9999999995343,"",,,,,,{"Q0":"banquet"}
survey-text,787,2162163,1988,"",,,,,,{"Q0":"dorm"}
survey-text,788,2164374,2205,"",,,,,,{"Q0":"omlet"}
survey-text,789,2166633,2253,"",,,,,,{"Q0":"ankle"}
survey-text,790,2168810,2172,"",,,,,,{"Q0":"lodge"}
survey-text,791,2170800,1984,"",,,,,,{"Q0":"dog"}
survey-text,792,2175845,5038,"",,,,,,{"Q0":"lagoon"}
survey-text,793,2181089,5240,"",,,,,,{"Q0":"idk"}
survey-text,794,2214852,33757.000000000466,"",,,,,,{"Q0":"idk"}
survey-text,795,2312832,97976.00000000047,"",,,,,,{"Q0":" idk"}
html-keyboard-response,796,2314498,1663,"<div style=""font-size:48px;"">Press any key to begin list 12 of 24 </div>",32,,,,,
html-keyboard-response,797,2317001,null,"<div style=""font-size:60px;"">+</div>",null,,,,,
html-keyboard-response,798,2317504,null,"BLENDER<img id = ""stim"" ><div class = green_square id = ""topsquare"" ></div><img id = ""stim"" ><div class = green_square  id = ""bottomsquare"" ></div>",null,word_square,0,SPACEBAR,,
html-keyboard-response,799,2319008,null,"BLENDER",null,word,,, 'BLENDER',
html-keyboard-response,800,2319512,null,"IDOL<img id = ""stim"" ><div class = red_square id = ""topsquare"" ></div><img id = ""stim"" ><div class = red_square  id = ""bottomsquare"" ></div>",null,word_square,1,SPACEBAR,,
html-keyboard-response,801,2321016,null,"IDOL",null,word,,, 'IDOL',
html-keyboard-response,802,2321520,null,"TERMITE<img id = ""stim"" ><div class = green_square id = ""topsquare"" ></div><img id = ""stim"" ><div class = green_square  id = ""bottomsquare"" ></div>",null,word_square,0,SPACEBAR,,
html-keyboard-response,803,2323024,null,"TERMITE",null,word,,, 'TERMITE',
html-keyboard-response,804,2323529,null,"SKILLET<img id = ""stim"" ><div class = green_square id = ""topsquare"" ></div><img id = ""stim"" ><div class = green_square  id = ""bottomsquare"" ></div>",null,word_square,0,SPACEBAR,,
html-keyboard-response,805,2325033,null,"SKILLET",null,word,,, 'SKILLET',
html-keyboard-response,806,2325537,null,"TRUMPET<img id = ""stim"" ><div class = red_square id = ""topsquare"" ></div><img id = ""stim"" ><div class = red_square  id = ""bottomsquare"" ></div>",null,word_square,1,SPACEBAR,,
html-keyboard-response,807,2327041,null,"TRUMPET",null,word,,, 'TRUMPET',
html-keyboard-response,808,2327546,null,"CEILING<img id = ""stim"" ><div class = green_square id = ""topsquare"" ></div><img id = ""stim"" ><div class = green_square  id = ""bottomsquare"" ></div>",null,word_square,0,SPACEBAR,,
html-keyboard-response,809,2329050,null,"CEILING",null,word,,, 'CEILING',
html-keyboard-response,810,2329554,null,"CANYON<img id = ""stim"" ><div class = red_square id = ""topsquare"" ></div><img id = ""stim"" ><div class = red_square  id = ""bottomsquare"" ></div>",null,word_square,1,SPACEBAR,,
html-keyboard-response,811,2331059,null,"CANYON",null,word,,, 'CANYON',
html-keyboard-response,812,2331563,null,"SLOPE<img id = ""stim"" ><div class = red_square id = ""topsquare"" ></div><img id = ""stim"" ><div class = red_square  id = ""bottomsquare"" ></div>",null,word_square,1,SPACEBAR,,
html-keyboard-response,813,2333067,null,"SLOPE",null,word,,, 'SLOPE',
html-keyboard-response,814,2333572,null,"PLIERS<img id = ""stim"" ><div class = green_square id = ""topsquare"" ></div><img id = ""stim"" ><div class = green_square  id = ""bottomsquare"" ></div>",null,word_square,0,SPACEBAR,,
html-keyboard-response,815,2335076,null,"PLIERS",null,word,,, 'PLIERS',
html-keyboard-response,816,2335580,null,"CROSS<img id = ""stim"" ><div class = green_square id = ""topsquare"" ></div><img id = ""stim"" ><div class = green_square  id = ""bottomsquare"" ></div>",null,word_square,0,SPACEBAR,,
html-keyboard-response,817,2337084,null,"CROSS",null,word,,, 'CROSS',
html-keyboard-response,818,2337589,null,"TEMPLE<img id = ""stim"" ><div class = red_square id = ""topsquare"" ></div><img id = ""stim"" ><div class = red_square  id = ""bottomsquare"" ></div>",null,word_square,1,SPACEBAR,,
html-keyboard-response,819,2339093,null,"TEMPLE",null,word,,, 'TEMPLE',
html-keyboard-response,820,2339597,null,"DRESSER<img id = ""stim"" ><div class = red_square id = ""topsquare"" ></div><img id = ""stim"" ><div class = red_square  id = ""bottomsquare"" ></div>",null,word_square,1,SPACEBAR,,
html-keyboard-response,821,2341101,null,"DRESSER",null,word,,, 'DRESSER',
html-keyboard-response,822,2341606,null,"BISCUIT<img id = ""stim"" ><div class = green_square id = ""topsquare"" ></div><img id = ""stim"" ><div class = green_square  id = ""bottomsquare"" ></div>",null,word_square,0,SPACEBAR,,
html-keyboard-response,823,2343110,null,"BISCUIT",null,word,,, 'BISCUIT',
html-keyboard-response,824,2343614,null,"LILY<img id = ""stim"" ><div class = red_square id = ""topsquare"" ></div><img id = ""stim"" ><div class = red_square  id = ""bottomsquare"" ></div>",null,word_square,1,SPACEBAR,,
html-keyboard-response,825,2345118,null,"LILY",null,word,,, 'LILY',
html-keyboard-response,826,2345623,null,"BOUQUET<img id = ""stim"" ><div class = green_square id = ""topsquare"" ></div><img id = ""stim"" ><div class = green_square  id = ""bottomsquare"" ></div>",null,word_square,0,SPACEBAR,,
html-keyboard-response,827,2347126,null,"BOUQUET",null,word,,, 'BOUQUET',
html-keyboard-response,828,2347630,null,"STAPLER<img id = ""stim"" ><div class = red_square id = ""topsquare"" ></div><img id = ""stim"" ><div class = red_square  id = ""bottomsquare"" ></div>",null,word_square,1,SPACEBAR,,
html-keyboard-response,829,2349134,null,"STAPLER",null,word,,, 'STAPLER',
html-keyboard-response,830,2349639,null,"STATUE<img id = ""stim"" ><div class = red_square id = ""topsquare"" ></div><img id = ""stim"" ><div class = red_square  id = ""bottomsquare"" ></div>",null,word_square,1,SPACEBAR,,
html-keyboard-response,831,2351143,null,"STATUE",null,word,,, 'STATUE',
html-keyboard-response,832,2351647,null,"NEEDLE<img id = ""stim"" ><div class = green_square id = ""topsquare"" ></div><img id = ""stim"" ><div class = green_square  id = ""bottomsquare"" ></div>",null,word_square,0,SPACEBAR,,
html-keyboard-response,833,2353151,null,"NEEDLE",null,word,,, 'NEEDLE',
survey-text,834,2374511,21351.999999999534,"",,,,,,{"Q0":"5"}
survey-text,835,2376467,1950.0000000004657,"",,,,,,{"Q0":"5"}
survey-text,836,2380004,3533,"",,,,,,{"Q0":"2"}
survey-text,837,2397120,17113.000000000466,"",,,,,,{"Q0":"bouquet"}
survey-text,838,2434178,37053.000000000466,"",,,,,,{"Q0":"termite"}
survey-text,839,2443775,9593,"",,,,,,{"Q0":"idk"}
survey-text,840,2548321,104544,"",,,,,,{"Q0":"idk"}
html-keyboard-response,841,2549448,1124,"<div style=""font-size:48px;"">Press any key to begin list 13 of 24 </div>",32,,,,,
html-keyboard-response,842,2551952,null,"<div style=""font-size:60px;"">+</div>",null,,,,,
html-keyboard-response,843,2552455,null,"GERM<img id = ""stim"" ><div class = red_square id = ""topsquare"" ></div><img id = ""stim"" ><div class = red_square  id = ""bottomsquare"" ></div>",null,word_square,1,SPACEBAR,,
html-keyboard-response,844,2553959,null,"GERM",null,word,,, 'GERM',
html-keyboard-response,845,2554462,null,"TREASURE<img id = ""stim"" ><div class = green_square id = ""topsquare"" ></div><img id = ""stim"" ><div class = green_square  id = ""bottomsquare"" ></div>",null,word_square,0,SPACEBAR,,
html-keyboard-response,846,2555965,null,"TREASURE",null,word,,, 'TREASURE',
html-keyboard-response,847,2556468,null,"SICKLE<img id = ""stim"" ><div class = green_square id = ""topsquare"" ></div><img id = ""stim"" ><div class = green_square  id = ""bottomsquare"" ></div>",null,word_square,0,SPACEBAR,,
html-keyboard-response,848,2557972,null,"SICKLE",null,word,,, 'SICKLE',
html-keyboard-response,849,2558475,null,"CHISEL<img id = ""stim"" ><div class = red_square id = ""topsquare"" ></div><img id = ""stim"" ><div class = red_square  id = ""bottomsquare"" ></div>",null,word_square,1,SPACEBAR,,
html-keyboard-response,850,2559978,null,"CHISEL",null,word,,, 'CHISEL',
html-keyboard-response,851,2560482,null,"SALESMAN<img id = ""stim"" ><div class = green_square id = ""topsquare"" ></div><img id = ""stim"" ><div class = green_square  id = ""bottomsquare"" ></div>",null,word_square,0,SPACEBAR,,
html-keyboard-response,852,2561985,null,"SALESMAN",null,word,,, 'SALESMAN',
html-keyboard-response,853,2562489,null,"SHOELACE<img id = ""stim"" ><div class = red_square id = ""topsquare"" ></div><img id = ""stim"" ><div class = red_square  id = ""bottomsquare"" ></div>",null,word_square,1,SPACEBAR,,
html-keyboard-response,854,2563993,null,"SHOELACE",null,word,,, 'SHOELACE',
html-keyboard-response,855,2564496,null,"DAD<img id = ""stim"" ><div class = green_square id = ""topsquare"" ></div><img id = ""stim"" ><div class = green_square  id = ""bottomsquare"" ></div>",null,word_square,0,SPACEBAR,,
html-keyboard-response,856,2566000,null,"DAD",null,word,,, 'DAD',
html-keyboard-response,857,2566502,null,"BRUNETTE<img id = ""stim"" ><div class = red_square id = ""topsquare"" ></div><img id = ""stim"" ><div class = red_square  id = ""bottomsquare"" ></div>",null,word_square,1,SPACEBAR,,
html-keyboard-response,858,2568005,null,"BRUNETTE",null,word,,, 'BRUNETTE',
html-keyboard-response,859,2568509,null,"CAPTAIN<img id = ""stim"" ><div class = red_square id = ""topsquare"" ></div><img id = ""stim"" ><div class = red_square  id = ""bottomsquare"" ></div>",null,word_square,1,SPACEBAR,,
html-keyboard-response,860,2570015,null,"CAPTAIN",null,word,,, 'CAPTAIN',
html-keyboard-response,861,2570518,null,"TAXI<img id = ""stim"" ><div class = green_square id = ""topsquare"" ></div><img id = ""stim"" ><div class = green_square  id = ""bottomsquare"" ></div>",null,word_square,0,SPACEBAR,,
html-keyboard-response,862,2572022,null,"TAXI",null,word,,, 'TAXI',
html-keyboard-response,863,2572524,null,"GRASS<img id = ""stim"" ><div class = green_square id = ""topsquare"" ></div><img id = ""stim"" ><div class = green_square  id = ""bottomsquare"" ></div>",null,word_square,0,SPACEBAR,,
html-keyboard-response,864,2574027,null,"GRASS",null,word,,, 'GRASS',
html-keyboard-response,865,2574531,null,"DECK<img id = ""stim"" ><div class = red_square id = ""topsquare"" ></div><img id = ""stim"" ><div class = red_square  id = ""bottomsquare"" ></div>",null,word_square,1,SPACEBAR,,
html-keyboard-response,866,2576035,null,"DECK",null,word,,, 'DECK',
html-keyboard-response,867,2576538,null,"HERO<img id = ""stim"" ><div class = green_square id = ""topsquare"" ></div><img id = ""stim"" ><div class = green_square  id = ""bottomsquare"" ></div>",null,word_square,0,SPACEBAR,,
html-keyboard-response,868,2578041,null,"HERO",null,word,,, 'HERO',
html-keyboard-response,869,2578545,null,"ROACH<img id = ""stim"" ><div class = green_square id = ""topsquare"" ></div><img id = ""stim"" ><div class = green_square  id = ""bottomsquare"" ></div>",null,word_square,0,SPACEBAR,,
html-keyboard-response,870,2580047,null,"ROACH",null,word,,, 'ROACH',
html-keyboard-response,871,2580551,null,"TILE<img id = ""stim"" ><div class = red_square id = ""topsquare"" ></div><img id = ""stim"" ><div class = red_square  id = ""bottomsquare"" ></div>",null,word_square,1,SPACEBAR,,
html-keyboard-response,872,2582054,null,"TILE",null,word,,, 'TILE',
html-keyboard-response,873,2582557,null,"BLANKET<img id = ""stim"" ><div class = green_square id = ""topsquare"" ></div><img id = ""stim"" ><div class = green_square  id = ""bottomsquare"" ></div>",null,word_square,0,SPACEBAR,,
html-keyboard-response,874,2584061,null,"BLANKET",null,word,,, 'BLANKET',
html-keyboard-response,875,2584565,null,"SWEATER<img id = ""stim"" ><div class = red_square id = ""topsquare"" ></div><img id = ""stim"" ><div class = red_square  id = ""bottomsquare"" ></div>",null,word_square,1,SPACEBAR,,
html-keyboard-response,876,2586069,null,"SWEATER",null,word,,, 'SWEATER',
html-keyboard-response,877,2586574,null,"INMATE<img id = ""stim"" ><div class = red_square id = ""topsquare"" ></div><img id = ""stim"" ><div class = red_square  id = ""bottomsquare"" ></div>",null,word_square,1,SPACEBAR,,
html-keyboard-response,878,2588077,null,"INMATE",null,word,,, 'INMATE',
survey-text,879,2589619,1536.0000000004657,"",,,,,,{"Q0":"5"}
survey-text,880,2591207,1584,"",,,,,,{"Q0":"2"}
survey-text,881,2594092,2880,"",,,,,,{"Q0":"0"}
survey-text,882,2595590,1494.0000000004657,"",,,,,,{"Q0":"6"}
survey-text,883,2597010,1415,"",,,,,,{"Q0":"5"}
survey-text,884,2598893,1879,"",,,,,,{"Q0":"1"}
survey-text,885,2600140,1244,"",,,,,,{"Q0":"3"}
survey-text,886,2601388,1244,"",,,,,,{"Q0":"5"}
survey-text,887,2602593,1201,"",,,,,,{"Q0":"4"}
survey-text,888,2604810,2213,"",,,,,,{"Q0":"0"}
survey-text,889,2606833,2019,"",,,,,,{"Q0":"1"}
survey-text,890,2608777,1939,"",,,,,,{"Q0":"2"}
survey-text,891,2611241,2460,"",,,,,,{"Q0":"6"}
survey-text,892,2612645,1400,"",,,,,,{"Q0":"4"}
survey-text,893,2614864,2214,"",,,,,,{"Q0":"germ"}
survey-text,894,2618411,3542,"",,,,,,{"Q0":"chisel "}
survey-text,895,2640848,22434.000000000466,"",,,,,,{"Q0":"roach"}
survey-text,896,2653063,12210,"",,,,,,{"Q0":"hero"}
survey-text,897,2723745,70677,"",,,,,,{"Q0":"idk"}
html-keyboard-response,898,3040336,146593,"<div style=""font-size:48px;"">Press any key to begin list 14 of 24 </div>",32,,,,,
html-keyboard-response,899,3042840,null,"<div style=""font-size:60px;"">+</div>",null,,,,,
html-keyboard-response,900,3043344,null,"SERGEANT<img id = ""stim"" ><div class = red_square id = ""topsquare"" ></div><img id = ""stim"" ><div class = red_square  id = ""bottomsquare"" ></div>",null,word_square,1,SPACEBAR,,
html-keyboard-response,901,3044849,null,"SERGEANT",null,word,,, 'SERGEANT',
html-keyboard-response,902,3045353,null,"BEETLE<img id = ""stim"" ><div class = green_square id = ""topsquare"" ></div><img id = ""stim"" ><div class = green_square  id = ""bottomsquare"" ></div>",null,word_square,0,SPACEBAR,,
html-keyboard-response,903,3046857,null,"BEETLE",null,word,,, 'BEETLE',
html-keyboard-response,904,3047362,null,"SWATTER<img id = ""stim"" ><div class = green_square id = ""topsquare"" ></div><img id = ""stim"" ><div class = green_square  id = ""bottomsquare"" ></div>",null,word_square,0,SPACEBAR,,
html-keyboard-response,905,3048866,null,"SWATTER",null,word,,, 'SWATTER',
html-keyboard-response,906,3049369,null,"LANDSCAPE<img id = ""stim"" ><div class = red_square id = ""topsquare"" ></div><img id = ""stim"" ><div class = red_square  id = ""bottomsquare"" ></div>",null,word_square,1,SPACEBAR,,
html-keyboard-response,907,3050874,null,"LANDSCAPE",null,word,,, 'LANDSCAPE',
html-keyboard-response,908,3051378,null,"STUDENT<img id = ""stim"" ><div class = green_square id = ""topsquare"" ></div><img id = ""stim"" ><div class = green_square  id = ""bottomsquare"" ></div>",null,word_square,0,SPACEBAR,,
html-keyboard-response,909,3052883,null,"STUDENT",null,word,,, 'STUDENT',
html-keyboard-response,910,3053387,null,"JEEP<img id = ""stim"" ><div class = red_square id = ""topsquare"" ></div><img id = ""stim"" ><div class = red_square  id = ""bottomsquare"" ></div>",null,word_square,1,SPACEBAR,,
