trial_type,trial_index,time_elapsed,rt,stimulus,key_press,test_part,task,targ_cond,correctKeyCode,correct,word,value,response
pavlovia,0,1058,,"",,,,,,,,,
external-html,1,3751,2499.500000001717,"",,,,,,,,,
html-keyboard-response,2,17177,13424.204999999347,"Welcome to the experiment. Press any key to begin.",32,,,,,,,,
html-keyboard-response,3,30592,13414.609999999811,"<p>You will see a list of words and colored squares in the following task.<p><p>Press the spacebar whenever you see a red square.<p><p>Do not press a key if the square is green<p><p>Press the spacebar to continue.</p>",32,,,,,,,,
html-keyboard-response,4,42503,11408.774999999878,"<p>Please try to remember as many of the words as you can, and try to think about the meaning of each word as it appears.<p><p>After the detection and encoding task you will be asked to solve some math problems for 24 seconds.<p> Please solve as many problems as you can in the time given. <p>",32,,,,,,,,
html-keyboard-response,5,52295,9289.570000000822,"After solving the math problems, you will be asked to type in as many words <p>from the previous list as you can remember for 75 seconds.<p> If you finish recalling before the 75 seconds are up,<p> just sit tight and try to think of any more words you could have missed. <p><p>We will begin with a brief practice session<p>Press the spacebar to begin the practice.</p>",32,,,,,,,,
html-keyboard-response,6,54801,null,"<div style=""font-size:60px;"">+</div>",null,,,,,,,,
html-keyboard-response,7,55306,null,"HAPPY<img id = ""stim"" ><div class = green_square id = ""topsquare"" ></div><img id = ""stim"" ><div class = green_square  id = ""bottomsquare"" ></div>",null,word_square,prac_response,0,none,true,,,
html-keyboard-response,8,56808,null,"HAPPY",null,word,,,,,HAPPY,,
html-keyboard-response,9,57310,null,"COLD<img id = ""stim"" ><div class = red_square id = ""topsquare"" ></div><img id = ""stim"" ><div class = red_square  id = ""bottomsquare"" ></div>",null,word_square,prac_response,1,Space,false,,,
html-keyboard-response,10,58811,null,"COLD",null,word,,,,,COLD,,
html-keyboard-response,11,59313,null,"HEAVY<img id = ""stim"" ><div class = red_square id = ""topsquare"" ></div><img id = ""stim"" ><div class = red_square  id = ""bottomsquare"" ></div>",null,word_square,prac_response,1,Space,false,,,
html-keyboard-response,12,60813,null,"HEAVY",null,word,,,,,HEAVY,,
html-keyboard-response,13,61317,null,"FUNNY<img id = ""stim"" ><div class = green_square id = ""topsquare"" ></div><img id = ""stim"" ><div class = green_square  id = ""bottomsquare"" ></div>",null,word_square,prac_response,0,none,true,,,
html-keyboard-response,14,62820,null,"FUNNY",null,word,,,,,FUNNY,,
html-keyboard-response,15,63321,null,"SCARY<img id = ""stim"" ><div class = red_square id = ""topsquare"" ></div><img id = ""stim"" ><div class = red_square  id = ""bottomsquare"" ></div>",null,word_square,prac_response,1,Space,false,,,
html-keyboard-response,16,64824,null,"SCARY",null,word,,,,,SCARY,,
html-keyboard-response,17,65327,null,"PEACEFUL<img id = ""stim"" ><div class = red_square id = ""topsquare"" ></div><img id = ""stim"" ><div class = red_square  id = ""bottomsquare"" ></div>",null,word_square,prac_response,1,Space,false,,,
html-keyboard-response,18,66828,null,"PEACEFUL",null,word,,,,,PEACEFUL,,
html-keyboard-response,19,67331,null,"LITTLE<img id = ""stim"" ><div class = green_square id = ""topsquare"" ></div><img id = ""stim"" ><div class = green_square  id = ""bottomsquare"" ></div>",null,word_square,prac_response,0,none,true,,,
html-keyboard-response,20,68833,null,"LITTLE",null,word,,,,,LITTLE,,
html-keyboard-response,21,69336,null,"TIRED<img id = ""stim"" ><div class = green_square id = ""topsquare"" ></div><img id = ""stim"" ><div class = green_square  id = ""bottomsquare"" ></div>",null,word_square,prac_response,0,none,true,,,
html-keyboard-response,22,70839,null,"TIRED",null,word,,,,,TIRED,,
html-keyboard-response,23,71340,null,"ENTERTAINING<img id = ""stim"" ><div class = green_square id = ""topsquare"" ></div><img id = ""stim"" ><div class = green_square  id = ""bottomsquare"" ></div>",null,word_square,prac_response,0,none,true,,,
html-keyboard-response,24,72842,null,"ENTERTAINING",null,word,,,,,ENTERTAINING,,
html-keyboard-response,25,73344,467.6450000006298,"GRATEFUL<img id = ""stim"" ><div class = red_square id = ""topsquare"" ></div><img id = ""stim"" ><div class = red_square  id = ""bottomsquare"" ></div>",32,word_square,prac_response,1,Space,true,,,
html-keyboard-response,26,74845,null,"GRATEFUL",null,word,,,,,GRATEFUL,,
html-keyboard-response,27,75346,null,"LOUD<img id = ""stim"" ><div class = green_square id = ""topsquare"" ></div><img id = ""stim"" ><div class = green_square  id = ""bottomsquare"" ></div>",null,word_square,prac_response,0,none,true,,,
html-keyboard-response,28,76848,null,"LOUD",null,word,,,,,LOUD,,
html-keyboard-response,29,77349,null,"SMART<img id = ""stim"" ><div class = red_square id = ""topsquare"" ></div><img id = ""stim"" ><div class = red_square  id = ""bottomsquare"" ></div>",null,word_square,prac_response,1,Space,false,,,
html-keyboard-response,30,78850,null,"SMART",null,word,,,,,SMART,,
html-keyboard-response,31,79351,null,"SMOOTH<img id = ""stim"" ><div class = red_square id = ""topsquare"" ></div><img id = ""stim"" ><div class = red_square  id = ""bottomsquare"" ></div>",null,word_square,prac_response,1,Space,false,,,
html-keyboard-response,32,80853,null,"SMOOTH",null,word,,,,,SMOOTH,,
html-keyboard-response,33,81354,null,"DISHONEST<img id = ""stim"" ><div class = green_square id = ""topsquare"" ></div><img id = ""stim"" ><div class = green_square  id = ""bottomsquare"" ></div>",null,word_square,prac_response,0,none,true,,,
html-keyboard-response,34,82857,null,"DISHONEST",null,word,,,,,DISHONEST,,
html-keyboard-response,35,83358,349.9749999973574,"WEALTHY<img id = ""stim"" ><div class = red_square id = ""topsquare"" ></div><img id = ""stim"" ><div class = red_square  id = ""bottomsquare"" ></div>",32,word_square,prac_response,1,Space,true,,,
html-keyboard-response,36,84860,null,"WEALTHY",null,word,,,,,WEALTHY,,
html-keyboard-response,37,85363,null,"BEAUTIFUL<img id = ""stim"" ><div class = green_square id = ""topsquare"" ></div><img id = ""stim"" ><div class = green_square  id = ""bottomsquare"" ></div>",null,word_square,prac_response,0,none,true,,,
html-keyboard-response,38,86863,null,"BEAUTIFUL",null,word,,,,,BEAUTIFUL,,
html-keyboard-response,39,87366,null,"DREARY<img id = ""stim"" ><div class = green_square id = ""topsquare"" ></div><img id = ""stim"" ><div class = green_square  id = ""bottomsquare"" ></div>",null,word_square,prac_response,0,none,true,,,
html-keyboard-response,40,88876,null,"DREARY",null,word,,,,,DREARY,,
html-keyboard-response,41,89379,425.54999999993015,"PLAYFUL<img id = ""stim"" ><div class = red_square id = ""topsquare"" ></div><img id = ""stim"" ><div class = red_square  id = ""bottomsquare"" ></div>",32,word_square,prac_response,1,Space,true,,,
html-keyboard-response,42,90881,null,"PLAYFUL",null,word,,,,,PLAYFUL,,
html-keyboard-response,43,100887,10004.699999997683,"<p> Uh oh. You responded correctly on 67% of the red squares.</p>
                  <p>We need you keep your accuracy above 80%</p>
                  <p>We're going to try once more to make sure you understand the task. press any key to continue.</p>",32,,,,,,,,
html-keyboard-response,44,109303,8415.140000000974,"<p>You will see a list of words and colored squares in the following task.<p><p>Press the spacebar whenever you see a red square.<p><p>Do not press a key if the square is green<p><p>Press the spacebar to continue.</p>",32,,,,,,,,
html-keyboard-response,45,111818,null,"<div style=""font-size:60px;"">+</div>",null,,,,,,,,
html-keyboard-response,46,112321,null,"HAPPY<img id = ""stim"" ><div class = green_square id = ""topsquare"" ></div><img id = ""stim"" ><div class = green_square  id = ""bottomsquare"" ></div>",null,word_square,response,0,none,true,,,
html-keyboard-response,47,113823,null,"HAPPY",null,word,,,,,HAPPY,,
html-keyboard-response,48,114056,231.85499999817694,"COLD<img id = ""stim"" ><div class = red_square id = ""topsquare"" ></div><img id = ""stim"" ><div class = red_square  id = ""bottomsquare"" ></div>",32,word_square,response,1,Space,true,,,
html-keyboard-response,49,115558,null,"COLD",null,word,,,,,COLD,,
html-keyboard-response,50,115903,344.3250000018452,"HEAVY<img id = ""stim"" ><div class = red_square id = ""topsquare"" ></div><img id = ""stim"" ><div class = red_square  id = ""bottomsquare"" ></div>",32,word_square,response,1,Space,true,,,
html-keyboard-response,51,117405,null,"HEAVY",null,word,,,,,HEAVY,,
html-keyboard-response,52,117907,null,"FUNNY<img id = ""stim"" ><div class = green_square id = ""topsquare"" ></div><img id = ""stim"" ><div class = green_square  id = ""bottomsquare"" ></div>",null,word_square,response,0,none,true,,,
html-keyboard-response,53,119416,null,"FUNNY",null,word,,,,,FUNNY,,
html-keyboard-response,54,119663,245.89500000001863,"SCARY<img id = ""stim"" ><div class = red_square id = ""topsquare"" ></div><img id = ""stim"" ><div class = red_square  id = ""bottomsquare"" ></div>",32,word_square,response,1,Space,true,,,
html-keyboard-response,55,121166,null,"SCARY",null,word,,,,,SCARY,,
html-keyboard-response,56,121455,287.51499999998487,"PEACEFUL<img id = ""stim"" ><div class = red_square id = ""topsquare"" ></div><img id = ""stim"" ><div class = red_square  id = ""bottomsquare"" ></div>",32,word_square,response,1,Space,true,,,
html-keyboard-response,57,122958,null,"PEACEFUL",null,word,,,,,PEACEFUL,,
html-keyboard-response,58,123459,null,"LITTLE<img id = ""stim"" ><div class = green_square id = ""topsquare"" ></div><img id = ""stim"" ><div class = green_square  id = ""bottomsquare"" ></div>",null,word_square,response,0,none,true,,,
html-keyboard-response,59,124961,null,"LITTLE",null,word,,,,,LITTLE,,
html-keyboard-response,60,125462,null,"TIRED<img id = ""stim"" ><div class = green_square id = ""topsquare"" ></div><img id = ""stim"" ><div class = green_square  id = ""bottomsquare"" ></div>",null,word_square,response,0,none,true,,,
html-keyboard-response,61,126966,null,"TIRED",null,word,,,,,TIRED,,
html-keyboard-response,62,127468,null,"ENTERTAINING<img id = ""stim"" ><div class = green_square id = ""topsquare"" ></div><img id = ""stim"" ><div class = green_square  id = ""bottomsquare"" ></div>",null,word_square,response,0,none,true,,,
html-keyboard-response,63,128979,null,"ENTERTAINING",null,word,,,,,ENTERTAINING,,
html-keyboard-response,64,129263,282.64499999932013,"GRATEFUL<img id = ""stim"" ><div class = red_square id = ""topsquare"" ></div><img id = ""stim"" ><div class = red_square  id = ""bottomsquare"" ></div>",32,word_square,response,1,Space,true,,,
html-keyboard-response,65,130765,null,"GRATEFUL",null,word,,,,,GRATEFUL,,
html-keyboard-response,66,131266,null,"LOUD<img id = ""stim"" ><div class = green_square id = ""topsquare"" ></div><img id = ""stim"" ><div class = green_square  id = ""bottomsquare"" ></div>",null,word_square,response,0,none,true,,,
html-keyboard-response,67,132768,null,"LOUD",null,word,,,,,LOUD,,
html-keyboard-response,68,133151,382.2650000001886,"SMART<img id = ""stim"" ><div class = red_square id = ""topsquare"" ></div><img id = ""stim"" ><div class = red_square  id = ""bottomsquare"" ></div>",32,word_square,response,1,Space,true,,,
html-keyboard-response,69,134653,null,"SMART",null,word,,,,,SMART,,
html-keyboard-response,70,135007,353.42499999751453,"SMOOTH<img id = ""stim"" ><div class = red_square id = ""topsquare"" ></div><img id = ""stim"" ><div class = red_square  id = ""bottomsquare"" ></div>",32,word_square,response,1,Space,true,,,
html-keyboard-response,71,136509,null,"SMOOTH",null,word,,,,,SMOOTH,,
html-keyboard-response,72,137010,null,"DISHONEST<img id = ""stim"" ><div class = green_square id = ""topsquare"" ></div><img id = ""stim"" ><div class = green_square  id = ""bottomsquare"" ></div>",null,word_square,response,0,none,true,,,
html-keyboard-response,73,138513,null,"DISHONEST",null,word,,,,,DISHONEST,,
html-keyboard-response,74,138841,326.1599999968894,"WEALTHY<img id = ""stim"" ><div class = red_square id = ""topsquare"" ></div><img id = ""stim"" ><div class = red_square  id = ""bottomsquare"" ></div>",32,word_square,response,1,Space,true,,,
html-keyboard-response,75,140345,null,"WEALTHY",null,word,,,,,WEALTHY,,
html-keyboard-response,76,140858,null,"BEAUTIFUL<img id = ""stim"" ><div class = green_square id = ""topsquare"" ></div><img id = ""stim"" ><div class = green_square  id = ""bottomsquare"" ></div>",null,word_square,response,0,none,true,,,
html-keyboard-response,77,142361,null,"BEAUTIFUL",null,word,,,,,BEAUTIFUL,,
html-keyboard-response,78,142865,null,"DREARY<img id = ""stim"" ><div class = green_square id = ""topsquare"" ></div><img id = ""stim"" ><div class = green_square  id = ""bottomsquare"" ></div>",null,word_square,response,0,none,true,,,
html-keyboard-response,79,144368,null,"DREARY",null,word,,,,,DREARY,,
html-keyboard-response,80,144688,314.94000000020606,"PLAYFUL<img id = ""stim"" ><div class = red_square id = ""topsquare"" ></div><img id = ""stim"" ><div class = red_square  id = ""bottomsquare"" ></div>",32,word_square,response,1,Space,true,,,
html-keyboard-response,81,146205,null,"PLAYFUL",null,word,,,,,PLAYFUL,,
html-keyboard-response,82,151008,4801.760000002105,"<p> Good job! You responded correctly to 100% of the red squares.</p>
                  <p>Be sure to keep your accuracy above 80%</p>
                  <p>Press any key to begin the math and recall sections. Thank you!</p>",32,,,,,,,,
call-function,83,151009,,"",,,,,,,,,
html-keyboard-response,84,151114,null,"",null,,,,,,,,
math-period,85,157911,39832.99499998611,"",,,,,,,,,4
html-keyboard-response,86,158013,null,"",null,,,,,,,,
math-period,87,166279,97192.70499999402,"",,,,,,,,,1
html-keyboard-response,88,166380,null,"",null,,,,,,,,
math-period,89,168567,4211.644999999407,"",,,,,,,,,2
html-keyboard-response,90,168669,null,"",null,,,,,,,,
math-period,91,171159,4826.184999998077,"",,,,,,,,,5
html-keyboard-response,92,171260,null,"",null,,,,,,,,
math-period,93,172592,2347.5000000034925,"",,,,,,,,,5
html-keyboard-response,94,172697,null,"",null,,,,,,,,
math-period,95,174552,3579.1750000025786,"",,,,,,,,,2
html-keyboard-response,96,174653,null,"",null,,,,,,,,
math-period,97,175016,null,"",,,,,,,,,
html-keyboard-response,98,176019,null,"Recall Period!",null,,,,,,,,
call-function,99,176019,,"",,,,,,,,,
html-keyboard-response,100,176120,null,"",null,,,,,,,,
recall-period,101,188864,240691.18999998318,"",,,,,,,,,dreary
html-keyboard-response,102,188972,null,"",null,,,,,,,,
recall-period,103,191111,7139.829999989161,"",,,,,,,,,smart
html-keyboard-response,104,191220,null,"",null,,,,,,,,
recall-period,105,196088,33653.13999999853,"",,,,,,,,,beautiful
html-keyboard-response,106,196192,null,"",null,,,,,,,,
recall-period,107,199592,17760.520000003453,"",,,,,,,,,smart
html-keyboard-response,108,199696,null,"",null,,,,,,,,
recall-period,109,202927,17548.0349999998,"",,,,,,,,,tired
html-keyboard-response,110,203028,null,"",null,,,,,,,,
recall-period,111,207855,28900.695000007545,"",,,,,,,,,little
html-keyboard-response,112,207958,null,"",null,,,,,,,,
recall-period,113,209912,7793.340000003809,"",,,,,,,,,heavy
html-keyboard-response,114,210013,null,"",null,,,,,,,,
recall-period,115,224512,97791.57500000656,"",,,,,,,,,smooth
html-keyboard-response,116,224622,null,"",null,,,,,,,,
recall-period,117,236080,95390.78999999401,"",,,,,,,,,cheerful
html-keyboard-response,118,236189,null,"",null,,,,,,,,
recall-period,119,251020,null,"",,,,,,,,,
html-keyboard-response,120,251524,null,"Time's Up!",null,,,,,,,,
html-keyboard-response,121,256207,4682.43000000075,"<p>We will now begin the experiment!<p><p>Please try to remember all words from each list.<p><p>Press the spacebar whenever you see a red square.<p><p><p><p>Press the spacebar to begin.</p>",32,,,,,,,,
html-keyboard-response,122,258466,1756.8699999974342,"<div style=""font-size:48px;"">Press any key to begin list 1 of 24 </div>",32,,,,,,,,
html-keyboard-response,123,260969,null,"<div style=""font-size:60px;"">+</div>",null,,,,,,,,
html-keyboard-response,124,261472,null,"EARRING<img id = ""stim"" ><div class = green_square id = ""topsquare"" ></div><img id = ""stim"" ><div class = green_square  id = ""bottomsquare"" ></div>",null,word_square,response,0,none,true,,,
html-keyboard-response,125,262974,null,"EARRING",null,word,,,,, 'EARRING',,
html-keyboard-response,126,263297,322.1349999984959,"WARDROBE<img id = ""stim"" ><div class = red_square id = ""topsquare"" ></div><img id = ""stim"" ><div class = red_square  id = ""bottomsquare"" ></div>",32,word_square,response,1,Space,true,,,
html-keyboard-response,127,264799,null,"WARDROBE",null,word,,,,, 'WARDROBE',,
html-keyboard-response,128,265303,null,"UNCLE<img id = ""stim"" ><div class = green_square id = ""topsquare"" ></div><img id = ""stim"" ><div class = green_square  id = ""bottomsquare"" ></div>",null,word_square,response,0,none,true,,,
html-keyboard-response,129,266806,null,"UNCLE",null,word,,,,, 'UNCLE',,
html-keyboard-response,130,267160,353.31999999837717,"COUSIN<img id = ""stim"" ><div class = red_square id = ""topsquare"" ></div><img id = ""stim"" ><div class = red_square  id = ""bottomsquare"" ></div>",32,word_square,response,1,Space,true,,,
html-keyboard-response,131,268663,null,"COUSIN",null,word,,,,, 'COUSIN',,
html-keyboard-response,132,269056,391.7650000002468,"YARD<img id = ""stim"" ><div class = red_square id = ""topsquare"" ></div><img id = ""stim"" ><div class = red_square  id = ""bottomsquare"" ></div>",32,word_square,response,1,Space,true,,,
html-keyboard-response,133,270558,null,"YARD",null,word,,,,, 'YARD',,
html-keyboard-response,134,270928,369.8900000017602,"LUMBER<img id = ""stim"" ><div class = red_square id = ""topsquare"" ></div><img id = ""stim"" ><div class = red_square  id = ""bottomsquare"" ></div>",32,word_square,response,1,Space,true,,,
html-keyboard-response,135,272431,null,"LUMBER",null,word,,,,, 'LUMBER',,
html-keyboard-response,136,272935,null,"STOCKING<img id = ""stim"" ><div class = green_square id = ""topsquare"" ></div><img id = ""stim"" ><div class = green_square  id = ""bottomsquare"" ></div>",null,word_square,response,0,none,true,,,
html-keyboard-response,137,274437,null,"STOCKING",null,word,,,,, 'STOCKING',,
html-keyboard-response,138,274940,null,"STAPLE<img id = ""stim"" ><div class = green_square id = ""topsquare"" ></div><img id = ""stim"" ><div class = green_square  id = ""bottomsquare"" ></div>",null,word_square,response,0,none,true,,,
html-keyboard-response,139,276442,null,"STAPLE",null,word,,,,, 'STAPLE',,
html-keyboard-response,140,276831,388.22499999881256,"CORAL<img id = ""stim"" ><div class = red_square id = ""topsquare"" ></div><img id = ""stim"" ><div class = red_square  id = ""bottomsquare"" ></div>",32,word_square,response,1,Space,true,,,
html-keyboard-response,141,278333,null,"CORAL",null,word,,,,, 'CORAL',,
html-keyboard-response,142,278849,null,"ISLAND<img id = ""stim"" ><div class = green_square id = ""topsquare"" ></div><img id = ""stim"" ><div class = green_square  id = ""bottomsquare"" ></div>",null,word_square,response,0,none,true,,,
html-keyboard-response,143,280351,null,"ISLAND",null,word,,,,, 'ISLAND',,
html-keyboard-response,144,280632,279.9400000004098,"DRESSER<img id = ""stim"" ><div class = red_square id = ""topsquare"" ></div><img id = ""stim"" ><div class = red_square  id = ""bottomsquare"" ></div>",32,word_square,response,1,Space,true,,,
html-keyboard-response,145,282134,null,"DRESSER",null,word,,,,, 'DRESSER',,
html-keyboard-response,146,282511,376.08499999990454,"MUSTARD<img id = ""stim"" ><div class = red_square id = ""topsquare"" ></div><img id = ""stim"" ><div class = red_square  id = ""bottomsquare"" ></div>",32,word_square,response,1,Space,true,,,
html-keyboard-response,147,284013,null,"MUSTARD",null,word,,,,, 'MUSTARD',,
html-keyboard-response,148,284515,null,"TOOTHPASTE<img id = ""stim"" ><div class = green_square id = ""topsquare"" ></div><img id = ""stim"" ><div class = green_square  id = ""bottomsquare"" ></div>",null,word_square,response,0,none,true,,,
html-keyboard-response,149,286019,null,"TOOTHPASTE",null,word,,,,, 'TOOTHPASTE',,
html-keyboard-response,150,286521,null,"MESSAGE<img id = ""stim"" ><div class = green_square id = ""topsquare"" ></div><img id = ""stim"" ><div class = green_square  id = ""bottomsquare"" ></div>",null,word_square,response,0,none,true,,,
html-keyboard-response,151,288022,null,"MESSAGE",null,word,,,,, 'MESSAGE',,
html-keyboard-response,152,288417,394.61500000109663,"FIST<img id = ""stim"" ><div class = red_square id = ""topsquare"" ></div><img id = ""stim"" ><div class = red_square  id = ""bottomsquare"" ></div>",32,word_square,response,1,Space,true,,,
html-keyboard-response,153,289920,null,"FIST",null,word,,,,, 'FIST',,
html-keyboard-response,154,290423,null,"DOCK<img id = ""stim"" ><div class = green_square id = ""topsquare"" ></div><img id = ""stim"" ><div class = green_square  id = ""bottomsquare"" ></div>",null,word_square,response,0,none,true,,,
html-keyboard-response,155,291925,null,"DOCK",null,word,,,,, 'DOCK',,
html-keyboard-response,156,292428,null,"FLESH<img id = ""stim"" ><div class = green_square id = ""topsquare"" ></div><img id = ""stim"" ><div class = green_square  id = ""bottomsquare"" ></div>",null,word_square,response,0,none,true,,,
html-keyboard-response,157,293931,null,"FLESH",null,word,,,,, 'FLESH',,
html-keyboard-response,158,294306,372.7150000013062,"FOREHEAD<img id = ""stim"" ><div class = red_square id = ""topsquare"" ></div><img id = ""stim"" ><div class = red_square  id = ""bottomsquare"" ></div>",32,word_square,response,1,Space,true,,,
html-keyboard-response,159,295808,null,"FOREHEAD",null,word,,,,, 'FOREHEAD',,
call-function,160,295809,,"",,,,,,,,,
html-keyboard-response,161,295911,null,"",null,,,,,,,,
math-period,162,298846,5733.310000003199,"",,,,,,,,,1
html-keyboard-response,163,298949,null,"",null,,,,,,,,
math-period,164,301543,4988.195000001753,"",,,,,,,,,1
html-keyboard-response,165,301646,null,"",null,,,,,,,,
math-period,166,303967,4480.925000003539,"",,,,,,,,,2
html-keyboard-response,167,304069,null,"",null,,,,,,,,
math-period,168,307399,12224.305000003369,"",,,,,,,,,5
html-keyboard-response,169,307502,null,"",null,,,,,,,,
math-period,170,308886,2478.6449999992037,"",,,,,,,,,2
html-keyboard-response,171,308987,null,"",null,,,,,,,,
math-period,172,310288,2382.180000000517,"",,,,,,,,,3
html-keyboard-response,173,310389,null,"",null,,,,,,,,
math-period,174,311911,2914.0000000006985,"",,,,,,,,,2
html-keyboard-response,175,312012,null,"",null,,,,,,,,
math-period,176,314487,4852.234999998531,"",,,,,,,,,1
html-keyboard-response,177,314592,null,"",null,,,,,,,,
math-period,178,316391,3402.5349999974715,"",,,,,,,,,4
html-keyboard-response,179,316496,null,"",null,,,,,,,,
math-period,180,317727,2283.9500000008848,"",,,,,,,,,5
html-keyboard-response,181,317830,null,"",null,,,,,,,,
math-period,182,319811,null,"",,,,,,,,,
html-keyboard-response,183,320814,null,"Recall Period!",null,,,,,,,,
call-function,184,320816,,"",,,,,,,,,
html-keyboard-response,185,320919,null,"",null,,,,,,,,
recall-period,186,326839,37918.980000002484,"",,,,,,,,,wardrobe
html-keyboard-response,187,326940,null,"",null,,,,,,,,
recall-period,188,328910,9695.650000001187,"",,,,,,,,,flesh
html-keyboard-response,189,329012,null,"",null,,,,,,,,
recall-period,190,331663,15667.484999990847,"",,,,,,,,,forehead
html-keyboard-response,191,331778,null,"",null,,,,,,,,
recall-period,192,340926,53022.53000000195,"",,,,,,,,,uncle
html-keyboard-response,193,341028,null,"",null,,,,,,,,
recall-period,194,351871,81222.96500000061,"",,,,,,,,,mustard
html-keyboard-response,195,351973,null,"",null,,,,,,,,
recall-period,196,395818,null,"",,,,,,,,,
html-keyboard-response,197,396319,null,"Time's Up!",null,,,,,,,,
html-keyboard-response,198,399376,3055.9849999990547,"<p> Good job! You responded correctly to 100% of the red squares.</p>
                  <p>Be sure to keep your accuracy above 80%</p>
                  <p>Press any key to continue the experiment. Thank you!</p>",32,,,,,,,,
html-keyboard-response,199,402656,3278.8299999992596,"<div style=""font-size:48px;"">Press any key to begin list 2 of 24 </div>",32,,,,,,,,
html-keyboard-response,200,405158,null,"<div style=""font-size:60px;"">+</div>",null,,,,,,,,
html-keyboard-response,201,405659,null,"ELBOW<img id = ""stim"" ><div class = green_square id = ""topsquare"" ></div><img id = ""stim"" ><div class = green_square  id = ""bottomsquare"" ></div>",null,word_square,response,0,none,true,,,
html-keyboard-response,202,407161,null,"ELBOW",null,word,,,,, 'ELBOW',,
html-keyboard-response,203,407466,303.80499999958556,"GLOVE<img id = ""stim"" ><div class = red_square id = ""topsquare"" ></div><img id = ""stim"" ><div class = red_square  id = ""bottomsquare"" ></div>",32,word_square,response,1,Space,true,,,
html-keyboard-response,204,408969,null,"GLOVE",null,word,,,,, 'GLOVE',,
html-keyboard-response,205,409471,null,"HIKER<img id = ""stim"" ><div class = green_square id = ""topsquare"" ></div><img id = ""stim"" ><div class = green_square  id = ""bottomsquare"" ></div>",null,word_square,response,0,none,true,,,
html-keyboard-response,206,410972,null,"HIKER",null,word,,,,, 'HIKER',,
html-keyboard-response,207,411432,459.340000001248,"ONION<img id = ""stim"" ><div class = red_square id = ""topsquare"" ></div><img id = ""stim"" ><div class = red_square  id = ""bottomsquare"" ></div>",32,word_square,response,1,Space,true,,,
html-keyboard-response,208,412935,null,"ONION",null,word,,,,, 'ONION',,
html-keyboard-response,209,413416,480.0649999997113,"BADGE<img id = ""stim"" ><div class = red_square id = ""topsquare"" ></div><img id = ""stim"" ><div class = red_square  id = ""bottomsquare"" ></div>",32,word_square,response,1,Space,true,,,
html-keyboard-response,210,414922,null,"BADGE",null,word,,,,, 'BADGE',,
html-keyboard-response,211,415344,421.0800000000745,"KETCHUP<img id = ""stim"" ><div class = red_square id = ""topsquare"" ></div><img id = ""stim"" ><div class = red_square  id = ""bottomsquare"" ></div>",32,word_square,response,1,Space,true,,,
html-keyboard-response,212,416846,null,"KETCHUP",null,word,,,,, 'KETCHUP',,
html-keyboard-response,213,417349,null,"CAPTIVE<img id = ""stim"" ><div class = green_square id = ""topsquare"" ></div><img id = ""stim"" ><div class = green_square  id = ""bottomsquare"" ></div>",null,word_square,response,0,none,true,,,
html-keyboard-response,214,418851,null,"CAPTIVE",null,word,,,,, 'CAPTIVE',,
html-keyboard-response,215,419353,null,"ALMOND<img id = ""stim"" ><div class = green_square id = ""topsquare"" ></div><img id = ""stim"" ><div class = green_square  id = ""bottomsquare"" ></div>",null,word_square,response,0,none,true,,,
html-keyboard-response,216,420855,null,"ALMOND",null,word,,,,, 'ALMOND',,
html-keyboard-response,217,421223,367.1599999979953,"GRAVE<img id = ""stim"" ><div class = red_square id = ""topsquare"" ></div><img id = ""stim"" ><div class = red_square  id = ""bottomsquare"" ></div>",32,word_square,response,1,Space,true,,,
html-keyboard-response,218,422726,null,"GRAVE",null,word,,,,, 'GRAVE',,
html-keyboard-response,219,423228,null,"POISON<img id = ""stim"" ><div class = green_square id = ""topsquare"" ></div><img id = ""stim"" ><div class = green_square  id = ""bottomsquare"" ></div>",null,word_square,response,0,none,true,,,
html-keyboard-response,220,424730,null,"POISON",null,word,,,,, 'POISON',,
html-keyboard-response,221,425127,396.8849999982631,"CIGAR<img id = ""stim"" ><div class = red_square id = ""topsquare"" ></div><img id = ""stim"" ><div class = red_square  id = ""bottomsquare"" ></div>",32,word_square,response,1,Space,true,,,
html-keyboard-response,222,426630,null,"CIGAR",null,word,,,,, 'CIGAR',,
html-keyboard-response,223,427049,417.4349999993574,"VAMPIRE<img id = ""stim"" ><div class = red_square id = ""topsquare"" ></div><img id = ""stim"" ><div class = red_square  id = ""bottomsquare"" ></div>",32,word_square,response,1,Space,true,,,
html-keyboard-response,224,428551,null,"VAMPIRE",null,word,,,,, 'VAMPIRE',,
html-keyboard-response,225,428927,375.28999999992084,"GUARD<img id = ""stim"" ><div class = green_square id = ""topsquare"" ></div><img id = ""stim"" ><div class = green_square  id = ""bottomsquare"" ></div>",32,word_square,response,0,none,false,,,
html-keyboard-response,226,430435,null,"GUARD",null,word,,,,, 'GUARD',,
html-keyboard-response,227,430937,null,"ATTIC<img id = ""stim"" ><div class = green_square id = ""topsquare"" ></div><img id = ""stim"" ><div class = green_square  id = ""bottomsquare"" ></div>",null,word_square,response,0,none,true,,,
html-keyboard-response,228,432441,null,"ATTIC",null,word,,,,, 'ATTIC',,
html-keyboard-response,229,432840,397.59500000218395,"SLOPE<img id = ""stim"" ><div class = red_square id = ""topsquare"" ></div><img id = ""stim"" ><div class = red_square  id = ""bottomsquare"" ></div>",32,word_square,response,1,Space,true,,,
html-keyboard-response,230,434341,null,"SLOPE",null,word,,,,, 'SLOPE',,
html-keyboard-response,231,434844,null,"GARBAGE<img id = ""stim"" ><div class = green_square id = ""topsquare"" ></div><img id = ""stim"" ><div class = green_square  id = ""bottomsquare"" ></div>",null,word_square,response,0,none,true,,,
html-keyboard-response,232,436347,null,"GARBAGE",null,word,,,,, 'GARBAGE',,
html-keyboard-response,233,436850,null,"TEAPOT<img id = ""stim"" ><div class = green_square id = ""topsquare"" ></div><img id = ""stim"" ><div class = green_square  id = ""bottomsquare"" ></div>",null,word_square,response,0,none,true,,,
html-keyboard-response,234,438352,null,"TEAPOT",null,word,,,,, 'TEAPOT',,
html-keyboard-response,235,438800,447.15999999974156,"KNUCKLE<img id = ""stim"" ><div class = red_square id = ""topsquare"" ></div><img id = ""stim"" ><div class = red_square  id = ""bottomsquare"" ></div>",32,word_square,response,1,Space,true,,,
html-keyboard-response,236,440302,null,"KNUCKLE",null,word,,,,, 'KNUCKLE',,
call-function,237,440304,,"",,,,,,,,,
html-keyboard-response,238,440405,null,"",null,,,,,,,,
math-period,239,443304,9590.185000000813,"",,,,,,,,,5
html-keyboard-response,240,443406,null,"",null,,,,,,,,
math-period,241,444887,2574.945000000298,"",,,,,,,,,4
html-keyboard-response,242,444997,null,"",null,,,,,,,,
math-period,243,446280,2172.05499999912,"",,,,,,,,,6
html-keyboard-response,244,446381,null,"",null,,,,,,,,
math-period,245,447880,2546.665000001667,"",,,,,,,,,5
html-keyboard-response,246,447982,null,"",null,,,,,,,,
math-period,247,449392,2393.0949999995064,"",,,,,,,,,3
html-keyboard-response,248,449494,null,"",null,,,,,,,,
math-period,249,450776,2096.284999995958,"",,,,,,,,,4
html-keyboard-response,250,450882,null,"",null,,,,,,,,
math-period,251,452063,1920.5849999961792,"",,,,,,,,,5
html-keyboard-response,252,452165,null,"",null,,,,,,,,
math-period,253,454367,6782.180000001914,"",,,,,,,,,4
html-keyboard-response,254,454468,null,"",null,,,,,,,,
math-period,255,456032,2868.6650000017253,"",,,,,,,,,3
html-keyboard-response,256,456133,null,"",null,,,,,,,,
math-period,257,457615,2594.0750000008848,"",,,,,,,,,6
html-keyboard-response,258,457719,null,"",null,,,,,,,,
math-period,259,459072,2256.3650000010966,"",,,,,,,,,5
html-keyboard-response,260,459176,null,"",null,,,,,,,,
math-period,261,460432,1998.4550000008312,"",,,,,,,,,4
html-keyboard-response,262,460541,null,"",null,,,,,,,,
math-period,263,463159,5057.924999997253,"",,,,,,,,,1
html-keyboard-response,264,463260,null,"",null,,,,,,,,
math-period,265,464317,818.5599999997066,"",,,,,,,,,3
html-keyboard-response,266,465319,null,"Recall Period!",null,,,,,,,,
call-function,267,465319,,"",,,,,,,,,
html-keyboard-response,268,465421,null,"",null,,,,,,,,
recall-period,269,469616,17558.919999999576,"",,,,,,,,,onion
html-keyboard-response,270,469721,null,"",null,,,,,,,,
recall-period,271,471408,8198.079999991285,"",,,,,,,,,ketchup
html-keyboard-response,272,471509,null,"",null,,,,,,,,
recall-period,273,485695,82910.69999998965,"",,,,,,,,,glove
html-keyboard-response,274,485797,null,"",null,,,,,,,,
recall-period,275,505103,145590.1599999963,"",,,,,,,,,captive
html-keyboard-response,276,505205,null,"",null,,,,,,,,
recall-period,277,506848,8174.704999990354,"",,,,,,,,,poison
html-keyboard-response,278,506949,null,"",null,,,,,,,,
recall-period,279,511888,36141.0149999868,"",,,,,,,,,vampire
html-keyboard-response,280,511990,null,"",null,,,,,,,,
recall-period,281,540322,null,"",,,,,,,,,
html-keyboard-response,282,540824,null,"Time's Up!",null,,,,,,,,
html-keyboard-response,283,542792,1967.079999998561,"<p> Good job! You responded correctly to 98% of the red squares.</p>
                  <p>Be sure to keep your accuracy above 80%</p>
                  <p>Press any key to continue the experiment. Thank you!</p>",32,,,,,,,,
html-keyboard-response,284,543522,727.7399999983609,"<div style=""font-size:48px;"">Press any key to begin list 3 of 24 </div>",32,,,,,,,,
html-keyboard-response,285,546025,null,"<div style=""font-size:60px;"">+</div>",null,,,,,,,,
html-keyboard-response,286,546408,382.20000000006985,"WHISTLE<img id = ""stim"" ><div class = red_square id = ""topsquare"" ></div><img id = ""stim"" ><div class = red_square  id = ""bottomsquare"" ></div>",32,word_square,response,1,Space,true,,,
html-keyboard-response,287,547909,null,"WHISTLE",null,word,,,,, 'WHISTLE',,
html-keyboard-response,288,548424,null,"GARDEN<img id = ""stim"" ><div class = green_square id = ""topsquare"" ></div><img id = ""stim"" ><div class = green_square  id = ""bottomsquare"" ></div>",null,word_square,response,0,none,true,,,
html-keyboard-response,289,549926,null,"GARDEN",null,word,,,,, 'GARDEN',,
html-keyboard-response,290,550241,314.3400000007823,"GLASS<img id = ""stim"" ><div class = red_square id = ""topsquare"" ></div><img id = ""stim"" ><div class = red_square  id = ""bottomsquare"" ></div>",32,word_square,response,1,Space,true,,,
html-keyboard-response,291,551742,null,"GLASS",null,word,,,,, 'GLASS',,
html-keyboard-response,292,552244,null,"GLASSES<img id = ""stim"" ><div class = green_square id = ""topsquare"" ></div><img id = ""stim"" ><div class = green_square  id = ""bottomsquare"" ></div>",null,word_square,response,0,none,true,,,
html-keyboard-response,293,553746,null,"GLASSES",null,word,,,,, 'GLASSES',,
html-keyboard-response,294,554249,null,"PEACH<img id = ""stim"" ><div class = green_square id = ""topsquare"" ></div><img id = ""stim"" ><div class = green_square  id = ""bottomsquare"" ></div>",null,word_square,response,0,none,true,,,
html-keyboard-response,295,555751,null,"PEACH",null,word,,,,, 'PEACH',,
html-keyboard-response,296,556254,null,"CITRUS<img id = ""stim"" ><div class = green_square id = ""topsquare"" ></div><img id = ""stim"" ><div class = green_square  id = ""bottomsquare"" ></div>",null,word_square,response,0,none,true,,,
html-keyboard-response,297,557756,null,"CITRUS",null,word,,,,, 'CITRUS',,
html-keyboard-response,298,558258,null,"CRACKER<img id = ""stim"" ><div class = red_square id = ""topsquare"" ></div><img id = ""stim"" ><div class = red_square  id = ""bottomsquare"" ></div>",null,word_square,response,1,Space,false,,,
html-keyboard-response,299,559761,null,"CRACKER",null,word,,,,, 'CRACKER',,
html-keyboard-response,300,560114,351.5350000016624,"NOTEBOOK<img id = ""stim"" ><div class = red_square id = ""topsquare"" ></div><img id = ""stim"" ><div class = red_square  id = ""bottomsquare"" ></div>",32,word_square,response,1,Space,true,,,
html-keyboard-response,301,561616,null,"NOTEBOOK",null,word,,,,, 'NOTEBOOK',,
html-keyboard-response,302,562119,null,"MAILBOX<img id = ""stim"" ><div class = green_square id = ""topsquare"" ></div><img id = ""stim"" ><div class = green_square  id = ""bottomsquare"" ></div>",null,word_square,response,0,none,true,,,
html-keyboard-response,303,563621,null,"MAILBOX",null,word,,,,, 'MAILBOX',,
html-keyboard-response,304,564018,394.60999999940395,"JACKET<img id = ""stim"" ><div class = red_square id = ""topsquare"" ></div><img id = ""stim"" ><div class = red_square  id = ""bottomsquare"" ></div>",32,word_square,response,1,Space,true,,,
html-keyboard-response,305,565521,null,"JACKET",null,word,,,,, 'JACKET',,
html-keyboard-response,306,566022,null,"GLOBE<img id = ""stim"" ><div class = green_square id = ""topsquare"" ></div><img id = ""stim"" ><div class = green_square  id = ""bottomsquare"" ></div>",null,word_square,response,0,none,true,,,
html-keyboard-response,307,567525,null,"GLOBE",null,word,,,,, 'GLOBE',,
html-keyboard-response,308,568026,null,"LODGE<img id = ""stim"" ><div class = green_square id = ""topsquare"" ></div><img id = ""stim"" ><div class = green_square  id = ""bottomsquare"" ></div>",null,word_square,response,0,none,true,,,
html-keyboard-response,309,569529,null,"LODGE",null,word,,,,, 'LODGE',,
html-keyboard-response,310,569871,341.1099999975413,"CABIN<img id = ""stim"" ><div class = red_square id = ""topsquare"" ></div><img id = ""stim"" ><div class = red_square  id = ""bottomsquare"" ></div>",32,word_square,response,1,Space,true,,,
html-keyboard-response,311,571374,null,"CABIN",null,word,,,,, 'CABIN',,
html-keyboard-response,312,571776,401.2300000031246,"WINDOW<img id = ""stim"" ><div class = red_square id = ""topsquare"" ></div><img id = ""stim"" ><div class = red_square  id = ""bottomsquare"" ></div>",32,word_square,response,1,Space,true,,,
html-keyboard-response,313,573278,null,"WINDOW",null,word,,,,, 'WINDOW',,
html-keyboard-response,314,573780,null,"BOULDER<img id = ""stim"" ><div class = green_square id = ""topsquare"" ></div><img id = ""stim"" ><div class = green_square  id = ""bottomsquare"" ></div>",null,word_square,response,0,none,true,,,
html-keyboard-response,315,575281,null,"BOULDER",null,word,,,,, 'BOULDER',,
html-keyboard-response,316,575584,302.18500000052154,"JAR<img id = ""stim"" ><div class = red_square id = ""topsquare"" ></div><img id = ""stim"" ><div class = red_square  id = ""bottomsquare"" ></div>",32,word_square,response,1,Space,true,,,
html-keyboard-response,317,577086,null,"JAR",null,word,,,,, 'JAR',,
html-keyboard-response,318,577589,null,"SCALLOP<img id = ""stim"" ><div class = red_square id = ""topsquare"" ></div><img id = ""stim"" ><div class = red_square  id = ""bottomsquare"" ></div>",null,word_square,response,1,Space,false,,,
html-keyboard-response,319,579091,null,"SCALLOP",null,word,,,,, 'SCALLOP',,
html-keyboard-response,320,579594,null,"GUITAR<img id = ""stim"" ><div class = green_square id = ""topsquare"" ></div><img id = ""stim"" ><div class = green_square  id = ""bottomsquare"" ></div>",null,word_square,response,0,none,true,,,
html-keyboard-response,321,581096,null,"GUITAR",null,word,,,,, 'GUITAR',,
call-function,322,581096,,"",,,,,,,,,
html-keyboard-response,323,581199,null,"",null,,,,,,,,
math-period,324,583752,6057.310000003898,"",,,,,,,,,5
html-keyboard-response,325,583854,null,"",null,,,,,,,,
math-period,326,585000,1969.8649999990594,"",,,,,,,,,3
html-keyboard-response,327,585102,null,"",null,,,,,,,,
math-period,328,587744,4841.6350000042,"",,,,,,,,,0
html-keyboard-response,329,587845,null,"",null,,,,,,,,
math-period,330,589976,7487.734999991604,"",,,,,,,,,1
html-keyboard-response,331,590083,null,"",null,,,,,,,,
math-period,332,592032,6287.839999997057,"",,,,,,,,,3
html-keyboard-response,333,592140,null,"",null,,,,,,,,
math-period,334,593352,2190.784999998985,"",,,,,,,,,3
html-keyboard-response,335,593453,null,"",null,,,,,,,,
math-period,336,594984,4912.119999997085,"",,,,,,,,,5
html-keyboard-response,337,595102,null,"",null,,,,,,,,
math-period,338,596248,1842.9900000045309,"",,,,,,,,,3
html-keyboard-response,339,596351,null,"",null,,,,,,,,
math-period,340,597880,2590.4649999975227,"",,,,,,,,,5
html-keyboard-response,341,597981,null,"",null,,,,,,,,
math-period,342,599232,2043.179999996908,"",,,,,,,,,5
html-keyboard-response,343,599332,null,"",null,,,,,,,,
math-period,344,600424,1846.4349999993574,"",,,,,,,,,3
html-keyboard-response,345,600527,null,"",null,,,,,,,,
math-period,346,601384,1360.0699999987846,"",,,,,,,,,3
html-keyboard-response,347,601497,null,"",null,,,,,,,,
math-period,348,602480,1643.3150000012247,"",,,,,,,,,3
html-keyboard-response,349,602586,null,"",null,,,,,,,,
math-period,350,604608,3707.559999995283,"",,,,,,,,,2
html-keyboard-response,351,604710,null,"",null,,,,,,,,
math-period,352,605105,null,"",,,,,,,,,
html-keyboard-response,353,606106,null,"Recall Period!",null,,,,,,,,
call-function,354,606107,,"",,,,,,,,,
html-keyboard-response,355,606208,null,"",null,,,,,,,,
recall-period,356,610264,19469.26999999059,"",,,,,,,,,glass
html-keyboard-response,357,610366,null,"",null,,,,,,,,
recall-period,358,611840,6484.720000011264,"",,,,,,,,,glasses
html-keyboard-response,359,611943,null,"",null,,,,,,,,
recall-period,360,614712,16926.86999999557,"",,,,,,,,,citrus
html-keyboard-response,361,614823,null,"",null,,,,,,,,
recall-period,362,615911,3769.650000005495,"",,,,,,,,,peach
html-keyboard-response,363,616013,null,"",null,,,,,,,,
recall-period,364,621143,28251.950000012177,"",,,,,,,,,table
html-keyboard-response,365,621247,null,"",null,,,,,,,,
recall-period,366,681109,null,"",,,,,,,,,
html-keyboard-response,367,681610,null,"Time's Up!",null,,,,,,,,
html-keyboard-response,368,683456,1844.7900000028312,"<p> Good job! You responded correctly to 96% of the red squares.</p>
                  <p>Be sure to keep your accuracy above 80%</p>
                  <p>Press any key to continue the experiment. Thank you!</p>",32,,,,,,,,
html-keyboard-response,369,684122,665.4549999984447,"<div style=""font-size:48px;"">Press any key to begin list 4 of 24 </div>",32,,,,,,,,
html-keyboard-response,370,686624,null,"<div style=""font-size:60px;"">+</div>",null,,,,,,,,
html-keyboard-response,371,687127,null,"ANKLE<img id = ""stim"" ><div class = red_square id = ""topsquare"" ></div><img id = ""stim"" ><div class = red_square  id = ""bottomsquare"" ></div>",null,word_square,response,1,Space,false,,,
html-keyboard-response,372,688631,null,"ANKLE",null,word,,,,, 'ANKLE',,
html-keyboard-response,373,689134,null,"COMET<img id = ""stim"" ><div class = green_square id = ""topsquare"" ></div><img id = ""stim"" ><div class = green_square  id = ""bottomsquare"" ></div>",null,word_square,response,0,none,true,,,
html-keyboard-response,374,690636,null,"COMET",null,word,,,,, 'COMET',,
html-keyboard-response,375,691042,404.3050000000512,"HOOD<img id = ""stim"" ><div class = red_square id = ""topsquare"" ></div><img id = ""stim"" ><div class = red_square  id = ""bottomsquare"" ></div>",32,word_square,response,1,Space,true,,,
html-keyboard-response,376,692546,null,"HOOD",null,word,,,,, 'HOOD',,
html-keyboard-response,377,693049,null,"WORLD<img id = ""stim"" ><div class = green_square id = ""topsquare"" ></div><img id = ""stim"" ><div class = green_square  id = ""bottomsquare"" ></div>",null,word_square,response,0,none,true,,,
html-keyboard-response,378,694553,null,"WORLD",null,word,,,,, 'WORLD',,
html-keyboard-response,379,695057,null,"MARS<img id = ""stim"" ><div class = green_square id = ""topsquare"" ></div><img id = ""stim"" ><div class = green_square  id = ""bottomsquare"" ></div>",null,word_square,response,0,none,true,,,
html-keyboard-response,380,696560,null,"MARS",null,word,,,,, 'MARS',,
html-keyboard-response,381,697061,null,"CRAYON<img id = ""stim"" ><div class = green_square id = ""topsquare"" ></div><img id = ""stim"" ><div class = green_square  id = ""bottomsquare"" ></div>",null,word_square,response,0,none,true,,,
html-keyboard-response,382,698563,null,"CRAYON",null,word,,,,, 'CRAYON',,
html-keyboard-response,383,699066,null,"SHOVEL<img id = ""stim"" ><div class = red_square id = ""topsquare"" ></div><img id = ""stim"" ><div class = red_square  id = ""bottomsquare"" ></div>",null,word_square,response,1,Space,false,,,
html-keyboard-response,384,700568,null,"SHOVEL",null,word,,,,, 'SHOVEL',,
html-keyboard-response,385,701071,null,"SCAPEGOAT<img id = ""stim"" ><div class = red_square id = ""topsquare"" ></div><img id = ""stim"" ><div class = red_square  id = ""bottomsquare"" ></div>",null,word_square,response,1,Space,false,,,
html-keyboard-response,386,702574,null,"SCAPEGOAT",null,word,,,,, 'SCAPEGOAT',,
html-keyboard-response,387,703079,null,"LETTER<img id = ""stim"" ><div class = green_square id = ""topsquare"" ></div><img id = ""stim"" ><div class = green_square  id = ""bottomsquare"" ></div>",null,word_square,response,0,none,true,,,
html-keyboard-response,388,704583,null,"LETTER",null,word,,,,, 'LETTER',,
html-keyboard-response,389,704880,295.0250000030501,"REINDEER<img id = ""stim"" ><div class = red_square id = ""topsquare"" ></div><img id = ""stim"" ><div class = red_square  id = ""bottomsquare"" ></div>",32,word_square,response,1,Space,true,,,
html-keyboard-response,390,706382,null,"REINDEER",null,word,,,,, 'REINDEER',,
html-keyboard-response,391,706884,null,"GERM<img id = ""stim"" ><div class = green_square id = ""topsquare"" ></div><img id = ""stim"" ><div class = green_square  id = ""bottomsquare"" ></div>",null,word_square,response,0,none,true,,,
html-keyboard-response,392,708385,null,"GERM",null,word,,,,, 'GERM',,
html-keyboard-response,393,708887,null,"SALT<img id = ""stim"" ><div class = green_square id = ""topsquare"" ></div><img id = ""stim"" ><div class = green_square  id = ""bottomsquare"" ></div>",null,word_square,response,0,none,true,,,
html-keyboard-response,394,710390,null,"SALT",null,word,,,,, 'SALT',,
html-keyboard-response,395,710799,408.24999999674037,"SIDING<img id = ""stim"" ><div class = red_square id = ""topsquare"" ></div><img id = ""stim"" ><div class = red_square  id = ""bottomsquare"" ></div>",32,word_square,response,1,Space,true,,,
html-keyboard-response,396,712301,null,"SIDING",null,word,,,,, 'SIDING',,
html-keyboard-response,397,712696,393.58499999786727,"FLASK<img id = ""stim"" ><div class = red_square id = ""topsquare"" ></div><img id = ""stim"" ><div class = red_square  id = ""bottomsquare"" ></div>",32,word_square,response,1,Space,true,,,
html-keyboard-response,398,714198,null,"FLASK",null,word,,,,, 'FLASK',,
html-keyboard-response,399,714700,null,"SLIME<img id = ""stim"" ><div class = green_square id = ""topsquare"" ></div><img id = ""stim"" ><div class = green_square  id = ""bottomsquare"" ></div>",null,word_square,response,0,none,true,,,
html-keyboard-response,400,716203,null,"SLIME",null,word,,,,, 'SLIME',,
html-keyboard-response,401,716552,347.41500000015367,"PARSLEY<img id = ""stim"" ><div class = red_square id = ""topsquare"" ></div><img id = ""stim"" ><div class = red_square  id = ""bottomsquare"" ></div>",32,word_square,response,1,Space,true,,,
html-keyboard-response,402,718054,null,"PARSLEY",null,word,,,,, 'PARSLEY',,
html-keyboard-response,403,718441,386.3700000002282,"HANGER<img id = ""stim"" ><div class = red_square id = ""topsquare"" ></div><img id = ""stim"" ><div class = red_square  id = ""bottomsquare"" ></div>",32,word_square,response,1,Space,true,,,
html-keyboard-response,404,719944,null,"HANGER",null,word,,,,, 'HANGER',,
html-keyboard-response,405,720280,334.514999998617,"STAR<img id = ""stim"" ><div class = green_square id = ""topsquare"" ></div><img id = ""stim"" ><div class = green_square  id = ""bottomsquare"" ></div>",32,word_square,response,0,none,false,,,
html-keyboard-response,406,721782,null,"STAR",null,word,,,,, 'STAR',,
call-function,407,721783,,"",,,,,,,,,
html-keyboard-response,408,721884,null,"",null,,,,,,,,
math-period,409,723808,3021.3049999984214,"",,,,,,,,,4
html-keyboard-response,410,723911,null,"",null,,,,,,,,
math-period,411,726696,4112.9650000039255,"",,,,,,,,,2
html-keyboard-response,412,726797,null,"",null,,,,,,,,
math-period,413,729399,5058.820000001928,"",,,,,,,,,1
html-keyboard-response,414,729500,null,"",null,,,,,,,,
math-period,415,730928,2637.360000000568,"",,,,,,,,,3
html-keyboard-response,416,731030,null,"",null,,,,,,,,
math-period,417,732536,2801.379999997327,"",,,,,,,,,5
html-keyboard-response,418,732637,null,"",null,,,,,,,,
math-period,419,734608,3820.470000002417,"",,,,,,,,,1
html-keyboard-response,420,734709,null,"",null,,,,,,,,
math-period,421,736208,2786.8750000052387,"",,,,,,,,,1
html-keyboard-response,422,736311,null,"",null,,,,,,,,
math-period,423,738399,4040.7049999956507,"",,,,,,,,,3
html-keyboard-response,424,738501,null,"",null,,,,,,,,
math-period,425,739496,1820.2900000032969,"",,,,,,,,,3
html-keyboard-response,426,739602,null,"",null,,,,,,,,
math-period,427,741512,3408.780000001774,"",,,,,,,,,5
html-keyboard-response,428,741614,null,"",null,,,,,,,,
math-period,429,743208,2705.839999995078,"",,,,,,,,,2
html-keyboard-response,430,743322,null,"",null,,,,,,,,
math-period,431,744248,1611.4799999996321,"",,,,,,,,,1
html-keyboard-response,432,744350,null,"",null,,,,,,,,
math-period,433,745785,null,"",,,,,,,,,
html-keyboard-response,434,746797,null,"Recall Period!",null,,,,,,,,
call-function,435,746797,,"",,,,,,,,,
html-keyboard-response,436,746900,null,"",null,,,,,,,,
recall-period,437,749472,11915.825000003446,"",,,,,,,,,comet
html-keyboard-response,438,749587,null,"",null,,,,,,,,
recall-period,439,751168,5683.5500000056345,"",,,,,,,,,world
html-keyboard-response,440,751271,null,"",null,,,,,,,,
recall-period,441,753976,8344.675000011222,"",,,,,,,,,slime
html-keyboard-response,442,754078,null,"",null,,,,,,,,
recall-period,443,758000,20047.994999982533,"",,,,,,,,,parsley
html-keyboard-response,444,758103,null,"",null,,,,,,,,
recall-period,445,821799,null,"",,,,,,,,,
html-keyboard-response,446,822302,null,"Time's Up!",null,,,,,,,,
html-keyboard-response,447,825370,3065.0099999983795,"<p> Good job! You responded correctly to 92% of the red squares.</p>
                  <p>Be sure to keep your accuracy above 80%</p>
                  <p>Press any key to continue the experiment. Thank you!</p>",32,,,,,,,,
html-keyboard-response,448,826082,710.3900000001304,"<div style=""font-size:48px;"">Press any key to begin list 5 of 24 </div>",32,,,,,,,,
html-keyboard-response,449,828585,null,"<div style=""font-size:60px;"">+</div>",null,,,,,,,,
html-keyboard-response,450,829065,478.5550000014482,"CRUTCH<img id = ""stim"" ><div class = green_square id = ""topsquare"" ></div><img id = ""stim"" ><div class = green_square  id = ""bottomsquare"" ></div>",32,word_square,response,0,none,false,,,
html-keyboard-response,451,830566,null,"CRUTCH",null,word,,,,, 'CRUTCH',,
html-keyboard-response,452,830904,336.37499999895226,"PORPOISE<img id = ""stim"" ><div class = red_square id = ""topsquare"" ></div><img id = ""stim"" ><div class = red_square  id = ""bottomsquare"" ></div>",32,word_square,response,1,Space,true,,,
html-keyboard-response,453,832406,null,"PORPOISE",null,word,,,,, 'PORPOISE',,
html-keyboard-response,454,832842,433.4100000014296,"NEPHEW<img id = ""stim"" ><div class = red_square id = ""topsquare"" ></div><img id = ""stim"" ><div class = red_square  id = ""bottomsquare"" ></div>",32,word_square,response,1,Space,true,,,
html-keyboard-response,455,834344,null,"NEPHEW",null,word,,,,, 'NEPHEW',,
html-keyboard-response,456,834690,343.6599999986356,"CLIFF<img id = ""stim"" ><div class = red_square id = ""topsquare"" ></div><img id = ""stim"" ><div class = red_square  id = ""bottomsquare"" ></div>",32,word_square,response,1,Space,true,,,
html-keyboard-response,457,836191,null,"CLIFF",null,word,,,,, 'CLIFF',,
html-keyboard-response,458,836693,null,"ARM<img id = ""stim"" ><div class = green_square id = ""topsquare"" ></div><img id = ""stim"" ><div class = green_square  id = ""bottomsquare"" ></div>",null,word_square,response,0,none,true,,,
html-keyboard-response,459,838209,null,"ARM",null,word,,,,, 'ARM',,
html-keyboard-response,460,838576,365.4500000011176,"MARKET<img id = ""stim"" ><div class = red_square id = ""topsquare"" ></div><img id = ""stim"" ><div class = red_square  id = ""bottomsquare"" ></div>",32,word_square,response,1,Space,true,,,
html-keyboard-response,461,840078,null,"MARKET",null,word,,,,, 'MARKET',,
html-keyboard-response,462,840376,295.94499999808613,"GLACIER<img id = ""stim"" ><div class = red_square id = ""topsquare"" ></div><img id = ""stim"" ><div class = red_square  id = ""bottomsquare"" ></div>",32,word_square,response,1,Space,true,,,
html-keyboard-response,463,841886,null,"GLACIER",null,word,,,,, 'GLACIER',,
html-keyboard-response,464,842390,null,"FIREPLACE<img id = ""stim"" ><div class = green_square id = ""topsquare"" ></div><img id = ""stim"" ><div class = green_square  id = ""bottomsquare"" ></div>",null,word_square,response,0,none,true,,,
html-keyboard-response,465,843893,null,"FIREPLACE",null,word,,,,, 'FIREPLACE',,
html-keyboard-response,466,844184,290.2800000010757,"WALRUS<img id = ""stim"" ><div class = red_square id = ""topsquare"" ></div><img id = ""stim"" ><div class = red_square  id = ""bottomsquare"" ></div>",32,word_square,response,1,Space,true,,,
html-keyboard-response,467,845687,null,"WALRUS",null,word,,,,, 'WALRUS',,
html-keyboard-response,468,846190,null,"MOTOR<img id = ""stim"" ><div class = green_square id = ""topsquare"" ></div><img id = ""stim"" ><div class = green_square  id = ""bottomsquare"" ></div>",null,word_square,response,0,none,true,,,
html-keyboard-response,469,847693,null,"MOTOR",null,word,,,,, 'MOTOR',,
html-keyboard-response,470,848196,null,"WAGON<img id = ""stim"" ><div class = green_square id = ""topsquare"" ></div><img id = ""stim"" ><div class = green_square  id = ""bottomsquare"" ></div>",null,word_square,response,0,none,true,,,
html-keyboard-response,471,849698,null,"WAGON",null,word,,,,, 'WAGON',,
html-keyboard-response,472,850025,326.52500000048894,"MASK<img id = ""stim"" ><div class = red_square id = ""topsquare"" ></div><img id = ""stim"" ><div class = red_square  id = ""bottomsquare"" ></div>",32,word_square,response,1,Space,true,,,
html-keyboard-response,473,851528,null,"MASK",null,word,,,,, 'MASK',,
html-keyboard-response,474,852031,null,"MONSTER<img id = ""stim"" ><div class = green_square id = ""topsquare"" ></div><img id = ""stim"" ><div class = green_square  id = ""bottomsquare"" ></div>",null,word_square,response,0,none,true,,,
html-keyboard-response,475,853534,null,"MONSTER",null,word,,,,, 'MONSTER',,
html-keyboard-response,476,854037,null,"TYPIST<img id = ""stim"" ><div class = green_square id = ""topsquare"" ></div><img id = ""stim"" ><div class = green_square  id = ""bottomsquare"" ></div>",null,word_square,response,0,none,true,,,
html-keyboard-response,477,855540,null,"TYPIST",null,word,,,,, 'TYPIST',,
html-keyboard-response,478,855879,338.0649999999441,"OFFICE<img id = ""stim"" ><div class = red_square id = ""topsquare"" ></div><img id = ""stim"" ><div class = red_square  id = ""bottomsquare"" ></div>",32,word_square,response,1,Space,true,,,
html-keyboard-response,479,857381,null,"OFFICE",null,word,,,,, 'OFFICE',,
html-keyboard-response,480,857883,null,"CANYON<img id = ""stim"" ><div class = green_square id = ""topsquare"" ></div><img id = ""stim"" ><div class = green_square  id = ""bottomsquare"" ></div>",null,word_square,response,0,none,true,,,
html-keyboard-response,481,859386,null,"CANYON",null,word,,,,, 'CANYON',,
html-keyboard-response,482,859889,null,"NOMAD<img id = ""stim"" ><div class = green_square id = ""topsquare"" ></div><img id = ""stim"" ><div class = green_square  id = ""bottomsquare"" ></div>",null,word_square,response,0,none,true,,,
html-keyboard-response,483,861393,null,"NOMAD",null,word,,,,, 'NOMAD',,
html-keyboard-response,484,861803,407.129999999539,"SUNSET<img id = ""stim"" ><div class = red_square id = ""topsquare"" ></div><img id = ""stim"" ><div class = red_square  id = ""bottomsquare"" ></div>",32,word_square,response,1,Space,true,,,
html-keyboard-response,485,863304,null,"SUNSET",null,word,,,,, 'SUNSET',,
call-function,486,863305,,"",,,,,,,,,
html-keyboard-response,487,863406,null,"",null,,,,,,,,
math-period,488,865576,3811.9549999975134,"",,,,,,,,,2
html-keyboard-response,489,865689,null,"",null,,,,,,,,
math-period,490,866832,2116.699999998673,"",,,,,,,,,1
html-keyboard-response,491,866935,null,"",null,,,,,,,,
math-period,492,870176,9669.270000001881,"",,,,,,,,,2
html-keyboard-response,493,870278,null,"",null,,,,,,,,
math-period,494,872144,3027.54000000644,"",,,,,,,,,3
html-keyboard-response,495,872249,null,"",null,,,,,,,,
math-period,496,874064,3524.5850000027567,"",,,,,,,,,2
html-keyboard-response,497,874170,null,"",null,,,,,,,,
math-period,498,875720,2546.929999996675,"",,,,,,,,,2
html-keyboard-response,499,875823,null,"",null,,,,,,,,
math-period,500,877744,3344.6150000018533,"",,,,,,,,,5
html-keyboard-response,501,877845,null,"",null,,,,,,,,
math-period,502,879280,2450.844999995781,"",,,,,,,,,3
html-keyboard-response,503,879390,null,"",null,,,,,,,,
math-period,504,880648,1960.9600000005448,"",,,,,,,,,2
html-keyboard-response,505,880750,null,"",null,,,,,,,,
math-period,506,882495,2931.294999994803,"",,,,,,,,,5
html-keyboard-response,507,882596,null,"",null,,,,,,,,
math-period,508,885152,7772.880000004079,"",,,,,,,,,1
html-keyboard-response,509,885254,null,"",null,,,,,,,,
math-period,510,886984,3114.3750000010477,"",,,,,,,,,4
html-keyboard-response,511,887087,null,"",null,,,,,,,,
math-period,512,887308,null,"",,,,,,,,,
html-keyboard-response,513,888311,null,"Recall Period!",null,,,,,,,,
call-function,514,888312,,"",,,,,,,,,
html-keyboard-response,515,888415,null,"",null,,,,,,,,
recall-period,516,891672,14362.989999990212,"",,,,,,,,,walrus
html-keyboard-response,517,891777,null,"",null,,,,,,,,
recall-period,518,893056,3168.709999994724,"",,,,,,,,,arm
html-keyboard-response,519,893162,null,"",null,,,,,,,,
recall-period,520,895408,10304.750000006636,"",,,,,,,,,canyon
html-keyboard-response,521,895517,null,"",null,,,,,,,,
recall-period,522,898016,14915.37999998394,"",,,,,,,,,glacier
html-keyboard-response,523,898130,null,"",null,,,,,,,,
recall-period,524,902656,30150.409999987227,"",,,,,,,,,porpoise
html-keyboard-response,525,902758,null,"",null,,,,,,,,
recall-period,526,963314,null,"",,,,,,,,,
html-keyboard-response,527,963819,null,"Time's Up!",null,,,,,,,,
html-keyboard-response,528,969728,5907.244999998482,"<p> Good job! You responded correctly to 93% of the red squares.</p>
                  <p>Be sure to keep your accuracy above 80%</p>
                  <p>Press any key to continue the experiment. Thank you!</p>",32,,,,,,,,
html-keyboard-response,529,970785,1055.2549999991897,"<div style=""font-size:48px;"">Press any key to begin list 6 of 24 </div>",32,,,,,,,,
html-keyboard-response,530,973288,null,"<div style=""font-size:60px;"">+</div>",null,,,,,,,,
html-keyboard-response,531,973791,null,"SOCKET<img id = ""stim"" ><div class = green_square id = ""topsquare"" ></div><img id = ""stim"" ><div class = green_square  id = ""bottomsquare"" ></div>",null,word_square,response,0,none,true,,,
html-keyboard-response,532,975293,null,"SOCKET",null,word,,,,, 'SOCKET',,
html-keyboard-response,533,975577,282.1299999996554,"SQUID<img id = ""stim"" ><div class = red_square id = ""topsquare"" ></div><img id = ""stim"" ><div class = red_square  id = ""bottomsquare"" ></div>",32,word_square,response,1,Space,true,,,
html-keyboard-response,534,977080,null,"SQUID",null,word,,,,, 'SQUID',,
html-keyboard-response,535,977522,440.5299999999115,"PRINCE<img id = ""stim"" ><div class = red_square id = ""topsquare"" ></div><img id = ""stim"" ><div class = red_square  id = ""bottomsquare"" ></div>",32,word_square,response,1,Space,true,,,
html-keyboard-response,536,979025,null,"PRINCE",null,word,,,,, 'PRINCE',,
html-keyboard-response,537,979403,375.85499999835156,"LOBBY<img id = ""stim"" ><div class = red_square id = ""topsquare"" ></div><img id = ""stim"" ><div class = red_square  id = ""bottomsquare"" ></div>",32,word_square,response,1,Space,true,,,
html-keyboard-response,538,980907,null,"LOBBY",null,word,,,,, 'LOBBY',,
html-keyboard-response,539,981409,null,"VELVET<img id = ""stim"" ><div class = green_square id = ""topsquare"" ></div><img id = ""stim"" ><div class = green_square  id = ""bottomsquare"" ></div>",null,word_square,response,0,none,true,,,
html-keyboard-response,540,982912,null,"VELVET",null,word,,,,, 'VELVET',,
html-keyboard-response,541,983265,351.24999999965075,"DECK<img id = ""stim"" ><div class = red_square id = ""topsquare"" ></div><img id = ""stim"" ><div class = red_square  id = ""bottomsquare"" ></div>",32,word_square,response,1,Space,true,,,
html-keyboard-response,542,984766,null,"DECK",null,word,,,,, 'DECK',,
html-keyboard-response,543,985121,353.06000000122003,"RAISIN<img id = ""stim"" ><div class = red_square id = ""topsquare"" ></div><img id = ""stim"" ><div class = red_square  id = ""bottomsquare"" ></div>",32,word_square,response,1,Space,true,,,
html-keyboard-response,544,986623,null,"RAISIN",null,word,,,,, 'RAISIN',,
html-keyboard-response,545,987126,null,"CROWN<img id = ""stim"" ><div class = green_square id = ""topsquare"" ></div><img id = ""stim"" ><div class = green_square  id = ""bottomsquare"" ></div>",null,word_square,response,0,none,true,,,
html-keyboard-response,546,988629,null,"CROWN",null,word,,,,, 'CROWN',,
html-keyboard-response,547,988929,298.3800000002375,"REPORT<img id = ""stim"" ><div class = red_square id = ""topsquare"" ></div><img id = ""stim"" ><div class = red_square  id = ""bottomsquare"" ></div>",32,word_square,response,1,Space,true,,,
html-keyboard-response,548,990430,null,"REPORT",null,word,,,,, 'REPORT',,
html-keyboard-response,549,990933,null,"CRAB<img id = ""stim"" ><div class = green_square id = ""topsquare"" ></div><img id = ""stim"" ><div class = green_square  id = ""bottomsquare"" ></div>",null,word_square,response,0,none,true,,,
html-keyboard-response,550,992436,null,"CRAB",null,word,,,,, 'CRAB',,
html-keyboard-response,551,992939,null,"SEAFOOD<img id = ""stim"" ><div class = green_square id = ""topsquare"" ></div><img id = ""stim"" ><div class = green_square  id = ""bottomsquare"" ></div>",null,word_square,response,0,none,true,,,
html-keyboard-response,552,994441,null,"SEAFOOD",null,word,,,,, 'SEAFOOD',,
html-keyboard-response,553,994849,406.7350000004517,"LACE<img id = ""stim"" ><div class = red_square id = ""topsquare"" ></div><img id = ""stim"" ><div class = red_square  id = ""bottomsquare"" ></div>",32,word_square,response,1,Space,true,,,
html-keyboard-response,554,996351,null,"LACE",null,word,,,,, 'LACE',,
html-keyboard-response,555,996867,null,"DENIM<img id = ""stim"" ><div class = green_square id = ""topsquare"" ></div><img id = ""stim"" ><div class = green_square  id = ""bottomsquare"" ></div>",null,word_square,response,0,none,true,,,
html-keyboard-response,556,998371,null,"DENIM",null,word,,,,, 'DENIM',,
html-keyboard-response,557,998873,null,"PADDING<img id = ""stim"" ><div class = green_square id = ""topsquare"" ></div><img id = ""stim"" ><div class = green_square  id = ""bottomsquare"" ></div>",null,word_square,response,0,none,true,,,
html-keyboard-response,558,1000375,null,"PADDING",null,word,,,,, 'PADDING',,
html-keyboard-response,559,1000723,346.15000000130385,"TABLE<img id = ""stim"" ><div class = red_square id = ""topsquare"" ></div><img id = ""stim"" ><div class = red_square  id = ""bottomsquare"" ></div>",32,word_square,response,1,Space,true,,,
html-keyboard-response,560,1002225,null,"TABLE",null,word,,,,, 'TABLE',,
html-keyboard-response,561,1002726,null,"TOILET<img id = ""stim"" ><div class = green_square id = ""topsquare"" ></div><img id = ""stim"" ><div class = green_square  id = ""bottomsquare"" ></div>",null,word_square,response,0,none,true,,,
html-keyboard-response,562,1004228,null,"TOILET",null,word,,,,, 'TOILET',,
html-keyboard-response,563,1004730,null,"JOURNAL<img id = ""stim"" ><div class = green_square id = ""topsquare"" ></div><img id = ""stim"" ><div class = green_square  id = ""bottomsquare"" ></div>",null,word_square,response,0,none,true,,,
html-keyboard-response,564,1006232,null,"JOURNAL",null,word,,,,, 'JOURNAL',,
html-keyboard-response,565,1006716,481.1149999987101,"PICTURE<img id = ""stim"" ><div class = red_square id = ""topsquare"" ></div><img id = ""stim"" ><div class = red_square  id = ""bottomsquare"" ></div>",32,word_square,response,1,Space,true,,,
html-keyboard-response,566,1008217,null,"PICTURE",null,word,,,,, 'PICTURE',,
call-function,567,1008218,,"",,,,,,,,,
html-keyboard-response,568,1008320,null,"",null,,,,,,,,
math-period,569,1011752,10811.154999991995,"",,,,,,,,,2
html-keyboard-response,570,1011866,null,"",null,,,,,,,,
math-period,571,1014097,3355.785000003292,"",,,,,,,,,3
html-keyboard-response,572,1014203,null,"",null,,,,,,,,
math-period,573,1016169,3577.2600000017555,"",,,,,,,,,3
html-keyboard-response,574,1016278,null,"",null,,,,,,,,
math-period,575,1018393,3373.354999999632,"",,,,,,,,,1
html-keyboard-response,576,1018495,null,"",null,,,,,,,,
math-period,577,1021289,5427.990000003832,"",,,,,,,,,1
html-keyboard-response,578,1021391,null,"",null,,,,,,,,
math-period,579,1023913,4673.28999999864,"",,,,,,,,,1
html-keyboard-response,580,1024015,null,"",null,,,,,,,,
math-period,581,1026537,7481.414999994682,"",,,,,,,,,3
html-keyboard-response,582,1026638,null,"",null,,,,,,,,
math-period,583,1028537,3460.1749999964377,"",,,,,,,,,3
html-keyboard-response,584,1028641,null,"",null,,,,,,,,
math-period,585,1031241,5014.250000003725,"",,,,,,,,,3
html-keyboard-response,586,1031342,null,"",null,,,,,,,,
math-period,587,1032220,737.0149999987334,"",,,,,,,,,3
html-keyboard-response,588,1033223,null,"Recall Period!",null,,,,,,,,
call-function,589,1033225,,"",,,,,,,,,
html-keyboard-response,590,1033326,null,"",null,,,,,,,,
recall-period,591,1036024,13891.630000008969,"",,,,,,,,,table
html-keyboard-response,592,1036126,null,"",null,,,,,,,,
recall-period,593,1038298,11312.690000002156,"",,,,,,,,,prince
html-keyboard-response,594,1038400,null,"",null,,,,,,,,
recall-period,595,1047105,55223.310000012396,"",,,,,,,,,velvet
html-keyboard-response,596,1047208,null,"",null,,,,,,,,
recall-period,597,1108225,null,"",,,,,,,,,
html-keyboard-response,598,1108735,null,"Time's Up!",null,,,,,,,,
html-keyboard-response,599,1110905,2168.6900000022724,"<p> Good job! You responded correctly to 94% of the red squares.</p>
                  <p>Be sure to keep your accuracy above 80%</p>
                  <p>Press any key to continue the experiment. Thank you!</p>",13,,,,,,,,
html-keyboard-response,600,1111689,783.1900000018068,"<div style=""font-size:48px;"">Press any key to begin list 7 of 24 </div>",32,,,,,,,,
html-keyboard-response,601,1114194,null,"<div style=""font-size:60px;"">+</div>",null,,,,,,,,
html-keyboard-response,602,1114697,null,"COTTAGE<img id = ""stim"" ><div class = red_square id = ""topsquare"" ></div><img id = ""stim"" ><div class = red_square  id = ""bottomsquare"" ></div>",null,word_square,response,1,Space,false,,,
html-keyboard-response,603,1116199,null,"COTTAGE",null,word,,,,, 'COTTAGE',,
html-keyboard-response,604,1116701,null,"PIGEON<img id = ""stim"" ><div class = green_square id = ""topsquare"" ></div><img id = ""stim"" ><div class = green_square  id = ""bottomsquare"" ></div>",null,word_square,response,0,none,true,,,
html-keyboard-response,605,1118204,null,"PIGEON",null,word,,,,, 'PIGEON',,
html-keyboard-response,606,1118709,null,"SHOULDER<img id = ""stim"" ><div class = green_square id = ""topsquare"" ></div><img id = ""stim"" ><div class = green_square  id = ""bottomsquare"" ></div>",null,word_square,response,0,none,true,,,
html-keyboard-response,607,1120213,null,"SHOULDER",null,word,,,,, 'SHOULDER',,
html-keyboard-response,608,1120717,null,"BLOUSE<img id = ""stim"" ><div class = green_square id = ""topsquare"" ></div><img id = ""stim"" ><div class = green_square  id = ""bottomsquare"" ></div>",null,word_square,response,0,none,true,,,
html-keyboard-response,609,1122219,null,"BLOUSE",null,word,,,,, 'BLOUSE',,
html-keyboard-response,610,1122577,357.4499999994878,"BASEMENT<img id = ""stim"" ><div class = red_square id = ""topsquare"" ></div><img id = ""stim"" ><div class = red_square  id = ""bottomsquare"" ></div>",32,word_square,response,1,Space,true,,,
html-keyboard-response,611,1124079,null,"BASEMENT",null,word,,,,, 'BASEMENT',,
html-keyboard-response,612,1124581,null,"SHOELACE<img id = ""stim"" ><div class = green_square id = ""topsquare"" ></div><img id = ""stim"" ><div class = green_square  id = ""bottomsquare"" ></div>",null,word_square,response,0,none,true,,,
html-keyboard-response,613,1126084,null,"SHOELACE",null,word,,,,, 'SHOELACE',,
html-keyboard-response,614,1126587,null,"DAGGER<img id = ""stim"" ><div class = green_square id = ""topsquare"" ></div><img id = ""stim"" ><div class = green_square  id = ""bottomsquare"" ></div>",null,word_square,response,0,none,true,,,
html-keyboard-response,615,1128089,null,"DAGGER",null,word,,,,, 'DAGGER',,
html-keyboard-response,616,1128532,440.4399999983143,"POET<img id = ""stim"" ><div class = red_square id = ""topsquare"" ></div><img id = ""stim"" ><div class = red_square  id = ""bottomsquare"" ></div>",32,word_square,response,1,Space,true,,,
html-keyboard-response,617,1130035,null,"POET",null,word,,,,, 'POET',,
html-keyboard-response,618,1130539,null,"CELLAR<img id = ""stim"" ><div class = green_square id = ""topsquare"" ></div><img id = ""stim"" ><div class = green_square  id = ""bottomsquare"" ></div>",null,word_square,response,0,none,true,,,
html-keyboard-response,619,1132043,null,"CELLAR",null,word,,,,, 'CELLAR',,
html-keyboard-response,620,1132482,437.8699999980163,"PRIEST<img id = ""stim"" ><div class = red_square id = ""topsquare"" ></div><img id = ""stim"" ><div class = red_square  id = ""bottomsquare"" ></div>",32,word_square,response,1,Space,true,,,
html-keyboard-response,621,1133993,null,"PRIEST",null,word,,,,, 'PRIEST',,
html-keyboard-response,622,1134412,417.2650000001304,"SLUG<img id = ""stim"" ><div class = red_square id = ""topsquare"" ></div><img id = ""stim"" ><div class = red_square  id = ""bottomsquare"" ></div>",32,word_square,response,1,Space,true,,,
html-keyboard-response,623,1135915,null,"SLUG",null,word,,,,, 'SLUG',,
html-keyboard-response,624,1136420,null,"ASIA<img id = ""stim"" ><div class = green_square id = ""topsquare"" ></div><img id = ""stim"" ><div class = green_square  id = ""bottomsquare"" ></div>",null,word_square,response,0,none,true,,,
html-keyboard-response,625,1137922,null,"ASIA",null,word,,,,, 'ASIA',,
html-keyboard-response,626,1138305,382.15499999932945,"MUSHROOM<img id = ""stim"" ><div class = red_square id = ""topsquare"" ></div><img id = ""stim"" ><div class = red_square  id = ""bottomsquare"" ></div>",32,word_square,response,1,Space,true,,,
html-keyboard-response,627,1139807,null,"MUSHROOM",null,word,,,,, 'MUSHROOM',,
html-keyboard-response,628,1140274,465.4999999983702,"OMELET<img id = ""stim"" ><div class = red_square id = ""topsquare"" ></div><img id = ""stim"" ><div class = red_square  id = ""bottomsquare"" ></div>",32,word_square,response,1,Space,true,,,
html-keyboard-response,629,1141776,null,"OMELET",null,word,,,,, 'OMELET',,
html-keyboard-response,630,1142278,null,"BACON<img id = ""stim"" ><div class = green_square id = ""topsquare"" ></div><img id = ""stim"" ><div class = green_square  id = ""bottomsquare"" ></div>",null,word_square,response,0,none,true,,,
html-keyboard-response,631,1143783,null,"BACON",null,word,,,,, 'BACON',,
html-keyboard-response,632,1144106,321.5149999996647,"BISCUIT<img id = ""stim"" ><div class = red_square id = ""topsquare"" ></div><img id = ""stim"" ><div class = red_square  id = ""bottomsquare"" ></div>",32,word_square,response,1,Space,true,,,
html-keyboard-response,633,1145609,null,"BISCUIT",null,word,,,,, 'BISCUIT',,
html-keyboard-response,634,1146010,399.385000000475,"BENCH<img id = ""stim"" ><div class = red_square id = ""topsquare"" ></div><img id = ""stim"" ><div class = red_square  id = ""bottomsquare"" ></div>",32,word_square,response,1,Space,true,,,
html-keyboard-response,635,1147513,null,"BENCH",null,word,,,,, 'BENCH',,
html-keyboard-response,636,1148026,null,"SHELF<img id = ""stim"" ><div class = green_square id = ""topsquare"" ></div><img id = ""stim"" ><div class = green_square  id = ""bottomsquare"" ></div>",null,word_square,response,0,none,true,,,
html-keyboard-response,637,1149528,null,"SHELF",null,word,,,,, 'SHELF',,
call-function,638,1149528,,"",,,,,,,,,
html-keyboard-response,639,1149630,null,"",null,,,,,,,,
math-period,640,1154017,13469.115000003716,"",,,,,,,,,2
html-keyboard-response,641,1154118,null,"",null,,,,,,,,
math-period,642,1155664,2713.370000001043,"",,,,,,,,,5
html-keyboard-response,643,1155778,null,"",null,,,,,,,,
math-period,644,1156976,2012.0150000040885,"",,,,,,,,,5
html-keyboard-response,645,1157077,null,"",null,,,,,,,,
math-period,646,1158280,1987.8899999968708,"",,,,,,,,,5
html-keyboard-response,647,1158387,null,"",null,,,,,,,,
math-period,648,1159704,2328.990000005346,"",,,,,,,,,6
html-keyboard-response,649,1159806,null,"",null,,,,,,,,
math-period,650,1162497,8608.210000005085,"",,,,,,,,,2
html-keyboard-response,651,1162612,null,"",null,,,,,,,,
math-period,652,1164761,7589.445000001462,"",,,,,,,,,6
html-keyboard-response,653,1164863,null,"",null,,,,,,,,
math-period,654,1167553,4161.39499999932,"",,,,,,,,,5
html-keyboard-response,655,1167661,null,"",null,,,,,,,,
math-period,656,1169737,7120.529999993276,"",,,,,,,,,2
html-keyboard-response,657,1169838,null,"",null,,,,,,,,
math-period,658,1173530,3275.0049999994226,"",,,,,,,,,3
html-keyboard-response,659,1174531,null,"Recall Period!",null,,,,,,,,
call-function,660,1174532,,"",,,,,,,,,
html-keyboard-response,661,1174633,null,"",null,,,,,,,,
recall-period,662,1177776,8904.864999996731,"",,,,,,,,,slug
html-keyboard-response,663,1177880,null,"",null,,,,,,,,
recall-period,664,1182241,36551.015000008745,"",,,,,,,,,priest
html-keyboard-response,665,1182342,null,"",null,,,,,,,,
recall-period,666,1184657,10777.785000008997,"",,,,,,,,,bacon
html-keyboard-response,667,1184759,null,"",null,,,,,,,,
recall-period,668,1187241,11692.005000014557,"",,,,,,,,,mushroom
html-keyboard-response,669,1187344,null,"",null,,,,,,,,
recall-period,670,1193977,52645.25000001583,"",,,,,,,,,omelet
html-keyboard-response,671,1194078,null,"",null,,,,,,,,
recall-period,672,1196825,14624.250000011642,"",,,,,,,,,shelf
html-keyboard-response,673,1196931,null,"",null,,,,,,,,
recall-period,674,1249535,null,"",,,,,,,,,
html-keyboard-response,675,1250038,null,"Time's Up!",null,,,,,,,,
html-keyboard-response,676,1281593,31552.52499999921,"<p> Good job! You responded correctly to 94% of the red squares.</p>
                  <p>Be sure to keep your accuracy above 80%</p>
                  <p>Press any key to continue the experiment. Thank you!</p>",32,,,,,,,,
html-keyboard-response,677,1284082,2488.164999998873,"<div style=""font-size:48px;"">Press any key to begin list 8 of 24 </div>",32,,,,,,,,
html-keyboard-response,678,1286595,null,"<div style=""font-size:60px;"">+</div>",null,,,,,,,,
html-keyboard-response,679,1287097,null,"POSTAGE<img id = ""stim"" ><div class = red_square id = ""topsquare"" ></div><img id = ""stim"" ><div class = red_square  id = ""bottomsquare"" ></div>",null,word_square,response,1,Space,false,,,
html-keyboard-response,680,1288599,null,"POSTAGE",null,word,,,,, 'POSTAGE',,
html-keyboard-response,681,1289101,null,"TEMPLE<img id = ""stim"" ><div class = green_square id = ""topsquare"" ></div><img id = ""stim"" ><div class = green_square  id = ""bottomsquare"" ></div>",null,word_square,response,0,none,true,,,
html-keyboard-response,682,1290603,null,"TEMPLE",null,word,,,,, 'TEMPLE',,
html-keyboard-response,683,1291106,null,"SNOB<img id = ""stim"" ><div class = green_square id = ""topsquare"" ></div><img id = ""stim"" ><div class = green_square  id = ""bottomsquare"" ></div>",null,word_square,response,0,none,true,,,
html-keyboard-response,684,1292609,null,"SNOB",null,word,,,,, 'SNOB',,
html-keyboard-response,685,1293112,null,"THIMBLE<img id = ""stim"" ><div class = green_square id = ""topsquare"" ></div><img id = ""stim"" ><div class = green_square  id = ""bottomsquare"" ></div>",null,word_square,response,0,none,true,,,
html-keyboard-response,686,1294614,null,"THIMBLE",null,word,,,,, 'THIMBLE',,
html-keyboard-response,687,1295118,null,"BROTHER<img id = ""stim"" ><div class = red_square id = ""topsquare"" ></div><img id = ""stim"" ><div class = red_square  id = ""bottomsquare"" ></div>",null,word_square,response,1,Space,false,,,
html-keyboard-response,688,1296621,null,"BROTHER",null,word,,,,, 'BROTHER',,
html-keyboard-response,689,1297125,null,"GAZELLE<img id = ""stim"" ><div class = green_square id = ""topsquare"" ></div><img id = ""stim"" ><div class = green_square  id = ""bottomsquare"" ></div>",null,word_square,response,0,none,true,,,
html-keyboard-response,690,1298626,null,"GAZELLE",null,word,,,,, 'GAZELLE',,
html-keyboard-response,691,1299129,null,"OX<img id = ""stim"" ><div class = green_square id = ""topsquare"" ></div><img id = ""stim"" ><div class = green_square  id = ""bottomsquare"" ></div>",null,word_square,response,0,none,true,,,
html-keyboard-response,692,1300631,null,"OX",null,word,,,,, 'OX',,
html-keyboard-response,693,1301082,450.3949999997858,"SKATE<img id = ""stim"" ><div class = red_square id = ""topsquare"" ></div><img id = ""stim"" ><div class = red_square  id = ""bottomsquare"" ></div>",32,word_square,response,1,Space,true,,,
html-keyboard-response,694,1302584,null,"SKATE",null,word,,,,, 'SKATE',,
html-keyboard-response,695,1303086,null,"JEEP<img id = ""stim"" ><div class = green_square id = ""topsquare"" ></div><img id = ""stim"" ><div class = green_square  id = ""bottomsquare"" ></div>",null,word_square,response,0,none,true,,,
html-keyboard-response,696,1304587,null,"JEEP",null,word,,,,, 'JEEP',,
html-keyboard-response,697,1305090,null,"PIANO<img id = ""stim"" ><div class = red_square id = ""topsquare"" ></div><img id = ""stim"" ><div class = red_square  id = ""bottomsquare"" ></div>",null,word_square,response,1,Space,false,,,
html-keyboard-response,698,1306593,null,"PIANO",null,word,,,,, 'PIANO',,
html-keyboard-response,699,1307051,456.08999999961816,"SHARK<img id = ""stim"" ><div class = red_square id = ""topsquare"" ></div><img id = ""stim"" ><div class = red_square  id = ""bottomsquare"" ></div>",32,word_square,response,1,Space,true,,,
html-keyboard-response,700,1308554,null,"SHARK",null,word,,,,, 'SHARK',,
html-keyboard-response,701,1309058,null,"JUDGE<img id = ""stim"" ><div class = green_square id = ""topsquare"" ></div><img id = ""stim"" ><div class = green_square  id = ""bottomsquare"" ></div>",null,word_square,response,0,none,true,,,
html-keyboard-response,702,1310560,null,"JUDGE",null,word,,,,, 'JUDGE',,
html-keyboard-response,703,1310930,368.85500000067987,"PACKAGE<img id = ""stim"" ><div class = red_square id = ""topsquare"" ></div><img id = ""stim"" ><div class = red_square  id = ""bottomsquare"" ></div>",32,word_square,response,1,Space,true,,,
html-keyboard-response,704,1312433,null,"PACKAGE",null,word,,,,, 'PACKAGE',,
html-keyboard-response,705,1312842,407.86500000115484,"IDOL<img id = ""stim"" ><div class = red_square id = ""topsquare"" ></div><img id = ""stim"" ><div class = red_square  id = ""bottomsquare"" ></div>",32,word_square,response,1,Space,true,,,
html-keyboard-response,706,1314344,null,"IDOL",null,word,,,,, 'IDOL',,
html-keyboard-response,707,1314848,null,"WITNESS<img id = ""stim"" ><div class = green_square id = ""topsquare"" ></div><img id = ""stim"" ><div class = green_square  id = ""bottomsquare"" ></div>",null,word_square,response,0,none,true,,,
html-keyboard-response,708,1316350,null,"WITNESS",null,word,,,,, 'WITNESS',,
html-keyboard-response,709,1316673,321.2550000024494,"CROOK<img id = ""stim"" ><div class = red_square id = ""topsquare"" ></div><img id = ""stim"" ><div class = red_square  id = ""bottomsquare"" ></div>",32,word_square,response,1,Space,true,,,
html-keyboard-response,710,1318175,null,"CROOK",null,word,,,,, 'CROOK',,
html-keyboard-response,711,1318577,401.29999999771826,"BRIEFCASE<img id = ""stim"" ><div class = red_square id = ""topsquare"" ></div><img id = ""stim"" ><div class = red_square  id = ""bottomsquare"" ></div>",32,word_square,response,1,Space,true,,,
html-keyboard-response,712,1320078,null,"BRIEFCASE",null,word,,,,, 'BRIEFCASE',,
html-keyboard-response,713,1320581,null,"COURSE<img id = ""stim"" ><div class = green_square id = ""topsquare"" ></div><img id = ""stim"" ><div class = green_square  id = ""bottomsquare"" ></div>",null,word_square,response,0,none,true,,,
html-keyboard-response,714,1322083,null,"COURSE",null,word,,,,, 'COURSE',,
call-function,715,1322083,,"",,,,,,,,,
html-keyboard-response,716,1322184,null,"",null,,,,,,,,
math-period,717,1324841,9169.755000006407,"",,,,,,,,,2
html-keyboard-response,718,1324944,null,"",null,,,,,,,,
math-period,719,1326081,1944.234999995213,"",,,,,,,,,5
html-keyboard-response,720,1326184,null,"",null,,,,,,,,
math-period,721,1328273,3968.430000001099,"",,,,,,,,,1
html-keyboard-response,722,1328374,null,"",null,,,,,,,,
math-period,723,1330226,6074.075000000652,"",,,,,,,,,6
html-keyboard-response,724,1330327,null,"",null,,,,,,,,
math-period,725,1331585,2369.0849999987986,"",,,,,,,,,1
html-keyboard-response,726,1331694,null,"",null,,,,,,,,
math-period,727,1332776,1804.269999996759,"",,,,,,,,,1
html-keyboard-response,728,1332878,null,"",null,,,,,,,,
math-period,729,1335745,5531.725000000792,"",,,,,,,,,1
html-keyboard-response,730,1335847,null,"",null,,,,,,,,
math-period,731,1337521,2969.710000000894,"",,,,,,,,,5
html-keyboard-response,732,1337622,null,"",null,,,,,,,,
math-period,733,1339050,2750.8650000016205,"",,,,,,,,,2
html-keyboard-response,734,1339152,null,"",null,,,,,,,,
math-period,735,1340586,2519.539999997476,"",,,,,,,,,5
html-keyboard-response,736,1340688,null,"",null,,,,,,,,
math-period,737,1342625,6206.690000006231,"",,,,,,,,,5
html-keyboard-response,738,1342729,null,"",null,,,,,,,,
math-period,739,1343937,2020.9850000028964,"",,,,,,,,,5
html-keyboard-response,740,1344038,null,"",null,,,,,,,,
math-period,741,1345602,2959.2900000023656,"",,,,,,,,,2
html-keyboard-response,742,1345703,null,"",null,,,,,,,,
math-period,743,1346085,null,"",,,,,,,,,
html-keyboard-response,744,1347088,null,"Recall Period!",null,,,,,,,,
call-function,745,1347090,,"",,,,,,,,,
html-keyboard-response,746,1347192,null,"",null,,,,,,,,
recall-period,747,1349410,9956.115000000456,"",,,,,,,,,shark
html-keyboard-response,748,1349512,null,"",null,,,,,,,,
recall-period,749,1351441,5439.019999994198,"",,,,,,,,,idol
html-keyboard-response,750,1351544,null,"",null,,,,,,,,
recall-period,751,1358058,76647.91500000516,"",,,,,,,,,briefcase
html-keyboard-response,752,1358161,null,"",null,,,,,,,,
recall-period,753,1361082,9091.360000009416,"",,,,,,,,,skate
html-keyboard-response,754,1361193,null,"",null,,,,,,,,
recall-period,755,1362890,5367.679999999236,"",,,,,,,,,jeep
html-keyboard-response,756,1362992,null,"",null,,,,,,,,
recall-period,757,1422090,null,"",,,,,,,,,
html-keyboard-response,758,1422592,null,"Time's Up!",null,,,,,,,,
html-keyboard-response,759,1428716,6121.490000001388,"<p> Good job! You responded correctly to 93% of the red squares.</p>
                  <p>Be sure to keep your accuracy above 80%</p>
                  <p>Press any key to continue the experiment. Thank you!</p>",32,,,,,,,,
html-keyboard-response,760,1430177,1459.825000001816,"<div style=""font-size:48px;"">Press any key to begin list 9 of 24 </div>",32,,,,,,,,
html-keyboard-response,761,1432683,null,"<div style=""font-size:60px;"">+</div>",null,,,,,,,,
html-keyboard-response,762,1433186,null,"RIVER<img id = ""stim"" ><div class = green_square id = ""topsquare"" ></div><img id = ""stim"" ><div class = green_square  id = ""bottomsquare"" ></div>",null,word_square,response,0,none,true,,,
html-keyboard-response,763,1434689,null,"RIVER",null,word,,,,, 'RIVER',,
html-keyboard-response,764,1435193,null,"KNAPSACK<img id = ""stim"" ><div class = green_square id = ""topsquare"" ></div><img id = ""stim"" ><div class = green_square  id = ""bottomsquare"" ></div>",null,word_square,response,0,none,true,,,
html-keyboard-response,765,1436697,null,"KNAPSACK",null,word,,,,, 'KNAPSACK',,
html-keyboard-response,766,1437083,384.2499999990687,"PATROL<img id = ""stim"" ><div class = red_square id = ""topsquare"" ></div><img id = ""stim"" ><div class = red_square  id = ""bottomsquare"" ></div>",32,word_square,response,1,Space,true,,,
html-keyboard-response,767,1438585,null,"PATROL",null,word,,,,, 'PATROL',,
html-keyboard-response,768,1439089,null,"HIGHWAY<img id = ""stim"" ><div class = green_square id = ""topsquare"" ></div><img id = ""stim"" ><div class = green_square  id = ""bottomsquare"" ></div>",null,word_square,response,0,none,true,,,
html-keyboard-response,769,1440591,null,"HIGHWAY",null,word,,,,, 'HIGHWAY',,
html-keyboard-response,770,1440978,385.27499999688007,"SNAKE<img id = ""stim"" ><div class = red_square id = ""topsquare"" ></div><img id = ""stim"" ><div class = red_square  id = ""bottomsquare"" ></div>",32,word_square,response,1,Space,true,,,
html-keyboard-response,771,1442479,null,"SNAKE",null,word,,,,, 'SNAKE',,
html-keyboard-response,772,1442980,null,"COFFIN<img id = ""stim"" ><div class = red_square id = ""topsquare"" ></div><img id = ""stim"" ><div class = red_square  id = ""bottomsquare"" ></div>",null,word_square,response,1,Space,false,,,
html-keyboard-response,773,1444482,null,"COFFIN",null,word,,,,, 'COFFIN',,
html-keyboard-response,774,1444986,null,"SHELTER<img id = ""stim"" ><div class = green_square id = ""topsquare"" ></div><img id = ""stim"" ><div class = green_square  id = ""bottomsquare"" ></div>",null,word_square,response,0,none,true,,,
html-keyboard-response,775,1446490,null,"SHELTER",null,word,,,,, 'SHELTER',,
html-keyboard-response,776,1446993,null,"SATURN<img id = ""stim"" ><div class = green_square id = ""topsquare"" ></div><img id = ""stim"" ><div class = green_square  id = ""bottomsquare"" ></div>",null,word_square,response,0,none,true,,,
html-keyboard-response,777,1448495,null,"SATURN",null,word,,,,, 'SATURN',,
html-keyboard-response,778,1448914,416.6899999983143,"VICTOR<img id = ""stim"" ><div class = red_square id = ""topsquare"" ></div><img id = ""stim"" ><div class = red_square  id = ""bottomsquare"" ></div>",32,word_square,response,1,Space,true,,,
html-keyboard-response,779,1450417,null,"VICTOR",null,word,,,,, 'VICTOR',,
html-keyboard-response,780,1450919,null,"TRUMPET<img id = ""stim"" ><div class = red_square id = ""topsquare"" ></div><img id = ""stim"" ><div class = red_square  id = ""bottomsquare"" ></div>",null,word_square,response,1,Space,false,,,
html-keyboard-response,781,1452421,null,"TRUMPET",null,word,,,,, 'TRUMPET',,
html-keyboard-response,782,1452925,null,"DRESS<img id = ""stim"" ><div class = green_square id = ""topsquare"" ></div><img id = ""stim"" ><div class = green_square  id = ""bottomsquare"" ></div>",null,word_square,response,0,none,true,,,
html-keyboard-response,783,1454428,null,"DRESS",null,word,,,,, 'DRESS',,
html-keyboard-response,784,1454763,332.9599999997299,"EUROPE<img id = ""stim"" ><div class = green_square id = ""topsquare"" ></div><img id = ""stim"" ><div class = green_square  id = ""bottomsquare"" ></div>",32,word_square,response,0,none,false,,,
html-keyboard-response,785,1456264,null,"EUROPE",null,word,,,,, 'EUROPE',,
html-keyboard-response,786,1456652,385.3750000016298,"FRANCE<img id = ""stim"" ><div class = red_square id = ""topsquare"" ></div><img id = ""stim"" ><div class = red_square  id = ""bottomsquare"" ></div>",32,word_square,response,1,Space,true,,,
html-keyboard-response,787,1458153,null,"FRANCE",null,word,,,,, 'FRANCE',,
html-keyboard-response,788,1458627,471.9999999979045,"PEOPLE<img id = ""stim"" ><div class = red_square id = ""topsquare"" ></div><img id = ""stim"" ><div class = red_square  id = ""bottomsquare"" ></div>",32,word_square,response,1,Space,true,,,
html-keyboard-response,789,1460129,null,"PEOPLE",null,word,,,,, 'PEOPLE',,
html-keyboard-response,790,1460631,null,"LIZARD<img id = ""stim"" ><div class = green_square id = ""topsquare"" ></div><img id = ""stim"" ><div class = green_square  id = ""bottomsquare"" ></div>",null,word_square,response,0,none,true,,,
html-keyboard-response,791,1462134,null,"LIZARD",null,word,,,,, 'LIZARD',,
html-keyboard-response,792,1462636,null,"LUNCH<img id = ""stim"" ><div class = red_square id = ""topsquare"" ></div><img id = ""stim"" ><div class = red_square  id = ""bottomsquare"" ></div>",null,word_square,response,1,Space,false,,,
html-keyboard-response,793,1464138,null,"LUNCH",null,word,,,,, 'LUNCH',,
html-keyboard-response,794,1464641,null,"PENGUIN<img id = ""stim"" ><div class = green_square id = ""topsquare"" ></div><img id = ""stim"" ><div class = green_square  id = ""bottomsquare"" ></div>",null,word_square,response,0,none,true,,,
html-keyboard-response,795,1466145,null,"PENGUIN",null,word,,,,, 'PENGUIN',,
html-keyboard-response,796,1466500,352.1999999976251,"BOX<img id = ""stim"" ><div class = red_square id = ""topsquare"" ></div><img id = ""stim"" ><div class = red_square  id = ""bottomsquare"" ></div>",32,word_square,response,1,Space,true,,,
html-keyboard-response,797,1468002,null,"BOX",null,word,,,,, 'BOX',,
call-function,798,1468003,,"",,,,,,,,,
html-keyboard-response,799,1468105,null,"",null,,,,,,,,
math-period,800,1471505,6103.090000004275,"",,,,,,,,,0
html-keyboard-response,801,1471611,null,"",null,,,,,,,,
math-period,802,1472866,2209.314999999944,"",,,,,,,,,5
html-keyboard-response,803,1472976,null,"",null,,,,,,,,
math-period,804,1474465,2585.100000000326,"",,,,,,,,,4
html-keyboard-response,805,1474568,null,"",null,,,,,,,,
math-period,806,1476033,2726.20000000461,"",,,,,,,,,2
html-keyboard-response,807,1476135,null,"",null,,,,,,,,
math-period,808,1477785,5551.559999996098,"",,,,,,,,,3
html-keyboard-response,809,1477899,null,"",null,,,,,,,,
math-period,810,1479816,6544.520000006305,"",,,,,,,,,2
html-keyboard-response,811,1479924,null,"",null,,,,,,,,
math-period,812,1481808,6434.595000006491,"",,,,,,,,,6
html-keyboard-response,813,1481919,null,"",null,,,,,,,,
math-period,814,1483577,3065.6899999992456,"",,,,,,,,,3
html-keyboard-response,815,1483682,null,"",null,,,,,,,,
math-period,816,1484489,1446.3499999982305,"",,,,,,,,,3
html-keyboard-response,817,1484591,null,"",null,,,,,,,,
math-period,818,1486954,7295.89500000258,"",,,,,,,,,3
html-keyboard-response,819,1487067,null,"",null,,,,,,,,
math-period,820,1488289,2090.8650000018533,"",,,,,,,,,5
html-keyboard-response,821,1488400,null,"",null,,,,,,,,
math-period,822,1489577,1998.0350000003818,"",,,,,,,,,5
html-keyboard-response,823,1489679,null,"",null,,,,,,,,
math-period,824,1492004,null,"",,,,,,,,,
html-keyboard-response,825,1493005,null,"Recall Period!",null,,,,,,,,
call-function,826,1493006,,"",,,,,,,,,
html-keyboard-response,827,1493107,null,"",null,,,,,,,,
recall-period,828,1494457,4103.434999993304,"",,,,,,,,,box
html-keyboard-response,829,1494559,null,"",null,,,,,,,,
recall-period,830,1497153,11614.924999998417,"",,,,,,,,,coffin
html-keyboard-response,831,1497255,null,"",null,,,,,,,,
recall-period,832,1499305,9752.039999992354,"",,,,,,,,,snake
html-keyboard-response,833,1499408,null,"",null,,,,,,,,
recall-period,834,1501065,7527.180000001565,"",,,,,,,,,lizard
html-keyboard-response,835,1501169,null,"",null,,,,,,,,
recall-period,836,1502193,4559.985000004061,"",,,,,,,,,people
html-keyboard-response,837,1502295,null,"",null,,,,,,,,
recall-period,838,1568016,null,"",,,,,,,,,
html-keyboard-response,839,1568520,null,"Time's Up!",null,,,,,,,,
html-keyboard-response,840,1577841,9317.999999999302,"<p> Good job! You responded correctly to 91% of the red squares.</p>
                  <p>Be sure to keep your accuracy above 80%</p>
                  <p>Press any key to continue the experiment. Thank you!</p>",32,,,,,,,,
html-keyboard-response,841,1579940,2096.8549999997485,"<div style=""font-size:48px;"">Press any key to begin list 10 of 24 </div>",32,,,,,,,,
html-keyboard-response,842,1582444,null,"<div style=""font-size:60px;"">+</div>",null,,,,,,,,
html-keyboard-response,843,1582946,null,"EYELASH<img id = ""stim"" ><div class = green_square id = ""topsquare"" ></div><img id = ""stim"" ><div class = green_square  id = ""bottomsquare"" ></div>",null,word_square,response,0,none,true,,,
html-keyboard-response,844,1584450,null,"EYELASH",null,word,,,,, 'EYELASH',,
html-keyboard-response,845,1584953,null,"SIRLOIN<img id = ""stim"" ><div class = green_square id = ""topsquare"" ></div><img id = ""stim"" ><div class = green_square  id = ""bottomsquare"" ></div>",null,word_square,response,0,none,true,,,
html-keyboard-response,846,1586455,null,"SIRLOIN",null,word,,,,, 'SIRLOIN',,
html-keyboard-response,847,1586844,387.9400000006426,"BRIDE<img id = ""stim"" ><div class = red_square id = ""topsquare"" ></div><img id = ""stim"" ><div class = red_square  id = ""bottomsquare"" ></div>",32,word_square,response,1,Space,true,,,
html-keyboard-response,848,1588345,null,"BRIDE",null,word,,,,, 'BRIDE',,
html-keyboard-response,849,1588848,null,"PIGMENT<img id = ""stim"" ><div class = green_square id = ""topsquare"" ></div><img id = ""stim"" ><div class = green_square  id = ""bottomsquare"" ></div>",null,word_square,response,0,none,true,,,
html-keyboard-response,850,1590352,null,"PIGMENT",null,word,,,,, 'PIGMENT',,
html-keyboard-response,851,1590754,399.26499999989755,"MARKER<img id = ""stim"" ><div class = red_square id = ""topsquare"" ></div><img id = ""stim"" ><div class = red_square  id = ""bottomsquare"" ></div>",32,word_square,response,1,Space,true,,,
html-keyboard-response,852,1592257,null,"MARKER",null,word,,,,, 'MARKER',,
html-keyboard-response,853,1592628,369.3100000016857,"OATMEAL<img id = ""stim"" ><div class = red_square id = ""topsquare"" ></div><img id = ""stim"" ><div class = red_square  id = ""bottomsquare"" ></div>",32,word_square,response,1,Space,true,,,
html-keyboard-response,854,1594129,null,"OATMEAL",null,word,,,,, 'OATMEAL',,
html-keyboard-response,855,1594632,null,"PUMPKIN<img id = ""stim"" ><div class = green_square id = ""topsquare"" ></div><img id = ""stim"" ><div class = green_square  id = ""bottomsquare"" ></div>",null,word_square,response,0,none,true,,,
html-keyboard-response,856,1596135,null,"PUMPKIN",null,word,,,,, 'PUMPKIN',,
html-keyboard-response,857,1596639,null,"ANGEL<img id = ""stim"" ><div class = green_square id = ""topsquare"" ></div><img id = ""stim"" ><div class = green_square  id = ""bottomsquare"" ></div>",null,word_square,response,0,none,true,,,
html-keyboard-response,858,1598142,null,"ANGEL",null,word,,,,, 'ANGEL',,
html-keyboard-response,859,1598634,491.4600000011269,"TOURIST<img id = ""stim"" ><div class = red_square id = ""topsquare"" ></div><img id = ""stim"" ><div class = red_square  id = ""bottomsquare"" ></div>",32,word_square,response,1,Space,true,,,
html-keyboard-response,860,1600136,null,"TOURIST",null,word,,,,, 'TOURIST',,
html-keyboard-response,861,1600639,null,"ROOSTER<img id = ""stim"" ><div class = red_square id = ""topsquare"" ></div><img id = ""stim"" ><div class = red_square  id = ""bottomsquare"" ></div>",null,word_square,response,1,Space,false,,,
html-keyboard-response,862,1602141,null,"ROOSTER",null,word,,,,, 'ROOSTER',,
html-keyboard-response,863,1602643,null,"PERFUME<img id = ""stim"" ><div class = green_square id = ""topsquare"" ></div><img id = ""stim"" ><div class = green_square  id = ""bottomsquare"" ></div>",null,word_square,response,0,none,true,,,
html-keyboard-response,864,1604145,null,"PERFUME",null,word,,,,, 'PERFUME',,
html-keyboard-response,865,1604648,null,"JUGGLER<img id = ""stim"" ><div class = green_square id = ""topsquare"" ></div><img id = ""stim"" ><div class = green_square  id = ""bottomsquare"" ></div>",null,word_square,response,0,none,true,,,
html-keyboard-response,866,1606151,null,"JUGGLER",null,word,,,,, 'JUGGLER',,
html-keyboard-response,867,1606653,null,"COUNTRY<img id = ""stim"" ><div class = red_square id = ""topsquare"" ></div><img id = ""stim"" ><div class = red_square  id = ""bottomsquare"" ></div>",null,word_square,response,1,Space,false,,,
html-keyboard-response,868,1608156,null,"COUNTRY",null,word,,,,, 'COUNTRY',,
html-keyboard-response,869,1608524,365.37500000116415,"BANJO<img id = ""stim"" ><div class = red_square id = ""topsquare"" ></div><img id = ""stim"" ><div class = red_square  id = ""bottomsquare"" ></div>",32,word_square,response,1,Space,true,,,
html-keyboard-response,870,1610028,null,"BANJO",null,word,,,,, 'BANJO',,
html-keyboard-response,871,1610530,null,"FRAGRANCE<img id = ""stim"" ><div class = green_square id = ""topsquare"" ></div><img id = ""stim"" ><div class = green_square  id = ""bottomsquare"" ></div>",null,word_square,response,0,none,true,,,
html-keyboard-response,872,1612032,null,"FRAGRANCE",null,word,,,,, 'FRAGRANCE',,
html-keyboard-response,873,1612405,371.11499999812804,"DANCER<img id = ""stim"" ><div class = red_square id = ""topsquare"" ></div><img id = ""stim"" ><div class = red_square  id = ""bottomsquare"" ></div>",32,word_square,response,1,Space,true,,,
html-keyboard-response,874,1613908,null,"DANCER",null,word,,,,, 'DANCER',,
html-keyboard-response,875,1614410,null,"BEAST<img id = ""stim"" ><div class = green_square id = ""topsquare"" ></div><img id = ""stim"" ><div class = green_square  id = ""bottomsquare"" ></div>",null,word_square,response,0,none,true,,,
html-keyboard-response,876,1615913,null,"BEAST",null,word,,,,, 'BEAST',,
html-keyboard-response,877,1616364,444.599999998929,"CHIPMUNK<img id = ""stim"" ><div class = red_square id = ""topsquare"" ></div><img id = ""stim"" ><div class = red_square  id = ""bottomsquare"" ></div>",32,word_square,response,1,Space,true,,,
html-keyboard-response,878,1617867,null,"CHIPMUNK",null,word,,,,, 'CHIPMUNK',,
call-function,879,1617869,,"",,,,,,,,,
html-keyboard-response,880,1617972,null,"",null,,,,,,,,
math-period,881,1623106,16418.324999999255,"",,,,,,,,,2
html-keyboard-response,882,1623210,null,"",null,,,,,,,,
math-period,883,1624490,2396.560000000987,"",,,,,,,,,3
html-keyboard-response,884,1624591,null,"",null,,,,,,,,
math-period,885,1625809,2122.709999999497,"",,,,,,,,,5
html-keyboard-response,886,1625912,null,"",null,,,,,,,,
math-period,887,1627178,2161.4949999966193,"",,,,,,,,,4
html-keyboard-response,888,1627280,null,"",null,,,,,,,,
math-period,889,1628745,4787.035000001546,"",,,,,,,,,1
html-keyboard-response,890,1628848,null,"",null,,,,,,,,
math-period,891,1629738,1585.3849999946542,"",,,,,,,,,3
html-keyboard-response,892,1629840,null,"",null,,,,,,,,
math-period,893,1630834,1897.2399999983609,"",,,,,,,,,2
html-keyboard-response,894,1630937,null,"",null,,,,,,,,
math-period,895,1632675,3406.1250000051223,"",,,,,,,,,1
html-keyboard-response,896,1632777,null,"",null,,,,,,,,
math-period,897,1633626,1558.7799999993294,"",,,,,,,,,3
html-keyboard-response,898,1633727,null,"",null,,,,,,,,
math-period,899,1636114,4435.1150000002235,"",,,,,,,,,0
html-keyboard-response,900,1636224,null,"",null,,,,,,,,
math-period,901,1637082,1600.744999999879,"",,,,,,,,,2
html-keyboard-response,902,1637198,null,"",null,,,,,,,,
math-period,903,1637963,1452.9950000031386,"",,,,,,,,,3
html-keyboard-response,904,1638066,null,"",null,,,,,,,,
math-period,905,1638682,1159.0649999999441,"",,,,,,,,,3
html-keyboard-response,906,1638783,null,"",null,,,,,,,,
math-period,907,1640562,3236.990000001155,"",,,,,,,,,0
html-keyboard-response,908,1640663,null,"",null,,,,,,,,
math-period,909,1641869,1034.9700000004377,"",,,,,,,,,5
html-keyboard-response,910,1642871,null,"Recall Period!",null,,,,,,,,
call-function,911,1642872,,"",,,,,,,,,
html-keyboard-response,912,1642974,null,"",null,,,,,,,,
recall-period,913,1646306,17082.5149999985,"",,,,,,,,,angel
html-keyboard-response,914,1646408,null,"",null,,,,,,,,
recall-period,915,1649114,16107.04000000609,"",,,,,,,,,oatmeal
html-keyboard-response,916,1649222,null,"",null,,,,,,,,
