trial_type,trial_index,time_elapsed,rt,stimulus,key_press,exp_phase,test_part,word,task,targ_cond,sq_pos,correctKeyCode,correct,value,response,Word,List,RecResp,serial_pos,colorChosen
pavlovia,0,2516,,"",,,,,,,,,,,,,,,,
external-html,1,47097,44431.700000047684,"",,,,,,,,,,,,,,,,
html-keyboard-response,2,49148,2045.6000000238419,"Welcome to the experiment. Press any key to begin.",32,,,,,,,,,,,,,,,
html-keyboard-response,3,56161,7011,"<p>You will see a list of words and colored squares in the following task.<p><p>Press the spacebar whenever you see a GREEN square.<p><p>Do not press a key if the square is RED.<p><p>Press the spacebar to continue.</p>",32,,,,,,,,,,,,,,,
html-keyboard-response,4,206586,149917.60000002384,"<p>Please try to remember as many of the words as you can, and try to think about the meaning of each word as it appears.<p><p>After the detection and encoding task you will be asked to solve some math problems for 24 seconds.<p> Please solve as many problems as you can in the time given. <p><p><p>Press the spacebar to continue.</p>",32,,,,,,,,,,,,,,,
html-keyboard-response,5,216377,9282.299999952316,"After solving the math problems, you will be asked to type in as many words <p>from the previous list as you can remember for 75 seconds.<p> If you finish recalling before the 75 seconds are up,<p> just sit tight and try to think of any more words you could have missed. <p><p><p>Press the spacebar to continue.</p>",32,,,,,,,,,,,,,,,
html-keyboard-response,6,231828,14943.199999928474,"There will be 16 lists of words and recall, followed  by<p><p> a recognition phase. The experiment is expected to take up to 90 minutes.<p>We will begin with a brief practice session.<p>Press the spacebar to begin the practice.</p>",32,,,,,,,,,,,,,,,
html-keyboard-response,7,234346,null,"<div style=""font-size:60px;"">+</div>",null,,,,,,,,,,,,,,,
html-keyboard-response,8,234562,null,"<div style=""font-size:42px;"">HAPPY</div><img id = ""stim"" ><div class = red_square id = ""bottomsquare"" ></div>",null,practice,word_square,HAPPY,prac_response,0,Bottom,none,true,,,,,,,
html-keyboard-response,9,234876,null,"<div style=""font-size:42px;"">HAPPY</div>",null,,word,HAPPY,,,,,,,,,,,,
html-keyboard-response,10,236396,null,"",null,,word,HAPPY,,,,,,,,,,,,
html-keyboard-response,11,236603,null,"<div style=""font-size:42px;"">COLD</div><img id = ""stim"" ><div class = green_square id = ""bottomsquare"" ></div>",null,practice,word_square,COLD,prac_response,1,Bottom,32,true,,,,,,,
html-keyboard-response,12,236914,null,"<div style=""font-size:42px;"">COLD</div>",null,,word,COLD,,,,,,,,,,,,
html-keyboard-response,13,238430,60.5,"",32,,word,COLD,,,,,,,,,,,,
html-keyboard-response,14,238648,null,"<div style=""font-size:42px;"">HEAVY</div><img id = ""stim"" ><div class = green_square id = ""topsquare"" ></div>",null,practice,word_square,HEAVY,prac_response,1,Top,32,true,,,,,,,
html-keyboard-response,15,238954,null,"<div style=""font-size:42px;"">HEAVY</div>",null,,word,HEAVY,,,,,,,,,,,,
html-keyboard-response,16,240466,85.59999990463257,"",32,,word,HEAVY,,,,,,,,,,,,
html-keyboard-response,17,240681,null,"<div style=""font-size:42px;"">FUNNY</div><img id = ""stim"" ><div class = red_square id = ""topsquare"" ></div>",null,practice,word_square,FUNNY,prac_response,0,Top,none,true,,,,,,,
html-keyboard-response,18,240991,null,"<div style=""font-size:42px;"">FUNNY</div>",null,,word,FUNNY,,,,,,,,,,,,
html-keyboard-response,19,242496,null,"",null,,word,FUNNY,,,,,,,,,,,,
html-keyboard-response,20,242699,null,"<div style=""font-size:42px;"">SCARY</div><img id = ""stim"" ><div class = green_square id = ""bottomsquare"" ></div>",null,practice,word_square,SCARY,prac_response,1,Bottom,32,true,,,,,,,
html-keyboard-response,21,243011,null,"<div style=""font-size:42px;"">SCARY</div>",null,,word,SCARY,,,,,,,,,,,,
html-keyboard-response,22,244524,197.20000004768372,"",32,,word,SCARY,,,,,,,,,,,,
html-keyboard-response,23,244746,null,"<div style=""font-size:42px;"">PEACEFUL</div><img id = ""stim"" ><div class = green_square id = ""topsquare"" ></div>",null,practice,word_square,PEACEFUL,prac_response,1,Top,32,true,,,,,,,
html-keyboard-response,24,245053,null,"<div style=""font-size:42px;"">PEACEFUL</div>",null,,word,PEACEFUL,,,,,,,,,,,,
html-keyboard-response,25,246567,41.5,"",32,,word,PEACEFUL,,,,,,,,,,,,
html-keyboard-response,26,246783,null,"<div style=""font-size:42px;"">LITTLE</div><img id = ""stim"" ><div class = red_square id = ""bottomsquare"" ></div>",null,practice,word_square,LITTLE,prac_response,0,Bottom,none,true,,,,,,,
html-keyboard-response,27,247093,null,"<div style=""font-size:42px;"">LITTLE</div>",null,,word,LITTLE,,,,,,,,,,,,
html-keyboard-response,28,248597,null,"",null,,word,LITTLE,,,,,,,,,,,,
html-keyboard-response,29,248811,null,"<div style=""font-size:42px;"">TIRED</div><img id = ""stim"" ><div class = red_square id = ""topsquare"" ></div>",null,practice,word_square,TIRED,prac_response,0,Top,none,true,,,,,,,
html-keyboard-response,30,249121,null,"<div style=""font-size:42px;"">TIRED</div>",null,,word,TIRED,,,,,,,,,,,,
html-keyboard-response,31,250625,null,"",null,,word,TIRED,,,,,,,,,,,,
html-keyboard-response,32,250842,null,"<div style=""font-size:42px;"">ENTERTAINING</div><img id = ""stim"" ><div class = red_square id = ""bottomsquare"" ></div>",null,practice,word_square,ENTERTAINING,prac_response,0,Bottom,none,true,,,,,,,
html-keyboard-response,33,251151,null,"<div style=""font-size:42px;"">ENTERTAINING</div>",null,,word,ENTERTAINING,,,,,,,,,,,,
html-keyboard-response,34,252654,null,"",null,,word,ENTERTAINING,,,,,,,,,,,,
html-keyboard-response,35,252858,null,"<div style=""font-size:42px;"">GRATEFUL</div><img id = ""stim"" ><div class = green_square id = ""bottomsquare"" ></div>",null,practice,word_square,GRATEFUL,prac_response,1,Bottom,32,true,,,,,,,
html-keyboard-response,36,253168,164.69999992847443,"<div style=""font-size:42px;"">GRATEFUL</div>",32,,word,GRATEFUL,,,,,,,,,,,,
html-keyboard-response,37,254682,null,"",null,,word,GRATEFUL,,,,,,,,,,,,
html-keyboard-response,38,254899,null,"<div style=""font-size:42px;"">LOUD</div><img id = ""stim"" ><div class = red_square id = ""topsquare"" ></div>",null,practice,word_square,LOUD,prac_response,0,Top,none,true,,,,,,,
html-keyboard-response,39,255210,null,"<div style=""font-size:42px;"">LOUD</div>",null,,word,LOUD,,,,,,,,,,,,
html-keyboard-response,40,256716,null,"",null,,word,LOUD,,,,,,,,,,,,
html-keyboard-response,41,256932,null,"<div style=""font-size:42px;"">SMART</div><img id = ""stim"" ><div class = green_square id = ""topsquare"" ></div>",null,practice,word_square,SMART,prac_response,1,Top,32,true,,,,,,,
html-keyboard-response,42,257243,125.10000002384186,"<div style=""font-size:42px;"">SMART</div>",32,,word,SMART,,,,,,,,,,,,
html-keyboard-response,43,258748,null,"",null,,word,SMART,,,,,,,,,,,,
html-keyboard-response,44,258961,null,"<div style=""font-size:42px;"">SMOOTH</div><img id = ""stim"" ><div class = green_square id = ""bottomsquare"" ></div>",null,practice,word_square,SMOOTH,prac_response,1,Bottom,32,true,,,,,,,
html-keyboard-response,45,259263,285.89999997615814,"<div style=""font-size:42px;"">SMOOTH</div>",32,,word,SMOOTH,,,,,,,,,,,,
html-keyboard-response,46,260774,null,"",null,,word,SMOOTH,,,,,,,,,,,,
html-keyboard-response,47,260977,null,"<div style=""font-size:42px;"">DISHONEST</div><img id = ""stim"" ><div class = red_square id = ""bottomsquare"" ></div>",null,practice,word_square,DISHONEST,prac_response,0,Bottom,none,true,,,,,,,
html-keyboard-response,48,261293,null,"<div style=""font-size:42px;"">DISHONEST</div>",null,,word,DISHONEST,,,,,,,,,,,,
html-keyboard-response,49,262800,null,"",null,,word,DISHONEST,,,,,,,,,,,,
html-keyboard-response,50,263014,null,"<div style=""font-size:42px;"">WEALTHY</div><img id = ""stim"" ><div class = green_square id = ""topsquare"" ></div>",null,practice,word_square,WEALTHY,prac_response,1,Top,32,true,,,,,,,
html-keyboard-response,51,263330,159.39999997615814,"<div style=""font-size:42px;"">WEALTHY</div>",32,,word,WEALTHY,,,,,,,,,,,,
html-keyboard-response,52,264842,null,"",null,,word,WEALTHY,,,,,,,,,,,,
html-keyboard-response,53,265056,null,"<div style=""font-size:42px;"">BEAUTIFUL</div><img id = ""stim"" ><div class = red_square id = ""topsquare"" ></div>",null,practice,word_square,BEAUTIFUL,prac_response,0,Top,none,true,,,,,,,
html-keyboard-response,54,265367,null,"<div style=""font-size:42px;"">BEAUTIFUL</div>",null,,word,BEAUTIFUL,,,,,,,,,,,,
html-keyboard-response,55,266875,null,"",null,,word,BEAUTIFUL,,,,,,,,,,,,
html-keyboard-response,56,273744,6866.600000023842,"<p> Good job! You responded correctly to 100% of the trials. </p>
                  <p>Be sure to only press the spacebar if you see a GREEN square, and please keep your accuracy above 80%.</p>
                  <p>We're going to try once more to make sure you understand the task. press any key to continue. </p>",32,,,,,,,,,,,,,,,
html-keyboard-response,57,279578,5831.700000047684,"<p>You will see a list of words and colored squares in the following task.<p><p>Press the spacebar whenever you see a GREEN square.<p><p>Do not press a key if the square is RED<p><p>Press the spacebar to continue.</p>",32,,,,,,,,,,,,,,,
html-keyboard-response,58,282093,null,"<div style=""font-size:60px;"">+</div>",null,,,,,,,,,,,,,,,
html-keyboard-response,59,282297,null,"<div style=""font-size:42px;"">HAPPY</div><img id = ""stim"" ><div class = red_square id = ""bottomsquare"" ></div>",null,practice2,word_square,HAPPY,prac_response,0,Bottom,none,true,,,,,,,
html-keyboard-response,60,282610,null,"<div style=""font-size:42px;"">HAPPY</div>",null,,word,HAPPY,,,,,,,,,,,,
html-keyboard-response,61,284115,null,"",null,,word,HAPPY,,,,,,,,,,,,
html-keyboard-response,62,284332,null,"<div style=""font-size:42px;"">COLD</div><img id = ""stim"" ><div class = green_square id = ""bottomsquare"" ></div>",null,practice2,word_square,,prac_response,1,Bottom,32,true,,,,,,,
html-keyboard-response,63,284635,211.5,"<div style=""font-size:42px;"">COLD</div>",32,,word,COLD,,,,,,,,,,,,
html-keyboard-response,64,286147,null,"",null,,word,COLD,,,,,,,,,,,,
html-keyboard-response,65,286363,null,"<div style=""font-size:42px;"">HEAVY</div><img id = ""stim"" ><div class = green_square id = ""topsquare"" ></div>",null,practice2,word_square,,prac_response,1,Top,32,true,,,,,,,
html-keyboard-response,66,286677,null,"<div style=""font-size:42px;"">HEAVY</div>",null,,word,HEAVY,,,,,,,,,,,,
html-keyboard-response,67,288195,409.10000002384186,"",32,,word,HEAVY,,,,,,,,,,,,
html-keyboard-response,68,288413,null,"<div style=""font-size:42px;"">FUNNY</div><img id = ""stim"" ><div class = red_square id = ""topsquare"" ></div>",null,practice2,word_square,,prac_response,0,Top,none,true,,,,,,,
html-keyboard-response,69,288726,null,"<div style=""font-size:42px;"">FUNNY</div>",null,,word,FUNNY,,,,,,,,,,,,
html-keyboard-response,70,290231,null,"",null,,word,FUNNY,,,,,,,,,,,,
html-keyboard-response,71,290435,null,"<div style=""font-size:42px;"">SCARY</div><img id = ""stim"" ><div class = green_square id = ""bottomsquare"" ></div>",null,practice2,word_square,,prac_response,1,Bottom,32,true,,,,,,,
html-keyboard-response,72,290737,242.80000007152557,"<div style=""font-size:42px;"">SCARY</div>",32,,word,SCARY,,,,,,,,,,,,
html-keyboard-response,73,292251,null,"",null,,word,SCARY,,,,,,,,,,,,
html-keyboard-response,74,292467,null,"<div style=""font-size:42px;"">PEACEFUL</div><img id = ""stim"" ><div class = green_square id = ""topsquare"" ></div>",null,practice2,word_square,,prac_response,1,Top,32,true,,,,,,,
html-keyboard-response,75,292783,null,"<div style=""font-size:42px;"">PEACEFUL</div>",null,,word,PEACEFUL,,,,,,,,,,,,
html-keyboard-response,76,294292,95.20000004768372,"",32,,word,PEACEFUL,,,,,,,,,,,,
html-keyboard-response,77,294509,null,"<div style=""font-size:42px;"">LITTLE</div><img id = ""stim"" ><div class = red_square id = ""bottomsquare"" ></div>",null,practice2,word_square,LITTLE,prac_response,0,Bottom,none,false,,,,,,,
html-keyboard-response,78,294820,null,"<div style=""font-size:42px;"">LITTLE</div>",null,,word,LITTLE,,,,,,,,,,,,
html-keyboard-response,79,296333,132.09999990463257,"",32,,word,LITTLE,,,,,,,,,,,,
html-keyboard-response,80,296547,null,"<div style=""font-size:42px;"">TIRED</div><img id = ""stim"" ><div class = red_square id = ""topsquare"" ></div>",null,practice2,word_square,,prac_response,0,Top,none,true,,,,,,,
html-keyboard-response,81,296863,null,"<div style=""font-size:42px;"">TIRED</div>",null,,word,TIRED,,,,,,,,,,,,
html-keyboard-response,82,298377,null,"",null,,word,TIRED,,,,,,,,,,,,
html-keyboard-response,83,298593,null,"<div style=""font-size:42px;"">ENTERTAINING</div><img id = ""stim"" ><div class = red_square id = ""bottomsquare"" ></div>",null,practice2,word_square,ENTERTAINING,prac_response,0,Bottom,none,true,,,,,,,
html-keyboard-response,84,298905,null,"<div style=""font-size:42px;"">ENTERTAINING</div>",null,,word,ENTERTAINING,,,,,,,,,,,,
html-keyboard-response,85,300419,null,"",null,,word,ENTERTAINING,,,,,,,,,,,,
html-keyboard-response,86,300624,null,"<div style=""font-size:42px;"">GRATEFUL</div><img id = ""stim"" ><div class = green_square id = ""bottomsquare"" ></div>",null,practice2,word_square,,prac_response,1,Bottom,32,true,,,,,,,
html-keyboard-response,87,300935,null,"<div style=""font-size:42px;"">GRATEFUL</div>",null,,word,GRATEFUL,,,,,,,,,,,,
html-keyboard-response,88,302437,1224.1000000238419,"",32,,word,GRATEFUL,,,,,,,,,,,,
html-keyboard-response,89,302654,null,"<div style=""font-size:42px;"">LOUD</div><img id = ""stim"" ><div class = red_square id = ""topsquare"" ></div>",null,practice2,word_square,,prac_response,0,Top,none,true,,,,,,,
html-keyboard-response,90,302966,null,"<div style=""font-size:42px;"">LOUD</div>",null,,word,LOUD,,,,,,,,,,,,
html-keyboard-response,91,304470,null,"",null,,word,LOUD,,,,,,,,,,,,
html-keyboard-response,92,304689,null,"<div style=""font-size:42px;"">SMART</div><img id = ""stim"" ><div class = green_square id = ""topsquare"" ></div>",null,practice2,word_square,,prac_response,1,Top,32,true,,,,,,,
html-keyboard-response,93,304997,199.89999997615814,"<div style=""font-size:42px;"">SMART</div>",32,,word,SMART,,,,,,,,,,,,
html-keyboard-response,94,306505,null,"",null,,word,SMART,,,,,,,,,,,,
html-keyboard-response,95,306714,null,"<div style=""font-size:42px;"">SMOOTH</div><img id = ""stim"" ><div class = green_square id = ""bottomsquare"" ></div>",null,practice2,word_square,,prac_response,1,Bottom,32,false,,,,,,,
html-keyboard-response,96,307034,null,"<div style=""font-size:42px;"">SMOOTH</div>",null,,word,SMOOTH,,,,,,,,,,,,
html-keyboard-response,97,308541,null,"",null,,word,SMOOTH,,,,,,,,,,,,
html-keyboard-response,98,308758,null,"<div style=""font-size:42px;"">DISHONEST</div><img id = ""stim"" ><div class = red_square id = ""bottomsquare"" ></div>",null,practice2,word_square,DISHONEST,prac_response,0,Bottom,none,true,,,,,,,
html-keyboard-response,99,309069,null,"<div style=""font-size:42px;"">DISHONEST</div>",null,,word,DISHONEST,,,,,,,,,,,,
html-keyboard-response,100,310587,null,"",null,,word,DISHONEST,,,,,,,,,,,,
html-keyboard-response,101,310803,null,"<div style=""font-size:42px;"">WEALTHY</div><img id = ""stim"" ><div class = green_square id = ""topsquare"" ></div>",null,practice2,word_square,,prac_response,1,Top,32,true,,,,,,,
html-keyboard-response,102,311106,260,"<div style=""font-size:42px;"">WEALTHY</div>",32,,word,WEALTHY,,,,,,,,,,,,
html-keyboard-response,103,312617,null,"",null,,word,WEALTHY,,,,,,,,,,,,
html-keyboard-response,104,312831,null,"<div style=""font-size:42px;"">BEAUTIFUL</div><img id = ""stim"" ><div class = red_square id = ""topsquare"" ></div>",null,practice2,word_square,,prac_response,0,Top,none,true,,,,,,,
html-keyboard-response,105,313142,null,"<div style=""font-size:42px;"">BEAUTIFUL</div>",null,,word,BEAUTIFUL,,,,,,,,,,,,
html-keyboard-response,106,314645,null,"",null,,word,BEAUTIFUL,,,,,,,,,,,,
html-keyboard-response,107,327571,12922.199999928474,"<p> Good job! You responded correctly to 88% of the trials. </p>
                    <p>Be sure to only press the spacebar if you see a GREEN square, and please keep your accuracy above 80%.</p>
                    <p>Press any key to begin the math and recall sections. Thank you! </p>",32,,,,,,,,,,,,,,,
call-function,108,327574,,"",,,,,,,,,,,,,,,,
html-keyboard-response,109,327689,null,"",null,,,,,,,,,,,,,,,
math-period,110,348104,39969.59999990463,"",,,,,,,,,,,1,,,,,
html-keyboard-response,111,348209,null,"",null,,,,,,,,,,,,,,,
math-period,112,351580,null,"",,,,,,,,,,,,,,,,
html-keyboard-response,113,352592,null,"Recall Period!",null,,,,,,,,,,,,,,,
call-function,114,352593,,"",,,,,,,,,,,,,,,,
html-keyboard-response,115,352700,null,"",null,,,,,,,,,,,,,,,
recall-period,116,361016,21848.00000023842,"",,,,,,,,,,,calm,,,,,
html-keyboard-response,117,361133,null,"",null,,,,,,,,,,,,,,,
recall-period,118,371088,135372.30000030994,"",,,,,,,,,,,entertaining ,,,,,
html-keyboard-response,119,371197,null,"",null,,,,,,,,,,,,,,,
recall-period,120,391272,117438.60000026226,"",,,,,,,,,,,happy,,,,,
html-keyboard-response,121,391379,null,"",null,,,,,,,,,,,,,,,
recall-period,122,427600,null,"",,,,,,,,,,,,,,,,
html-keyboard-response,123,428113,null,"Time's Up!",null,,,,,,,,,,,,,,,
html-keyboard-response,124,445684,17566.900000095367,"<p>We will now begin the experiment!<p><p>Please try to remember all words from each list.<p><p>Press the spacebar whenever you see a GREEN square.<p><p><p><p>Press the spacebar to begin.</p>",32,,,,,,,,,,,,,,,
html-keyboard-response,125,448610,2411.5,"<div style=""font-size:48px;"">Press any key to begin list 1 of 16 </div>",32,,,,,,,,,,,,,,,
html-keyboard-response,126,451124,null,"<div style=""font-size:60px;"">+</div>",null,,,,,,,,,,,,,,,
html-keyboard-response,127,451341,null,"<div style=""font-size:42px;"">SKETCH</div><img id = ""stim"" ><div class = green_square id = topsquare></div>",null,encoding,word_square,,,1,topsquare,32,false,,,SKETCH,0,,,
html-keyboard-response,128,451648,null,"<div style=""font-size:42px;"">SKETCH</div>",null,,word,SKETCH,,,,,,,,,,,,
html-keyboard-response,129,453154,null,"",null,,word,SKETCH,,,,,,,,,,,,
html-keyboard-response,130,453371,null,"<div style=""font-size:42px;"">SCALLOP</div><img id = ""stim"" ><div class = green_square id = bottomsquare></div>",null,encoding,word_square,,,1,bottomsquare,32,true,,,SCALLOP,0,,,
html-keyboard-response,131,453683,null,"<div style=""font-size:42px;"">SCALLOP</div>",null,,word,SCALLOP,,,,,,,,,,,,
html-keyboard-response,132,455193,10.299999952316284,"",32,,word,SCALLOP,,,,,,,,,,,,
html-keyboard-response,133,455408,null,"<div style=""font-size:42px;"">COD</div><img id = ""stim"" ><div class = red_square id = bottomsquare></div>",null,encoding,word_square,,,0,bottomsquare,none,true,,,COD,0,,,
html-keyboard-response,134,455721,null,"<div style=""font-size:42px;"">COD</div>",null,,word,COD,,,,,,,,,,,,
html-keyboard-response,135,457233,null,"",null,,word,COD,,,,,,,,,,,,
html-keyboard-response,136,457448,null,"<div style=""font-size:42px;"">DRESS</div><img id = ""stim"" ><div class = red_square id = topsquare></div>",null,encoding,word_square,,,0,topsquare,none,true,,,DRESS,0,,,
html-keyboard-response,137,457759,null,"<div style=""font-size:42px;"">DRESS</div>",null,,word,DRESS,,,,,,,,,,,,
html-keyboard-response,138,459272,null,"",null,,word,DRESS,,,,,,,,,,,,
html-keyboard-response,139,459489,null,"<div style=""font-size:42px;"">SILK</div><img id = ""stim"" ><div class = green_square id = topsquare></div>",null,encoding,word_square,,,1,topsquare,32,true,,,SILK,0,,,
html-keyboard-response,140,459801,165.39999997615814,"<div style=""font-size:42px;"">SILK</div>",32,,word,SILK,,,,,,,,,,,,
html-keyboard-response,141,461307,null,"",null,,word,SILK,,,,,,,,,,,,
html-keyboard-response,142,461511,null,"<div style=""font-size:42px;"">CANYON</div><img id = ""stim"" ><div class = red_square id = bottomsquare></div>",null,encoding,word_square,,,0,bottomsquare,none,true,,,CANYON,0,,,
html-keyboard-response,143,461821,null,"<div style=""font-size:42px;"">CANYON</div>",null,,word,CANYON,,,,,,,,,,,,
html-keyboard-response,144,463334,null,"",null,,word,CANYON,,,,,,,,,,,,
html-keyboard-response,145,463552,null,"<div style=""font-size:42px;"">JOURNAL</div><img id = ""stim"" ><div class = green_square id = bottomsquare></div>",null,encoding,word_square,,,1,bottomsquare,32,true,,,JOURNAL,0,,,
html-keyboard-response,146,463861,150,"<div style=""font-size:42px;"">JOURNAL</div>",32,,word,JOURNAL,,,,,,,,,,,,
html-keyboard-response,147,465370,null,"",null,,word,JOURNAL,,,,,,,,,,,,
html-keyboard-response,148,465584,null,"<div style=""font-size:42px;"">NOVEL</div><img id = ""stim"" ><div class = green_square id = topsquare></div>",null,encoding,word_square,,,1,topsquare,32,false,,,NOVEL,0,,,
html-keyboard-response,149,465898,null,"<div style=""font-size:42px;"">NOVEL</div>",null,,word,NOVEL,,,,,,,,,,,,
html-keyboard-response,150,467408,null,"",null,,word,NOVEL,,,,,,,,,,,,
html-keyboard-response,151,467624,null,"<div style=""font-size:42px;"">CIGAR</div><img id = ""stim"" ><div class = red_square id = topsquare></div>",null,encoding,word_square,,,0,topsquare,none,false,,,CIGAR,0,,,
html-keyboard-response,152,467935,null,"<div style=""font-size:42px;"">CIGAR</div>",null,,word,CIGAR,,,,,,,,,,,,
html-keyboard-response,153,469443,486.89999997615814,"",32,,word,CIGAR,,,,,,,,,,,,
html-keyboard-response,154,469656,null,"<div style=""font-size:42px;"">RADISH</div><img id = ""stim"" ><div class = red_square id = bottomsquare></div>",null,encoding,word_square,,,0,bottomsquare,none,true,,,RADISH,0,,,
html-keyboard-response,155,469967,null,"<div style=""font-size:42px;"">RADISH</div>",null,,word,RADISH,,,,,,,,,,,,
html-keyboard-response,156,471481,null,"",null,,word,RADISH,,,,,,,,,,,,
html-keyboard-response,157,471696,null,"<div style=""font-size:42px;"">LIVER</div><img id = ""stim"" ><div class = green_square id = bottomsquare></div>",null,encoding,word_square,,,1,bottomsquare,32,true,,,LIVER,0,,,
html-keyboard-response,158,472010,null,"<div style=""font-size:42px;"">LIVER</div>",null,,word,LIVER,,,,,,,,,,,,
html-keyboard-response,159,473519,93.29999995231628,"",32,,word,LIVER,,,,,,,,,,,,
html-keyboard-response,160,473738,null,"<div style=""font-size:42px;"">ASIA</div><img id = ""stim"" ><div class = red_square id = topsquare></div>",null,encoding,word_square,,,0,topsquare,none,true,,,ASIA,0,,,
html-keyboard-response,161,474047,null,"<div style=""font-size:42px;"">ASIA</div>",null,,word,ASIA,,,,,,,,,,,,
html-keyboard-response,162,475552,null,"",null,,word,ASIA,,,,,,,,,,,,
html-keyboard-response,163,475770,null,"<div style=""font-size:42px;"">RABBIT</div><img id = ""stim"" ><div class = green_square id = topsquare></div>",null,encoding,word_square,,,1,topsquare,32,true,,,RABBIT,0,,,
html-keyboard-response,164,476078,null,"<div style=""font-size:42px;"">RABBIT</div>",null,,word,RABBIT,,,,,,,,,,,,
html-keyboard-response,165,477586,159.39999997615814,"",32,,word,RABBIT,,,,,,,,,,,,
html-keyboard-response,166,477790,null,"<div style=""font-size:42px;"">CHISEL</div><img id = ""stim"" ><div class = red_square id = bottomsquare></div>",null,encoding,word_square,,,0,bottomsquare,none,true,,,CHISEL,0,,,
html-keyboard-response,167,478098,null,"<div style=""font-size:42px;"">CHISEL</div>",null,,word,CHISEL,,,,,,,,,,,,
html-keyboard-response,168,479610,null,"",null,,word,CHISEL,,,,,,,,,,,,
html-keyboard-response,169,479826,null,"<div style=""font-size:42px;"">CAMEL</div><img id = ""stim"" ><div class = red_square id = topsquare></div>",null,encoding,word_square,,,0,topsquare,none,false,,,CAMEL,0,,,
html-keyboard-response,170,480133,null,"<div style=""font-size:42px;"">CAMEL</div>",null,,word,CAMEL,,,,,,,,,,,,
html-keyboard-response,171,481641,889,"",32,,word,CAMEL,,,,,,,,,,,,
html-keyboard-response,172,481859,null,"<div style=""font-size:42px;"">SUMMIT</div><img id = ""stim"" ><div class = green_square id = bottomsquare></div>",null,encoding,word_square,,,1,bottomsquare,32,true,,,SUMMIT,0,,,
html-keyboard-response,173,482169,null,"<div style=""font-size:42px;"">SUMMIT</div>",null,,word,SUMMIT,,,,,,,,,,,,
html-keyboard-response,174,483677,14.399999976158142,"",32,,word,SUMMIT,,,,,,,,,,,,
call-function,175,483679,,"",,,,,,,,,,,,,,,,
html-keyboard-response,176,483789,null,"",null,,,,,,,,,,,,,,,
math-period,177,502847,97826.80000030994,"",,,,,,,,,,,1 ,,,,,
html-keyboard-response,178,502961,null,"",null,,,,,,,,,,,,,,,
math-period,179,505703,5176.300000071526,"",,,,,,,,,,,3,,,,,
html-keyboard-response,180,505816,null,"",null,,,,,,,,,,,,,,,
math-period,181,507683,null,"",,,,,,,,,,,,,,,,
html-keyboard-response,182,508688,null,"Recall Period!",null,,,,,,,,,,,,,,,
call-function,183,508689,,"",,,,,,,,,,,,,,,,
html-keyboard-response,184,508797,null,"",null,,,,,,,,,,,,,,,
recall-period,185,511638,10087.300000190735,"",,,,,,,,,,,cod,,,,,
html-keyboard-response,186,511759,null,"",null,,,,,,,,,,,,,,,
recall-period,187,513614,6430.10000026226,"",,,,,,,,,,,asia,,,,,
html-keyboard-response,188,513716,null,"",null,,,,,,,,,,,,,,,
recall-period,189,517790,17910.300000190735,"",,,,,,,,,,,silk,,,,,
html-keyboard-response,190,517900,null,"",null,,,,,,,,,,,,,,,
recall-period,191,520335,11601.60000026226,"",,,,,,,,,,,dress,,,,,
html-keyboard-response,192,520465,null,"",null,,,,,,,,,,,,,,,
recall-period,193,583698,null,"",,,,,,,,,,,,,,,,
html-keyboard-response,194,584211,null,"Time's Up!",null,,,,,,,,,,,,,,,
html-keyboard-response,195,621137,36922.200000047684,"<p> Uh oh. You have responded correctly to only 75% of the trials. </p>
                      <p>Be sure to only press the spacebar if you see a GREEN square, and please keep your accuracy above 80%.</p>
                  <p>Press any key to continue the experiment. Thank you!</p>",32,,,,,,,,,,,,,,,
html-keyboard-response,196,623209,2068.7000000476837,"<div style=""font-size:48px;"">Press any key to begin list 2 of 16 </div>",32,,,,,,,,,,,,,,,
html-keyboard-response,197,625726,null,"<div style=""font-size:60px;"">+</div>",null,,,,,,,,,,,,,,,
html-keyboard-response,198,625941,null,"<div style=""font-size:42px;"">GOBLIN</div><img id = ""stim"" ><div class = green_square id = bottomsquare></div>",null,encoding,word_square,,,1,bottomsquare,32,true,,,GOBLIN,1,,,
html-keyboard-response,199,626252,null,"<div style=""font-size:42px;"">GOBLIN</div>",null,,word,GOBLIN,,,,,,,,,,,,
html-keyboard-response,200,627763,48.90000009536743,"",32,,word,GOBLIN,,,,,,,,,,,,
html-keyboard-response,201,627981,null,"<div style=""font-size:42px;"">PUPIL</div><img id = ""stim"" ><div class = red_square id = topsquare></div>",null,encoding,word_square,,,0,topsquare,none,true,,,PUPIL,1,,,
html-keyboard-response,202,628293,null,"<div style=""font-size:42px;"">PUPIL</div>",null,,word,PUPIL,,,,,,,,,,,,
html-keyboard-response,203,629799,null,"",null,,word,PUPIL,,,,,,,,,,,,
html-keyboard-response,204,630015,null,"<div style=""font-size:42px;"">SEASHORE</div><img id = ""stim"" ><div class = red_square id = bottomsquare></div>",null,encoding,word_square,,,0,bottomsquare,none,true,,,SEASHORE,1,,,
html-keyboard-response,205,630327,null,"<div style=""font-size:42px;"">SEASHORE</div>",null,,word,SEASHORE,,,,,,,,,,,,
html-keyboard-response,206,631834,null,"",null,,word,SEASHORE,,,,,,,,,,,,
html-keyboard-response,207,632050,null,"<div style=""font-size:42px;"">THICKET</div><img id = ""stim"" ><div class = green_square id = topsquare></div>",null,encoding,word_square,,,1,topsquare,32,true,,,THICKET,1,,,
html-keyboard-response,208,632362,null,"<div style=""font-size:42px;"">THICKET</div>",null,,word,THICKET,,,,,,,,,,,,
html-keyboard-response,209,633868,357.3000000715256,"",32,,word,THICKET,,,,,,,,,,,,
html-keyboard-response,210,634082,null,"<div style=""font-size:42px;"">BUREAU</div><img id = ""stim"" ><div class = red_square id = topsquare></div>",null,encoding,word_square,,,0,topsquare,none,true,,,BUREAU,1,,,
html-keyboard-response,211,634394,null,"<div style=""font-size:42px;"">BUREAU</div>",null,,word,BUREAU,,,,,,,,,,,,
html-keyboard-response,212,635911,null,"",null,,word,BUREAU,,,,,,,,,,,,
html-keyboard-response,213,636126,null,"<div style=""font-size:42px;"">DRESSER</div><img id = ""stim"" ><div class = green_square id = bottomsquare></div>",null,encoding,word_square,,,1,bottomsquare,32,true,,,DRESSER,1,,,
html-keyboard-response,214,636437,null,"<div style=""font-size:42px;"">DRESSER</div>",null,,word,DRESSER,,,,,,,,,,,,
html-keyboard-response,215,637946,119.70000004768372,"",32,,word,DRESSER,,,,,,,,,,,,
html-keyboard-response,216,638161,null,"<div style=""font-size:42px;"">HATCHET</div><img id = ""stim"" ><div class = red_square id = bottomsquare></div>",null,encoding,word_square,,,0,bottomsquare,none,true,,,HATCHET,1,,,
html-keyboard-response,217,638472,null,"<div style=""font-size:42px;"">HATCHET</div>",null,,word,HATCHET,,,,,,,,,,,,
html-keyboard-response,218,639985,null,"",null,,word,HATCHET,,,,,,,,,,,,
html-keyboard-response,219,640200,null,"<div style=""font-size:42px;"">SPOON</div><img id = ""stim"" ><div class = red_square id = topsquare></div>",null,encoding,word_square,,,0,topsquare,none,true,,,SPOON,1,,,
html-keyboard-response,220,640511,null,"<div style=""font-size:42px;"">SPOON</div>",null,,word,SPOON,,,,,,,,,,,,
html-keyboard-response,221,642026,null,"",null,,word,SPOON,,,,,,,,,,,,
html-keyboard-response,222,642246,null,"<div style=""font-size:42px;"">SIDEWALK</div><img id = ""stim"" ><div class = green_square id = topsquare></div>",null,encoding,word_square,,,1,topsquare,32,true,,,SIDEWALK,1,,,
html-keyboard-response,223,642555,null,"<div style=""font-size:42px;"">SIDEWALK</div>",null,,word,SIDEWALK,,,,,,,,,,,,
html-keyboard-response,224,644073,179.09999990463257,"",32,,word,SIDEWALK,,,,,,,,,,,,
html-keyboard-response,225,644290,null,"<div style=""font-size:42px;"">HIKER</div><img id = ""stim"" ><div class = green_square id = bottomsquare></div>",null,encoding,word_square,,,1,bottomsquare,32,true,,,HIKER,1,,,
html-keyboard-response,226,644602,null,"<div style=""font-size:42px;"">HIKER</div>",null,,word,HIKER,,,,,,,,,,,,
html-keyboard-response,227,646114,266.5,"",32,,word,HIKER,,,,,,,,,,,,
html-keyboard-response,228,646330,null,"<div style=""font-size:42px;"">MONSTER</div><img id = ""stim"" ><div class = red_square id = bottomsquare></div>",null,encoding,word_square,,,0,bottomsquare,none,true,,,MONSTER,1,,,
html-keyboard-response,229,646640,null,"<div style=""font-size:42px;"">MONSTER</div>",null,,word,MONSTER,,,,,,,,,,,,
html-keyboard-response,230,648154,null,"",null,,word,MONSTER,,,,,,,,,,,,
html-keyboard-response,231,648372,null,"<div style=""font-size:42px;"">GALLON</div><img id = ""stim"" ><div class = green_square id = topsquare></div>",null,encoding,word_square,,,1,topsquare,32,false,,,GALLON,1,,,
html-keyboard-response,232,648686,null,"<div style=""font-size:42px;"">GALLON</div>",null,,word,GALLON,,,,,,,,,,,,
html-keyboard-response,233,650190,null,"",null,,word,GALLON,,,,,,,,,,,,
html-keyboard-response,234,650412,null,"<div style=""font-size:42px;"">MOUNTAIN</div><img id = ""stim"" ><div class = red_square id = topsquare></div>",null,encoding,word_square,,,0,topsquare,none,true,,,MOUNTAIN,1,,,
html-keyboard-response,235,650722,null,"<div style=""font-size:42px;"">MOUNTAIN</div>",null,,word,MOUNTAIN,,,,,,,,,,,,
html-keyboard-response,236,652230,null,"",null,,word,MOUNTAIN,,,,,,,,,,,,
html-keyboard-response,237,652446,null,"<div style=""font-size:42px;"">TEACHER</div><img id = ""stim"" ><div class = red_square id = bottomsquare></div>",null,encoding,word_square,,,0,bottomsquare,none,true,,,TEACHER,1,,,
html-keyboard-response,238,652761,null,"<div style=""font-size:42px;"">TEACHER</div>",null,,word,TEACHER,,,,,,,,,,,,
html-keyboard-response,239,654280,null,"",null,,word,TEACHER,,,,,,,,,,,,
html-keyboard-response,240,654496,null,"<div style=""font-size:42px;"">RELISH</div><img id = ""stim"" ><div class = green_square id = bottomsquare></div>",null,encoding,word_square,,,1,bottomsquare,32,true,,,RELISH,1,,,
html-keyboard-response,241,654807,null,"<div style=""font-size:42px;"">RELISH</div>",null,,word,RELISH,,,,,,,,,,,,
html-keyboard-response,242,656318,63.5,"",32,,word,RELISH,,,,,,,,,,,,
html-keyboard-response,243,656522,null,"<div style=""font-size:42px;"">CRYSTAL</div><img id = ""stim"" ><div class = green_square id = topsquare></div>",null,encoding,word_square,,,1,topsquare,32,true,,,CRYSTAL,1,,,
html-keyboard-response,244,656832,null,"<div style=""font-size:42px;"">CRYSTAL</div>",null,,word,CRYSTAL,,,,,,,,,,,,
html-keyboard-response,245,658335,316.6999999284744,"",32,,word,CRYSTAL,,,,,,,,,,,,
call-function,246,658337,,"",,,,,,,,,,,,,,,,
html-keyboard-response,247,658445,null,"",null,,,,,,,,,,,,,,,
math-period,248,661343,5478.399999976158,"",,,,,,,,,,,4,,,,,
html-keyboard-response,249,661449,null,"",null,,,,,,,,,,,,,,,
math-period,250,672438,21559.099999904633,"",,,,,,,,,,,5,,,,,
html-keyboard-response,251,672551,null,"",null,,,,,,,,,,,,,,,
math-period,252,674262,3219.100000023842,"",,,,,,,,,,,3,,,,,
html-keyboard-response,253,674375,null,"",null,,,,,,,,,,,,,,,
math-period,254,675566,2242.5,"",,,,,,,,,,,3,,,,,
html-keyboard-response,255,675680,null,"",null,,,,,,,,,,,,,,,
math-period,256,679734,7984.299999952316,"",,,,,,,,,,,5,,,,,
html-keyboard-response,257,679840,null,"",null,,,,,,,,,,,,,,,
math-period,258,681390,2918.9999998807907,"",,,,,,,,,,,3,,,,,
html-keyboard-response,259,681502,null,"",null,,,,,,,,,,,,,,,
math-period,260,682342,null,"",,,,,,,,,,,,,,,,
html-keyboard-response,261,683351,null,"Recall Period!",null,,,,,,,,,,,,,,,
call-function,262,683353,,"",,,,,,,,,,,,,,,,
html-keyboard-response,263,683462,null,"",null,,,,,,,,,,,,,,,
recall-period,264,690854,51177.800000190735,"",,,,,,,,,,,goblin,,,,,
html-keyboard-response,265,690968,null,"",null,,,,,,,,,,,,,,,
recall-period,266,696030,33414.59999978542,"",,,,,,,,,,,dresser,,,,,
html-keyboard-response,267,696135,null,"",null,,,,,,,,,,,,,,,
recall-period,268,698878,16681.900000333786,"",,,,,,,,,,,teacher,,,,,
html-keyboard-response,269,698983,null,"",null,,,,,,,,,,,,,,,
recall-period,270,705694,34143.199999928474,"",,,,,,,,,,,thickit,,,,,
html-keyboard-response,271,705810,null,"",null,,,,,,,,,,,,,,,
recall-period,272,758366,null,"",,,,,,,,,,,,,,,,
html-keyboard-response,273,758879,null,"Time's Up!",null,,,,,,,,,,,,,,,
html-keyboard-response,274,790786,31902,"<p> Good job! You have responded correctly to 84% of the trials. </p>
                      <p>Be sure to only press the spacebar if you see a GREEN square, and please keep your accuracy above 80%.</p>
                      <p> Press any key to continue the experiment. </p>",32,,,,,,,,,,,,,,,
html-keyboard-response,275,791976,1187,"<div style=""font-size:48px;"">Press any key to begin list 3 of 16 </div>",32,,,,,,,,,,,,,,,
html-keyboard-response,276,794506,null,"<div style=""font-size:60px;"">+</div>",null,,,,,,,,,,,,,,,
html-keyboard-response,277,794712,null,"<div style=""font-size:42px;"">BEAVER</div><img id = ""stim"" ><div class = red_square id = bottomsquare></div>",null,encoding,word_square,,,0,bottomsquare,none,false,,,BEAVER,2,,,
html-keyboard-response,278,795025,null,"<div style=""font-size:42px;"">BEAVER</div>",null,,word,BEAVER,,,,,,,,,,,,
html-keyboard-response,279,796542,139.39999997615814,"",32,,word,BEAVER,,,,,,,,,,,,
html-keyboard-response,280,796759,null,"<div style=""font-size:42px;"">SQUIRREL</div><img id = ""stim"" ><div class = red_square id = topsquare></div>",null,encoding,word_square,,,0,topsquare,none,true,,,SQUIRREL,2,,,
html-keyboard-response,281,797068,null,"<div style=""font-size:42px;"">SQUIRREL</div>",null,,word,SQUIRREL,,,,,,,,,,,,
html-keyboard-response,282,798586,null,"",null,,word,SQUIRREL,,,,,,,,,,,,
html-keyboard-response,283,798789,null,"<div style=""font-size:42px;"">POND</div><img id = ""stim"" ><div class = green_square id = topsquare></div>",null,encoding,word_square,,,1,topsquare,32,true,,,POND,2,,,
html-keyboard-response,284,799102,null,"<div style=""font-size:42px;"">POND</div>",null,,word,POND,,,,,,,,,,,,
html-keyboard-response,285,800608,253.19999992847443,"",32,,word,POND,,,,,,,,,,,,
html-keyboard-response,286,800823,null,"<div style=""font-size:42px;"">SCARECROW</div><img id = ""stim"" ><div class = green_square id = bottomsquare></div>",null,encoding,word_square,,,1,bottomsquare,32,false,,,SCARECROW,2,,,
html-keyboard-response,287,801135,null,"<div style=""font-size:42px;"">SCARECROW</div>",null,,word,SCARECROW,,,,,,,,,,,,
html-keyboard-response,288,802639,null,"",null,,word,SCARECROW,,,,,,,,,,,,
html-keyboard-response,289,802845,null,"<div style=""font-size:42px;"">BLOCKADE</div><img id = ""stim"" ><div class = red_square id = bottomsquare></div>",null,encoding,word_square,,,0,bottomsquare,none,true,,,BLOCKADE,2,,,
html-keyboard-response,290,803154,null,"<div style=""font-size:42px;"">BLOCKADE</div>",null,,word,BLOCKADE,,,,,,,,,,,,
html-keyboard-response,291,804670,null,"",null,,word,BLOCKADE,,,,,,,,,,,,
html-keyboard-response,292,804885,null,"<div style=""font-size:42px;"">BUILDING</div><img id = ""stim"" ><div class = green_square id = topsquare></div>",null,encoding,word_square,,,1,topsquare,32,true,,,BUILDING,2,,,
html-keyboard-response,293,805197,null,"<div style=""font-size:42px;"">BUILDING</div>",null,,word,BUILDING,,,,,,,,,,,,
html-keyboard-response,294,806706,312.39999997615814,"",32,,word,BUILDING,,,,,,,,,,,,
html-keyboard-response,295,806909,null,"<div style=""font-size:42px;"">SLACKS</div><img id = ""stim"" ><div class = red_square id = topsquare></div>",null,encoding,word_square,,,0,topsquare,none,true,,,SLACKS,2,,,
html-keyboard-response,296,807219,null,"<div style=""font-size:42px;"">SLACKS</div>",null,,word,SLACKS,,,,,,,,,,,,
html-keyboard-response,297,808730,null,"",null,,word,SLACKS,,,,,,,,,,,,
html-keyboard-response,298,808945,null,"<div style=""font-size:42px;"">OINTMENT</div><img id = ""stim"" ><div class = red_square id = bottomsquare></div>",null,encoding,word_square,,,0,bottomsquare,none,true,,,OINTMENT,2,,,
html-keyboard-response,299,809257,null,"<div style=""font-size:42px;"">OINTMENT</div>",null,,word,OINTMENT,,,,,,,,,,,,
html-keyboard-response,300,810773,null,"",null,,word,OINTMENT,,,,,,,,,,,,
html-keyboard-response,301,810989,null,"<div style=""font-size:42px;"">MAMMAL</div><img id = ""stim"" ><div class = green_square id = bottomsquare></div>",null,encoding,word_square,,,1,bottomsquare,32,true,,,MAMMAL,2,,,
html-keyboard-response,302,811300,null,"<div style=""font-size:42px;"">MAMMAL</div>",null,,word,MAMMAL,,,,,,,,,,,,
html-keyboard-response,303,812809,47.39999997615814,"",32,,word,MAMMAL,,,,,,,,,,,,
html-keyboard-response,304,813025,null,"<div style=""font-size:42px;"">CREATURE</div><img id = ""stim"" ><div class = green_square id = topsquare></div>",null,encoding,word_square,,,1,topsquare,32,false,,,CREATURE,2,,,
html-keyboard-response,305,813336,null,"<div style=""font-size:42px;"">CREATURE</div>",null,,word,CREATURE,,,,,,,,,,,,
html-keyboard-response,306,814845,null,"",null,,word,CREATURE,,,,,,,,,,,,
html-keyboard-response,307,815060,null,"<div style=""font-size:42px;"">LION</div><img id = ""stim"" ><div class = red_square id = topsquare></div>",null,encoding,word_square,,,0,topsquare,none,true,,,LION,2,,,
html-keyboard-response,308,815369,null,"<div style=""font-size:42px;"">LION</div>",null,,word,LION,,,,,,,,,,,,
html-keyboard-response,309,816879,null,"",null,,word,LION,,,,,,,,,,,,
html-keyboard-response,310,817097,null,"<div style=""font-size:42px;"">BARLEY</div><img id = ""stim"" ><div class = green_square id = bottomsquare></div>",null,encoding,word_square,,,1,bottomsquare,32,true,,,BARLEY,2,,,
html-keyboard-response,311,817414,null,"<div style=""font-size:42px;"">BARLEY</div>",null,,word,BARLEY,,,,,,,,,,,,
html-keyboard-response,312,818928,46.09999990463257,"",32,,word,BARLEY,,,,,,,,,,,,
html-keyboard-response,313,819133,null,"<div style=""font-size:42px;"">PORPOISE</div><img id = ""stim"" ><div class = red_square id = bottomsquare></div>",null,encoding,word_square,,,0,bottomsquare,none,true,,,PORPOISE,2,,,
html-keyboard-response,314,819446,null,"<div style=""font-size:42px;"">PORPOISE</div>",null,,word,PORPOISE,,,,,,,,,,,,
html-keyboard-response,315,820953,null,"",null,,word,PORPOISE,,,,,,,,,,,,
html-keyboard-response,316,821166,null,"<div style=""font-size:42px;"">LOVER</div><img id = ""stim"" ><div class = green_square id = topsquare></div>",null,encoding,word_square,,,1,topsquare,32,false,,,LOVER,2,,,
html-keyboard-response,317,821476,null,"<div style=""font-size:42px;"">LOVER</div>",null,,word,LOVER,,,,,,,,,,,,
html-keyboard-response,318,822991,null,"",null,,word,LOVER,,,,,,,,,,,,
html-keyboard-response,319,823207,null,"<div style=""font-size:42px;"">PARTNER</div><img id = ""stim"" ><div class = green_square id = bottomsquare></div>",null,encoding,word_square,,,1,bottomsquare,32,true,,,PARTNER,2,,,
html-keyboard-response,320,823518,null,"<div style=""font-size:42px;"">PARTNER</div>",null,,word,PARTNER,,,,,,,,,,,,
html-keyboard-response,321,825030,100.70000004768372,"",32,,word,PARTNER,,,,,,,,,,,,
html-keyboard-response,322,825248,null,"<div style=""font-size:42px;"">LEOPARD</div><img id = ""stim"" ><div class = red_square id = topsquare></div>",null,encoding,word_square,,,0,topsquare,none,true,,,LEOPARD,2,,,
html-keyboard-response,323,825561,null,"<div style=""font-size:42px;"">LEOPARD</div>",null,,word,LEOPARD,,,,,,,,,,,,
html-keyboard-response,324,827067,null,"",null,,word,LEOPARD,,,,,,,,,,,,
call-function,325,827069,,"",,,,,,,,,,,,,,,,
html-keyboard-response,326,827179,null,"",null,,,,,,,,,,,,,,,
math-period,327,829813,4458.400000095367,"",,,,,,,,,,,3,,,,,
html-keyboard-response,328,829924,null,"",null,,,,,,,,,,,,,,,
math-period,329,843813,27534.49999988079,"",,,,,,,,,,,1,,,,,
html-keyboard-response,330,843923,null,"",null,,,,,,,,,,,,,,,
math-period,331,845285,2439,"",,,,,,,,,,,3,,,,,
html-keyboard-response,332,845400,null,"",null,,,,,,,,,,,,,,,
math-period,333,846557,2157.8000000715256,"",,,,,,,,,,,3,,,,,
html-keyboard-response,334,846662,null,"",null,,,,,,,,,,,,,,,
math-period,335,847796,2105.600000023842,"",,,,,,,,,,,4,,,,,
html-keyboard-response,336,847905,null,"",null,,,,,,,,,,,,,,,
math-period,337,851083,null,"",,,,,,,,,,,,,,,,
html-keyboard-response,338,852091,null,"Recall Period!",null,,,,,,,,,,,,,,,
call-function,339,852093,,"",,,,,,,,,,,,,,,,
html-keyboard-response,340,852196,null,"",null,,,,,,,,,,,,,,,
recall-period,341,856453,23390.900000095367,"",,,,,,,,,,,lover,,,,,
html-keyboard-response,342,856564,null,"",null,,,,,,,,,,,,,,,
recall-period,343,859253,10514.50000011921,"",,,,,,,,,,,pond,,,,,
html-keyboard-response,344,859360,null,"",null,,,,,,,,,,,,,,,
recall-period,345,861653,13846.49999988079,"",,,,,,,,,,,building,,,,,
html-keyboard-response,346,861769,null,"",null,,,,,,,,,,,,,,,
recall-period,347,864804,12937.200000166893,"",,,,,,,,,,,manal,,,,,
html-keyboard-response,348,864920,null,"",null,,,,,,,,,,,,,,,
recall-period,349,866716,6112.200000166893,"",,,,,,,,,,,lion,,,,,
html-keyboard-response,350,866822,null,"",null,,,,,,,,,,,,,,,
recall-period,351,873165,40070.00000011921,"",,,,,,,,,,,beaver,,,,,
html-keyboard-response,352,873281,null,"",null,,,,,,,,,,,,,,,
recall-period,353,927104,null,"",,,,,,,,,,,,,,,,
html-keyboard-response,354,927616,null,"Time's Up!",null,,,,,,,,,,,,,,,
html-keyboard-response,355,941656,14037.199999928474,"<p> Good job! You have responded correctly to 81% of the trials. </p>
                      <p>Be sure to only press the spacebar if you see a GREEN square, and please keep your accuracy above 80%.</p>
                      <p> Press any key to continue the experiment. </p>",32,,,,,,,,,,,,,,,
html-keyboard-response,356,943192,1530.7999999523163,"<div style=""font-size:48px;"">Press any key to begin list 4 of 16 </div>",32,,,,,,,,,,,,,,,
html-keyboard-response,357,945703,null,"<div style=""font-size:60px;"">+</div>",null,,,,,,,,,,,,,,,
html-keyboard-response,358,945918,null,"<div style=""font-size:42px;"">SISTER</div><img id = ""stim"" ><div class = red_square id = topsquare></div>",null,encoding,word_square,,,0,topsquare,none,true,,,SISTER,3,,,
html-keyboard-response,359,946228,null,"<div style=""font-size:42px;"">SISTER</div>",null,,word,SISTER,,,,,,,,,,,,
html-keyboard-response,360,947733,null,"",null,,word,SISTER,,,,,,,,,,,,
html-keyboard-response,361,947954,null,"<div style=""font-size:42px;"">LOUNGE</div><img id = ""stim"" ><div class = green_square id = bottomsquare></div>",null,encoding,word_square,,,1,bottomsquare,32,true,,,LOUNGE,3,,,
html-keyboard-response,362,948266,305.7999999523163,"<div style=""font-size:42px;"">LOUNGE</div>",32,,word,LOUNGE,,,,,,,,,,,,
html-keyboard-response,363,949785,null,"",null,,word,LOUNGE,,,,,,,,,,,,
html-keyboard-response,364,950002,null,"<div style=""font-size:42px;"">LIST</div><img id = ""stim"" ><div class = green_square id = topsquare></div>",null,encoding,word_square,,,1,topsquare,32,true,,,LIST,3,,,
html-keyboard-response,365,950315,null,"<div style=""font-size:42px;"">LIST</div>",null,,word,LIST,,,,,,,,,,,,
html-keyboard-response,366,951829,112.60000002384186,"",32,,word,LIST,,,,,,,,,,,,
html-keyboard-response,367,952046,null,"<div style=""font-size:42px;"">SUBWAY</div><img id = ""stim"" ><div class = red_square id = bottomsquare></div>",null,encoding,word_square,,,0,bottomsquare,none,true,,,SUBWAY,3,,,
html-keyboard-response,368,952355,null,"<div style=""font-size:42px;"">SUBWAY</div>",null,,word,SUBWAY,,,,,,,,,,,,
html-keyboard-response,369,953866,null,"",null,,word,SUBWAY,,,,,,,,,,,,
html-keyboard-response,370,954079,null,"<div style=""font-size:42px;"">SHORTS</div><img id = ""stim"" ><div class = green_square id = bottomsquare></div>",null,encoding,word_square,,,1,bottomsquare,32,true,,,SHORTS,3,,,
html-keyboard-response,371,954383,300.89999997615814,"<div style=""font-size:42px;"">SHORTS</div>",32,,word,SHORTS,,,,,,,,,,,,
html-keyboard-response,372,955901,null,"",null,,word,SHORTS,,,,,,,,,,,,
html-keyboard-response,373,956117,null,"<div style=""font-size:42px;"">WASHER</div><img id = ""stim"" ><div class = red_square id = topsquare></div>",null,encoding,word_square,,,0,topsquare,none,false,,,WASHER,3,,,
html-keyboard-response,374,956425,null,"<div style=""font-size:42px;"">WASHER</div>",null,,word,WASHER,,,,,,,,,,,,
html-keyboard-response,375,957934,521.8999999761581,"",32,,word,WASHER,,,,,,,,,,,,
html-keyboard-response,376,958149,null,"<div style=""font-size:42px;"">LEG</div><img id = ""stim"" ><div class = green_square id = topsquare></div>",null,encoding,word_square,,,1,topsquare,32,true,,,LEG,3,,,
html-keyboard-response,377,958459,null,"<div style=""font-size:42px;"">LEG</div>",null,,word,LEG,,,,,,,,,,,,
html-keyboard-response,378,959965,287.7999999523163,"",32,,word,LEG,,,,,,,,,,,,
html-keyboard-response,379,960181,null,"<div style=""font-size:42px;"">BANK</div><img id = ""stim"" ><div class = green_square id = bottomsquare></div>",null,encoding,word_square,,,1,bottomsquare,32,true,,,BANK,3,,,
html-keyboard-response,380,960494,null,"<div style=""font-size:42px;"">BANK</div>",null,,word,BANK,,,,,,,,,,,,
html-keyboard-response,381,961997,61.60000002384186,"",32,,word,BANK,,,,,,,,,,,,
html-keyboard-response,382,962213,null,"<div style=""font-size:42px;"">BISON</div><img id = ""stim"" ><div class = red_square id = bottomsquare></div>",null,encoding,word_square,,,0,bottomsquare,none,true,,,BISON,3,,,
html-keyboard-response,383,962528,null,"<div style=""font-size:42px;"">BISON</div>",null,,word,BISON,,,,,,,,,,,,
html-keyboard-response,384,964031,null,"",null,,word,BISON,,,,,,,,,,,,
html-keyboard-response,385,964249,null,"<div style=""font-size:42px;"">SEAL</div><img id = ""stim"" ><div class = red_square id = topsquare></div>",null,encoding,word_square,,,0,topsquare,none,true,,,SEAL,3,,,
html-keyboard-response,386,964559,null,"<div style=""font-size:42px;"">SEAL</div>",null,,word,SEAL,,,,,,,,,,,,
html-keyboard-response,387,966075,null,"",null,,word,SEAL,,,,,,,,,,,,
html-keyboard-response,388,966291,null,"<div style=""font-size:42px;"">BEAST</div><img id = ""stim"" ><div class = green_square id = topsquare></div>",null,encoding,word_square,,,1,topsquare,32,true,,,BEAST,3,,,
html-keyboard-response,389,966596,233.5,"<div style=""font-size:42px;"">BEAST</div>",32,,word,BEAST,,,,,,,,,,,,
html-keyboard-response,390,968109,null,"",null,,word,BEAST,,,,,,,,,,,,
html-keyboard-response,391,968324,null,"<div style=""font-size:42px;"">SNACK</div><img id = ""stim"" ><div class = red_square id = bottomsquare></div>",null,encoding,word_square,,,0,bottomsquare,none,true,,,SNACK,3,,,
html-keyboard-response,392,968633,null,"<div style=""font-size:42px;"">SNACK</div>",null,,word,SNACK,,,,,,,,,,,,
html-keyboard-response,393,970140,null,"",null,,word,SNACK,,,,,,,,,,,,
html-keyboard-response,394,970359,null,"<div style=""font-size:42px;"">BOUILLON</div><img id = ""stim"" ><div class = green_square id = bottomsquare></div>",null,encoding,word_square,,,1,bottomsquare,32,false,,,BOUILLON,3,,,
html-keyboard-response,395,970666,null,"<div style=""font-size:42px;"">BOUILLON</div>",null,,word,BOUILLON,,,,,,,,,,,,
html-keyboard-response,396,972184,null,"",null,,word,BOUILLON,,,,,,,,,,,,
html-keyboard-response,397,972401,null,"<div style=""font-size:42px;"">APPLE</div><img id = ""stim"" ><div class = green_square id = topsquare></div>",null,encoding,word_square,,,1,topsquare,32,true,,,APPLE,3,,,
html-keyboard-response,398,972705,242.29999995231628,"<div style=""font-size:42px;"">APPLE</div>",32,,word,APPLE,,,,,,,,,,,,
html-keyboard-response,399,974211,null,"",null,,word,APPLE,,,,,,,,,,,,
html-keyboard-response,400,974416,null,"<div style=""font-size:42px;"">WAITER</div><img id = ""stim"" ><div class = red_square id = topsquare></div>",null,encoding,word_square,,,0,topsquare,none,true,,,WAITER,3,,,
html-keyboard-response,401,974726,null,"<div style=""font-size:42px;"">WAITER</div>",null,,word,WAITER,,,,,,,,,,,,
html-keyboard-response,402,976232,null,"",null,,word,WAITER,,,,,,,,,,,,
html-keyboard-response,403,976445,null,"<div style=""font-size:42px;"">DAGGER</div><img id = ""stim"" ><div class = red_square id = bottomsquare></div>",null,encoding,word_square,,,0,bottomsquare,none,true,,,DAGGER,3,,,
html-keyboard-response,404,976757,null,"<div style=""font-size:42px;"">DAGGER</div>",null,,word,DAGGER,,,,,,,,,,,,
html-keyboard-response,405,978280,null,"",null,,word,DAGGER,,,,,,,,,,,,
call-function,406,978284,,"",,,,,,,,,,,,,,,,
html-keyboard-response,407,978398,null,"",null,,,,,,,,,,,,,,,
math-period,408,981060,4792.299999952316,"",,,,,,,,,,,4,,,,,
html-keyboard-response,409,981165,null,"",null,,,,,,,,,,,,,,,
math-period,410,982772,3026.600000023842,"",,,,,,,,,,,5,,,,,
html-keyboard-response,411,982887,null,"",null,,,,,,,,,,,,,,,
math-period,412,985492,5007.199999928474,"",,,,,,,,,,,6,,,,,
html-keyboard-response,413,985598,null,"",null,,,,,,,,,,,,,,,
math-period,414,986949,2505.1999999284744,"",,,,,,,,,,,4,,,,,
html-keyboard-response,415,987056,null,"",null,,,,,,,,,,,,,,,
math-period,416,988204,2101.1999999284744,"",,,,,,,,,,,3,,,,,
html-keyboard-response,417,988307,null,"",null,,,,,,,,,,,,,,,
math-period,418,989892,3040.699999809265,"",,,,,,,,,,,3,,,,,
html-keyboard-response,419,989995,null,"",null,,,,,,,,,,,,,,,
math-period,420,992516,7918.199999809265,"",,,,,,,,,,,6,,,,,
html-keyboard-response,421,992627,null,"",null,,,,,,,,,,,,,,,
math-period,422,994052,2559.399999856949,"",,,,,,,,,,,2,,,,,
html-keyboard-response,423,994158,null,"",null,,,,,,,,,,,,,,,
math-period,424,995676,2816.5,"",,,,,,,,,,,5,,,,,
html-keyboard-response,425,995794,null,"",null,,,,,,,,,,,,,,,
math-period,426,1002298,null,"",,,,,,,,,,,,,,,,
html-keyboard-response,427,1003302,null,"Recall Period!",null,,,,,,,,,,,,,,,
call-function,428,1003303,,"",,,,,,,,,,,,,,,,
html-keyboard-response,429,1003408,null,"",null,,,,,,,,,,,,,,,
recall-period,430,1007956,26271.89999985695,"",,,,,,,,,,,sister,,,,,
html-keyboard-response,431,1008062,null,"",null,,,,,,,,,,,,,,,
recall-period,432,1010028,9301.300000309944,"",,,,,,,,,,,apple,,,,,
html-keyboard-response,433,1010140,null,"",null,,,,,,,,,,,,,,,
recall-period,434,1012148,8552.599999904633,"",,,,,,,,,,,list,,,,,
html-keyboard-response,435,1012258,null,"",null,,,,,,,,,,,,,,,
recall-period,436,1014861,10688.399999976158,"",,,,,,,,,,,beast,,,,,
html-keyboard-response,437,1014965,null,"",null,,,,,,,,,,,,,,,
recall-period,438,1020556,36068.60000002384,"",,,,,,,,,,,band,,,,,
html-keyboard-response,439,1020664,null,"",null,,,,,,,,,,,,,,,
recall-period,440,1022684,6903.899999976158,"",,,,,,,,,,,leg,,,,,
html-keyboard-response,441,1022790,null,"",null,,,,,,,,,,,,,,,
recall-period,442,1025892,15302.199999809265,"",,,,,,,,,,,shorts,,,,,
html-keyboard-response,443,1026001,null,"",null,,,,,,,,,,,,,,,
recall-period,444,1078314,null,"",,,,,,,,,,,,,,,,
html-keyboard-response,445,1078834,null,"Time's Up!",null,,,,,,,,,,,,,,,
html-keyboard-response,446,1082912,4074.5,"<p> Good job! You have responded correctly to 83% of the trials. </p>
                      <p>Be sure to only press the spacebar if you see a GREEN square, and please keep your accuracy above 80%.</p>
                      <p> Press any key to continue the experiment. </p>",32,,,,,,,,,,,,,,,
html-keyboard-response,447,1083613,699.1000000238419,"<div style=""font-size:48px;"">Press any key to begin list 5 of 16 </div>",32,,,,,,,,,,,,,,,
html-keyboard-response,448,1086126,null,"<div style=""font-size:60px;"">+</div>",null,,,,,,,,,,,,,,,
html-keyboard-response,449,1086345,null,"<div style=""font-size:42px;"">STAKE</div><img id = ""stim"" ><div class = green_square id = topsquare></div>",null,encoding,word_square,,,1,topsquare,32,true,,,STAKE,4,,,
html-keyboard-response,450,1086655,null,"<div style=""font-size:42px;"">STAKE</div>",null,,word,STAKE,,,,,,,,,,,,
html-keyboard-response,451,1088165,508.2000000476837,"",32,,word,STAKE,,,,,,,,,,,,
html-keyboard-response,452,1088382,null,"<div style=""font-size:42px;"">LUMBER</div><img id = ""stim"" ><div class = red_square id = bottomsquare></div>",null,encoding,word_square,,,0,bottomsquare,none,true,,,LUMBER,4,,,
html-keyboard-response,453,1088690,null,"<div style=""font-size:42px;"">LUMBER</div>",null,,word,LUMBER,,,,,,,,,,,,
html-keyboard-response,454,1090208,null,"",null,,word,LUMBER,,,,,,,,,,,,
html-keyboard-response,455,1090426,null,"<div style=""font-size:42px;"">ELK</div><img id = ""stim"" ><div class = green_square id = bottomsquare></div>",null,encoding,word_square,,,1,bottomsquare,32,true,,,ELK,4,,,
html-keyboard-response,456,1090737,null,"<div style=""font-size:42px;"">ELK</div>",null,,word,ELK,,,,,,,,,,,,
html-keyboard-response,457,1092268,81.09999990463257,"",32,,word,ELK,,,,,,,,,,,,
html-keyboard-response,458,1092479,null,"<div style=""font-size:42px;"">FLASK</div><img id = ""stim"" ><div class = green_square id = topsquare></div>",null,encoding,word_square,,,1,topsquare,32,true,,,FLASK,4,,,
html-keyboard-response,459,1092790,null,"<div style=""font-size:42px;"">FLASK</div>",null,,word,FLASK,,,,,,,,,,,,
html-keyboard-response,460,1094298,261.89999997615814,"",32,,word,FLASK,,,,,,,,,,,,
html-keyboard-response,461,1094512,null,"<div style=""font-size:42px;"">FIST</div><img id = ""stim"" ><div class = red_square id = topsquare></div>",null,encoding,word_square,,,0,topsquare,none,true,,,FIST,4,,,
html-keyboard-response,462,1094821,null,"<div style=""font-size:42px;"">FIST</div>",null,,word,FIST,,,,,,,,,,,,
html-keyboard-response,463,1096329,null,"",null,,word,FIST,,,,,,,,,,,,
html-keyboard-response,464,1096547,null,"<div style=""font-size:42px;"">RIVER</div><img id = ""stim"" ><div class = green_square id = bottomsquare></div>",null,encoding,word_square,,,1,bottomsquare,32,true,,,RIVER,4,,,
html-keyboard-response,465,1096850,287.6999999284744,"<div style=""font-size:42px;"">RIVER</div>",32,,word,RIVER,,,,,,,,,,,,
html-keyboard-response,466,1098360,null,"",null,,word,RIVER,,,,,,,,,,,,
html-keyboard-response,467,1098564,null,"<div style=""font-size:42px;"">CANAL</div><img id = ""stim"" ><div class = red_square id = bottomsquare></div>",null,encoding,word_square,,,0,bottomsquare,none,true,,,CANAL,4,,,
html-keyboard-response,468,1098873,null,"<div style=""font-size:42px;"">CANAL</div>",null,,word,CANAL,,,,,,,,,,,,
html-keyboard-response,469,1100384,null,"",null,,word,CANAL,,,,,,,,,,,,
html-keyboard-response,470,1100600,null,"<div style=""font-size:42px;"">LAKE</div><img id = ""stim"" ><div class = red_square id = topsquare></div>",null,encoding,word_square,,,0,topsquare,none,true,,,LAKE,4,,,
html-keyboard-response,471,1100910,null,"<div style=""font-size:42px;"">LAKE</div>",null,,word,LAKE,,,,,,,,,,,,
html-keyboard-response,472,1102418,null,"",null,,word,LAKE,,,,,,,,,,,,
html-keyboard-response,473,1102637,null,"<div style=""font-size:42px;"">BISCUIT</div><img id = ""stim"" ><div class = green_square id = topsquare></div>",null,encoding,word_square,,,1,topsquare,32,true,,,BISCUIT,4,,,
html-keyboard-response,474,1102940,245.89999997615814,"<div style=""font-size:42px;"">BISCUIT</div>",32,,word,BISCUIT,,,,,,,,,,,,
html-keyboard-response,475,1104448,null,"",null,,word,BISCUIT,,,,,,,,,,,,
html-keyboard-response,476,1104666,null,"<div style=""font-size:42px;"">ADULT</div><img id = ""stim"" ><div class = green_square id = bottomsquare></div>",null,encoding,word_square,,,1,bottomsquare,32,true,,,ADULT,4,,,
html-keyboard-response,477,1104972,242.10000002384186,"<div style=""font-size:42px;"">ADULT</div>",32,,word,ADULT,,,,,,,,,,,,
html-keyboard-response,478,1106485,null,"",null,,word,ADULT,,,,,,,,,,,,
html-keyboard-response,479,1106703,null,"<div style=""font-size:42px;"">SCOTCH</div><img id = ""stim"" ><div class = red_square id = bottomsquare></div>",null,encoding,word_square,,,0,bottomsquare,none,true,,,SCOTCH,4,,,
html-keyboard-response,480,1107013,null,"<div style=""font-size:42px;"">SCOTCH</div>",null,,word,SCOTCH,,,,,,,,,,,,
html-keyboard-response,481,1108519,null,"",null,,word,SCOTCH,,,,,,,,,,,,
html-keyboard-response,482,1108737,null,"<div style=""font-size:42px;"">SALAD</div><img id = ""stim"" ><div class = red_square id = topsquare></div>",null,encoding,word_square,,,0,topsquare,none,true,,,SALAD,4,,,
html-keyboard-response,483,1109048,null,"<div style=""font-size:42px;"">SALAD</div>",null,,word,SALAD,,,,,,,,,,,,
html-keyboard-response,484,1110552,null,"",null,,word,SALAD,,,,,,,,,,,,
html-keyboard-response,485,1110771,null,"<div style=""font-size:42px;"">ATOM</div><img id = ""stim"" ><div class = green_square id = topsquare></div>",null,encoding,word_square,,,1,topsquare,32,true,,,ATOM,4,,,
html-keyboard-response,486,1111081,null,"<div style=""font-size:42px;"">ATOM</div>",null,,word,ATOM,,,,,,,,,,,,
html-keyboard-response,487,1112589,88.89999997615814,"",32,,word,ATOM,,,,,,,,,,,,
html-keyboard-response,488,1112806,null,"<div style=""font-size:42px;"">CHEMIST</div><img id = ""stim"" ><div class = red_square id = bottomsquare></div>",null,encoding,word_square,,,0,bottomsquare,none,true,,,CHEMIST,4,,,
html-keyboard-response,489,1113118,null,"<div style=""font-size:42px;"">CHEMIST</div>",null,,word,CHEMIST,,,,,,,,,,,,
html-keyboard-response,490,1114628,null,"",null,,word,CHEMIST,,,,,,,,,,,,
html-keyboard-response,491,1114832,null,"<div style=""font-size:42px;"">ROOSTER</div><img id = ""stim"" ><div class = red_square id = topsquare></div>",null,encoding,word_square,,,0,topsquare,none,true,,,ROOSTER,4,,,
html-keyboard-response,492,1115142,null,"<div style=""font-size:42px;"">ROOSTER</div>",null,,word,ROOSTER,,,,,,,,,,,,
html-keyboard-response,493,1116653,null,"",null,,word,ROOSTER,,,,,,,,,,,,
html-keyboard-response,494,1116870,null,"<div style=""font-size:42px;"">GIRAFFE</div><img id = ""stim"" ><div class = green_square id = bottomsquare></div>",null,encoding,word_square,,,1,bottomsquare,32,true,,,GIRAFFE,4,,,
html-keyboard-response,495,1117181,null,"<div style=""font-size:42px;"">GIRAFFE</div>",null,,word,GIRAFFE,,,,,,,,,,,,
html-keyboard-response,496,1118687,85.70000004768372,"",32,,word,GIRAFFE,,,,,,,,,,,,
call-function,497,1118689,,"",,,,,,,,,,,,,,,,
html-keyboard-response,498,1118792,null,"",null,,,,,,,,,,,,,,,
math-period,499,1128101,17697.400000095367,"",,,,,,,,,,,3,,,,,
html-keyboard-response,500,1128211,null,"",null,,,,,,,,,,,,,,,
math-period,501,1136108,15252.200000047684,"",,,,,,,,,,,0,,,,,
html-keyboard-response,502,1136217,null,"",null,,,,,,,,,,,,,,,
math-period,503,1138372,4162.299999833107,"",,,,,,,,,,,4,,,,,
html-keyboard-response,504,1138486,null,"",null,,,,,,,,,,,,,,,
math-period,505,1140356,3496.5999999046326,"",,,,,,,,,,,4,,,,,
html-keyboard-response,506,1140457,null,"",null,,,,,,,,,,,,,,,
math-period,507,1141508,1922.5000001192093,"",,,,,,,,,,,3,,,,,
html-keyboard-response,508,1141610,null,"",null,,,,,,,,,,,,,,,
math-period,509,1142701,null,"",,,,,,,,,,,,,,,,
html-keyboard-response,510,1143706,null,"Recall Period!",null,,,,,,,,,,,,,,,
call-function,511,1143707,,"",,,,,,,,,,,,,,,,
html-keyboard-response,512,1143816,null,"",null,,,,,,,,,,,,,,,
recall-period,513,1149252,21973.79999959469,"",,,,,,,,,,,stake,,,,,
html-keyboard-response,514,1149357,null,"",null,,,,,,,,,,,,,,,
recall-period,515,1152444,13729.500000238419,"",,,,,,,,,,,lake,,,,,
html-keyboard-response,516,1152560,null,"",null,,,,,,,,,,,,,,,
recall-period,517,1154980,10629.60000038147,"",,,,,,,,,,,adult,,,,,
html-keyboard-response,518,1155086,null,"",null,,,,,,,,,,,,,,,
recall-period,519,1159396,17423,"",,,,,,,,,,,salad,,,,,
html-keyboard-response,520,1159501,null,"",null,,,,,,,,,,,,,,,
recall-period,521,1165412,52781.60000085831,"",,,,,,,,,,,flask,,,,,
html-keyboard-response,522,1165525,null,"",null,,,,,,,,,,,,,,,
recall-period,523,1167691,10763.400000214577,"",,,,,,,,,,,river,,,,,
html-keyboard-response,524,1167796,null,"",null,,,,,,,,,,,,,,,
recall-period,525,1171843,17404.99999988079,"",,,,,,,,,,,atom,,,,,
html-keyboard-response,526,1171953,null,"",null,,,,,,,,,,,,,,,
recall-period,527,1178676,36123.699999809265,"",,,,,,,,,,,river,,,,,
html-keyboard-response,528,1178785,null,"",null,,,,,,,,,,,,,,,
recall-period,529,1218718,null,"",,,,,,,,,,,,,,,,
html-keyboard-response,530,1219227,null,"Time's Up!",null,,,,,,,,,,,,,,,
html-keyboard-response,531,1254760,35527.300000071526,"<p> Good job! You have responded correctly to 86% of the trials. </p>
                      <p>Be sure to only press the spacebar if you see a GREEN square, and please keep your accuracy above 80%.</p>
                      <p> Press any key to continue the experiment. </p>",32,,,,,,,,,,,,,,,
html-keyboard-response,532,1255884,1121.8999999761581,"<div style=""font-size:48px;"">Press any key to begin list 6 of 16 </div>",32,,,,,,,,,,,,,,,
html-keyboard-response,533,1258391,null,"<div style=""font-size:60px;"">+</div>",null,,,,,,,,,,,,,,,
html-keyboard-response,534,1258610,null,"<div style=""font-size:42px;"">SHEPHERD</div><img id = ""stim"" ><div class = green_square id = bottomsquare></div>",null,encoding,word_square,,,1,bottomsquare,32,true,,,SHEPHERD,5,,,
html-keyboard-response,535,1258921,null,"<div style=""font-size:42px;"">SHEPHERD</div>",null,,word,SHEPHERD,,,,,,,,,,,,
html-keyboard-response,536,1260427,62.5,"",32,,word,SHEPHERD,,,,,,,,,,,,
html-keyboard-response,537,1260644,null,"<div style=""font-size:42px;"">SHARK</div><img id = ""stim"" ><div class = red_square id = topsquare></div>",null,encoding,word_square,,,0,topsquare,none,true,,,SHARK,5,,,
html-keyboard-response,538,1260957,null,"<div style=""font-size:42px;"">SHARK</div>",null,,word,SHARK,,,,,,,,,,,,
html-keyboard-response,539,1262470,null,"",null,,word,SHARK,,,,,,,,,,,,
html-keyboard-response,540,1262687,null,"<div style=""font-size:42px;"">PRIMATE</div><img id = ""stim"" ><div class = red_square id = bottomsquare></div>",null,encoding,word_square,,,0,bottomsquare,none,true,,,PRIMATE,5,,,
html-keyboard-response,541,1262999,null,"<div style=""font-size:42px;"">PRIMATE</div>",null,,word,PRIMATE,,,,,,,,,,,,
html-keyboard-response,542,1264508,null,"",null,,word,PRIMATE,,,,,,,,,,,,
html-keyboard-response,543,1264724,null,"<div style=""font-size:42px;"">NURSE</div><img id = ""stim"" ><div class = green_square id = topsquare></div>",null,encoding,word_square,,,1,topsquare,32,true,,,NURSE,5,,,
html-keyboard-response,544,1265035,null,"<div style=""font-size:42px;"">NURSE</div>",null,,word,NURSE,,,,,,,,,,,,
html-keyboard-response,545,1266551,1,"",32,,word,NURSE,,,,,,,,,,,,
html-keyboard-response,546,1266768,null,"<div style=""font-size:42px;"">MARKER</div><img id = ""stim"" ><div class = red_square id = topsquare></div>",null,encoding,word_square,,,0,topsquare,none,true,,,MARKER,5,,,
html-keyboard-response,547,1267082,null,"<div style=""font-size:42px;"">MARKER</div>",null,,word,MARKER,,,,,,,,,,,,
html-keyboard-response,548,1268592,null,"",null,,word,MARKER,,,,,,,,,,,,
html-keyboard-response,549,1268808,null,"<div style=""font-size:42px;"">SCOUT</div><img id = ""stim"" ><div class = red_square id = bottomsquare></div>",null,encoding,word_square,,,0,bottomsquare,none,true,,,SCOUT,5,,,
html-keyboard-response,550,1269122,null,"<div style=""font-size:42px;"">SCOUT</div>",null,,word,SCOUT,,,,,,,,,,,,
html-keyboard-response,551,1270625,null,"",null,,word,SCOUT,,,,,,,,,,,,
html-keyboard-response,552,1270842,null,"<div style=""font-size:42px;"">FEAST</div><img id = ""stim"" ><div class = green_square id = bottomsquare></div>",null,encoding,word_square,,,1,bottomsquare,32,true,,,FEAST,5,,,
html-keyboard-response,553,1271147,239.5,"<div style=""font-size:42px;"">FEAST</div>",32,,word,FEAST,,,,,,,,,,,,
html-keyboard-response,554,1272652,null,"",null,,word,FEAST,,,,,,,,,,,,
html-keyboard-response,555,1272857,null,"<div style=""font-size:42px;"">SALMON</div><img id = ""stim"" ><div class = green_square id = topsquare></div>",null,encoding,word_square,,,1,topsquare,32,true,,,SALMON,5,,,
html-keyboard-response,556,1273167,null,"<div style=""font-size:42px;"">SALMON</div>",null,,word,SALMON,,,,,,,,,,,,
html-keyboard-response,557,1274674,322.60000002384186,"",32,,word,SALMON,,,,,,,,,,,,
html-keyboard-response,558,1274878,null,"<div style=""font-size:42px;"">LAGOON</div><img id = ""stim"" ><div class = red_square id = topsquare></div>",null,encoding,word_square,,,0,topsquare,none,true,,,LAGOON,5,,,
html-keyboard-response,559,1275188,null,"<div style=""font-size:42px;"">LAGOON</div>",null,,word,LAGOON,,,,,,,,,,,,
html-keyboard-response,560,1276696,null,"",null,,word,LAGOON,,,,,,,,,,,,
html-keyboard-response,561,1276912,null,"<div style=""font-size:42px;"">BUCKET</div><img id = ""stim"" ><div class = red_square id = bottomsquare></div>",null,encoding,word_square,,,0,bottomsquare,none,true,,,BUCKET,5,,,
html-keyboard-response,562,1277225,null,"<div style=""font-size:42px;"">BUCKET</div>",null,,word,BUCKET,,,,,,,,,,,,
html-keyboard-response,563,1278735,null,"",null,,word,BUCKET,,,,,,,,,,,,
html-keyboard-response,564,1278953,null,"<div style=""font-size:42px;"">LIGHTNING</div><img id = ""stim"" ><div class = green_square id = bottomsquare></div>",null,encoding,word_square,,,1,bottomsquare,32,true,,,LIGHTNING,5,,,
html-keyboard-response,565,1279256,265.60000002384186,"<div style=""font-size:42px;"">LIGHTNING</div>",32,,word,LIGHTNING,,,,,,,,,,,,
html-keyboard-response,566,1280771,null,"",null,,word,LIGHTNING,,,,,,,,,,,,
html-keyboard-response,567,1280990,null,"<div style=""font-size:42px;"">DONKEY</div><img id = ""stim"" ><div class = red_square id = topsquare></div>",null,encoding,word_square,,,0,topsquare,none,true,,,DONKEY,5,,,
html-keyboard-response,568,1281297,null,"<div style=""font-size:42px;"">DONKEY</div>",null,,word,DONKEY,,,,,,,,,,,,
html-keyboard-response,569,1282804,null,"",null,,word,DONKEY,,,,,,,,,,,,
html-keyboard-response,570,1283008,null,"<div style=""font-size:42px;"">HORSE</div><img id = ""stim"" ><div class = green_square id = topsquare></div>",null,encoding,word_square,,,1,topsquare,32,true,,,HORSE,5,,,
html-keyboard-response,571,1283312,256.7999999523163,"<div style=""font-size:42px;"">HORSE</div>",32,,word,HORSE,,,,,,,,,,,,
html-keyboard-response,572,1284824,null,"",null,,word,HORSE,,,,,,,,,,,,
html-keyboard-response,573,1285042,null,"<div style=""font-size:42px;"">DWARF</div><img id = ""stim"" ><div class = green_square id = bottomsquare></div>",null,encoding,word_square,,,1,bottomsquare,32,true,,,DWARF,5,,,
html-keyboard-response,574,1285345,280.7000000476837,"<div style=""font-size:42px;"">DWARF</div>",32,,word,DWARF,,,,,,,,,,,,
html-keyboard-response,575,1286849,null,"",null,,word,DWARF,,,,,,,,,,,,
html-keyboard-response,576,1287066,null,"<div style=""font-size:42px;"">NOTEBOOK</div><img id = ""stim"" ><div class = red_square id = bottomsquare></div>",null,encoding,word_square,,,0,bottomsquare,none,true,,,NOTEBOOK,5,,,
html-keyboard-response,577,1287382,null,"<div style=""font-size:42px;"">NOTEBOOK</div>",null,,word,NOTEBOOK,,,,,,,,,,,,
html-keyboard-response,578,1288887,null,"",null,,word,NOTEBOOK,,,,,,,,,,,,
html-keyboard-response,579,1289103,null,"<div style=""font-size:42px;"">BUSH</div><img id = ""stim"" ><div class = green_square id = topsquare></div>",null,encoding,word_square,,,1,topsquare,32,true,,,BUSH,5,,,
html-keyboard-response,580,1289407,220.80000007152557,"<div style=""font-size:42px;"">BUSH</div>",32,,word,BUSH,,,,,,,,,,,,
html-keyboard-response,581,1290925,null,"",null,,word,BUSH,,,,,,,,,,,,
call-function,582,1290928,,"",,,,,,,,,,,,,,,,
html-keyboard-response,583,1291035,null,"",null,,,,,,,,,,,,,,,
math-period,584,1293642,4347.799999952316,"",,,,,,,,,,,5,,,,,
html-keyboard-response,585,1293745,null,"",null,,,,,,,,,,,,,,,
math-period,586,1296811,10280.799999952316,"",,,,,,,,,,,1,,,,,
html-keyboard-response,587,1296919,null,"",null,,,,,,,,,,,,,,,
math-period,588,1298050,2107.100000023842,"",,,,,,,,,,,3,,,,,
html-keyboard-response,589,1298153,null,"",null,,,,,,,,,,,,,,,
math-period,590,1299448,2404.899999976158,"",,,,,,,,,,,4,,,,,
html-keyboard-response,591,1299554,null,"",null,,,,,,,,,,,,,,,
math-period,592,1302915,6438.799999952316,"",,,,,,,,,,,5,,,,,
html-keyboard-response,593,1303024,null,"",null,,,,,,,,,,,,,,,
math-period,594,1306658,11607.799999833107,"",,,,,,,,,,,1,,,,,
html-keyboard-response,595,1306770,null,"",null,,,,,,,,,,,,,,,
math-period,596,1310234,11357.799999713898,"",,,,,,,,,,,1,,,,,
html-keyboard-response,597,1310343,null,"",null,,,,,,,,,,,,,,,
math-period,598,1311618,2272.9999998807907,"",,,,,,,,,,,3,,,,,
html-keyboard-response,599,1311722,null,"",null,,,,,,,,,,,,,,,
math-period,600,1313226,2813,"",,,,,,,,,,,4,,,,,
html-keyboard-response,601,1313336,null,"",null,,,,,,,,,,,,,,,
math-period,602,1314950,null,"",,,,,,,,,,,,,,,,
html-keyboard-response,603,1315960,null,"Recall Period!",null,,,,,,,,,,,,,,,
call-function,604,1315962,,"",,,,,,,,,,,,,,,,
html-keyboard-response,605,1316065,null,"",null,,,,,,,,,,,,,,,
recall-period,606,1322154,30937.60000026226,"",,,,,,,,,,,scout,,,,,
html-keyboard-response,607,1322260,null,"",null,,,,,,,,,,,,,,,
recall-period,608,1325690,19842.300000429153,"",,,,,,,,,,,bucket,,,,,
html-keyboard-response,609,1325797,null,"",null,,,,,,,,,,,,,,,
recall-period,610,1329275,15036.100000023842,"",,,,,,,,,,,bush,,,,,
html-keyboard-response,611,1329392,null,"",null,,,,,,,,,,,,,,,
recall-period,612,1332170,12714.000000357628,"",,,,,,,,,,,horse,,,,,
html-keyboard-response,613,1332275,null,"",null,,,,,,,,,,,,,,,
recall-period,614,1334714,10736.699999809265,"",,,,,,,,,,,nurse,,,,,
html-keyboard-response,615,1334818,null,"",null,,,,,,,,,,,,,,,
recall-period,616,1337530,12328.700000047684,"",,,,,,,,,,,shark,,,,,
html-keyboard-response,617,1337643,null,"",null,,,,,,,,,,,,,,,
recall-period,618,1342338,23907.500000357628,"",,,,,,,,,,,salmon,,,,,
html-keyboard-response,619,1342451,null,"",null,,,,,,,,,,,,,,,
recall-period,620,1346122,17919.800000429153,"",,,,,,,,,,,bucket,,,,,
html-keyboard-response,621,1346237,null,"",null,,,,,,,,,,,,,,,
recall-period,622,1390969,null,"",,,,,,,,,,,,,,,,
html-keyboard-response,623,1391488,null,"Time's Up!",null,,,,,,,,,,,,,,,
html-keyboard-response,624,1403007,11514.799999952316,"<p> Good job! You have responded correctly to 89% of the trials. </p>
                      <p>Be sure to only press the spacebar if you see a GREEN square, and please keep your accuracy above 80%.</p>
                      <p> Press any key to continue the experiment. </p>",32,,,,,,,,,,,,,,,
html-keyboard-response,625,1403917,908.9000000953674,"<div style=""font-size:48px;"">Press any key to begin list 7 of 16 </div>",32,,,,,,,,,,,,,,,
html-keyboard-response,626,1406447,null,"<div style=""font-size:60px;"">+</div>",null,,,,,,,,,,,,,,,
html-keyboard-response,627,1406650,null,"<div style=""font-size:42px;"">MARINE</div><img id = ""stim"" ><div class = red_square id = bottomsquare></div>",null,encoding,word_square,,,0,bottomsquare,none,true,,,MARINE,6,,,
html-keyboard-response,628,1406960,null,"<div style=""font-size:42px;"">MARINE</div>",null,,word,MARINE,,,,,,,,,,,,
html-keyboard-response,629,1408466,null,"",null,,word,MARINE,,,,,,,,,,,,
html-keyboard-response,630,1408682,null,"<div style=""font-size:42px;"">JOINT</div><img id = ""stim"" ><div class = green_square id = topsquare></div>",null,encoding,word_square,,,1,topsquare,32,true,,,JOINT,6,,,
html-keyboard-response,631,1408992,null,"<div style=""font-size:42px;"">JOINT</div>",null,,word,JOINT,,,,,,,,,,,,
html-keyboard-response,632,1410514,102.69999992847443,"",32,,word,JOINT,,,,,,,,,,,,
html-keyboard-response,633,1410727,null,"<div style=""font-size:42px;"">VESSEL</div><img id = ""stim"" ><div class = red_square id = topsquare></div>",null,encoding,word_square,,,0,topsquare,none,true,,,VESSEL,6,,,
html-keyboard-response,634,1411040,null,"<div style=""font-size:42px;"">VESSEL</div>",null,,word,VESSEL,,,,,,,,,,,,
html-keyboard-response,635,1412552,null,"",null,,word,VESSEL,,,,,,,,,,,,
html-keyboard-response,636,1412770,null,"<div style=""font-size:42px;"">COWBOY</div><img id = ""stim"" ><div class = red_square id = bottomsquare></div>",null,encoding,word_square,,,0,bottomsquare,none,true,,,COWBOY,6,,,
html-keyboard-response,637,1413081,null,"<div style=""font-size:42px;"">COWBOY</div>",null,,word,COWBOY,,,,,,,,,,,,
html-keyboard-response,638,1414591,null,"",null,,word,COWBOY,,,,,,,,,,,,
html-keyboard-response,639,1414810,null,"<div style=""font-size:42px;"">CONVICT</div><img id = ""stim"" ><div class = green_square id = bottomsquare></div>",null,encoding,word_square,,,1,bottomsquare,32,true,,,CONVICT,6,,,
html-keyboard-response,640,1415119,null,"<div style=""font-size:42px;"">CONVICT</div>",null,,word,CONVICT,,,,,,,,,,,,
html-keyboard-response,641,1416636,58.39999997615814,"",32,,word,CONVICT,,,,,,,,,,,,
html-keyboard-response,642,1416854,null,"<div style=""font-size:42px;"">COOK</div><img id = ""stim"" ><div class = red_square id = topsquare></div>",null,encoding,word_square,,,0,topsquare,none,true,,,COOK,6,,,
html-keyboard-response,643,1417163,null,"<div style=""font-size:42px;"">COOK</div>",null,,word,COOK,,,,,,,,,,,,
html-keyboard-response,644,1418668,null,"",null,,word,COOK,,,,,,,,,,,,
html-keyboard-response,645,1418886,null,"<div style=""font-size:42px;"">FROG</div><img id = ""stim"" ><div class = green_square id = topsquare></div>",null,encoding,word_square,,,1,topsquare,32,true,,,FROG,6,,,
html-keyboard-response,646,1419196,163,"<div style=""font-size:42px;"">FROG</div>",32,,word,FROG,,,,,,,,,,,,
html-keyboard-response,647,1420714,null,"",null,,word,FROG,,,,,,,,,,,,
html-keyboard-response,648,1420931,null,"<div style=""font-size:42px;"">PREACHER</div><img id = ""stim"" ><div class = green_square id = bottomsquare></div>",null,encoding,word_square,,,1,bottomsquare,32,false,,,PREACHER,6,,,
html-keyboard-response,649,1421241,null,"<div style=""font-size:42px;"">PREACHER</div>",null,,word,PREACHER,,,,,,,,,,,,
html-keyboard-response,650,1422745,null,"",null,,word,PREACHER,,,,,,,,,,,,
html-keyboard-response,651,1422961,null,"<div style=""font-size:42px;"">LAUNDRY</div><img id = ""stim"" ><div class = red_square id = bottomsquare></div>",null,encoding,word_square,,,0,bottomsquare,none,true,,,LAUNDRY,6,,,
html-keyboard-response,652,1423272,null,"<div style=""font-size:42px;"">LAUNDRY</div>",null,,word,LAUNDRY,,,,,,,,,,,,
html-keyboard-response,653,1424781,null,"",null,,word,LAUNDRY,,,,,,,,,,,,
html-keyboard-response,654,1424998,null,"<div style=""font-size:42px;"">TWISTER</div><img id = ""stim"" ><div class = red_square id = topsquare></div>",null,encoding,word_square,,,0,topsquare,none,true,,,TWISTER,6,,,
html-keyboard-response,655,1425305,null,"<div style=""font-size:42px;"">TWISTER</div>",null,,word,TWISTER,,,,,,,,,,,,
html-keyboard-response,656,1426814,null,"",null,,word,TWISTER,,,,,,,,,,,,
html-keyboard-response,657,1427033,null,"<div style=""font-size:42px;"">STAR</div><img id = ""stim"" ><div class = green_square id = topsquare></div>",null,encoding,word_square,,,1,topsquare,32,true,,,STAR,6,,,
html-keyboard-response,658,1427342,null,"<div style=""font-size:42px;"">STAR</div>",null,,word,STAR,,,,,,,,,,,,
html-keyboard-response,659,1428861,145.90000009536743,"",32,,word,STAR,,,,,,,,,,,,
html-keyboard-response,660,1429076,null,"<div style=""font-size:42px;"">MARS</div><img id = ""stim"" ><div class = green_square id = bottomsquare></div>",null,encoding,word_square,,,1,bottomsquare,32,true,,,MARS,6,,,
html-keyboard-response,661,1429388,null,"<div style=""font-size:42px;"">MARS</div>",null,,word,MARS,,,,,,,,,,,,
html-keyboard-response,662,1430904,77,"",32,,word,MARS,,,,,,,,,,,,
html-keyboard-response,663,1431119,null,"<div style=""font-size:42px;"">SADDLE</div><img id = ""stim"" ><div class = red_square id = bottomsquare></div>",null,encoding,word_square,,,0,bottomsquare,none,true,,,SADDLE,6,,,
html-keyboard-response,664,1431432,null,"<div style=""font-size:42px;"">SADDLE</div>",null,,word,SADDLE,,,,,,,,,,,,
html-keyboard-response,665,1432948,null,"",null,,word,SADDLE,,,,,,,,,,,,
html-keyboard-response,666,1433164,null,"<div style=""font-size:42px;"">CYCLONE</div><img id = ""stim"" ><div class = green_square id = topsquare></div>",null,encoding,word_square,,,1,topsquare,32,true,,,CYCLONE,6,,,
html-keyboard-response,667,1433468,253,"<div style=""font-size:42px;"">CYCLONE</div>",32,,word,CYCLONE,,,,,,,,,,,,
html-keyboard-response,668,1434981,null,"",null,,word,CYCLONE,,,,,,,,,,,,
html-keyboard-response,669,1435197,null,"<div style=""font-size:42px;"">SHEARS</div><img id = ""stim"" ><div class = green_square id = bottomsquare></div>",null,encoding,word_square,,,1,bottomsquare,32,true,,,SHEARS,6,,,
html-keyboard-response,670,1435510,155.69999992847443,"<div style=""font-size:42px;"">SHEARS</div>",32,,word,SHEARS,,,,,,,,,,,,
html-keyboard-response,671,1437015,null,"",null,,word,SHEARS,,,,,,,,,,,,
html-keyboard-response,672,1437231,null,"<div style=""font-size:42px;"">CLAM</div><img id = ""stim"" ><div class = red_square id = topsquare></div>",null,encoding,word_square,,,0,topsquare,none,true,,,CLAM,6,,,
html-keyboard-response,673,1437542,null,"<div style=""font-size:42px;"">CLAM</div>",null,,word,CLAM,,,,,,,,,,,,
html-keyboard-response,674,1439060,null,"",null,,word,CLAM,,,,,,,,,,,,
call-function,675,1439063,,"",,,,,,,,,,,,,,,,
html-keyboard-response,676,1439169,null,"",null,,,,,,,,,,,,,,,
math-period,677,1445498,11142.699999809265,"",,,,,,,,,,,3,,,,,
html-keyboard-response,678,1445603,null,"",null,,,,,,,,,,,,,,,
math-period,679,1448706,10452.900000095367,"",,,,,,,,,,,5,,,,,
html-keyboard-response,680,1448809,null,"",null,,,,,,,,,,,,,,,
math-period,681,1451506,5125.400000095367,"",,,,,,,,,,,0,,,,,
html-keyboard-response,682,1451619,null,"",null,,,,,,,,,,,,,,,
math-period,683,1454098,4609.900000095367,"",,,,,,,,,,,4,,,,,
html-keyboard-response,684,1454215,null,"",null,,,,,,,,,,,,,,,
math-period,685,1455466,2226.100000143051,"",,,,,,,,,,,5,,,,,
html-keyboard-response,686,1455570,null,"",null,,,,,,,,,,,,,,,
math-period,687,1456714,2090.6999999284744,"",,,,,,,,,,,5,,,,,
html-keyboard-response,688,1456828,null,"",null,,,,,,,,,,,,,,,
math-period,689,1457858,1863.6000001430511,"",,,,,,,,,,,5,,,,,
html-keyboard-response,690,1457969,null,"",null,,,,,,,,,,,,,,,
math-period,691,1459506,2686.899999976158,"",,,,,,,,,,,2,,,,,
html-keyboard-response,692,1459612,null,"",null,,,,,,,,,,,,,,,
math-period,693,1461666,3801.5000001192093,"",,,,,,,,,,,1,,,,,
html-keyboard-response,694,1461782,null,"",null,,,,,,,,,,,,,,,
math-period,695,1463068,1186.1000000238419,"",,,,,,,,,,,3,,,,,
html-keyboard-response,696,1464080,null,"Recall Period!",null,,,,,,,,,,,,,,,
call-function,697,1464084,,"",,,,,,,,,,,,,,,,
html-keyboard-response,698,1464199,null,"",null,,,,,,,,,,,,,,,
recall-period,699,1470169,27176.800000071526,"",,,,,,,,,,,joint,,,,,
html-keyboard-response,700,1470280,null,"",null,,,,,,,,,,,,,,,
recall-period,701,1472314,9133.400000095367,"",,,,,,,,,,,cowboy,,,,,
html-keyboard-response,702,1472426,null,"",null,,,,,,,,,,,,,,,
recall-period,703,1475170,14381.300000071526,"",,,,,,,,,,,frog,,,,,
html-keyboard-response,704,1475280,null,"",null,,,,,,,,,,,,,,,
recall-period,705,1477826,10268.999999761581,"",,,,,,,,,,,clam,,,,,
html-keyboard-response,706,1477939,null,"",null,,,,,,,,,,,,,,,
recall-period,707,1481850,13553.099999904633,"",,,,,,,,,,,star,,,,,
html-keyboard-response,708,1481954,null,"",null,,,,,,,,,,,,,,,
recall-period,709,1483850,5193.599999785423,"",,,,,,,,,,,mars,,,,,
html-keyboard-response,710,1483958,null,"",null,,,,,,,,,,,,,,,
recall-period,711,1539095,null,"",,,,,,,,,,,,,,,,
html-keyboard-response,712,1539605,null,"Time's Up!",null,,,,,,,,,,,,,,,
html-keyboard-response,713,1544652,5043.100000023842,"<p> Good job! You have responded correctly to 89% of the trials. </p>
                      <p>Be sure to only press the spacebar if you see a GREEN square, and please keep your accuracy above 80%.</p>
                      <p> Press any key to continue the experiment. </p>",32,,,,,,,,,,,,,,,
html-keyboard-response,714,1545643,987.6999999284744,"<div style=""font-size:48px;"">Press any key to begin list 8 of 16 </div>",32,,,,,,,,,,,,,,,
html-keyboard-response,715,1548153,null,"<div style=""font-size:60px;"">+</div>",null,,,,,,,,,,,,,,,
html-keyboard-response,716,1548371,null,"<div style=""font-size:42px;"">CABIN</div><img id = ""stim"" ><div class = red_square id = topsquare></div>",null,encoding,word_square,,,0,topsquare,none,true,,,CABIN,7,,,
html-keyboard-response,717,1548681,null,"<div style=""font-size:42px;"">CABIN</div>",null,,word,CABIN,,,,,,,,,,,,
html-keyboard-response,718,1550187,null,"",null,,word,CABIN,,,,,,,,,,,,
html-keyboard-response,719,1550403,null,"<div style=""font-size:42px;"">HOOK</div><img id = ""stim"" ><div class = green_square id = bottomsquare></div>",null,encoding,word_square,,,1,bottomsquare,32,true,,,HOOK,7,,,
html-keyboard-response,720,1550706,260.5,"<div style=""font-size:42px;"">HOOK</div>",32,,word,HOOK,,,,,,,,,,,,
html-keyboard-response,721,1552223,null,"",null,,word,HOOK,,,,,,,,,,,,
html-keyboard-response,722,1552435,null,"<div style=""font-size:42px;"">ANGEL</div><img id = ""stim"" ><div class = green_square id = topsquare></div>",null,encoding,word_square,,,1,topsquare,32,true,,,ANGEL,7,,,
html-keyboard-response,723,1552738,270.10000002384186,"<div style=""font-size:42px;"">ANGEL</div>",32,,word,ANGEL,,,,,,,,,,,,
html-keyboard-response,724,1554251,null,"",null,,word,ANGEL,,,,,,,,,,,,
html-keyboard-response,725,1554466,null,"<div style=""font-size:42px;"">TRIBE</div><img id = ""stim"" ><div class = red_square id = bottomsquare></div>",null,encoding,word_square,,,0,bottomsquare,none,true,,,TRIBE,7,,,
html-keyboard-response,726,1554777,null,"<div style=""font-size:42px;"">TRIBE</div>",null,,word,TRIBE,,,,,,,,,,,,
html-keyboard-response,727,1556286,null,"",null,,word,TRIBE,,,,,,,,,,,,
html-keyboard-response,728,1556500,null,"<div style=""font-size:42px;"">HANDBAG</div><img id = ""stim"" ><div class = green_square id = bottomsquare></div>",null,encoding,word_square,,,1,bottomsquare,32,true,,,HANDBAG,7,,,
html-keyboard-response,729,1556811,166.20000004768372,"<div style=""font-size:42px;"">HANDBAG</div>",32,,word,HANDBAG,,,,,,,,,,,,
html-keyboard-response,730,1558317,null,"",null,,word,HANDBAG,,,,,,,,,,,,
html-keyboard-response,731,1558535,null,"<div style=""font-size:42px;"">ICEBERG</div><img id = ""stim"" ><div class = green_square id = topsquare></div>",null,encoding,word_square,,,1,topsquare,32,true,,,ICEBERG,7,,,
html-keyboard-response,732,1558847,null,"<div style=""font-size:42px;"">ICEBERG</div>",null,,word,ICEBERG,,,,,,,,,,,,
html-keyboard-response,733,1560365,24.299999952316284,"",32,,word,ICEBERG,,,,,,,,,,,,
html-keyboard-response,734,1560583,null,"<div style=""font-size:42px;"">CURTAIN</div><img id = ""stim"" ><div class = red_square id = topsquare></div>",null,encoding,word_square,,,0,topsquare,none,true,,,CURTAIN,7,,,
html-keyboard-response,735,1560894,null,"<div style=""font-size:42px;"">CURTAIN</div>",null,,word,CURTAIN,,,,,,,,,,,,
html-keyboard-response,736,1562411,null,"",null,,word,CURTAIN,,,,,,,,,,,,
html-keyboard-response,737,1562629,null,"<div style=""font-size:42px;"">WINDOW</div><img id = ""stim"" ><div class = red_square id = bottomsquare></div>",null,encoding,word_square,,,0,bottomsquare,none,true,,,WINDOW,7,,,
html-keyboard-response,738,1562941,null,"<div style=""font-size:42px;"">WINDOW</div>",null,,word,WINDOW,,,,,,,,,,,,
html-keyboard-response,739,1564456,null,"",null,,word,WINDOW,,,,,,,,,,,,
html-keyboard-response,740,1564659,null,"<div style=""font-size:42px;"">ARM</div><img id = ""stim"" ><div class = green_square id = bottomsquare></div>",null,encoding,word_square,,,1,bottomsquare,32,true,,,ARM,7,,,
html-keyboard-response,741,1564962,211.89999997615814,"<div style=""font-size:42px;"">ARM</div>",32,,word,ARM,,,,,,,,,,,,
html-keyboard-response,742,1566483,null,"",null,,word,ARM,,,,,,,,,,,,
html-keyboard-response,743,1566698,null,"<div style=""font-size:42px;"">TROUT</div><img id = ""stim"" ><div class = green_square id = topsquare></div>",null,encoding,word_square,,,1,topsquare,32,true,,,TROUT,7,,,
html-keyboard-response,744,1567008,175.29999995231628,"<div style=""font-size:42px;"">TROUT</div>",32,,word,TROUT,,,,,,,,,,,,
html-keyboard-response,745,1568515,null,"",null,,word,TROUT,,,,,,,,,,,,
html-keyboard-response,746,1568731,null,"<div style=""font-size:42px;"">MARROW</div><img id = ""stim"" ><div class = red_square id = topsquare></div>",null,encoding,word_square,,,0,topsquare,none,true,,,MARROW,7,,,
html-keyboard-response,747,1569042,null,"<div style=""font-size:42px;"">MARROW</div>",null,,word,MARROW,,,,,,,,,,,,
html-keyboard-response,748,1570551,null,"",null,,word,MARROW,,,,,,,,,,,,
html-keyboard-response,749,1570767,null,"<div style=""font-size:42px;"">BODY</div><img id = ""stim"" ><div class = green_square id = bottomsquare></div>",null,encoding,word_square,,,1,bottomsquare,32,true,,,BODY,7,,,
html-keyboard-response,750,1571071,240.79999995231628,"<div style=""font-size:42px;"">BODY</div>",32,,word,BODY,,,,,,,,,,,,
html-keyboard-response,751,1572581,null,"",null,,word,BODY,,,,,,,,,,,,
html-keyboard-response,752,1572798,null,"<div style=""font-size:42px;"">KNIFE</div><img id = ""stim"" ><div class = red_square id = bottomsquare></div>",null,encoding,word_square,,,0,bottomsquare,none,true,,,KNIFE,7,,,
html-keyboard-response,753,1573107,null,"<div style=""font-size:42px;"">KNIFE</div>",null,,word,KNIFE,,,,,,,,,,,,
html-keyboard-response,754,1574617,null,"",null,,word,KNIFE,,,,,,,,,,,,
html-keyboard-response,755,1574836,null,"<div style=""font-size:42px;"">PEOPLE</div><img id = ""stim"" ><div class = red_square id = topsquare></div>",null,encoding,word_square,,,0,topsquare,none,true,,,PEOPLE,7,,,
html-keyboard-response,756,1575151,null,"<div style=""font-size:42px;"">PEOPLE</div>",null,,word,PEOPLE,,,,,,,,,,,,
html-keyboard-response,757,1576666,null,"",null,,word,PEOPLE,,,,,,,,,,,,
html-keyboard-response,758,1576883,null,"<div style=""font-size:42px;"">KLEENEX</div><img id = ""stim"" ><div class = green_square id = topsquare></div>",null,encoding,word_square,,,1,topsquare,32,true,,,KLEENEX,7,,,
html-keyboard-response,759,1577190,null,"<div style=""font-size:42px;"">KLEENEX</div>",null,,word,KLEENEX,,,,,,,,,,,,
html-keyboard-response,760,1578695,202.5,"",32,,word,KLEENEX,,,,,,,,,,,,
html-keyboard-response,761,1578913,null,"<div style=""font-size:42px;"">SERGEANT</div><img id = ""stim"" ><div class = red_square id = bottomsquare></div>",null,encoding,word_square,,,0,bottomsquare,none,true,,,SERGEANT,7,,,
html-keyboard-response,762,1579227,null,"<div style=""font-size:42px;"">SERGEANT</div>",null,,word,SERGEANT,,,,,,,,,,,,
html-keyboard-response,763,1580744,null,"",null,,word,SERGEANT,,,,,,,,,,,,
call-function,764,1580747,,"",,,,,,,,,,,,,,,,
html-keyboard-response,765,1580851,null,"",null,,,,,,,,,,,,,,,
math-period,766,1583593,5015.400000095367,"",,,,,,,,,,,3,,,,,
html-keyboard-response,767,1583703,null,"",null,,,,,,,,,,,,,,,
math-period,768,1585865,6928.199999928474,"",,,,,,,,,,,5,,,,,
html-keyboard-response,769,1585973,null,"",null,,,,,,,,,,,,,,,
math-period,770,1587961,3678.899999856949,"",,,,,,,,,,,1,,,,,
html-keyboard-response,771,1588075,null,"",null,,,,,,,,,,,,,,,
math-period,772,1589873,3305.0000001192093,"",,,,,,,,,,,6,,,,,
html-keyboard-response,773,1589977,null,"",null,,,,,,,,,,,,,,,
math-period,774,1591522,2828.600000023842,"",,,,,,,,,,,2,,,,,
html-keyboard-response,775,1591630,null,"",null,,,,,,,,,,,,,,,
math-period,776,1593809,4096.899999976158,"",,,,,,,,,,,0,,,,,
html-keyboard-response,777,1593925,null,"",null,,,,,,,,,,,,,,,
math-period,778,1595889,3693.0999999046326,"",,,,,,,,,,,1,,,,,
html-keyboard-response,779,1595992,null,"",null,,,,,,,,,,,,,,,
math-period,780,1598137,3840.6999999284744,"",,,,,,,,,,,5,,,,,
html-keyboard-response,781,1598244,null,"",null,,,,,,,,,,,,,,,
math-period,782,1600049,3293.8000000715256,"",,,,,,,,,,,4,,,,,
html-keyboard-response,783,1600160,null,"",null,,,,,,,,,,,,,,,
math-period,784,1602137,3486.5,"",,,,,,,,,,,4,,,,,
html-keyboard-response,785,1602252,null,"",null,,,,,,,,,,,,,,,
math-period,786,1604759,null,"",,,,,,,,,,,,,,,,
html-keyboard-response,787,1605775,null,"Recall Period!",null,,,,,,,,,,,,,,,
call-function,788,1605777,,"",,,,,,,,,,,,,,,,
html-keyboard-response,789,1605883,null,"",null,,,,,,,,,,,,,,,
recall-period,790,1619194,13308.300000071526,"",,,,,,,,,,,,,,,,
html-keyboard-response,791,1619306,null,"",null,,,,,,,,,,,,,,,
recall-period,792,1623634,16643.299999833107,"",,,,,,,,,,,hook,,,,,
html-keyboard-response,793,1623738,null,"",null,,,,,,,,,,,,,,,
recall-period,794,1625506,7271.200000166893,"",,,,,,,,,,,tribe,,,,,
html-keyboard-response,795,1625610,null,"",null,,,,,,,,,,,,,,,
recall-period,796,1628826,13986.800000190735,"",,,,,,,,,,,people,,,,,
html-keyboard-response,797,1628940,null,"",null,,,,,,,,,,,,,,,
recall-period,798,1633474,20097.099999785423,"",,,,,,,,,,,iceberg,,,,,
html-keyboard-response,799,1633577,null,"",null,,,,,,,,,,,,,,,
recall-period,800,1635138,4241.200000286102,"",,,,,,,,,,,arm,,,,,
html-keyboard-response,801,1635245,null,"",null,,,,,,,,,,,,,,,
recall-period,802,1637466,8742.900000214577,"",,,,,,,,,,,body,,,,,
html-keyboard-response,803,1637577,null,"",null,,,,,,,,,,,,,,,
recall-period,804,1680791,null,"",,,,,,,,,,,,,,,,
html-keyboard-response,805,1681298,null,"Time's Up!",null,,,,,,,,,,,,,,,
html-keyboard-response,806,1685278,3975.7999999523163,"<p> Good job! You have responded correctly to 91% of the trials. </p>
                      <p>Be sure to only press the spacebar if you see a GREEN square, and please keep your accuracy above 80%.</p>
                      <p> Press any key to continue the experiment. </p>",32,,,,,,,,,,,,,,,
html-keyboard-response,807,1688195,2914.4000000953674,"<div style=""font-size:48px;"">Press any key to begin list 9 of 16 </div>",32,,,,,,,,,,,,,,,
html-keyboard-response,808,1690721,null,"<div style=""font-size:60px;"">+</div>",null,,,,,,,,,,,,,,,
html-keyboard-response,809,1690935,null,"<div style=""font-size:42px;"">PORT</div><img id = ""stim"" ><div class = green_square id = topsquare></div>",null,encoding,word_square,,,1,topsquare,32,true,,,PORT,8,,,
html-keyboard-response,810,1691246,257.1999999284744,"<div style=""font-size:42px;"">PORT</div>",32,,word,PORT,,,,,,,,,,,,
html-keyboard-response,811,1692754,null,"",null,,word,PORT,,,,,,,,,,,,
html-keyboard-response,812,1692971,null,"<div style=""font-size:42px;"">CAPE</div><img id = ""stim"" ><div class = red_square id = bottomsquare></div>",null,encoding,word_square,,,0,bottomsquare,none,true,,,CAPE,8,,,
html-keyboard-response,813,1693280,null,"<div style=""font-size:42px;"">CAPE</div>",null,,word,CAPE,,,,,,,,,,,,
html-keyboard-response,814,1694793,null,"",null,,word,CAPE,,,,,,,,,,,,
html-keyboard-response,815,1695013,null,"<div style=""font-size:42px;"">ICING</div><img id = ""stim"" ><div class = red_square id = topsquare></div>",null,encoding,word_square,,,0,topsquare,none,true,,,ICING,8,,,
html-keyboard-response,816,1695322,null,"<div style=""font-size:42px;"">ICING</div>",null,,word,ICING,,,,,,,,,,,,
html-keyboard-response,817,1696835,null,"",null,,word,ICING,,,,,,,,,,,,
html-keyboard-response,818,1697051,null,"<div style=""font-size:42px;"">PISTOL</div><img id = ""stim"" ><div class = green_square id = bottomsquare></div>",null,encoding,word_square,,,1,bottomsquare,32,true,,,PISTOL,8,,,
html-keyboard-response,819,1697362,null,"<div style=""font-size:42px;"">PISTOL</div>",null,,word,PISTOL,,,,,,,,,,,,
html-keyboard-response,820,1698876,21.90000009536743,"",32,,word,PISTOL,,,,,,,,,,,,
html-keyboard-response,821,1699094,null,"<div style=""font-size:42px;"">CATCHER</div><img id = ""stim"" ><div class = red_square id = bottomsquare></div>",null,encoding,word_square,,,0,bottomsquare,none,true,,,CATCHER,8,,,
html-keyboard-response,822,1699408,null,"<div style=""font-size:42px;"">CATCHER</div>",null,,word,CATCHER,,,,,,,,,,,,
html-keyboard-response,823,1700927,null,"",null,,word,CATCHER,,,,,,,,,,,,
html-keyboard-response,824,1701144,null,"<div style=""font-size:42px;"">SHAMPOO</div><img id = ""stim"" ><div class = green_square id = topsquare></div>",null,encoding,word_square,,,1,topsquare,32,true,,,SHAMPOO,8,,,
html-keyboard-response,825,1701447,256.89999997615814,"<div style=""font-size:42px;"">SHAMPOO</div>",18,,word,SHAMPOO,,,,,,,,,,,,
html-keyboard-response,826,1702966,648.3999999761581,"",32,,word,SHAMPOO,,,,,,,,,,,,
html-keyboard-response,827,1703184,null,"<div style=""font-size:42px;"">LITTER</div><img id = ""stim"" ><div class = green_square id = bottomsquare></div>",null,encoding,word_square,,,1,bottomsquare,32,true,,,LITTER,8,,,
html-keyboard-response,828,1703496,null,"<div style=""font-size:42px;"">LITTER</div>",null,,word,LITTER,,,,,,,,,,,,
html-keyboard-response,829,1705012,462.5,"",32,,word,LITTER,,,,,,,,,,,,
html-keyboard-response,830,1705231,null,"<div style=""font-size:42px;"">COUNTRY</div><img id = ""stim"" ><div class = red_square id = topsquare></div>",null,encoding,word_square,,,0,topsquare,none,true,,,COUNTRY,8,,,
html-keyboard-response,831,1705540,null,"<div style=""font-size:42px;"">COUNTRY</div>",null,,word,COUNTRY,,,,,,,,,,,,
html-keyboard-response,832,1707044,null,"",null,,word,COUNTRY,,,,,,,,,,,,
html-keyboard-response,833,1707260,null,"<div style=""font-size:42px;"">INMATE</div><img id = ""stim"" ><div class = red_square id = bottomsquare></div>",null,encoding,word_square,,,0,bottomsquare,none,true,,,INMATE,8,,,
html-keyboard-response,834,1707575,null,"<div style=""font-size:42px;"">INMATE</div>",null,,word,INMATE,,,,,,,,,,,,
html-keyboard-response,835,1709095,null,"",null,,word,INMATE,,,,,,,,,,,,
html-keyboard-response,836,1709310,null,"<div style=""font-size:42px;"">SUSPECT</div><img id = ""stim"" ><div class = green_square id = topsquare></div>",null,encoding,word_square,,,1,topsquare,32,true,,,SUSPECT,8,,,
html-keyboard-response,837,1709620,null,"<div style=""font-size:42px;"">SUSPECT</div>",null,,word,SUSPECT,,,,,,,,,,,,
html-keyboard-response,838,1711129,75.60000002384186,"",32,,word,SUSPECT,,,,,,,,,,,,
html-keyboard-response,839,1711343,null,"<div style=""font-size:42px;"">TUNNEL</div><img id = ""stim"" ><div class = red_square id = topsquare></div>",null,encoding,word_square,,,0,topsquare,none,true,,,TUNNEL,8,,,
html-keyboard-response,840,1711654,null,"<div style=""font-size:42px;"">TUNNEL</div>",null,,word,TUNNEL,,,,,,,,,,,,
html-keyboard-response,841,1713165,null,"",null,,word,TUNNEL,,,,,,,,,,,,
html-keyboard-response,842,1713380,null,"<div style=""font-size:42px;"">BANJO</div><img id = ""stim"" ><div class = green_square id = bottomsquare></div>",null,encoding,word_square,,,1,bottomsquare,32,true,,,BANJO,8,,,
html-keyboard-response,843,1713693,null,"<div style=""font-size:42px;"">BANJO</div>",null,,word,BANJO,,,,,,,,,,,,
html-keyboard-response,844,1715209,378.39999997615814,"",32,,word,BANJO,,,,,,,,,,,,
html-keyboard-response,845,1715428,null,"<div style=""font-size:42px;"">PRINCESS</div><img id = ""stim"" ><div class = red_square id = bottomsquare></div>",null,encoding,word_square,,,0,bottomsquare,none,true,,,PRINCESS,8,,,
html-keyboard-response,846,1715735,null,"<div style=""font-size:42px;"">PRINCESS</div>",null,,word,PRINCESS,,,,,,,,,,,,
html-keyboard-response,847,1717246,null,"",null,,word,PRINCESS,,,,,,,,,,,,
html-keyboard-response,848,1717462,null,"<div style=""font-size:42px;"">EARRING</div><img id = ""stim"" ><div class = red_square id = topsquare></div>",null,encoding,word_square,,,0,topsquare,none,true,,,EARRING,8,,,
html-keyboard-response,849,1717773,null,"<div style=""font-size:42px;"">EARRING</div>",null,,word,EARRING,,,,,,,,,,,,
html-keyboard-response,850,1719288,null,"",null,,word,EARRING,,,,,,,,,,,,
html-keyboard-response,851,1719511,null,"<div style=""font-size:42px;"">FIDDLE</div><img id = ""stim"" ><div class = green_square id = topsquare></div>",null,encoding,word_square,,,1,topsquare,32,true,,,FIDDLE,8,,,
html-keyboard-response,852,1719821,null,"<div style=""font-size:42px;"">FIDDLE</div>",null,,word,FIDDLE,,,,,,,,,,,,
html-keyboard-response,853,1721330,547.2999999523163,"",32,,word,FIDDLE,,,,,,,,,,,,
html-keyboard-response,854,1721547,null,"<div style=""font-size:42px;"">SHINGLE</div><img id = ""stim"" ><div class = green_square id = bottomsquare></div>",null,encoding,word_square,,,1,bottomsquare,32,true,,,SHINGLE,8,,,
html-keyboard-response,855,1721856,null,"<div style=""font-size:42px;"">SHINGLE</div>",null,,word,SHINGLE,,,,,,,,,,,,
html-keyboard-response,856,1723360,335.89999997615814,"",32,,word,SHINGLE,,,,,,,,,,,,
call-function,857,1723363,,"",,,,,,,,,,,,,,,,
html-keyboard-response,858,1723469,null,"",null,,,,,,,,,,,,,,,
math-period,859,1728353,8861.299999952316,"",,,,,,,,,,,4,,,,,
html-keyboard-response,860,1728466,null,"",null,,,,,,,,,,,,,,,
math-period,861,1730961,4756.400000095367,"",,,,,,,,,,,2,,,,,
html-keyboard-response,862,1731067,null,"",null,,,,,,,,,,,,,,,
math-period,863,1732841,3377.9000000953674,"",,,,,,,,,,,2,,,,,
html-keyboard-response,864,1732947,null,"",null,,,,,,,,,,,,,,,
math-period,865,1734537,2807.9999998807907,"",,,,,,,,,,,3,,,,,
html-keyboard-response,866,1734640,null,"",null,,,,,,,,,,,,,,,
math-period,867,1736289,2887.1999999284744,"",,,,,,,,,,,5,,,,,
html-keyboard-response,868,1736392,null,"",null,,,,,,,,,,,,,,,
math-period,869,1738481,3926.100000023842,"",,,,,,,,,,,5,,,,,
html-keyboard-response,870,1738587,null,"",null,,,,,,,,,,,,,,,
math-period,871,1740408,3455.399999856949,"",,,,,,,,,,,4,,,,,
html-keyboard-response,872,1740515,null,"",null,,,,,,,,,,,,,,,
math-period,873,1742768,4294.199999928474,"",,,,,,,,,,,2,,,,,
html-keyboard-response,874,1742872,null,"",null,,,,,,,,,,,,,,,
math-period,875,1745809,5436.700000047684,"",,,,,,,,,,,4,,,,,
html-keyboard-response,876,1745914,null,"",null,,,,,,,,,,,,,,,
math-period,877,1747240,2368.399999976158,"",,,,,,,,,,,3,,,,,
html-keyboard-response,878,1747351,null,"",null,,,,,,,,,,,,,,,
math-period,879,1747365,null,"",,,,,,,,,,,,,,,,
