trial_type,trial_index,time_elapsed,rt,stimulus,key_press,exp_phase,test_part,word,task,targ_cond,sq_pos,correctKeyCode,correct,value,response,Word,List,RecResp,serial_pos,colorChosen
pavlovia,0,2497,,"",,,,,,,,,,,,,,,,
external-html,1,51614,48954.39999999991,"",,,,,,,,,,,,,,,,
html-keyboard-response,2,55607,3990.2000000001863,"Welcome to the experiment. Press any key to begin.",17,,,,,,,,,,,,,,,
html-keyboard-response,3,55766,157.6999999997206,"<p>You will see a list of words and colored squares in the following task.<p><p>Press the spacebar whenever you see a GREEN square.<p><p>Do not press a key if the square is RED.<p><p>Press the spacebar to continue.</p>",187,,,,,,,,,,,,,,,
html-keyboard-response,4,68466,12192.600000000093,"<p>Please try to remember as many of the words as you can, and try to think about the meaning of each word as it appears.<p><p>After the detection and encoding task you will be asked to solve some math problems for 24 seconds.<p> Please solve as many problems as you can in the time given. <p><p><p>Press the spacebar to continue.</p>",32,,,,,,,,,,,,,,,
html-keyboard-response,5,80154,11184.099999999627,"After solving the math problems, you will be asked to type in as many words <p>from the previous list as you can remember for 75 seconds.<p> If you finish recalling before the 75 seconds are up,<p> just sit tight and try to think of any more words you could have missed. <p><p><p>Press the spacebar to continue.</p>",32,,,,,,,,,,,,,,,
html-keyboard-response,6,87209,6544.699999999721,"There will be 16 lists of words and recall, followed  by<p><p> a recognition phase. The experiment is expected to take up to 90 minutes.<p>We will begin with a brief practice session.<p>Press the spacebar to begin the practice.</p>",32,,,,,,,,,,,,,,,
html-keyboard-response,7,89728,null,"<div style=""font-size:60px;"">+</div>",null,,,,,,,,,,,,,,,
html-keyboard-response,8,89932,null,"<div style=""font-size:42px;"">HAPPY</div><img id = ""stim"" ><div class = red_square id = ""bottomsquare"" ></div>",null,practice,word_square,HAPPY,prac_response,0,Bottom,none,true,,,,,,,
html-keyboard-response,9,90241,null,"<div style=""font-size:42px;"">HAPPY</div>",null,,word,HAPPY,,,,,,,,,,,,
html-keyboard-response,10,91744,null,"",null,,word,HAPPY,,,,,,,,,,,,
html-keyboard-response,11,91954,null,"<div style=""font-size:42px;"">COLD</div><img id = ""stim"" ><div class = green_square id = ""bottomsquare"" ></div>",null,practice,word_square,COLD,prac_response,1,Bottom,32,false,,,,,,,
html-keyboard-response,12,92261,null,"<div style=""font-size:42px;"">COLD</div>",null,,word,COLD,,,,,,,,,,,,
html-keyboard-response,13,93772,null,"",null,,word,COLD,,,,,,,,,,,,
html-keyboard-response,14,93980,null,"<div style=""font-size:42px;"">HEAVY</div><img id = ""stim"" ><div class = green_square id = ""topsquare"" ></div>",null,practice,word_square,HEAVY,prac_response,1,Top,32,false,,,,,,,
html-keyboard-response,15,94287,null,"<div style=""font-size:42px;"">HEAVY</div>",null,,word,HEAVY,,,,,,,,,,,,
html-keyboard-response,16,95789,null,"",null,,word,HEAVY,,,,,,,,,,,,
html-keyboard-response,17,95990,null,"<div style=""font-size:42px;"">FUNNY</div><img id = ""stim"" ><div class = red_square id = ""topsquare"" ></div>",null,practice,word_square,FUNNY,prac_response,0,Top,none,true,,,,,,,
html-keyboard-response,18,96291,null,"<div style=""font-size:42px;"">FUNNY</div>",null,,word,FUNNY,,,,,,,,,,,,
html-keyboard-response,19,97801,null,"",null,,word,FUNNY,,,,,,,,,,,,
html-keyboard-response,20,98008,null,"<div style=""font-size:42px;"">SCARY</div><img id = ""stim"" ><div class = green_square id = ""bottomsquare"" ></div>",null,practice,word_square,SCARY,prac_response,1,Bottom,32,false,,,,,,,
html-keyboard-response,21,98316,null,"<div style=""font-size:42px;"">SCARY</div>",null,,word,SCARY,,,,,,,,,,,,
html-keyboard-response,22,99822,null,"",null,,word,SCARY,,,,,,,,,,,,
html-keyboard-response,23,100033,null,"<div style=""font-size:42px;"">PEACEFUL</div><img id = ""stim"" ><div class = green_square id = ""topsquare"" ></div>",null,practice,word_square,PEACEFUL,prac_response,1,Top,32,false,,,,,,,
html-keyboard-response,24,100349,null,"<div style=""font-size:42px;"">PEACEFUL</div>",null,,word,PEACEFUL,,,,,,,,,,,,
html-keyboard-response,25,101859,null,"",null,,word,PEACEFUL,,,,,,,,,,,,
html-keyboard-response,26,102074,null,"<div style=""font-size:42px;"">LITTLE</div><img id = ""stim"" ><div class = red_square id = ""bottomsquare"" ></div>",null,practice,word_square,LITTLE,prac_response,0,Bottom,none,true,,,,,,,
html-keyboard-response,27,102380,null,"<div style=""font-size:42px;"">LITTLE</div>",null,,word,LITTLE,,,,,,,,,,,,
html-keyboard-response,28,103889,null,"",null,,word,LITTLE,,,,,,,,,,,,
html-keyboard-response,29,104101,null,"<div style=""font-size:42px;"">TIRED</div><img id = ""stim"" ><div class = red_square id = ""topsquare"" ></div>",null,practice,word_square,TIRED,prac_response,0,Top,none,true,,,,,,,
html-keyboard-response,30,104407,null,"<div style=""font-size:42px;"">TIRED</div>",null,,word,TIRED,,,,,,,,,,,,
html-keyboard-response,31,105916,null,"",null,,word,TIRED,,,,,,,,,,,,
html-keyboard-response,32,106127,null,"<div style=""font-size:42px;"">ENTERTAINING</div><img id = ""stim"" ><div class = red_square id = ""bottomsquare"" ></div>",null,practice,word_square,ENTERTAINING,prac_response,0,Bottom,none,true,,,,,,,
html-keyboard-response,33,106434,null,"<div style=""font-size:42px;"">ENTERTAINING</div>",null,,word,ENTERTAINING,,,,,,,,,,,,
html-keyboard-response,34,107935,null,"",null,,word,ENTERTAINING,,,,,,,,,,,,
html-keyboard-response,35,108151,null,"<div style=""font-size:42px;"">GRATEFUL</div><img id = ""stim"" ><div class = green_square id = ""bottomsquare"" ></div>",null,practice,word_square,GRATEFUL,prac_response,1,Bottom,32,false,,,,,,,
html-keyboard-response,36,108461,null,"<div style=""font-size:42px;"">GRATEFUL</div>",null,,word,GRATEFUL,,,,,,,,,,,,
html-keyboard-response,37,109964,null,"",null,,word,GRATEFUL,,,,,,,,,,,,
html-keyboard-response,38,110180,null,"<div style=""font-size:42px;"">LOUD</div><img id = ""stim"" ><div class = red_square id = ""topsquare"" ></div>",null,practice,word_square,LOUD,prac_response,0,Top,none,true,,,,,,,
html-keyboard-response,39,110482,null,"<div style=""font-size:42px;"">LOUD</div>",null,,word,LOUD,,,,,,,,,,,,
html-keyboard-response,40,111989,null,"",null,,word,LOUD,,,,,,,,,,,,
html-keyboard-response,41,112190,null,"<div style=""font-size:42px;"">SMART</div><img id = ""stim"" ><div class = green_square id = ""topsquare"" ></div>",null,practice,word_square,SMART,prac_response,1,Top,32,false,,,,,,,
html-keyboard-response,42,112493,null,"<div style=""font-size:42px;"">SMART</div>",null,,word,SMART,,,,,,,,,,,,
html-keyboard-response,43,114008,null,"",null,,word,SMART,,,,,,,,,,,,
html-keyboard-response,44,114213,null,"<div style=""font-size:42px;"">SMOOTH</div><img id = ""stim"" ><div class = green_square id = ""bottomsquare"" ></div>",null,practice,word_square,SMOOTH,prac_response,1,Bottom,32,false,,,,,,,
html-keyboard-response,45,114529,null,"<div style=""font-size:42px;"">SMOOTH</div>",null,,word,SMOOTH,,,,,,,,,,,,
html-keyboard-response,46,116043,null,"",null,,word,SMOOTH,,,,,,,,,,,,
html-keyboard-response,47,116245,null,"<div style=""font-size:42px;"">DISHONEST</div><img id = ""stim"" ><div class = red_square id = ""bottomsquare"" ></div>",null,practice,word_square,DISHONEST,prac_response,0,Bottom,none,true,,,,,,,
html-keyboard-response,48,116556,null,"<div style=""font-size:42px;"">DISHONEST</div>",null,,word,DISHONEST,,,,,,,,,,,,
html-keyboard-response,49,118068,null,"",null,,word,DISHONEST,,,,,,,,,,,,
html-keyboard-response,50,118283,null,"<div style=""font-size:42px;"">WEALTHY</div><img id = ""stim"" ><div class = green_square id = ""topsquare"" ></div>",null,practice,word_square,WEALTHY,prac_response,1,Top,32,false,,,,,,,
html-keyboard-response,51,118588,null,"<div style=""font-size:42px;"">WEALTHY</div>",null,,word,WEALTHY,,,,,,,,,,,,
html-keyboard-response,52,120089,null,"",null,,word,WEALTHY,,,,,,,,,,,,
html-keyboard-response,53,120306,null,"<div style=""font-size:42px;"">BEAUTIFUL</div><img id = ""stim"" ><div class = red_square id = ""topsquare"" ></div>",null,practice,word_square,BEAUTIFUL,prac_response,0,Top,none,true,,,,,,,
html-keyboard-response,54,120608,null,"<div style=""font-size:42px;"">BEAUTIFUL</div>",null,,word,BEAUTIFUL,,,,,,,,,,,,
html-keyboard-response,55,122124,null,"",null,,word,BEAUTIFUL,,,,,,,,,,,,
html-keyboard-response,56,139204,17078.100000000093,"<p> Uh oh. You responded correctly to only 50% of the trials. </p>
                  <p>Be sure to only press the spacebar if you see a GREEN square, and please keep your accuracy above 80%.</p>
                  <p>We're going to try once more to make sure you understand the task. press any key to continue.</p>",32,,,,,,,,,,,,,,,
html-keyboard-response,57,143619,4414.200000000186,"<p>You will see a list of words and colored squares in the following task.<p><p>Press the spacebar whenever you see a GREEN square.<p><p>Do not press a key if the square is RED<p><p>Press the spacebar to continue.</p>",32,,,,,,,,,,,,,,,
html-keyboard-response,58,146124,null,"<div style=""font-size:60px;"">+</div>",null,,,,,,,,,,,,,,,
html-keyboard-response,59,146328,null,"<div style=""font-size:42px;"">HAPPY</div><img id = ""stim"" ><div class = red_square id = ""bottomsquare"" ></div>",null,practice2,word_square,HAPPY,prac_response,0,Bottom,none,true,,,,,,,
html-keyboard-response,60,146636,null,"<div style=""font-size:42px;"">HAPPY</div>",null,,word,HAPPY,,,,,,,,,,,,
html-keyboard-response,61,148143,null,"",null,,word,HAPPY,,,,,,,,,,,,
html-keyboard-response,62,148356,null,"<div style=""font-size:42px;"">COLD</div><img id = ""stim"" ><div class = green_square id = ""bottomsquare"" ></div>",null,practice2,word_square,,prac_response,1,Bottom,32,true,,,,,,,
html-keyboard-response,63,148664,null,"<div style=""font-size:42px;"">COLD</div>",null,,word,COLD,,,,,,,,,,,,
html-keyboard-response,64,150171,58.1999999997206,"",32,,word,COLD,,,,,,,,,,,,
html-keyboard-response,65,150383,null,"<div style=""font-size:42px;"">HEAVY</div><img id = ""stim"" ><div class = green_square id = ""topsquare"" ></div>",null,practice2,word_square,,prac_response,1,Top,32,true,,,,,,,
html-keyboard-response,66,150690,227.5,"<div style=""font-size:42px;"">HEAVY</div>",32,,word,HEAVY,,,,,,,,,,,,
html-keyboard-response,67,152199,null,"",null,,word,HEAVY,,,,,,,,,,,,
html-keyboard-response,68,152407,null,"<div style=""font-size:42px;"">FUNNY</div><img id = ""stim"" ><div class = red_square id = ""topsquare"" ></div>",null,practice2,word_square,,prac_response,0,Top,none,true,,,,,,,
html-keyboard-response,69,152716,null,"<div style=""font-size:42px;"">FUNNY</div>",null,,word,FUNNY,,,,,,,,,,,,
html-keyboard-response,70,154224,null,"",null,,word,FUNNY,,,,,,,,,,,,
html-keyboard-response,71,154436,null,"<div style=""font-size:42px;"">SCARY</div><img id = ""stim"" ><div class = green_square id = ""bottomsquare"" ></div>",null,practice2,word_square,,prac_response,1,Bottom,32,true,,,,,,,
html-keyboard-response,72,154743,109.8000000002794,"<div style=""font-size:42px;"">SCARY</div>",32,,word,SCARY,,,,,,,,,,,,
html-keyboard-response,73,156251,null,"",null,,word,SCARY,,,,,,,,,,,,
html-keyboard-response,74,156461,null,"<div style=""font-size:42px;"">PEACEFUL</div><img id = ""stim"" ><div class = green_square id = ""topsquare"" ></div>",null,practice2,word_square,,prac_response,1,Top,32,true,,,,,,,
html-keyboard-response,75,156769,204.70000000018626,"<div style=""font-size:42px;"">PEACEFUL</div>",32,,word,PEACEFUL,,,,,,,,,,,,
html-keyboard-response,76,158278,null,"",null,,word,PEACEFUL,,,,,,,,,,,,
html-keyboard-response,77,158487,null,"<div style=""font-size:42px;"">LITTLE</div><img id = ""stim"" ><div class = red_square id = ""bottomsquare"" ></div>",null,practice2,word_square,LITTLE,prac_response,0,Bottom,none,true,,,,,,,
html-keyboard-response,78,158797,null,"<div style=""font-size:42px;"">LITTLE</div>",null,,word,LITTLE,,,,,,,,,,,,
html-keyboard-response,79,160304,null,"",null,,word,LITTLE,,,,,,,,,,,,
html-keyboard-response,80,160514,null,"<div style=""font-size:42px;"">TIRED</div><img id = ""stim"" ><div class = red_square id = ""topsquare"" ></div>",null,practice2,word_square,,prac_response,0,Top,none,true,,,,,,,
html-keyboard-response,81,160823,null,"<div style=""font-size:42px;"">TIRED</div>",null,,word,TIRED,,,,,,,,,,,,
html-keyboard-response,82,162331,null,"",null,,word,TIRED,,,,,,,,,,,,
html-keyboard-response,83,162541,null,"<div style=""font-size:42px;"">ENTERTAINING</div><img id = ""stim"" ><div class = red_square id = ""bottomsquare"" ></div>",null,practice2,word_square,ENTERTAINING,prac_response,0,Bottom,none,true,,,,,,,
html-keyboard-response,84,162850,null,"<div style=""font-size:42px;"">ENTERTAINING</div>",null,,word,ENTERTAINING,,,,,,,,,,,,
html-keyboard-response,85,164358,null,"",null,,word,ENTERTAINING,,,,,,,,,,,,
html-keyboard-response,86,164567,null,"<div style=""font-size:42px;"">GRATEFUL</div><img id = ""stim"" ><div class = green_square id = ""bottomsquare"" ></div>",null,practice2,word_square,,prac_response,1,Bottom,32,true,,,,,,,
html-keyboard-response,87,164876,187.5,"<div style=""font-size:42px;"">GRATEFUL</div>",32,,word,GRATEFUL,,,,,,,,,,,,
html-keyboard-response,88,166385,null,"",null,,word,GRATEFUL,,,,,,,,,,,,
html-keyboard-response,89,166596,null,"<div style=""font-size:42px;"">LOUD</div><img id = ""stim"" ><div class = red_square id = ""topsquare"" ></div>",null,practice2,word_square,,prac_response,0,Top,none,true,,,,,,,
html-keyboard-response,90,166900,null,"<div style=""font-size:42px;"">LOUD</div>",null,,word,LOUD,,,,,,,,,,,,
html-keyboard-response,91,168411,null,"",null,,word,LOUD,,,,,,,,,,,,
html-keyboard-response,92,168623,null,"<div style=""font-size:42px;"">SMART</div><img id = ""stim"" ><div class = green_square id = ""topsquare"" ></div>",null,practice2,word_square,,prac_response,1,Top,32,true,,,,,,,
html-keyboard-response,93,168930,218.89999999990687,"<div style=""font-size:42px;"">SMART</div>",32,,word,SMART,,,,,,,,,,,,
html-keyboard-response,94,170438,null,"",null,,word,SMART,,,,,,,,,,,,
html-keyboard-response,95,170649,null,"<div style=""font-size:42px;"">SMOOTH</div><img id = ""stim"" ><div class = green_square id = ""bottomsquare"" ></div>",null,practice2,word_square,,prac_response,1,Bottom,32,true,,,,,,,
html-keyboard-response,96,170954,176,"<div style=""font-size:42px;"">SMOOTH</div>",32,,word,SMOOTH,,,,,,,,,,,,
html-keyboard-response,97,172464,null,"",null,,word,SMOOTH,,,,,,,,,,,,
html-keyboard-response,98,172675,null,"<div style=""font-size:42px;"">DISHONEST</div><img id = ""stim"" ><div class = red_square id = ""bottomsquare"" ></div>",null,practice2,word_square,DISHONEST,prac_response,0,Bottom,none,true,,,,,,,
html-keyboard-response,99,172983,null,"<div style=""font-size:42px;"">DISHONEST</div>",null,,word,DISHONEST,,,,,,,,,,,,
html-keyboard-response,100,174491,null,"",null,,word,DISHONEST,,,,,,,,,,,,
html-keyboard-response,101,174702,null,"<div style=""font-size:42px;"">WEALTHY</div><img id = ""stim"" ><div class = green_square id = ""topsquare"" ></div>",null,practice2,word_square,,prac_response,1,Top,32,true,,,,,,,
html-keyboard-response,102,175010,131.89999999990687,"<div style=""font-size:42px;"">WEALTHY</div>",32,,word,WEALTHY,,,,,,,,,,,,
html-keyboard-response,103,176517,null,"",null,,word,WEALTHY,,,,,,,,,,,,
html-keyboard-response,104,176729,null,"<div style=""font-size:42px;"">BEAUTIFUL</div><img id = ""stim"" ><div class = red_square id = ""topsquare"" ></div>",null,practice2,word_square,,prac_response,0,Top,none,true,,,,,,,
html-keyboard-response,105,177036,null,"<div style=""font-size:42px;"">BEAUTIFUL</div>",null,,word,BEAUTIFUL,,,,,,,,,,,,
html-keyboard-response,106,178545,null,"",null,,word,BEAUTIFUL,,,,,,,,,,,,
html-keyboard-response,107,181683,3136.8000000002794,"<p> Good job! You responded correctly to 100% of the trials. </p>
                    <p>Be sure to only press the spacebar if you see a GREEN square, and please keep your accuracy above 80%.</p>
                    <p>Press any key to begin the math and recall sections. Thank you! </p>",32,,,,,,,,,,,,,,,
call-function,108,181684,,"",,,,,,,,,,,,,,,,
html-keyboard-response,109,181796,null,"",null,,,,,,,,,,,,,,,
math-period,110,186851,9139.900000000373,"",,,,,,,,,,,6,,,,,
html-keyboard-response,111,186955,null,"",null,,,,,,,,,,,,,,,
math-period,112,192643,10686.799999999814,"",,,,,,,,,,,2,,,,,
html-keyboard-response,113,192747,null,"",null,,,,,,,,,,,,,,,
math-period,114,196699,7429.799999999814,"",,,,,,,,,,,6,,,,,
html-keyboard-response,115,196807,null,"",null,,,,,,,,,,,,,,,
math-period,116,204387,49499.09999999916,"",,,,,,,,,,,4,,,,,
html-keyboard-response,117,204503,null,"",null,,,,,,,,,,,,,,,
math-period,118,205689,null,"",,,,,,,,,,,,,,,,
html-keyboard-response,119,206699,null,"Recall Period!",null,,,,,,,,,,,,,,,
call-function,120,206699,,"",,,,,,,,,,,,,,,,
html-keyboard-response,121,206807,null,"",null,,,,,,,,,,,,,,,
recall-period,122,211180,4371.100000000093,"",,,,,,,,,,,,,,,,
html-keyboard-response,123,211287,null,"",null,,,,,,,,,,,,,,,
recall-period,124,246291,952429.8000000003,"",,,,,,,,,,,happy,,,,,
html-keyboard-response,125,246403,null,"",null,,,,,,,,,,,,,,,
recall-period,126,249011,21238.799999997485,"",,,,,,,,,,,entertaining,,,,,
html-keyboard-response,127,249114,null,"",null,,,,,,,,,,,,,,,
recall-period,128,251548,11752.900000000373,"",,,,,,,,,,,peaceful,,,,,
html-keyboard-response,129,251659,null,"",null,,,,,,,,,,,,,,,
recall-period,130,255699,19690.400000000373,"",,,,,,,,,,,upset,,,,,
html-keyboard-response,131,255805,null,"",null,,,,,,,,,,,,,,,
recall-period,132,279579,98522.50000000093,"",,,,,,,,,,,happy,,,,,
html-keyboard-response,133,279686,null,"",null,,,,,,,,,,,,,,,
recall-period,134,281702,null,"",,,,,,,,,,,,,,,,
html-keyboard-response,135,282213,null,"Time's Up!",null,,,,,,,,,,,,,,,
html-keyboard-response,136,289058,6844.899999999907,"<p>We will now begin the experiment!<p><p>Please try to remember all words from each list.<p><p>Press the spacebar whenever you see a GREEN square.<p><p><p><p>Press the spacebar to begin.</p>",32,,,,,,,,,,,,,,,
html-keyboard-response,137,292067,2492.899999999907,"<div style=""font-size:48px;"">Press any key to begin list 1 of 16 </div>",32,,,,,,,,,,,,,,,
html-keyboard-response,138,294578,null,"<div style=""font-size:60px;"">+</div>",null,,,,,,,,,,,,,,,
html-keyboard-response,139,294793,null,"<div style=""font-size:42px;"">DART</div><img id = ""stim"" ><div class = green_square id = topsquare></div>",null,encoding,word_square,,,1,topsquare,32,true,,,DART,0,,,
html-keyboard-response,140,295102,null,"<div style=""font-size:42px;"">DART</div>",null,,word,DART,,,,,,,,,,,,
html-keyboard-response,141,296611,50.799999999813735,"",32,,word,DART,,,,,,,,,,,,
html-keyboard-response,142,296823,null,"<div style=""font-size:42px;"">SLIME</div><img id = ""stim"" ><div class = green_square id = bottomsquare></div>",null,encoding,word_square,,,1,bottomsquare,32,true,,,SLIME,0,,,
html-keyboard-response,143,297129,null,"<div style=""font-size:42px;"">SLIME</div>",null,,word,SLIME,,,,,,,,,,,,
html-keyboard-response,144,298637,48,"",32,,word,SLIME,,,,,,,,,,,,
html-keyboard-response,145,298848,null,"<div style=""font-size:42px;"">SLEEVE</div><img id = ""stim"" ><div class = red_square id = bottomsquare></div>",null,encoding,word_square,,,0,bottomsquare,none,true,,,SLEEVE,0,,,
html-keyboard-response,146,299158,null,"<div style=""font-size:42px;"">SLEEVE</div>",null,,word,SLEEVE,,,,,,,,,,,,
html-keyboard-response,147,300665,null,"",null,,word,SLEEVE,,,,,,,,,,,,
html-keyboard-response,148,300875,null,"<div style=""font-size:42px;"">DRINK</div><img id = ""stim"" ><div class = red_square id = topsquare></div>",null,encoding,word_square,,,0,topsquare,none,true,,,DRINK,0,,,
html-keyboard-response,149,301184,null,"<div style=""font-size:42px;"">DRINK</div>",null,,word,DRINK,,,,,,,,,,,,
html-keyboard-response,150,302694,null,"",null,,word,DRINK,,,,,,,,,,,,
html-keyboard-response,151,302902,null,"<div style=""font-size:42px;"">VALVE</div><img id = ""stim"" ><div class = green_square id = topsquare></div>",null,encoding,word_square,,,1,topsquare,32,true,,,VALVE,0,,,
html-keyboard-response,152,303210,253.70000000018626,"<div style=""font-size:42px;"">VALVE</div>",32,,word,VALVE,,,,,,,,,,,,
html-keyboard-response,153,304719,null,"",null,,word,VALVE,,,,,,,,,,,,
html-keyboard-response,154,304928,null,"<div style=""font-size:42px;"">DOLPHIN</div><img id = ""stim"" ><div class = red_square id = bottomsquare></div>",null,encoding,word_square,,,0,bottomsquare,none,true,,,DOLPHIN,0,,,
html-keyboard-response,155,305237,null,"<div style=""font-size:42px;"">DOLPHIN</div>",null,,word,DOLPHIN,,,,,,,,,,,,
html-keyboard-response,156,306745,null,"",null,,word,DOLPHIN,,,,,,,,,,,,
html-keyboard-response,157,306955,null,"<div style=""font-size:42px;"">ASIA</div><img id = ""stim"" ><div class = red_square id = topsquare></div>",null,encoding,word_square,,,0,topsquare,none,true,,,ASIA,0,,,
html-keyboard-response,158,307262,null,"<div style=""font-size:42px;"">ASIA</div>",null,,word,ASIA,,,,,,,,,,,,
html-keyboard-response,159,308771,null,"",null,,word,ASIA,,,,,,,,,,,,
html-keyboard-response,160,308983,null,"<div style=""font-size:42px;"">JAPAN</div><img id = ""stim"" ><div class = green_square id = bottomsquare></div>",null,encoding,word_square,,,1,bottomsquare,32,true,,,JAPAN,0,,,
html-keyboard-response,161,309290,null,"<div style=""font-size:42px;"">JAPAN</div>",null,,word,JAPAN,,,,,,,,,,,,
html-keyboard-response,162,310798,7.7000000001862645,"",32,,word,JAPAN,,,,,,,,,,,,
html-keyboard-response,163,311010,null,"<div style=""font-size:42px;"">ISLAND</div><img id = ""stim"" ><div class = green_square id = topsquare></div>",null,encoding,word_square,,,1,topsquare,32,true,,,ISLAND,0,,,
html-keyboard-response,164,311317,null,"<div style=""font-size:42px;"">ISLAND</div>",null,,word,ISLAND,,,,,,,,,,,,
html-keyboard-response,165,312825,317,"",32,,word,ISLAND,,,,,,,,,,,,
html-keyboard-response,166,313037,null,"<div style=""font-size:42px;"">PARTNER</div><img id = ""stim"" ><div class = green_square id = bottomsquare></div>",null,encoding,word_square,,,1,bottomsquare,32,true,,,PARTNER,0,,,
html-keyboard-response,167,313344,null,"<div style=""font-size:42px;"">PARTNER</div>",null,,word,PARTNER,,,,,,,,,,,,
html-keyboard-response,168,314852,202.8000000002794,"",32,,word,PARTNER,,,,,,,,,,,,
html-keyboard-response,169,315063,null,"<div style=""font-size:42px;"">BOYFRIEND</div><img id = ""stim"" ><div class = red_square id = bottomsquare></div>",null,encoding,word_square,,,0,bottomsquare,none,true,,,BOYFRIEND,0,,,
html-keyboard-response,170,315370,null,"<div style=""font-size:42px;"">BOYFRIEND</div>",null,,word,BOYFRIEND,,,,,,,,,,,,
html-keyboard-response,171,316878,null,"",null,,word,BOYFRIEND,,,,,,,,,,,,
html-keyboard-response,172,317090,null,"<div style=""font-size:42px;"">CHURCH</div><img id = ""stim"" ><div class = red_square id = topsquare></div>",null,encoding,word_square,,,0,topsquare,none,true,,,CHURCH,0,,,
html-keyboard-response,173,317396,null,"<div style=""font-size:42px;"">CHURCH</div>",null,,word,CHURCH,,,,,,,,,,,,
html-keyboard-response,174,318905,null,"",null,,word,CHURCH,,,,,,,,,,,,
html-keyboard-response,175,319117,null,"<div style=""font-size:42px;"">HORSE</div><img id = ""stim"" ><div class = green_square id = topsquare></div>",null,encoding,word_square,,,1,topsquare,32,true,,,HORSE,0,,,
html-keyboard-response,176,319423,221.29999999981374,"<div style=""font-size:42px;"">HORSE</div>",32,,word,HORSE,,,,,,,,,,,,
html-keyboard-response,177,320931,null,"",null,,word,HORSE,,,,,,,,,,,,
html-keyboard-response,178,321143,null,"<div style=""font-size:42px;"">PARTY</div><img id = ""stim"" ><div class = red_square id = bottomsquare></div>",null,encoding,word_square,,,0,bottomsquare,none,true,,,PARTY,0,,,
html-keyboard-response,179,321450,null,"<div style=""font-size:42px;"">PARTY</div>",null,,word,PARTY,,,,,,,,,,,,
html-keyboard-response,180,322958,null,"",null,,word,PARTY,,,,,,,,,,,,
html-keyboard-response,181,323169,null,"<div style=""font-size:42px;"">VILLAIN</div><img id = ""stim"" ><div class = green_square id = bottomsquare></div>",null,encoding,word_square,,,1,bottomsquare,32,true,,,VILLAIN,0,,,
html-keyboard-response,182,323477,280.70000000018626,"<div style=""font-size:42px;"">VILLAIN</div>",32,,word,VILLAIN,,,,,,,,,,,,
html-keyboard-response,183,324984,null,"",null,,word,VILLAIN,,,,,,,,,,,,
html-keyboard-response,184,325196,null,"<div style=""font-size:42px;"">CROSS</div><img id = ""stim"" ><div class = red_square id = topsquare></div>",null,encoding,word_square,,,0,topsquare,none,true,,,CROSS,0,,,
html-keyboard-response,185,325503,null,"<div style=""font-size:42px;"">CROSS</div>",null,,word,CROSS,,,,,,,,,,,,
html-keyboard-response,186,327011,null,"",null,,word,CROSS,,,,,,,,,,,,
call-function,187,327012,,"",,,,,,,,,,,,,,,,
html-keyboard-response,188,327113,null,"",null,,,,,,,,,,,,,,,
math-period,189,330355,6025.399999999441,"",,,,,,,,,,,3,,,,,
html-keyboard-response,190,330460,null,"",null,,,,,,,,,,,,,,,
math-period,191,333475,5627.4000000003725,"",,,,,,,,,,,3,,,,,
html-keyboard-response,192,333581,null,"",null,,,,,,,,,,,,,,,
math-period,193,335443,3313.4999999995343,"",,,,,,,,,,,5,,,,,
html-keyboard-response,194,335556,null,"",null,,,,,,,,,,,,,,,
math-period,195,338739,5907.200000000186,"",,,,,,,,,,,0,,,,,
html-keyboard-response,196,338847,null,"",null,,,,,,,,,,,,,,,
math-period,197,343099,7861.5,"",,,,,,,,,,,3,,,,,
html-keyboard-response,198,343209,null,"",null,,,,,,,,,,,,,,,
math-period,199,345034,3272.7000000001863,"",,,,,,,,,,,4,,,,,
html-keyboard-response,200,345137,null,"",null,,,,,,,,,,,,,,,
math-period,201,347426,4272.100000000093,"",,,,,,,,,,,1,,,,,
html-keyboard-response,202,347534,null,"",null,,,,,,,,,,,,,,,
math-period,203,350434,5430.899999999907,"",,,,,,,,,,,5,,,,,
html-keyboard-response,204,350540,null,"",null,,,,,,,,,,,,,,,
math-period,205,351021,null,"",,,,,,,,,,,,,,,,
html-keyboard-response,206,352031,null,"Recall Period!",null,,,,,,,,,,,,,,,
call-function,207,352032,,"",,,,,,,,,,,,,,,,
html-keyboard-response,208,352140,null,"",null,,,,,,,,,,,,,,,
recall-period,209,355874,11924.30000000028,"",,,,,,,,,,,dart,,,,,
html-keyboard-response,210,355980,null,"",null,,,,,,,,,,,,,,,
recall-period,211,358354,10328.400000000373,"",,,,,,,,,,,slime,,,,,
html-keyboard-response,212,358460,null,"",null,,,,,,,,,,,,,,,
recall-period,213,360281,5657.200000000186,"",,,,,,,,,,,valve,,,,,
html-keyboard-response,214,360384,null,"",null,,,,,,,,,,,,,,,
recall-period,215,362064,7426.799999999814,"",,,,,,,,,,,japan,,,,,
html-keyboard-response,216,362168,null,"",null,,,,,,,,,,,,,,,
recall-period,217,364121,5794.199999997858,"",,,,,,,,,,,island,,,,,
html-keyboard-response,218,364224,null,"",null,,,,,,,,,,,,,,,
recall-period,219,366416,7971.300000000745,"",,,,,,,,,,,horse,,,,,
html-keyboard-response,220,366527,null,"",null,,,,,,,,,,,,,,,
recall-period,221,369256,8708.600000000559,"",,,,,,,,,,,villain,,,,,
html-keyboard-response,222,369366,null,"",null,,,,,,,,,,,,,,,
recall-period,223,427044,null,"",,,,,,,,,,,,,,,,
html-keyboard-response,224,427546,null,"Time's Up!",null,,,,,,,,,,,,,,,
html-keyboard-response,225,436050,8502.80000000028,"<p> Good job! You have responded correctly to 100% of the trials. </p>
                      <p>Be sure to only press the spacebar if you see a GREEN square, and please keep your accuracy above 80%.</p>
                      <p> Press any key to continue the experiment. </p>",13,,,,,,,,,,,,,,,
html-keyboard-response,226,437265,1214.3999999999069,"<div style=""font-size:48px;"">Press any key to begin list 2 of 16 </div>",13,,,,,,,,,,,,,,,
html-keyboard-response,227,439783,null,"<div style=""font-size:60px;"">+</div>",null,,,,,,,,,,,,,,,
html-keyboard-response,228,440000,null,"<div style=""font-size:42px;"">BIKE</div><img id = ""stim"" ><div class = red_square id = topsquare></div>",null,encoding,word_square,,,0,topsquare,none,true,,,BIKE,1,,,
html-keyboard-response,229,440307,null,"<div style=""font-size:42px;"">BIKE</div>",null,,word,BIKE,,,,,,,,,,,,
html-keyboard-response,230,441822,null,"",null,,word,BIKE,,,,,,,,,,,,
html-keyboard-response,231,442025,null,"<div style=""font-size:42px;"">SPINACH</div><img id = ""stim"" ><div class = green_square id = bottomsquare></div>",null,encoding,word_square,,,1,bottomsquare,32,true,,,SPINACH,1,,,
html-keyboard-response,232,442334,null,"<div style=""font-size:42px;"">SPINACH</div>",null,,word,SPINACH,,,,,,,,,,,,
html-keyboard-response,233,443835,18.299999999813735,"",32,,word,SPINACH,,,,,,,,,,,,
html-keyboard-response,234,444051,null,"<div style=""font-size:42px;"">FOOT</div><img id = ""stim"" ><div class = red_square id = bottomsquare></div>",null,encoding,word_square,,,0,bottomsquare,none,true,,,FOOT,1,,,
html-keyboard-response,235,444360,null,"<div style=""font-size:42px;"">FOOT</div>",null,,word,FOOT,,,,,,,,,,,,
html-keyboard-response,236,445868,null,"",null,,word,FOOT,,,,,,,,,,,,
html-keyboard-response,237,446080,null,"<div style=""font-size:42px;"">BLACKBOARD</div><img id = ""stim"" ><div class = green_square id = topsquare></div>",null,encoding,word_square,,,1,topsquare,32,true,,,BLACKBOARD,1,,,
html-keyboard-response,238,446385,null,"<div style=""font-size:42px;"">BLACKBOARD</div>",null,,word,BLACKBOARD,,,,,,,,,,,,
html-keyboard-response,239,447893,8.199999999720603,"",32,,word,BLACKBOARD,,,,,,,,,,,,
html-keyboard-response,240,448104,null,"<div style=""font-size:42px;"">MONGOOSE</div><img id = ""stim"" ><div class = red_square id = topsquare></div>",null,encoding,word_square,,,0,topsquare,none,true,,,MONGOOSE,1,,,
html-keyboard-response,241,448411,null,"<div style=""font-size:42px;"">MONGOOSE</div>",null,,word,MONGOOSE,,,,,,,,,,,,
html-keyboard-response,242,449921,null,"",null,,word,MONGOOSE,,,,,,,,,,,,
html-keyboard-response,243,450133,null,"<div style=""font-size:42px;"">HOSTESS</div><img id = ""stim"" ><div class = red_square id = bottomsquare></div>",null,encoding,word_square,,,0,bottomsquare,none,true,,,HOSTESS,1,,,
html-keyboard-response,244,450440,null,"<div style=""font-size:42px;"">HOSTESS</div>",null,,word,HOSTESS,,,,,,,,,,,,
html-keyboard-response,245,451948,null,"",null,,word,HOSTESS,,,,,,,,,,,,
html-keyboard-response,246,452160,null,"<div style=""font-size:42px;"">WAITRESS</div><img id = ""stim"" ><div class = green_square id = bottomsquare></div>",null,encoding,word_square,,,1,bottomsquare,32,true,,,WAITRESS,1,,,
html-keyboard-response,247,452464,280.20000000018626,"<div style=""font-size:42px;"">WAITRESS</div>",32,,word,WAITRESS,,,,,,,,,,,,
html-keyboard-response,248,453970,null,"",null,,word,WAITRESS,,,,,,,,,,,,
html-keyboard-response,249,454186,null,"<div style=""font-size:42px;"">SAND</div><img id = ""stim"" ><div class = green_square id = topsquare></div>",null,encoding,word_square,,,1,topsquare,32,true,,,SAND,1,,,
html-keyboard-response,250,454493,null,"<div style=""font-size:42px;"">SAND</div>",null,,word,SAND,,,,,,,,,,,,
html-keyboard-response,251,456001,10.5,"",32,,word,SAND,,,,,,,,,,,,
html-keyboard-response,252,456213,null,"<div style=""font-size:42px;"">CAFE</div><img id = ""stim"" ><div class = green_square id = bottomsquare></div>",null,encoding,word_square,,,1,bottomsquare,32,true,,,CAFE,1,,,
html-keyboard-response,253,456520,267.39999999990687,"<div style=""font-size:42px;"">CAFE</div>",32,,word,CAFE,,,,,,,,,,,,
html-keyboard-response,254,458027,null,"",null,,word,CAFE,,,,,,,,,,,,
html-keyboard-response,255,458240,null,"<div style=""font-size:42px;"">SUPPER</div><img id = ""stim"" ><div class = red_square id = topsquare></div>",null,encoding,word_square,,,0,topsquare,none,true,,,SUPPER,1,,,
html-keyboard-response,256,458546,null,"<div style=""font-size:42px;"">SUPPER</div>",null,,word,SUPPER,,,,,,,,,,,,
html-keyboard-response,257,460054,null,"",null,,word,SUPPER,,,,,,,,,,,,
html-keyboard-response,258,460266,null,"<div style=""font-size:42px;"">PUPIL</div><img id = ""stim"" ><div class = red_square id = bottomsquare></div>",null,encoding,word_square,,,0,bottomsquare,none,true,,,PUPIL,1,,,
html-keyboard-response,259,460573,null,"<div style=""font-size:42px;"">PUPIL</div>",null,,word,PUPIL,,,,,,,,,,,,
html-keyboard-response,260,462090,null,"",null,,word,PUPIL,,,,,,,,,,,,
html-keyboard-response,261,462307,null,"<div style=""font-size:42px;"">PEDAL</div><img id = ""stim"" ><div class = green_square id = topsquare></div>",null,encoding,word_square,,,1,topsquare,32,true,,,PEDAL,1,,,
html-keyboard-response,262,462608,237.09999999962747,"<div style=""font-size:42px;"">PEDAL</div>",32,,word,PEDAL,,,,,,,,,,,,
html-keyboard-response,263,464124,null,"",null,,word,PEDAL,,,,,,,,,,,,
html-keyboard-response,264,464330,null,"<div style=""font-size:42px;"">CORAL</div><img id = ""stim"" ><div class = red_square id = topsquare></div>",null,encoding,word_square,,,0,topsquare,none,true,,,CORAL,1,,,
html-keyboard-response,265,464640,null,"<div style=""font-size:42px;"">CORAL</div>",null,,word,CORAL,,,,,,,,,,,,
html-keyboard-response,266,466142,null,"",null,,word,CORAL,,,,,,,,,,,,
html-keyboard-response,267,466347,null,"<div style=""font-size:42px;"">COFFIN</div><img id = ""stim"" ><div class = red_square id = bottomsquare></div>",null,encoding,word_square,,,0,bottomsquare,none,true,,,COFFIN,1,,,
html-keyboard-response,268,466657,null,"<div style=""font-size:42px;"">COFFIN</div>",null,,word,COFFIN,,,,,,,,,,,,
html-keyboard-response,269,468164,null,"",null,,word,COFFIN,,,,,,,,,,,,
html-keyboard-response,270,468374,null,"<div style=""font-size:42px;"">MARKET</div><img id = ""stim"" ><div class = green_square id = bottomsquare></div>",null,encoding,word_square,,,1,bottomsquare,32,true,,,MARKET,1,,,
html-keyboard-response,271,468684,266.20000000018626,"<div style=""font-size:42px;"">MARKET</div>",32,,word,MARKET,,,,,,,,,,,,
html-keyboard-response,272,470200,null,"",null,,word,MARKET,,,,,,,,,,,,
html-keyboard-response,273,470412,null,"<div style=""font-size:42px;"">PAPER</div><img id = ""stim"" ><div class = green_square id = topsquare></div>",null,encoding,word_square,,,1,topsquare,32,true,,,PAPER,1,,,
html-keyboard-response,274,470720,null,"<div style=""font-size:42px;"">PAPER</div>",null,,word,PAPER,,,,,,,,,,,,
html-keyboard-response,275,472221,79.8000000002794,"",32,,word,PAPER,,,,,,,,,,,,
call-function,276,472222,,"",,,,,,,,,,,,,,,,
html-keyboard-response,277,472330,null,"",null,,,,,,,,,,,,,,,
math-period,278,477288,8731.600000000559,"",,,,,,,,,,,2,,,,,
html-keyboard-response,279,477396,null,"",null,,,,,,,,,,,,,,,
math-period,280,480635,6079.299999999814,"",,,,,,,,,,,2,,,,,
html-keyboard-response,281,480740,null,"",null,,,,,,,,,,,,,,,
math-period,282,482779,3643.4999999995343,"",,,,,,,,,,,4,,,,,
html-keyboard-response,283,482890,null,"",null,,,,,,,,,,,,,,,
math-period,284,484907,3744.899999999907,"",,,,,,,,,,,2,,,,,
html-keyboard-response,285,485022,null,"",null,,,,,,,,,,,,,,,
math-period,286,486395,2527.600000000093,"",,,,,,,,,,,3,,,,,
html-keyboard-response,287,486501,null,"",null,,,,,,,,,,,,,,,
math-period,288,489427,5434.4000000003725,"",,,,,,,,,,,0,,,,,
html-keyboard-response,289,489543,null,"",null,,,,,,,,,,,,,,,
math-period,290,491595,3767.6999999997206,"",,,,,,,,,,,1,,,,,
html-keyboard-response,291,491701,null,"",null,,,,,,,,,,,,,,,
math-period,292,493987,3810.4000000003725,"",,,,,,,,,,,4,,,,,
html-keyboard-response,293,494102,null,"",null,,,,,,,,,,,,,,,
math-period,294,496155,3647.3000000002794,"",,,,,,,,,,,3,,,,,
html-keyboard-response,295,496260,null,"",null,,,,,,,,,,,,,,,
math-period,296,496276,null,"",,,,,,,,,,,,,,,,
html-keyboard-response,297,497282,null,"Recall Period!",null,,,,,,,,,,,,,,,
call-function,298,497283,,"",,,,,,,,,,,,,,,,
html-keyboard-response,299,497396,null,"",null,,,,,,,,,,,,,,,
recall-period,300,502531,36485.899999998044,"",,,,,,,,,,,waitress,,,,,
html-keyboard-response,301,502635,null,"",null,,,,,,,,,,,,,,,
recall-period,302,503811,3923.2000000001863,"",,,,,,,,,,,sand,,,,,
html-keyboard-response,303,503914,null,"",null,,,,,,,,,,,,,,,
recall-period,304,504803,2393.2999999988824,"",,,,,,,,,,,cafe,,,,,
html-keyboard-response,305,504907,null,"",null,,,,,,,,,,,,,,,
recall-period,306,506115,4009.6999999997206,"",,,,,,,,,,,pedal,,,,,
html-keyboard-response,307,506219,null,"",null,,,,,,,,,,,,,,,
recall-period,308,507819,6370.300000000279,"",,,,,,,,,,,paper,,,,,
html-keyboard-response,309,507927,null,"",null,,,,,,,,,,,,,,,
recall-period,310,510379,11189.200000000652,"",,,,,,,,,,,market,,,,,
html-keyboard-response,311,510493,null,"",null,,,,,,,,,,,,,,,
recall-period,312,512028,5805.499999999534,"",,,,,,,,,,,spinach,,,,,
html-keyboard-response,313,512143,null,"",null,,,,,,,,,,,,,,,
recall-period,314,514819,17497.400000000373,"",,,,,,,,,,,blackboard,,,,,
html-keyboard-response,315,514927,null,"",null,,,,,,,,,,,,,,,
recall-period,316,572298,null,"",,,,,,,,,,,,,,,,
html-keyboard-response,317,572810,null,"Time's Up!",null,,,,,,,,,,,,,,,
html-keyboard-response,318,576203,3391.7000000001863,"<p> Good job! You have responded correctly to 100% of the trials. </p>
                      <p>Be sure to only press the spacebar if you see a GREEN square, and please keep your accuracy above 80%.</p>
                      <p> Press any key to continue the experiment. </p>",32,,,,,,,,,,,,,,,
html-keyboard-response,319,598179,21974.600000000093,"<div style=""font-size:48px;"">Press any key to begin list 3 of 16 </div>",32,,,,,,,,,,,,,,,
html-keyboard-response,320,600698,null,"<div style=""font-size:60px;"">+</div>",null,,,,,,,,,,,,,,,
html-keyboard-response,321,600904,null,"<div style=""font-size:42px;"">PRIMATE</div><img id = ""stim"" ><div class = red_square id = bottomsquare></div>",null,encoding,word_square,,,0,bottomsquare,none,true,,,PRIMATE,2,,,
html-keyboard-response,322,601210,null,"<div style=""font-size:42px;"">PRIMATE</div>",null,,word,PRIMATE,,,,,,,,,,,,
html-keyboard-response,323,602713,null,"",null,,word,PRIMATE,,,,,,,,,,,,
html-keyboard-response,324,602921,null,"<div style=""font-size:42px;"">MISTER</div><img id = ""stim"" ><div class = red_square id = topsquare></div>",null,encoding,word_square,,,0,topsquare,none,true,,,MISTER,2,,,
html-keyboard-response,325,603223,null,"<div style=""font-size:42px;"">MISTER</div>",null,,word,MISTER,,,,,,,,,,,,
html-keyboard-response,326,604732,null,"",null,,word,MISTER,,,,,,,,,,,,
html-keyboard-response,327,604944,null,"<div style=""font-size:42px;"">ARM</div><img id = ""stim"" ><div class = green_square id = topsquare></div>",null,encoding,word_square,,,1,topsquare,32,true,,,ARM,2,,,
html-keyboard-response,328,605250,194.79999999981374,"<div style=""font-size:42px;"">ARM</div>",32,,word,ARM,,,,,,,,,,,,
html-keyboard-response,329,606754,null,"",null,,word,ARM,,,,,,,,,,,,
html-keyboard-response,330,606970,null,"<div style=""font-size:42px;"">SPIDER</div><img id = ""stim"" ><div class = green_square id = bottomsquare></div>",null,encoding,word_square,,,1,bottomsquare,32,true,,,SPIDER,2,,,
html-keyboard-response,331,607277,240.79999999981374,"<div style=""font-size:42px;"">SPIDER</div>",32,,word,SPIDER,,,,,,,,,,,,
html-keyboard-response,332,608793,null,"",null,,word,SPIDER,,,,,,,,,,,,
html-keyboard-response,333,609009,null,"<div style=""font-size:42px;"">GODDESS</div><img id = ""stim"" ><div class = red_square id = bottomsquare></div>",null,encoding,word_square,,,0,bottomsquare,none,true,,,GODDESS,2,,,
html-keyboard-response,334,609317,null,"<div style=""font-size:42px;"">GODDESS</div>",null,,word,GODDESS,,,,,,,,,,,,
html-keyboard-response,335,610824,null,"",null,,word,GODDESS,,,,,,,,,,,,
html-keyboard-response,336,611034,null,"<div style=""font-size:42px;"">PONY</div><img id = ""stim"" ><div class = green_square id = topsquare></div>",null,encoding,word_square,,,1,topsquare,32,true,,,PONY,2,,,
html-keyboard-response,337,611343,208.60000000009313,"<div style=""font-size:42px;"">PONY</div>",32,,word,PONY,,,,,,,,,,,,
html-keyboard-response,338,612852,null,"",null,,word,PONY,,,,,,,,,,,,
html-keyboard-response,339,613063,null,"<div style=""font-size:42px;"">NOVEL</div><img id = ""stim"" ><div class = green_square id = bottomsquare></div>",null,encoding,word_square,,,1,bottomsquare,32,true,,,NOVEL,2,,,
html-keyboard-response,340,613370,null,"<div style=""font-size:42px;"">NOVEL</div>",null,,word,NOVEL,,,,,,,,,,,,
html-keyboard-response,341,614878,24.5,"",32,,word,NOVEL,,,,,,,,,,,,
html-keyboard-response,342,615090,null,"<div style=""font-size:42px;"">GIFT</div><img id = ""stim"" ><div class = red_square id = topsquare></div>",null,encoding,word_square,,,0,topsquare,none,true,,,GIFT,2,,,
html-keyboard-response,343,615394,null,"<div style=""font-size:42px;"">GIFT</div>",null,,word,GIFT,,,,,,,,,,,,
html-keyboard-response,344,616909,null,"",null,,word,GIFT,,,,,,,,,,,,
html-keyboard-response,345,617114,null,"<div style=""font-size:42px;"">POSTAGE</div><img id = ""stim"" ><div class = red_square id = bottomsquare></div>",null,encoding,word_square,,,0,bottomsquare,none,true,,,POSTAGE,2,,,
html-keyboard-response,346,617424,null,"<div style=""font-size:42px;"">POSTAGE</div>",null,,word,POSTAGE,,,,,,,,,,,,
html-keyboard-response,347,618931,null,"",null,,word,POSTAGE,,,,,,,,,,,,
html-keyboard-response,348,619143,null,"<div style=""font-size:42px;"">PIRATE</div><img id = ""stim"" ><div class = red_square id = topsquare></div>",null,encoding,word_square,,,0,topsquare,none,true,,,PIRATE,2,,,
html-keyboard-response,349,619448,null,"<div style=""font-size:42px;"">PIRATE</div>",null,,word,PIRATE,,,,,,,,,,,,
html-keyboard-response,350,620963,null,"",null,,word,PIRATE,,,,,,,,,,,,
html-keyboard-response,351,621167,null,"<div style=""font-size:42px;"">JUNGLE</div><img id = ""stim"" ><div class = green_square id = topsquare></div>",null,encoding,word_square,,,1,topsquare,32,true,,,JUNGLE,2,,,
html-keyboard-response,352,621476,171.79999999981374,"<div style=""font-size:42px;"">JUNGLE</div>",32,,word,JUNGLE,,,,,,,,,,,,
html-keyboard-response,353,622984,null,"",null,,word,JUNGLE,,,,,,,,,,,,
html-keyboard-response,354,623194,null,"<div style=""font-size:42px;"">WAREHOUSE</div><img id = ""stim"" ><div class = green_square id = bottomsquare></div>",null,encoding,word_square,,,1,bottomsquare,32,true,,,WAREHOUSE,2,,,
html-keyboard-response,355,623501,null,"<div style=""font-size:42px;"">WAREHOUSE</div>",null,,word,WAREHOUSE,,,,,,,,,,,,
html-keyboard-response,356,625011,60.89999999990687,"",32,,word,WAREHOUSE,,,,,,,,,,,,
html-keyboard-response,357,625222,null,"<div style=""font-size:42px;"">COCOON</div><img id = ""stim"" ><div class = red_square id = bottomsquare></div>",null,encoding,word_square,,,0,bottomsquare,none,true,,,COCOON,2,,,
html-keyboard-response,358,625530,null,"<div style=""font-size:42px;"">COCOON</div>",null,,word,COCOON,,,,,,,,,,,,
html-keyboard-response,359,627037,null,"",null,,word,COCOON,,,,,,,,,,,,
html-keyboard-response,360,627249,null,"<div style=""font-size:42px;"">SUNRISE</div><img id = ""stim"" ><div class = green_square id = topsquare></div>",null,encoding,word_square,,,1,topsquare,32,true,,,SUNRISE,2,,,
html-keyboard-response,361,627556,232.79999999981374,"<div style=""font-size:42px;"">SUNRISE</div>",32,,word,SUNRISE,,,,,,,,,,,,
html-keyboard-response,362,629064,null,"",null,,word,SUNRISE,,,,,,,,,,,,
html-keyboard-response,363,629276,null,"<div style=""font-size:42px;"">SUNSET</div><img id = ""stim"" ><div class = red_square id = topsquare></div>",null,encoding,word_square,,,0,topsquare,none,true,,,SUNSET,2,,,
html-keyboard-response,364,629583,null,"<div style=""font-size:42px;"">SUNSET</div>",null,,word,SUNSET,,,,,,,,,,,,
html-keyboard-response,365,631091,null,"",null,,word,SUNSET,,,,,,,,,,,,
html-keyboard-response,366,631303,null,"<div style=""font-size:42px;"">STOCKING</div><img id = ""stim"" ><div class = green_square id = bottomsquare></div>",null,encoding,word_square,,,1,bottomsquare,32,true,,,STOCKING,2,,,
html-keyboard-response,367,631609,275.60000000009313,"<div style=""font-size:42px;"">STOCKING</div>",32,,word,STOCKING,,,,,,,,,,,,
html-keyboard-response,368,633118,null,"",null,,word,STOCKING,,,,,,,,,,,,
call-function,369,633119,,"",,,,,,,,,,,,,,,,
html-keyboard-response,370,633220,null,"",null,,,,,,,,,,,,,,,
math-period,371,639531,12411.30000000028,"",,,,,,,,,,,5,,,,,
html-keyboard-response,372,639633,null,"",null,,,,,,,,,,,,,,,
math-period,373,642138,4745.300000000279,"",,,,,,,,,,,2,,,,,
html-keyboard-response,374,642249,null,"",null,,,,,,,,,,,,,,,
math-period,375,644162,3449.100000000093,"",,,,,,,,,,,5,,,,,
html-keyboard-response,376,644275,null,"",null,,,,,,,,,,,,,,,
math-period,377,649898,11012.30000000028,"",,,,,,,,,,,1,,,,,
html-keyboard-response,378,650007,null,"",null,,,,,,,,,,,,,,,
math-period,379,652762,4933.700000000186,"",,,,,,,,,,,3,,,,,
html-keyboard-response,380,652875,null,"",null,,,,,,,,,,,,,,,
math-period,381,654418,2901.100000000093,"",,,,,,,,,,,2,,,,,
html-keyboard-response,382,654526,null,"",null,,,,,,,,,,,,,,,
math-period,383,657127,5170.700000000186,"",,,,,,,,,,,5,,,,,
html-keyboard-response,384,658135,null,"Recall Period!",null,,,,,,,,,,,,,,,
call-function,385,658136,,"",,,,,,,,,,,,,,,,
html-keyboard-response,386,658248,null,"",null,,,,,,,,,,,,,,,
recall-period,387,662781,31216.899999998976,"",,,,,,,,,,,jungle,,,,,
html-keyboard-response,388,662886,null,"",null,,,,,,,,,,,,,,,
recall-period,389,665253,11699.899999999907,"",,,,,,,,,,,warehouse,,,,,
html-keyboard-response,390,665368,null,"",null,,,,,,,,,,,,,,,
recall-period,391,668173,15483.099999999162,"",,,,,,,,,,,sunrise,,,,,
html-keyboard-response,392,668285,null,"",null,,,,,,,,,,,,,,,
recall-period,393,670141,8639.700000000652,"",,,,,,,,,,,stocking,,,,,
html-keyboard-response,394,670246,null,"",null,,,,,,,,,,,,,,,
recall-period,395,671685,6351.699999997858,"",,,,,,,,,,,spider,,,,,
html-keyboard-response,396,671789,null,"",null,,,,,,,,,,,,,,,
recall-period,397,672533,1524.6000000005588,"",,,,,,,,,,,arm,,,,,
html-keyboard-response,398,672649,null,"",null,,,,,,,,,,,,,,,
recall-period,399,674581,6863.699999998324,"",,,,,,,,,,,pony,,,,,
html-keyboard-response,400,674686,null,"",null,,,,,,,,,,,,,,,
recall-period,401,675829,3746.099999998696,"",,,,,,,,,,,novel,,,,,
html-keyboard-response,402,675941,null,"",null,,,,,,,,,,,,,,,
recall-period,403,733152,null,"",,,,,,,,,,,,,,,,
html-keyboard-response,404,733666,null,"Time's Up!",null,,,,,,,,,,,,,,,
html-keyboard-response,405,735284,1616.1000000000931,"<p> Good job! You have responded correctly to 100% of the trials. </p>
                      <p>Be sure to only press the spacebar if you see a GREEN square, and please keep your accuracy above 80%.</p>
                      <p> Press any key to continue the experiment. </p>",32,,,,,,,,,,,,,,,
html-keyboard-response,406,736003,718.3999999999069,"<div style=""font-size:48px;"">Press any key to begin list 4 of 16 </div>",32,,,,,,,,,,,,,,,
html-keyboard-response,407,738510,null,"<div style=""font-size:60px;"">+</div>",null,,,,,,,,,,,,,,,
html-keyboard-response,408,738716,null,"<div style=""font-size:42px;"">SAUSAGE</div><img id = ""stim"" ><div class = green_square id = bottomsquare></div>",null,encoding,word_square,,,1,bottomsquare,32,true,,,SAUSAGE,3,,,
html-keyboard-response,409,739023,null,"<div style=""font-size:42px;"">SAUSAGE</div>",null,,word,SAUSAGE,,,,,,,,,,,,
html-keyboard-response,410,740531,18.699999999720603,"",32,,word,SAUSAGE,,,,,,,,,,,,
html-keyboard-response,411,740743,null,"<div style=""font-size:42px;"">STAKE</div><img id = ""stim"" ><div class = red_square id = topsquare></div>",null,encoding,word_square,,,0,topsquare,none,true,,,STAKE,3,,,
html-keyboard-response,412,741053,null,"<div style=""font-size:42px;"">STAKE</div>",null,,word,STAKE,,,,,,,,,,,,
html-keyboard-response,413,742557,null,"",null,,word,STAKE,,,,,,,,,,,,
html-keyboard-response,414,742769,null,"<div style=""font-size:42px;"">CABIN</div><img id = ""stim"" ><div class = green_square id = topsquare></div>",null,encoding,word_square,,,1,topsquare,32,true,,,CABIN,3,,,
html-keyboard-response,415,743076,233.20000000018626,"<div style=""font-size:42px;"">CABIN</div>",32,,word,CABIN,,,,,,,,,,,,
html-keyboard-response,416,744591,null,"",null,,word,CABIN,,,,,,,,,,,,
html-keyboard-response,417,744794,null,"<div style=""font-size:42px;"">FIELD</div><img id = ""stim"" ><div class = red_square id = bottomsquare></div>",null,encoding,word_square,,,0,bottomsquare,none,true,,,FIELD,3,,,
html-keyboard-response,418,745103,null,"<div style=""font-size:42px;"">FIELD</div>",null,,word,FIELD,,,,,,,,,,,,
html-keyboard-response,419,746611,null,"",null,,word,FIELD,,,,,,,,,,,,
html-keyboard-response,420,746822,null,"<div style=""font-size:42px;"">DRUG</div><img id = ""stim"" ><div class = green_square id = bottomsquare></div>",null,encoding,word_square,,,1,bottomsquare,32,true,,,DRUG,3,,,
html-keyboard-response,421,747124,300.1999999997206,"<div style=""font-size:42px;"">DRUG</div>",32,,word,DRUG,,,,,,,,,,,,
html-keyboard-response,422,748639,null,"",null,,word,DRUG,,,,,,,,,,,,
html-keyboard-response,423,748849,null,"<div style=""font-size:42px;"">WAIST</div><img id = ""stim"" ><div class = green_square id = topsquare></div>",null,encoding,word_square,,,1,topsquare,32,true,,,WAIST,3,,,
html-keyboard-response,424,749156,null,"<div style=""font-size:42px;"">WAIST</div>",null,,word,WAIST,,,,,,,,,,,,
html-keyboard-response,425,750664,21.200000000186265,"",32,,word,WAIST,,,,,,,,,,,,
html-keyboard-response,426,750873,null,"<div style=""font-size:42px;"">CANYON</div><img id = ""stim"" ><div class = red_square id = topsquare></div>",null,encoding,word_square,,,0,topsquare,none,true,,,CANYON,3,,,
html-keyboard-response,427,751183,null,"<div style=""font-size:42px;"">CANYON</div>",null,,word,CANYON,,,,,,,,,,,,
html-keyboard-response,428,752690,null,"",null,,word,CANYON,,,,,,,,,,,,
html-keyboard-response,429,752900,null,"<div style=""font-size:42px;"">SHOULDER</div><img id = ""stim"" ><div class = red_square id = bottomsquare></div>",null,encoding,word_square,,,0,bottomsquare,none,true,,,SHOULDER,3,,,
html-keyboard-response,430,753210,null,"<div style=""font-size:42px;"">SHOULDER</div>",null,,word,SHOULDER,,,,,,,,,,,,
html-keyboard-response,431,754718,null,"",null,,word,SHOULDER,,,,,,,,,,,,
html-keyboard-response,432,754927,null,"<div style=""font-size:42px;"">CEILING</div><img id = ""stim"" ><div class = red_square id = topsquare></div>",null,encoding,word_square,,,0,topsquare,none,true,,,CEILING,3,,,
html-keyboard-response,433,755236,null,"<div style=""font-size:42px;"">CEILING</div>",null,,word,CEILING,,,,,,,,,,,,
html-keyboard-response,434,756744,null,"",null,,word,CEILING,,,,,,,,,,,,
html-keyboard-response,435,756954,null,"<div style=""font-size:42px;"">CANOE</div><img id = ""stim"" ><div class = green_square id = bottomsquare></div>",null,encoding,word_square,,,1,bottomsquare,32,true,,,CANOE,3,,,
html-keyboard-response,436,757262,288.8000000002794,"<div style=""font-size:42px;"">CANOE</div>",32,,word,CANOE,,,,,,,,,,,,
html-keyboard-response,437,758771,null,"",null,,word,CANOE,,,,,,,,,,,,
html-keyboard-response,438,758980,null,"<div style=""font-size:42px;"">PLUTO</div><img id = ""stim"" ><div class = green_square id = topsquare></div>",null,encoding,word_square,,,1,topsquare,32,true,,,PLUTO,3,,,
html-keyboard-response,439,759289,null,"<div style=""font-size:42px;"">PLUTO</div>",null,,word,PLUTO,,,,,,,,,,,,
html-keyboard-response,440,760797,120.29999999981374,"",32,,word,PLUTO,,,,,,,,,,,,
html-keyboard-response,441,761006,null,"<div style=""font-size:42px;"">ELBOW</div><img id = ""stim"" ><div class = red_square id = bottomsquare></div>",null,encoding,word_square,,,0,bottomsquare,none,true,,,ELBOW,3,,,
html-keyboard-response,442,761316,null,"<div style=""font-size:42px;"">ELBOW</div>",null,,word,ELBOW,,,,,,,,,,,,
html-keyboard-response,443,762823,null,"",null,,word,ELBOW,,,,,,,,,,,,
html-keyboard-response,444,763034,null,"<div style=""font-size:42px;"">POND</div><img id = ""stim"" ><div class = green_square id = bottomsquare></div>",null,encoding,word_square,,,1,bottomsquare,32,true,,,POND,3,,,
html-keyboard-response,445,763340,null,"<div style=""font-size:42px;"">POND</div>",null,,word,POND,,,,,,,,,,,,
html-keyboard-response,446,764850,21.09999999962747,"",32,,word,POND,,,,,,,,,,,,
html-keyboard-response,447,765062,null,"<div style=""font-size:42px;"">SCALLOP</div><img id = ""stim"" ><div class = green_square id = topsquare></div>",null,encoding,word_square,,,1,topsquare,32,true,,,SCALLOP,3,,,
html-keyboard-response,448,765369,null,"<div style=""font-size:42px;"">SCALLOP</div>",null,,word,SCALLOP,,,,,,,,,,,,
html-keyboard-response,449,766884,88.20000000018626,"",32,,word,SCALLOP,,,,,,,,,,,,
html-keyboard-response,450,767087,null,"<div style=""font-size:42px;"">SPOUSE</div><img id = ""stim"" ><div class = red_square id = topsquare></div>",null,encoding,word_square,,,0,topsquare,none,true,,,SPOUSE,3,,,
html-keyboard-response,451,767395,null,"<div style=""font-size:42px;"">SPOUSE</div>",null,,word,SPOUSE,,,,,,,,,,,,
html-keyboard-response,452,768904,null,"",null,,word,SPOUSE,,,,,,,,,,,,
html-keyboard-response,453,769116,null,"<div style=""font-size:42px;"">LOVER</div><img id = ""stim"" ><div class = red_square id = bottomsquare></div>",null,encoding,word_square,,,0,bottomsquare,none,true,,,LOVER,3,,,
html-keyboard-response,454,769422,null,"<div style=""font-size:42px;"">LOVER</div>",null,,word,LOVER,,,,,,,,,,,,
html-keyboard-response,455,770938,null,"",null,,word,LOVER,,,,,,,,,,,,
call-function,456,770939,,"",,,,,,,,,,,,,,,,
html-keyboard-response,457,771046,null,"",null,,,,,,,,,,,,,,,
math-period,458,775826,9030.80000000028,"",,,,,,,,,,,3,,,,,
html-keyboard-response,459,775941,null,"",null,,,,,,,,,,,,,,,
math-period,460,778290,4503.199999999255,"",,,,,,,,,,,2,,,,,
html-keyboard-response,461,778392,null,"",null,,,,,,,,,,,,,,,
math-period,462,780762,4554,"",,,,,,,,,,,2,,,,,
html-keyboard-response,463,780875,null,"",null,,,,,,,,,,,,,,,
math-period,464,783595,8817.30000000028,"",,,,,,,,,,,3,,,,,
html-keyboard-response,465,783699,null,"",null,,,,,,,,,,,,,,,
math-period,466,785732,3478.5000000004657,"",,,,,,,,,,,3,,,,,
html-keyboard-response,467,785834,null,"",null,,,,,,,,,,,,,,,
math-period,468,787587,3185.5000000004657,"",,,,,,,,,,,3,,,,,
html-keyboard-response,469,787703,null,"",null,,,,,,,,,,,,,,,
math-period,470,790787,9877.499999999534,"",,,,,,,,,,,3,,,,,
html-keyboard-response,471,790902,null,"",null,,,,,,,,,,,,,,,
math-period,472,793955,5288,"",,,,,,,,,,,3,,,,,
html-keyboard-response,473,794058,null,"",null,,,,,,,,,,,,,,,
math-period,474,794947,null,"",,,,,,,,,,,,,,,,
html-keyboard-response,475,795952,null,"Recall Period!",null,,,,,,,,,,,,,,,
call-function,476,795953,,"",,,,,,,,,,,,,,,,
html-keyboard-response,477,796060,null,"",null,,,,,,,,,,,,,,,
recall-period,478,805523,64474.300000000745,"",,,,,,,,,,,sausage,,,,,
html-keyboard-response,479,805633,null,"",null,,,,,,,,,,,,,,,
recall-period,480,807131,5298.999999999534,"",,,,,,,,,,,cabin,,,,,
html-keyboard-response,481,807233,null,"",null,,,,,,,,,,,,,,,
recall-period,482,808347,2715.8000000012107,"",,,,,,,,,,,drug,,,,,
html-keyboard-response,483,808462,null,"",null,,,,,,,,,,,,,,,
recall-period,484,812739,10622.80000000121,"",,,,,,,,,,,waist,,,,,
html-keyboard-response,485,812848,null,"",null,,,,,,,,,,,,,,,
recall-period,486,818443,11823.900000001304,"",,,,,,,,,,,pluto,,,,,
html-keyboard-response,487,818556,null,"",null,,,,,,,,,,,,,,,
recall-period,488,822219,12413.400000000373,"",,,,,,,,,,,pond,,,,,
html-keyboard-response,489,822329,null,"",null,,,,,,,,,,,,,,,
recall-period,490,827922,36678,"",,,,,,,,,,,scallop,,,,,
html-keyboard-response,491,828028,null,"",null,,,,,,,,,,,,,,,
recall-period,492,870962,null,"",,,,,,,,,,,,,,,,
html-keyboard-response,493,871465,null,"Time's Up!",null,,,,,,,,,,,,,,,
html-keyboard-response,494,874739,3272.899999999441,"<p> Good job! You have responded correctly to 100% of the trials. </p>
                      <p>Be sure to only press the spacebar if you see a GREEN square, and please keep your accuracy above 80%.</p>
                      <p> Press any key to continue the experiment. </p>",32,,,,,,,,,,,,,,,
html-keyboard-response,495,875275,534.2999999998137,"<div style=""font-size:48px;"">Press any key to begin list 5 of 16 </div>",32,,,,,,,,,,,,,,,
html-keyboard-response,496,877787,null,"<div style=""font-size:60px;"">+</div>",null,,,,,,,,,,,,,,,
html-keyboard-response,497,877989,null,"<div style=""font-size:42px;"">HATCHET</div><img id = ""stim"" ><div class = green_square id = topsquare></div>",null,encoding,word_square,,,1,topsquare,32,true,,,HATCHET,4,,,
html-keyboard-response,498,878303,null,"<div style=""font-size:42px;"">HATCHET</div>",null,,word,HATCHET,,,,,,,,,,,,
html-keyboard-response,499,879810,58.90000000037253,"",32,,word,HATCHET,,,,,,,,,,,,
html-keyboard-response,500,880022,null,"<div style=""font-size:42px;"">LETTUCE</div><img id = ""stim"" ><div class = green_square id = bottomsquare></div>",null,encoding,word_square,,,1,bottomsquare,32,true,,,LETTUCE,4,,,
html-keyboard-response,501,880329,null,"<div style=""font-size:42px;"">LETTUCE</div>",null,,word,LETTUCE,,,,,,,,,,,,
html-keyboard-response,502,881838,8.200000000186265,"",32,,word,LETTUCE,,,,,,,,,,,,
html-keyboard-response,503,882049,null,"<div style=""font-size:42px;"">FRECKLE</div><img id = ""stim"" ><div class = red_square id = bottomsquare></div>",null,encoding,word_square,,,0,bottomsquare,none,true,,,FRECKLE,4,,,
html-keyboard-response,504,882356,null,"<div style=""font-size:42px;"">FRECKLE</div>",null,,word,FRECKLE,,,,,,,,,,,,
html-keyboard-response,505,883864,null,"",null,,word,FRECKLE,,,,,,,,,,,,
html-keyboard-response,506,884075,null,"<div style=""font-size:42px;"">CLOSET</div><img id = ""stim"" ><div class = green_square id = topsquare></div>",null,encoding,word_square,,,1,topsquare,32,true,,,CLOSET,4,,,
html-keyboard-response,507,884382,262.09999999962747,"<div style=""font-size:42px;"">CLOSET</div>",32,,word,CLOSET,,,,,,,,,,,,
html-keyboard-response,508,885890,null,"",null,,word,CLOSET,,,,,,,,,,,,
html-keyboard-response,509,886102,null,"<div style=""font-size:42px;"">CANDY</div><img id = ""stim"" ><div class = red_square id = topsquare></div>",null,encoding,word_square,,,0,topsquare,none,true,,,CANDY,4,,,
html-keyboard-response,510,886408,null,"<div style=""font-size:42px;"">CANDY</div>",null,,word,CANDY,,,,,,,,,,,,
html-keyboard-response,511,887917,null,"",null,,word,CANDY,,,,,,,,,,,,
html-keyboard-response,512,888126,null,"<div style=""font-size:42px;"">PASTRY</div><img id = ""stim"" ><div class = red_square id = bottomsquare></div>",null,encoding,word_square,,,0,bottomsquare,none,true,,,PASTRY,4,,,
html-keyboard-response,513,888429,null,"<div style=""font-size:42px;"">PASTRY</div>",null,,word,PASTRY,,,,,,,,,,,,
html-keyboard-response,514,889945,null,"",null,,word,PASTRY,,,,,,,,,,,,
html-keyboard-response,515,890152,null,"<div style=""font-size:42px;"">FIDDLE</div><img id = ""stim"" ><div class = green_square id = bottomsquare></div>",null,encoding,word_square,,,1,bottomsquare,32,true,,,FIDDLE,4,,,
html-keyboard-response,516,890462,265.79999999981374,"<div style=""font-size:42px;"">FIDDLE</div>",32,,word,FIDDLE,,,,,,,,,,,,
html-keyboard-response,517,891971,null,"",null,,word,FIDDLE,,,,,,,,,,,,
html-keyboard-response,518,892182,null,"<div style=""font-size:42px;"">WHISTLE</div><img id = ""stim"" ><div class = red_square id = topsquare></div>",null,encoding,word_square,,,0,topsquare,none,true,,,WHISTLE,4,,,
html-keyboard-response,519,892489,null,"<div style=""font-size:42px;"">WHISTLE</div>",null,,word,WHISTLE,,,,,,,,,,,,
html-keyboard-response,520,893996,null,"",null,,word,WHISTLE,,,,,,,,,,,,
html-keyboard-response,521,894206,null,"<div style=""font-size:42px;"">SQUID</div><img id = ""stim"" ><div class = green_square id = topsquare></div>",null,encoding,word_square,,,1,topsquare,32,true,,,SQUID,4,,,
html-keyboard-response,522,894516,null,"<div style=""font-size:42px;"">SQUID</div>",null,,word,SQUID,,,,,,,,,,,,
html-keyboard-response,523,896023,101.3999999994412,"",32,,word,SQUID,,,,,,,,,,,,
html-keyboard-response,524,896233,null,"<div style=""font-size:42px;"">WORKER</div><img id = ""stim"" ><div class = green_square id = bottomsquare></div>",null,encoding,word_square,,,1,bottomsquare,32,true,,,WORKER,4,,,
html-keyboard-response,525,896542,null,"<div style=""font-size:42px;"">WORKER</div>",null,,word,WORKER,,,,,,,,,,,,
html-keyboard-response,526,898050,147.29999999981374,"",32,,word,WORKER,,,,,,,,,,,,
html-keyboard-response,527,898260,null,"<div style=""font-size:42px;"">TILE</div><img id = ""stim"" ><div class = green_square id = topsquare></div>",null,encoding,word_square,,,1,topsquare,32,true,,,TILE,4,,,
html-keyboard-response,528,898568,null,"<div style=""font-size:42px;"">TILE</div>",null,,word,TILE,,,,,,,,,,,,
html-keyboard-response,529,900077,137,"",32,,word,TILE,,,,,,,,,,,,
html-keyboard-response,530,900286,null,"<div style=""font-size:42px;"">RUG</div><img id = ""stim"" ><div class = red_square id = bottomsquare></div>",null,encoding,word_square,,,0,bottomsquare,none,true,,,RUG,4,,,
html-keyboard-response,531,900595,null,"<div style=""font-size:42px;"">RUG</div>",null,,word,RUG,,,,,,,,,,,,
html-keyboard-response,532,902104,null,"",null,,word,RUG,,,,,,,,,,,,
html-keyboard-response,533,902314,null,"<div style=""font-size:42px;"">TUTU</div><img id = ""stim"" ><div class = red_square id = topsquare></div>",null,encoding,word_square,,,0,topsquare,none,true,,,TUTU,4,,,
html-keyboard-response,534,902621,null,"<div style=""font-size:42px;"">TUTU</div>",null,,word,TUTU,,,,,,,,,,,,
html-keyboard-response,535,904131,null,"",null,,word,TUTU,,,,,,,,,,,,
html-keyboard-response,536,904341,null,"<div style=""font-size:42px;"">GOBLIN</div><img id = ""stim"" ><div class = green_square id = bottomsquare></div>",null,encoding,word_square,,,1,bottomsquare,32,true,,,GOBLIN,4,,,
html-keyboard-response,537,904649,null,"<div style=""font-size:42px;"">GOBLIN</div>",null,,word,GOBLIN,,,,,,,,,,,,
html-keyboard-response,538,906158,1.699999999254942,"",32,,word,GOBLIN,,,,,,,,,,,,
html-keyboard-response,539,906370,null,"<div style=""font-size:42px;"">BRIDE</div><img id = ""stim"" ><div class = red_square id = bottomsquare></div>",null,encoding,word_square,,,0,bottomsquare,none,true,,,BRIDE,4,,,
html-keyboard-response,540,906676,null,"<div style=""font-size:42px;"">BRIDE</div>",null,,word,BRIDE,,,,,,,,,,,,
html-keyboard-response,541,908185,null,"",null,,word,BRIDE,,,,,,,,,,,,
html-keyboard-response,542,908396,null,"<div style=""font-size:42px;"">EYELASH</div><img id = ""stim"" ><div class = red_square id = topsquare></div>",null,encoding,word_square,,,0,topsquare,none,true,,,EYELASH,4,,,
html-keyboard-response,543,908703,null,"<div style=""font-size:42px;"">EYELASH</div>",null,,word,EYELASH,,,,,,,,,,,,
html-keyboard-response,544,910211,null,"",null,,word,EYELASH,,,,,,,,,,,,
call-function,545,910212,,"",,,,,,,,,,,,,,,,
html-keyboard-response,546,910322,null,"",null,,,,,,,,,,,,,,,
math-period,547,915292,9289.899999999441,"",,,,,,,,,,,3,,,,,
html-keyboard-response,548,915393,null,"",null,,,,,,,,,,,,,,,
math-period,549,916755,2481,"",,,,,,,,,,,3,,,,,
html-keyboard-response,550,916860,null,"",null,,,,,,,,,,,,,,,
math-period,551,919043,3932.2999999988824,"",,,,,,,,,,,5,,,,,
html-keyboard-response,552,919156,null,"",null,,,,,,,,,,,,,,,
math-period,553,921579,4436.9000000003725,"",,,,,,,,,,,1,,,,,
html-keyboard-response,554,921695,null,"",null,,,,,,,,,,,,,,,
math-period,555,924419,4637.600000000559,"",,,,,,,,,,,2,,,,,
html-keyboard-response,556,924529,null,"",null,,,,,,,,,,,,,,,
math-period,557,926459,3147.0999999996275,"",,,,,,,,,,,3,,,,,
html-keyboard-response,558,926569,null,"",null,,,,,,,,,,,,,,,
math-period,559,930547,7234,"",,,,,,,,,,,3,,,,,
html-keyboard-response,560,930662,null,"",null,,,,,,,,,,,,,,,
math-period,561,934211,6534.800000000745,"",,,,,,,,,,,3,,,,,
html-keyboard-response,562,935218,null,"Recall Period!",null,,,,,,,,,,,,,,,
call-function,563,935218,,"",,,,,,,,,,,,,,,,
html-keyboard-response,564,935326,null,"",null,,,,,,,,,,,,,,,
recall-period,565,939499,27371.70000000391,"",,,,,,,,,,,hatchet,,,,,
html-keyboard-response,566,939607,null,"",null,,,,,,,,,,,,,,,
recall-period,567,941179,7781.999999999069,"",,,,,,,,,,,lettuce,,,,,
html-keyboard-response,568,941295,null,"",null,,,,,,,,,,,,,,,
recall-period,569,943059,6346.500000001863,"",,,,,,,,,,,closet,,,,,
html-keyboard-response,570,943163,null,"",null,,,,,,,,,,,,,,,
recall-period,571,946402,18775.60000000056,"",,,,,,,,,,,fiddle,,,,,
html-keyboard-response,572,946506,null,"",null,,,,,,,,,,,,,,,
recall-period,573,947963,4633.000000000931,"",,,,,,,,,,,squid,,,,,
html-keyboard-response,574,948074,null,"",null,,,,,,,,,,,,,,,
recall-period,575,949458,4777.300000000745,"",,,,,,,,,,,worker,,,,,
html-keyboard-response,576,949560,null,"",null,,,,,,,,,,,,,,,
recall-period,577,1010749,null,"",,,,,,,,,,,,,,,,
html-keyboard-response,578,1011755,null,"Time's Up!",null,,,,,,,,,,,,,,,
html-keyboard-response,579,1044408,32653.599999999627,"<p> Good job! You have responded correctly to 100% of the trials. </p>
                      <p>Be sure to only press the spacebar if you see a GREEN square, and please keep your accuracy above 80%.</p>
                      <p> Press any key to continue the experiment. </p>",32,,,,,,,,,,,,,,,
html-keyboard-response,580,1045344,935.2000000001863,"<div style=""font-size:48px;"">Press any key to begin list 6 of 16 </div>",32,,,,,,,,,,,,,,,
html-keyboard-response,581,1047855,null,"<div style=""font-size:60px;"">+</div>",null,,,,,,,,,,,,,,,
html-keyboard-response,582,1048057,null,"<div style=""font-size:42px;"">STREET</div><img id = ""stim"" ><div class = red_square id = topsquare></div>",null,encoding,word_square,,,0,topsquare,none,true,,,STREET,5,,,
html-keyboard-response,583,1048366,null,"<div style=""font-size:42px;"">STREET</div>",null,,word,STREET,,,,,,,,,,,,
html-keyboard-response,584,1049875,null,"",null,,word,STREET,,,,,,,,,,,,
html-keyboard-response,585,1050086,null,"<div style=""font-size:42px;"">ROOSTER</div><img id = ""stim"" ><div class = red_square id = bottomsquare></div>",null,encoding,word_square,,,0,bottomsquare,none,true,,,ROOSTER,5,,,
html-keyboard-response,586,1050393,null,"<div style=""font-size:42px;"">ROOSTER</div>",null,,word,ROOSTER,,,,,,,,,,,,
html-keyboard-response,587,1051901,null,"",null,,word,ROOSTER,,,,,,,,,,,,
html-keyboard-response,588,1052113,null,"<div style=""font-size:42px;"">PORPOISE</div><img id = ""stim"" ><div class = green_square id = bottomsquare></div>",null,encoding,word_square,,,1,bottomsquare,32,true,,,PORPOISE,5,,,
html-keyboard-response,589,1052420,167.5,"<div style=""font-size:42px;"">PORPOISE</div>",32,,word,PORPOISE,,,,,,,,,,,,
html-keyboard-response,590,1053928,null,"",null,,word,PORPOISE,,,,,,,,,,,,
html-keyboard-response,591,1054139,null,"<div style=""font-size:42px;"">BANDIT</div><img id = ""stim"" ><div class = red_square id = topsquare></div>",null,encoding,word_square,,,0,topsquare,none,true,,,BANDIT,5,,,
html-keyboard-response,592,1054447,null,"<div style=""font-size:42px;"">BANDIT</div>",null,,word,BANDIT,,,,,,,,,,,,
html-keyboard-response,593,1055955,null,"",null,,word,BANDIT,,,,,,,,,,,,
html-keyboard-response,594,1056166,null,"<div style=""font-size:42px;"">GLOBE</div><img id = ""stim"" ><div class = red_square id = bottomsquare></div>",null,encoding,word_square,,,0,bottomsquare,none,true,,,GLOBE,5,,,
html-keyboard-response,595,1056474,null,"<div style=""font-size:42px;"">GLOBE</div>",null,,word,GLOBE,,,,,,,,,,,,
html-keyboard-response,596,1057981,null,"",null,,word,GLOBE,,,,,,,,,,,,
html-keyboard-response,597,1058193,null,"<div style=""font-size:42px;"">TORCH</div><img id = ""stim"" ><div class = green_square id = topsquare></div>",null,encoding,word_square,,,1,topsquare,32,true,,,TORCH,5,,,
html-keyboard-response,598,1058499,206.29999999981374,"<div style=""font-size:42px;"">TORCH</div>",32,,word,TORCH,,,,,,,,,,,,
html-keyboard-response,599,1060008,null,"",null,,word,TORCH,,,,,,,,,,,,
html-keyboard-response,600,1060221,null,"<div style=""font-size:42px;"">BANKER</div><img id = ""stim"" ><div class = green_square id = bottomsquare></div>",null,encoding,word_square,,,1,bottomsquare,32,true,,,BANKER,5,,,
html-keyboard-response,601,1060526,null,"<div style=""font-size:42px;"">BANKER</div>",null,,word,BANKER,,,,,,,,,,,,
html-keyboard-response,602,1062035,89,"",32,,word,BANKER,,,,,,,,,,,,
html-keyboard-response,603,1062246,null,"<div style=""font-size:42px;"">PERCH</div><img id = ""stim"" ><div class = green_square id = topsquare></div>",null,encoding,word_square,,,1,topsquare,32,true,,,PERCH,5,,,
html-keyboard-response,604,1062553,null,"<div style=""font-size:42px;"">PERCH</div>",null,,word,PERCH,,,,,,,,,,,,
html-keyboard-response,605,1064057,78.8999999994412,"",32,,word,PERCH,,,,,,,,,,,,
html-keyboard-response,606,1064272,null,"<div style=""font-size:42px;"">POISON</div><img id = ""stim"" ><div class = red_square id = topsquare></div>",null,encoding,word_square,,,0,topsquare,none,true,,,POISON,5,,,
html-keyboard-response,607,1064580,null,"<div style=""font-size:42px;"">POISON</div>",null,,word,POISON,,,,,,,,,,,,
html-keyboard-response,608,1066088,null,"",null,,word,POISON,,,,,,,,,,,,
html-keyboard-response,609,1066299,null,"<div style=""font-size:42px;"">PASTA</div><img id = ""stim"" ><div class = green_square id = bottomsquare></div>",null,encoding,word_square,,,1,bottomsquare,32,true,,,PASTA,5,,,
html-keyboard-response,610,1066606,275.70000000018626,"<div style=""font-size:42px;"">PASTA</div>",32,,word,PASTA,,,,,,,,,,,,
html-keyboard-response,611,1068114,null,"",null,,word,PASTA,,,,,,,,,,,,
html-keyboard-response,612,1068323,null,"<div style=""font-size:42px;"">SHAMPOO</div><img id = ""stim"" ><div class = red_square id = bottomsquare></div>",null,encoding,word_square,,,0,bottomsquare,none,true,,,SHAMPOO,5,,,
html-keyboard-response,613,1068633,null,"<div style=""font-size:42px;"">SHAMPOO</div>",null,,word,SHAMPOO,,,,,,,,,,,,
html-keyboard-response,614,1070135,null,"",null,,word,SHAMPOO,,,,,,,,,,,,
html-keyboard-response,615,1070344,null,"<div style=""font-size:42px;"">PARROT</div><img id = ""stim"" ><div class = red_square id = topsquare></div>",null,encoding,word_square,,,0,topsquare,none,true,,,PARROT,5,,,
html-keyboard-response,616,1070659,null,"<div style=""font-size:42px;"">PARROT</div>",null,,word,PARROT,,,,,,,,,,,,
html-keyboard-response,617,1072169,null,"",null,,word,PARROT,,,,,,,,,,,,
html-keyboard-response,618,1072379,null,"<div style=""font-size:42px;"">SCARECROW</div><img id = ""stim"" ><div class = green_square id = topsquare></div>",null,encoding,word_square,,,1,topsquare,32,true,,,SCARECROW,5,,,
html-keyboard-response,619,1072684,235.40000000037253,"<div style=""font-size:42px;"">SCARECROW</div>",32,,word,SCARECROW,,,,,,,,,,,,
html-keyboard-response,620,1074192,null,"",null,,word,SCARECROW,,,,,,,,,,,,
html-keyboard-response,621,1074406,null,"<div style=""font-size:42px;"">TOMBSTONE</div><img id = ""stim"" ><div class = red_square id = bottomsquare></div>",null,encoding,word_square,,,0,bottomsquare,none,true,,,TOMBSTONE,5,,,
html-keyboard-response,622,1074710,null,"<div style=""font-size:42px;"">TOMBSTONE</div>",null,,word,TOMBSTONE,,,,,,,,,,,,
html-keyboard-response,623,1076226,null,"",null,,word,TOMBSTONE,,,,,,,,,,,,
html-keyboard-response,624,1076432,null,"<div style=""font-size:42px;"">DRESSER</div><img id = ""stim"" ><div class = green_square id = bottomsquare></div>",null,encoding,word_square,,,1,bottomsquare,32,true,,,DRESSER,5,,,
html-keyboard-response,625,1076737,255.09999999962747,"<div style=""font-size:42px;"">DRESSER</div>",32,,word,DRESSER,,,,,,,,,,,,
html-keyboard-response,626,1078252,null,"",null,,word,DRESSER,,,,,,,,,,,,
html-keyboard-response,627,1078459,null,"<div style=""font-size:42px;"">BUREAU</div><img id = ""stim"" ><div class = green_square id = topsquare></div>",null,encoding,word_square,,,1,topsquare,32,true,,,BUREAU,5,,,
html-keyboard-response,628,1078764,null,"<div style=""font-size:42px;"">BUREAU</div>",null,,word,BUREAU,,,,,,,,,,,,
html-keyboard-response,629,1080274,66.6000000005588,"",32,,word,BUREAU,,,,,,,,,,,,
call-function,630,1080275,,"",,,,,,,,,,,,,,,,
html-keyboard-response,631,1080376,null,"",null,,,,,,,,,,,,,,,
math-period,632,1082896,4773.100000000559,"",,,,,,,,,,,3,,,,,
html-keyboard-response,633,1083006,null,"",null,,,,,,,,,,,,,,,
math-period,634,1085504,4697.800000000745,"",,,,,,,,,,,1,,,,,
html-keyboard-response,635,1085607,null,"",null,,,,,,,,,,,,,,,
math-period,636,1094743,17766.699999999255,"",,,,,,,,,,,0,,,,,
html-keyboard-response,637,1094849,null,"",null,,,,,,,,,,,,,,,
math-period,638,1097175,4385.9000000003725,"",,,,,,,,,,,1,,,,,
html-keyboard-response,639,1097285,null,"",null,,,,,,,,,,,,,,,
math-period,640,1100255,5441.499999999069,"",,,,,,,,,,,4,,,,,
html-keyboard-response,641,1100358,null,"",null,,,,,,,,,,,,,,,
math-period,642,1102607,4023.4999999990687,"",,,,,,,,,,,5,,,,,
html-keyboard-response,643,1102710,null,"",null,,,,,,,,,,,,,,,
math-period,644,1104283,null,"",,,,,,,,,,,,,,,,
html-keyboard-response,645,1105285,null,"Recall Period!",null,,,,,,,,,,,,,,,
call-function,646,1105285,,"",,,,,,,,,,,,,,,,
html-keyboard-response,647,1105393,null,"",null,,,,,,,,,,,,,,,
recall-period,648,1107444,7823.900000001304,"",,,,,,,,,,,torch,,,,,
html-keyboard-response,649,1107554,null,"",null,,,,,,,,,,,,,,,
recall-period,650,1108980,4746.800000000745,"",,,,,,,,,,,pasta,,,,,
html-keyboard-response,651,1109089,null,"",null,,,,,,,,,,,,,,,
recall-period,652,1111195,8459.300000001676,"",,,,,,,,,,,purpose,,,,,
html-keyboard-response,653,1111298,null,"",null,,,,,,,,,,,,,,,
recall-period,654,1112603,4183.599999997765,"",,,,,,,,,,,perch,,,,,
html-keyboard-response,655,1112707,null,"",null,,,,,,,,,,,,,,,
recall-period,656,1114683,5560.89999999851,"",,,,,,,,,,,banker,,,,,
html-keyboard-response,657,1114795,null,"",null,,,,,,,,,,,,,,,
recall-period,658,1125843,183248.29999999702,"",,,,,,,,,,,scarecrow,,,,,
html-keyboard-response,659,1125955,null,"",null,,,,,,,,,,,,,,,
recall-period,660,1180298,null,"",,,,,,,,,,,,,,,,
html-keyboard-response,661,1180812,null,"Time's Up!",null,,,,,,,,,,,,,,,
html-keyboard-response,662,1184836,4022.5,"<p> Good job! You have responded correctly to 100% of the trials. </p>
                      <p>Be sure to only press the spacebar if you see a GREEN square, and please keep your accuracy above 80%.</p>
                      <p> Press any key to continue the experiment. </p>",32,,,,,,,,,,,,,,,
html-keyboard-response,663,1185571,734.4000000003725,"<div style=""font-size:48px;"">Press any key to begin list 7 of 16 </div>",32,,,,,,,,,,,,,,,
html-keyboard-response,664,1188083,null,"<div style=""font-size:60px;"">+</div>",null,,,,,,,,,,,,,,,
html-keyboard-response,665,1188288,null,"<div style=""font-size:42px;"">HAYSTACK</div><img id = ""stim"" ><div class = red_square id = bottomsquare></div>",null,encoding,word_square,,,0,bottomsquare,none,true,,,HAYSTACK,6,,,
html-keyboard-response,666,1188596,null,"<div style=""font-size:42px;"">HAYSTACK</div>",null,,word,HAYSTACK,,,,,,,,,,,,
html-keyboard-response,667,1190104,null,"",null,,word,HAYSTACK,,,,,,,,,,,,
html-keyboard-response,668,1190315,null,"<div style=""font-size:42px;"">TOURIST</div><img id = ""stim"" ><div class = red_square id = topsquare></div>",null,encoding,word_square,,,0,topsquare,none,true,,,TOURIST,6,,,
html-keyboard-response,669,1190622,null,"<div style=""font-size:42px;"">TOURIST</div>",null,,word,TOURIST,,,,,,,,,,,,
html-keyboard-response,670,1192130,null,"",null,,word,TOURIST,,,,,,,,,,,,
html-keyboard-response,671,1192342,null,"<div style=""font-size:42px;"">LODGE</div><img id = ""stim"" ><div class = green_square id = topsquare></div>",null,encoding,word_square,,,1,topsquare,32,true,,,LODGE,6,,,
html-keyboard-response,672,1192648,259.70000000018626,"<div style=""font-size:42px;"">LODGE</div>",32,,word,LODGE,,,,,,,,,,,,
html-keyboard-response,673,1194157,null,"",null,,word,LODGE,,,,,,,,,,,,
html-keyboard-response,674,1194369,null,"<div style=""font-size:42px;"">BUILDER</div><img id = ""stim"" ><div class = red_square id = bottomsquare></div>",null,encoding,word_square,,,0,bottomsquare,none,true,,,BUILDER,6,,,
html-keyboard-response,675,1194675,null,"<div style=""font-size:42px;"">BUILDER</div>",null,,word,BUILDER,,,,,,,,,,,,
html-keyboard-response,676,1196189,null,"",null,,word,BUILDER,,,,,,,,,,,,
html-keyboard-response,677,1196392,null,"<div style=""font-size:42px;"">PAINTING</div><img id = ""stim"" ><div class = green_square id = bottomsquare></div>",null,encoding,word_square,,,1,bottomsquare,32,true,,,PAINTING,6,,,
html-keyboard-response,678,1196702,null,"<div style=""font-size:42px;"">PAINTING</div>",null,,word,PAINTING,,,,,,,,,,,,
html-keyboard-response,679,1198210,108.29999999981374,"",32,,word,PAINTING,,,,,,,,,,,,
html-keyboard-response,680,1198422,null,"<div style=""font-size:42px;"">ATTIC</div><img id = ""stim"" ><div class = green_square id = topsquare></div>",null,encoding,word_square,,,1,topsquare,32,true,,,ATTIC,6,,,
html-keyboard-response,681,1198728,null,"<div style=""font-size:42px;"">ATTIC</div>",null,,word,ATTIC,,,,,,,,,,,,
html-keyboard-response,682,1200236,112.90000000037253,"",32,,word,ATTIC,,,,,,,,,,,,
html-keyboard-response,683,1200448,null,"<div style=""font-size:42px;"">KNUCKLE</div><img id = ""stim"" ><div class = red_square id = topsquare></div>",null,encoding,word_square,,,0,topsquare,none,true,,,KNUCKLE,6,,,
html-keyboard-response,684,1200755,null,"<div style=""font-size:42px;"">KNUCKLE</div>",null,,word,KNUCKLE,,,,,,,,,,,,
html-keyboard-response,685,1202271,null,"",null,,word,KNUCKLE,,,,,,,,,,,,
html-keyboard-response,686,1202488,null,"<div style=""font-size:42px;"">SCARF</div><img id = ""stim"" ><div class = green_square id = bottomsquare></div>",null,encoding,word_square,,,1,bottomsquare,32,true,,,SCARF,6,,,
html-keyboard-response,687,1202796,null,"<div style=""font-size:42px;"">SCARF</div>",null,,word,SCARF,,,,,,,,,,,,
html-keyboard-response,688,1204303,69.20000000018626,"",32,,word,SCARF,,,,,,,,,,,,
html-keyboard-response,689,1204512,null,"<div style=""font-size:42px;"">THIEF</div><img id = ""stim"" ><div class = red_square id = bottomsquare></div>",null,encoding,word_square,,,0,bottomsquare,none,true,,,THIEF,6,,,
html-keyboard-response,690,1204822,null,"<div style=""font-size:42px;"">THIEF</div>",null,,word,THIEF,,,,,,,,,,,,
html-keyboard-response,691,1206329,null,"",null,,word,THIEF,,,,,,,,,,,,
html-keyboard-response,692,1206539,null,"<div style=""font-size:42px;"">RACKET</div><img id = ""stim"" ><div class = red_square id = topsquare></div>",null,encoding,word_square,,,0,topsquare,none,true,,,RACKET,6,,,
html-keyboard-response,693,1206849,null,"<div style=""font-size:42px;"">RACKET</div>",null,,word,RACKET,,,,,,,,,,,,
html-keyboard-response,694,1208357,null,"",null,,word,RACKET,,,,,,,,,,,,
html-keyboard-response,695,1208566,null,"<div style=""font-size:42px;"">COOKIE</div><img id = ""stim"" ><div class = red_square id = bottomsquare></div>",null,encoding,word_square,,,0,bottomsquare,none,true,,,COOKIE,6,,,
html-keyboard-response,696,1208875,null,"<div style=""font-size:42px;"">COOKIE</div>",null,,word,COOKIE,,,,,,,,,,,,
html-keyboard-response,697,1210383,null,"",null,,word,COOKIE,,,,,,,,,,,,
html-keyboard-response,698,1210594,null,"<div style=""font-size:42px;"">MOTEL</div><img id = ""stim"" ><div class = green_square id = topsquare></div>",null,encoding,word_square,,,1,topsquare,32,true,,,MOTEL,6,,,
html-keyboard-response,699,1210902,239.59999999962747,"<div style=""font-size:42px;"">MOTEL</div>",32,,word,MOTEL,,,,,,,,,,,,
html-keyboard-response,700,1212409,null,"",null,,word,MOTEL,,,,,,,,,,,,
html-keyboard-response,701,1212619,null,"<div style=""font-size:42px;"">DRILL</div><img id = ""stim"" ><div class = green_square id = bottomsquare></div>",null,encoding,word_square,,,1,bottomsquare,32,true,,,DRILL,6,,,
html-keyboard-response,702,1212928,null,"<div style=""font-size:42px;"">DRILL</div>",null,,word,DRILL,,,,,,,,,,,,
html-keyboard-response,703,1214437,185.09999999962747,"",32,,word,DRILL,,,,,,,,,,,,
html-keyboard-response,704,1214646,null,"<div style=""font-size:42px;"">SPOON</div><img id = ""stim"" ><div class = red_square id = topsquare></div>",null,encoding,word_square,,,0,topsquare,none,true,,,SPOON,6,,,
html-keyboard-response,705,1214955,null,"<div style=""font-size:42px;"">SPOON</div>",null,,word,SPOON,,,,,,,,,,,,
html-keyboard-response,706,1216463,null,"",null,,word,SPOON,,,,,,,,,,,,
html-keyboard-response,707,1216672,null,"<div style=""font-size:42px;"">SWORD</div><img id = ""stim"" ><div class = green_square id = topsquare></div>",null,encoding,word_square,,,1,topsquare,32,true,,,SWORD,6,,,
html-keyboard-response,708,1216978,305.20000000018626,"<div style=""font-size:42px;"">SWORD</div>",32,,word,SWORD,,,,,,,,,,,,
html-keyboard-response,709,1218480,null,"",null,,word,SWORD,,,,,,,,,,,,
html-keyboard-response,710,1218685,null,"<div style=""font-size:42px;"">WRENCH</div><img id = ""stim"" ><div class = green_square id = bottomsquare></div>",null,encoding,word_square,,,1,bottomsquare,32,true,,,WRENCH,6,,,
html-keyboard-response,711,1218992,null,"<div style=""font-size:42px;"">WRENCH</div>",null,,word,WRENCH,,,,,,,,,,,,
html-keyboard-response,712,1220503,104.6000000005588,"",32,,word,WRENCH,,,,,,,,,,,,
call-function,713,1220504,,"",,,,,,,,,,,,,,,,
html-keyboard-response,714,1220605,null,"",null,,,,,,,,,,,,,,,
math-period,715,1225244,8727.700000000186,"",,,,,,,,,,,4,,,,,
html-keyboard-response,716,1225353,null,"",null,,,,,,,,,,,,,,,
math-period,717,1228020,4730,"",,,,,,,,,,,4,,,,,
html-keyboard-response,718,1228129,null,"",null,,,,,,,,,,,,,,,
math-period,719,1230859,4811.700000000186,"",,,,,,,,,,,3,,,,,
html-keyboard-response,720,1230968,null,"",null,,,,,,,,,,,,,,,
math-period,721,1233219,3451.7999999988824,"",,,,,,,,,,,2,,,,,
html-keyboard-response,722,1233329,null,"",null,,,,,,,,,,,,,,,
math-period,723,1238355,9723.5,"",,,,,,,,,,,3,,,,,
html-keyboard-response,724,1238460,null,"",null,,,,,,,,,,,,,,,
math-period,725,1242243,6915.4000000003725,"",,,,,,,,,,,3,,,,,
html-keyboard-response,726,1242355,null,"",null,,,,,,,,,,,,,,,
math-period,727,1244514,null,"",,,,,,,,,,,,,,,,
html-keyboard-response,728,1245517,null,"Recall Period!",null,,,,,,,,,,,,,,,
call-function,729,1245518,,"",,,,,,,,,,,,,,,,
html-keyboard-response,730,1245619,null,"",null,,,,,,,,,,,,,,,
recall-period,731,1247147,6039.700000002049,"",,,,,,,,,,,lodge,,,,,
html-keyboard-response,732,1247259,null,"",null,,,,,,,,,,,,,,,
recall-period,733,1250451,7528.5,"",,,,,,,,,,,attic,,,,,
html-keyboard-response,734,1250552,null,"",null,,,,,,,,,,,,,,,
recall-period,735,1253275,11423.999999998137,"",,,,,,,,,,,scarf,,,,,
html-keyboard-response,736,1253377,null,"",null,,,,,,,,,,,,,,,
recall-period,737,1255299,9064.700000001118,"",,,,,,,,,,,painting,,,,,
html-keyboard-response,738,1255400,null,"",null,,,,,,,,,,,,,,,
recall-period,739,1257155,5496.800000000745,"",,,,,,,,,,,motel,,,,,
html-keyboard-response,740,1257260,null,"",null,,,,,,,,,,,,,,,
recall-period,741,1259579,9336.799999997951,"",,,,,,,,,,,drill,,,,,
html-keyboard-response,742,1259686,null,"",null,,,,,,,,,,,,,,,
recall-period,743,1261555,7768.300000002608,"",,,,,,,,,,,sword,,,,,
html-keyboard-response,744,1261659,null,"",null,,,,,,,,,,,,,,,
recall-period,745,1263675,7301.399999996647,"",,,,,,,,,,,wrench,,,,,
html-keyboard-response,746,1263779,null,"",null,,,,,,,,,,,,,,,
recall-period,747,1320522,65441.20000000112,"",,,,,,,,,,,,,,,,
html-keyboard-response,748,1321023,null,"Time's Up!",null,,,,,,,,,,,,,,,
html-keyboard-response,749,1323476,2450.5999999996275,"<p> Good job! You have responded correctly to 100% of the trials. </p>
                      <p>Be sure to only press the spacebar if you see a GREEN square, and please keep your accuracy above 80%.</p>
                      <p> Press any key to continue the experiment. </p>",32,,,,,,,,,,,,,,,
html-keyboard-response,750,1324579,1102.300000000745,"<div style=""font-size:48px;"">Press any key to begin list 8 of 16 </div>",32,,,,,,,,,,,,,,,
html-keyboard-response,751,1327096,null,"<div style=""font-size:60px;"">+</div>",null,,,,,,,,,,,,,,,
html-keyboard-response,752,1327302,null,"<div style=""font-size:42px;"">TORTOISE</div><img id = ""stim"" ><div class = green_square id = bottomsquare></div>",null,encoding,word_square,,,1,bottomsquare,32,true,,,TORTOISE,7,,,
html-keyboard-response,753,1327609,235.8999999994412,"<div style=""font-size:42px;"">TORTOISE</div>",32,,word,TORTOISE,,,,,,,,,,,,
html-keyboard-response,754,1329117,null,"",null,,word,TORTOISE,,,,,,,,,,,,
html-keyboard-response,755,1329328,null,"<div style=""font-size:42px;"">WARDROBE</div><img id = ""stim"" ><div class = green_square id = topsquare></div>",null,encoding,word_square,,,1,topsquare,32,true,,,WARDROBE,7,,,
html-keyboard-response,756,1329635,null,"<div style=""font-size:42px;"">WARDROBE</div>",null,,word,WARDROBE,,,,,,,,,,,,
html-keyboard-response,757,1331143,358.70000000018626,"",32,,word,WARDROBE,,,,,,,,,,,,
html-keyboard-response,758,1331355,null,"<div style=""font-size:42px;"">MATCH</div><img id = ""stim"" ><div class = red_square id = topsquare></div>",null,encoding,word_square,,,0,topsquare,none,true,,,MATCH,7,,,
html-keyboard-response,759,1331661,null,"<div style=""font-size:42px;"">MATCH</div>",null,,word,MATCH,,,,,,,,,,,,
html-keyboard-response,760,1333170,null,"",null,,word,MATCH,,,,,,,,,,,,
html-keyboard-response,761,1333382,null,"<div style=""font-size:42px;"">ZEBRA</div><img id = ""stim"" ><div class = green_square id = bottomsquare></div>",null,encoding,word_square,,,1,bottomsquare,32,true,,,ZEBRA,7,,,
html-keyboard-response,762,1333688,220.40000000037253,"<div style=""font-size:42px;"">ZEBRA</div>",32,,word,ZEBRA,,,,,,,,,,,,
html-keyboard-response,763,1335196,null,"",null,,word,ZEBRA,,,,,,,,,,,,
html-keyboard-response,764,1335408,null,"<div style=""font-size:42px;"">COOK</div><img id = ""stim"" ><div class = green_square id = topsquare></div>",null,encoding,word_square,,,1,topsquare,32,true,,,COOK,7,,,
html-keyboard-response,765,1335715,305.29999999981374,"<div style=""font-size:42px;"">COOK</div>",32,,word,COOK,,,,,,,,,,,,
html-keyboard-response,766,1337223,null,"",null,,word,COOK,,,,,,,,,,,,
html-keyboard-response,767,1337435,null,"<div style=""font-size:42px;"">SHELF</div><img id = ""stim"" ><div class = red_square id = bottomsquare></div>",null,encoding,word_square,,,0,bottomsquare,none,true,,,SHELF,7,,,
html-keyboard-response,768,1337741,null,"<div style=""font-size:42px;"">SHELF</div>",null,,word,SHELF,,,,,,,,,,,,
html-keyboard-response,769,1339250,null,"",null,,word,SHELF,,,,,,,,,,,,
html-keyboard-response,770,1339462,null,"<div style=""font-size:42px;"">PASSAGE</div><img id = ""stim"" ><div class = red_square id = topsquare></div>",null,encoding,word_square,,,0,topsquare,none,true,,,PASSAGE,7,,,
html-keyboard-response,771,1339768,null,"<div style=""font-size:42px;"">PASSAGE</div>",null,,word,PASSAGE,,,,,,,,,,,,
html-keyboard-response,772,1341276,null,"",null,,word,PASSAGE,,,,,,,,,,,,
html-keyboard-response,773,1341487,null,"<div style=""font-size:42px;"">VICTIM</div><img id = ""stim"" ><div class = red_square id = bottomsquare></div>",null,encoding,word_square,,,0,bottomsquare,none,true,,,VICTIM,7,,,
html-keyboard-response,774,1341795,null,"<div style=""font-size:42px;"">VICTIM</div>",null,,word,VICTIM,,,,,,,,,,,,
html-keyboard-response,775,1343298,null,"",null,,word,VICTIM,,,,,,,,,,,,
html-keyboard-response,776,1343503,null,"<div style=""font-size:42px;"">FRIES</div><img id = ""stim"" ><div class = green_square id = bottomsquare></div>",null,encoding,word_square,,,1,bottomsquare,32,true,,,FRIES,7,,,
html-keyboard-response,777,1343813,283.3999999994412,"<div style=""font-size:42px;"">FRIES</div>",32,,word,FRIES,,,,,,,,,,,,
html-keyboard-response,778,1345315,null,"",null,,word,FRIES,,,,,,,,,,,,
html-keyboard-response,779,1345529,null,"<div style=""font-size:42px;"">CUPBOARD</div><img id = ""stim"" ><div class = red_square id = topsquare></div>",null,encoding,word_square,,,0,topsquare,none,true,,,CUPBOARD,7,,,
html-keyboard-response,780,1345836,null,"<div style=""font-size:42px;"">CUPBOARD</div>",null,,word,CUPBOARD,,,,,,,,,,,,
html-keyboard-response,781,1347344,null,"",null,,word,CUPBOARD,,,,,,,,,,,,
html-keyboard-response,782,1347553,null,"<div style=""font-size:42px;"">LUMBER</div><img id = ""stim"" ><div class = green_square id = topsquare></div>",null,encoding,word_square,,,1,topsquare,32,true,,,LUMBER,7,,,
html-keyboard-response,783,1347862,null,"<div style=""font-size:42px;"">LUMBER</div>",null,,word,LUMBER,,,,,,,,,,,,
html-keyboard-response,784,1349373,59.799999999813735,"",32,,word,LUMBER,,,,,,,,,,,,
html-keyboard-response,785,1349580,null,"<div style=""font-size:42px;"">COBWEB</div><img id = ""stim"" ><div class = green_square id = bottomsquare></div>",null,encoding,word_square,,,1,bottomsquare,32,true,,,COBWEB,7,,,
html-keyboard-response,786,1349889,null,"<div style=""font-size:42px;"">COBWEB</div>",null,,word,COBWEB,,,,,,,,,,,,
html-keyboard-response,787,1351398,160.79999999981374,"",32,,word,COBWEB,,,,,,,,,,,,
html-keyboard-response,788,1351607,null,"<div style=""font-size:42px;"">DIME</div><img id = ""stim"" ><div class = red_square id = bottomsquare></div>",null,encoding,word_square,,,0,bottomsquare,none,true,,,DIME,7,,,
html-keyboard-response,789,1351916,null,"<div style=""font-size:42px;"">DIME</div>",null,,word,DIME,,,,,,,,,,,,
html-keyboard-response,790,1353424,null,"",null,,word,DIME,,,,,,,,,,,,
html-keyboard-response,791,1353633,null,"<div style=""font-size:42px;"">QUARTER</div><img id = ""stim"" ><div class = green_square id = topsquare></div>",null,encoding,word_square,,,1,topsquare,32,true,,,QUARTER,7,,,
html-keyboard-response,792,1353942,null,"<div style=""font-size:42px;"">QUARTER</div>",null,,word,QUARTER,,,,,,,,,,,,
html-keyboard-response,793,1355450,284.5,"",32,,word,QUARTER,,,,,,,,,,,,
html-keyboard-response,794,1355660,null,"<div style=""font-size:42px;"">PLANET</div><img id = ""stim"" ><div class = red_square id = topsquare></div>",null,encoding,word_square,,,0,topsquare,none,true,,,PLANET,7,,,
html-keyboard-response,795,1355969,null,"<div style=""font-size:42px;"">PLANET</div>",null,,word,PLANET,,,,,,,,,,,,
html-keyboard-response,796,1357477,null,"",null,,word,PLANET,,,,,,,,,,,,
html-keyboard-response,797,1357686,null,"<div style=""font-size:42px;"">OUTFIT</div><img id = ""stim"" ><div class = red_square id = bottomsquare></div>",null,encoding,word_square,,,0,bottomsquare,none,true,,,OUTFIT,7,,,
html-keyboard-response,798,1357993,null,"<div style=""font-size:42px;"">OUTFIT</div>",null,,word,OUTFIT,,,,,,,,,,,,
html-keyboard-response,799,1359506,null,"",null,,word,OUTFIT,,,,,,,,,,,,
call-function,800,1359507,,"",,,,,,,,,,,,,,,,
html-keyboard-response,801,1359622,null,"",null,,,,,,,,,,,,,,,
math-period,802,1362611,5840.4000000003725,"",,,,,,,,,,,5,,,,,
html-keyboard-response,803,1362726,null,"",null,,,,,,,,,,,,,,,
math-period,804,1365547,5191.9000000003725,"",,,,,,,,,,,0,,,,,
html-keyboard-response,805,1365649,null,"",null,,,,,,,,,,,,,,,
math-period,806,1367235,2810,"",,,,,,,,,,,3,,,,,
html-keyboard-response,807,1367340,null,"",null,,,,,,,,,,,,,,,
math-period,808,1369835,4732,"",,,,,,,,,,,1,,,,,
html-keyboard-response,809,1369939,null,"",null,,,,,,,,,,,,,,,
math-period,810,1371947,3444.5999999996275,"",,,,,,,,,,,3,,,,,
html-keyboard-response,811,1372061,null,"",null,,,,,,,,,,,,,,,
math-period,812,1377347,9401.599999999627,"",,,,,,,,,,,2,,,,,
html-keyboard-response,813,1377462,null,"",null,,,,,,,,,,,,,,,
math-period,814,1383510,null,"",,,,,,,,,,,,,,,,
html-keyboard-response,815,1384523,null,"Recall Period!",null,,,,,,,,,,,,,,,
call-function,816,1384524,,"",,,,,,,,,,,,,,,,
html-keyboard-response,817,1384632,null,"",null,,,,,,,,,,,,,,,
recall-period,818,1389826,21769.799999999814,"",,,,,,,,,,,cobweb,,,,,
html-keyboard-response,819,1389936,null,"",null,,,,,,,,,,,,,,,
recall-period,820,1394114,17160.29999999702,"",,,,,,,,,,,zebra,,,,,
html-keyboard-response,821,1394227,null,"",null,,,,,,,,,,,,,,,
recall-period,822,1395434,3701.300000000745,"",,,,,,,,,,,cook,,,,,
html-keyboard-response,823,1395539,null,"",null,,,,,,,,,,,,,,,
recall-period,824,1400426,25576.499999994412,"",,,,,,,,,,,tortoise,,,,,
html-keyboard-response,825,1400541,null,"",null,,,,,,,,,,,,,,,
recall-period,826,1405453,25925.100000003353,"",,,,,,,,,,,wardrobe,,,,,
html-keyboard-response,827,1405554,null,"",null,,,,,,,,,,,,,,,
recall-period,828,1407461,5623.799999998882,"",,,,,,,,,,,fries,,,,,
html-keyboard-response,829,1407571,null,"",null,,,,,,,,,,,,,,,
recall-period,830,1409773,8913,"",,,,,,,,,,,lumber,,,,,
html-keyboard-response,831,1409885,null,"",null,,,,,,,,,,,,,,,
recall-period,832,1459535,null,"",,,,,,,,,,,,,,,,
html-keyboard-response,833,1460052,null,"Time's Up!",null,,,,,,,,,,,,,,,
html-keyboard-response,834,1461484,1431,"<p> Good job! You have responded correctly to 100% of the trials. </p>
                      <p>Be sure to only press the spacebar if you see a GREEN square, and please keep your accuracy above 80%.</p>
                      <p> Press any key to continue the experiment. </p>",32,,,,,,,,,,,,,,,
html-keyboard-response,835,1462539,1054.0999999996275,"<div style=""font-size:48px;"">Press any key to begin list 9 of 16 </div>",32,,,,,,,,,,,,,,,
html-keyboard-response,836,1465054,null,"<div style=""font-size:60px;"">+</div>",null,,,,,,,,,,,,,,,
html-keyboard-response,837,1465260,null,"<div style=""font-size:42px;"">COMET</div><img id = ""stim"" ><div class = green_square id = topsquare></div>",null,encoding,word_square,,,1,topsquare,32,true,,,COMET,8,,,
html-keyboard-response,838,1465582,null,"<div style=""font-size:42px;"">COMET</div>",null,,word,COMET,,,,,,,,,,,,
html-keyboard-response,839,1467091,139.90000000037253,"",32,,word,COMET,,,,,,,,,,,,
html-keyboard-response,840,1467303,null,"<div style=""font-size:42px;"">STAR</div><img id = ""stim"" ><div class = red_square id = bottomsquare></div>",null,encoding,word_square,,,0,bottomsquare,none,true,,,STAR,8,,,
html-keyboard-response,841,1467609,null,"<div style=""font-size:42px;"">STAR</div>",null,,word,STAR,,,,,,,,,,,,
html-keyboard-response,842,1469117,null,"",null,,word,STAR,,,,,,,,,,,,
html-keyboard-response,843,1469329,null,"<div style=""font-size:42px;"">PLAYGROUND</div><img id = ""stim"" ><div class = red_square id = topsquare></div>",null,encoding,word_square,,,0,topsquare,none,true,,,PLAYGROUND,8,,,
html-keyboard-response,844,1469636,null,"<div style=""font-size:42px;"">PLAYGROUND</div>",null,,word,PLAYGROUND,,,,,,,,,,,,
html-keyboard-response,845,1471144,null,"",null,,word,PLAYGROUND,,,,,,,,,,,,
html-keyboard-response,846,1471355,null,"<div style=""font-size:42px;"">SHOELACE</div><img id = ""stim"" ><div class = green_square id = bottomsquare></div>",null,encoding,word_square,,,1,bottomsquare,32,true,,,SHOELACE,8,,,
html-keyboard-response,847,1471663,200,"<div style=""font-size:42px;"">SHOELACE</div>",32,,word,SHOELACE,,,,,,,,,,,,
html-keyboard-response,848,1473170,null,"",null,,word,SHOELACE,,,,,,,,,,,,
html-keyboard-response,849,1473382,null,"<div style=""font-size:42px;"">CABBAGE</div><img id = ""stim"" ><div class = red_square id = bottomsquare></div>",null,encoding,word_square,,,0,bottomsquare,none,true,,,CABBAGE,8,,,
html-keyboard-response,850,1473689,null,"<div style=""font-size:42px;"">CABBAGE</div>",null,,word,CABBAGE,,,,,,,,,,,,
html-keyboard-response,851,1475197,null,"",null,,word,CABBAGE,,,,,,,,,,,,
html-keyboard-response,852,1475409,null,"<div style=""font-size:42px;"">TURNIP</div><img id = ""stim"" ><div class = green_square id = topsquare></div>",null,encoding,word_square,,,1,topsquare,32,true,,,TURNIP,8,,,
html-keyboard-response,853,1475716,193.59999999962747,"<div style=""font-size:42px;"">TURNIP</div>",32,,word,TURNIP,,,,,,,,,,,,
html-keyboard-response,854,1477224,null,"",null,,word,TURNIP,,,,,,,,,,,,
html-keyboard-response,855,1477429,null,"<div style=""font-size:42px;"">PARCEL</div><img id = ""stim"" ><div class = green_square id = bottomsquare></div>",null,encoding,word_square,,,1,bottomsquare,32,true,,,PARCEL,8,,,
html-keyboard-response,856,1477731,301.70000000018626,"<div style=""font-size:42px;"">PARCEL</div>",32,,word,PARCEL,,,,,,,,,,,,
html-keyboard-response,857,1479236,null,"",null,,word,PARCEL,,,,,,,,,,,,
html-keyboard-response,858,1479448,null,"<div style=""font-size:42px;"">DOCK</div><img id = ""stim"" ><div class = red_square id = topsquare></div>",null,encoding,word_square,,,0,topsquare,none,true,,,DOCK,8,,,
html-keyboard-response,859,1479756,null,"<div style=""font-size:42px;"">DOCK</div>",null,,word,DOCK,,,,,,,,,,,,
html-keyboard-response,860,1481263,null,"",null,,word,DOCK,,,,,,,,,,,,
html-keyboard-response,861,1481475,null,"<div style=""font-size:42px;"">SEASHORE</div><img id = ""stim"" ><div class = red_square id = bottomsquare></div>",null,encoding,word_square,,,0,bottomsquare,none,true,,,SEASHORE,8,,,
html-keyboard-response,862,1481782,null,"<div style=""font-size:42px;"">SEASHORE</div>",null,,word,SEASHORE,,,,,,,,,,,,
html-keyboard-response,863,1483290,null,"",null,,word,SEASHORE,,,,,,,,,,,,
html-keyboard-response,864,1483495,null,"<div style=""font-size:42px;"">MARSH</div><img id = ""stim"" ><div class = green_square id = topsquare></div>",null,encoding,word_square,,,1,topsquare,32,true,,,MARSH,8,,,
html-keyboard-response,865,1483812,180.09999999962747,"<div style=""font-size:42px;"">MARSH</div>",32,,word,MARSH,,,,,,,,,,,,
html-keyboard-response,866,1485317,null,"",null,,word,MARSH,,,,,,,,,,,,
html-keyboard-response,867,1485521,null,"<div style=""font-size:42px;"">RIVER</div><img id = ""stim"" ><div class = green_square id = bottomsquare></div>",null,encoding,word_square,,,1,bottomsquare,32,true,,,RIVER,8,,,
html-keyboard-response,868,1485837,272.90000000037253,"<div style=""font-size:42px;"">RIVER</div>",32,,word,RIVER,,,,,,,,,,,,
html-keyboard-response,869,1487348,null,"",null,,word,RIVER,,,,,,,,,,,,
html-keyboard-response,870,1487555,null,"<div style=""font-size:42px;"">BISON</div><img id = ""stim"" ><div class = green_square id = topsquare></div>",null,encoding,word_square,,,1,topsquare,32,true,,,BISON,8,,,
html-keyboard-response,871,1487862,null,"<div style=""font-size:42px;"">BISON</div>",null,,word,BISON,,,,,,,,,,,,
html-keyboard-response,872,1489370,107.80000000074506,"",32,,word,BISON,,,,,,,,,,,,
html-keyboard-response,873,1489582,null,"<div style=""font-size:42px;"">MILK</div><img id = ""stim"" ><div class = red_square id = topsquare></div>",null,encoding,word_square,,,0,topsquare,none,true,,,MILK,8,,,
html-keyboard-response,874,1489888,null,"<div style=""font-size:42px;"">MILK</div>",null,,word,MILK,,,,,,,,,,,,
html-keyboard-response,875,1491397,null,"",null,,word,MILK,,,,,,,,,,,,
html-keyboard-response,876,1491606,null,"<div style=""font-size:42px;"">SWAMP</div><img id = ""stim"" ><div class = green_square id = bottomsquare></div>",null,encoding,word_square,,,1,bottomsquare,32,true,,,SWAMP,8,,,
html-keyboard-response,877,1491916,null,"<div style=""font-size:42px;"">SWAMP</div>",null,,word,SWAMP,,,,,,,,,,,,
html-keyboard-response,878,1493423,142.09999999962747,"",32,,word,SWAMP,,,,,,,,,,,,
html-keyboard-response,879,1493632,null,"<div style=""font-size:42px;"">COTTAGE</div><img id = ""stim"" ><div class = red_square id = bottomsquare></div>",null,encoding,word_square,,,0,bottomsquare,none,true,,,COTTAGE,8,,,
html-keyboard-response,880,1493942,null,"<div style=""font-size:42px;"">COTTAGE</div>",null,,word,COTTAGE,,,,,,,,,,,,
html-keyboard-response,881,1495449,null,"",null,,word,COTTAGE,,,,,,,,,,,,
