trial_type,trial_index,time_elapsed,rt,stimulus,key_press,exp_phase,test_part,word,task,targ_cond,sq_pos,correctKeyCode,correct,value,response,Word,List,RecResp,serial_pos,colorChosen
pavlovia,0,4332,,"",,,,,,,,,,,,,,,,
external-html,1,14912,10042.90000000596,"",,,,,,,,,,,,,,,,
html-keyboard-response,2,20638,5721.5999999940395,"Welcome to the experiment. Press any key to begin.",77,,,,,,,,,,,,,,,
html-keyboard-response,3,56890,36249.20000001788,"<p>You will see a list of words and colored squares in the following task.<p><p>Press the spacebar whenever you see a red square.<p><p>Do not press a key if the square is green.<p><p>Press the spacebar to continue.</p>",32,,,,,,,,,,,,,,,
html-keyboard-response,4,79850,22453.90000000596,"<p>Please try to remember as many of the words as you can, and try to think about the meaning of each word as it appears.<p><p>After the detection and encoding task you will be asked to solve some math problems for 24 seconds.<p> Please solve as many problems as you can in the time given. <p><p><p>Press the spacebar to continue.</p>",32,,,,,,,,,,,,,,,
html-keyboard-response,5,166799,86435.90000000596,"After solving the math problems, you will be asked to type in as many words <p>from the previous list as you can remember for 75 seconds.<p> If you finish recalling before the 75 seconds are up,<p> just sit tight and try to think of any more words you could have missed. <p><p><p>Press the spacebar to continue.</p>",32,,,,,,,,,,,,,,,
html-keyboard-response,6,174549,7237.0999999940395,"There will be 16 lists of words and recall, followed  by<p><p> a recognition phase. The experiment is expected to take up to 90 minutes.<p>We will begin with a brief practice session.<p>Press the spacebar to begin the practice.</p>",32,,,,,,,,,,,,,,,
html-keyboard-response,7,177075,null,"<div style=""font-size:60px;"">+</div>",null,,,,,,,,,,,,,,,
html-keyboard-response,8,177279,null,"<div style=""font-size:42px;"">HAPPY</div><img id = ""stim"" ><div class = green_square id = ""bottomsquare"" ></div>",null,practice,word_square,HAPPY,prac_response,0,Bottom,none,true,,,,,,,
html-keyboard-response,9,177595,null,"<div style=""font-size:42px;"">HAPPY</div>",null,,word,HAPPY,,,,,,,,,,,,
html-keyboard-response,10,179105,null,"",null,,word,HAPPY,,,,,,,,,,,,
html-keyboard-response,11,179308,null,"<div style=""font-size:42px;"">COLD</div><img id = ""stim"" ><div class = red_square id = ""bottomsquare"" ></div>",null,practice,word_square,COLD,prac_response,1,Bottom,32,true,,,,,,,
html-keyboard-response,12,179622,311.7000000178814,"<div style=""font-size:42px;"">COLD</div>",32,,word,COLD,,,,,,,,,,,,
html-keyboard-response,13,181131,null,"",null,,word,COLD,,,,,,,,,,,,
html-keyboard-response,14,181334,null,"<div style=""font-size:42px;"">HEAVY</div><img id = ""stim"" ><div class = red_square id = ""topsquare"" ></div>",null,practice,word_square,HEAVY,prac_response,1,Top,32,true,,,,,,,
html-keyboard-response,15,181648,null,"<div style=""font-size:42px;"">HEAVY</div>",null,,word,HEAVY,,,,,,,,,,,,
html-keyboard-response,16,183166,1096.300000011921,"",32,,word,HEAVY,,,,,,,,,,,,
html-keyboard-response,17,183372,null,"<div style=""font-size:42px;"">FUNNY</div><img id = ""stim"" ><div class = green_square id = ""topsquare"" ></div>",null,practice,word_square,FUNNY,prac_response,0,Top,none,true,,,,,,,
html-keyboard-response,18,183687,null,"<div style=""font-size:42px;"">FUNNY</div>",null,,word,FUNNY,,,,,,,,,,,,
html-keyboard-response,19,185193,null,"",null,,word,FUNNY,,,,,,,,,,,,
html-keyboard-response,20,185398,null,"<div style=""font-size:42px;"">SCARY</div><img id = ""stim"" ><div class = red_square id = ""bottomsquare"" ></div>",null,practice,word_square,SCARY,prac_response,1,Bottom,32,false,,,,,,,
html-keyboard-response,21,185711,null,"<div style=""font-size:42px;"">SCARY</div>",null,,word,SCARY,,,,,,,,,,,,
html-keyboard-response,22,187214,null,"",null,,word,SCARY,,,,,,,,,,,,
html-keyboard-response,23,187432,null,"<div style=""font-size:42px;"">PEACEFUL</div><img id = ""stim"" ><div class = red_square id = ""topsquare"" ></div>",null,practice,word_square,PEACEFUL,prac_response,1,Top,32,false,,,,,,,
html-keyboard-response,24,187747,null,"<div style=""font-size:42px;"">PEACEFUL</div>",null,,word,PEACEFUL,,,,,,,,,,,,
html-keyboard-response,25,189252,null,"",null,,word,PEACEFUL,,,,,,,,,,,,
html-keyboard-response,26,189456,null,"<div style=""font-size:42px;"">LITTLE</div><img id = ""stim"" ><div class = green_square id = ""bottomsquare"" ></div>",null,practice,word_square,LITTLE,prac_response,0,Bottom,none,true,,,,,,,
html-keyboard-response,27,189772,null,"<div style=""font-size:42px;"">LITTLE</div>",null,,word,LITTLE,,,,,,,,,,,,
html-keyboard-response,28,191281,null,"",null,,word,LITTLE,,,,,,,,,,,,
html-keyboard-response,29,191485,null,"<div style=""font-size:42px;"">TIRED</div><img id = ""stim"" ><div class = green_square id = ""topsquare"" ></div>",null,practice,word_square,TIRED,prac_response,0,Top,none,true,,,,,,,
html-keyboard-response,30,191806,null,"<div style=""font-size:42px;"">TIRED</div>",null,,word,TIRED,,,,,,,,,,,,
html-keyboard-response,31,193322,null,"",null,,word,TIRED,,,,,,,,,,,,
html-keyboard-response,32,193525,null,"<div style=""font-size:42px;"">ENTERTAINING</div><img id = ""stim"" ><div class = green_square id = ""bottomsquare"" ></div>",null,practice,word_square,ENTERTAINING,prac_response,0,Bottom,none,true,,,,,,,
html-keyboard-response,33,193840,null,"<div style=""font-size:42px;"">ENTERTAINING</div>",null,,word,ENTERTAINING,,,,,,,,,,,,
html-keyboard-response,34,195353,null,"",null,,word,ENTERTAINING,,,,,,,,,,,,
html-keyboard-response,35,195559,null,"<div style=""font-size:42px;"">GRATEFUL</div><img id = ""stim"" ><div class = red_square id = ""bottomsquare"" ></div>",null,practice,word_square,GRATEFUL,prac_response,1,Bottom,32,true,,,,,,,
html-keyboard-response,36,195874,241.2000000178814,"<div style=""font-size:42px;"">GRATEFUL</div>",32,,word,GRATEFUL,,,,,,,,,,,,
html-keyboard-response,37,197386,null,"",null,,word,GRATEFUL,,,,,,,,,,,,
html-keyboard-response,38,197603,null,"<div style=""font-size:42px;"">LOUD</div><img id = ""stim"" ><div class = green_square id = ""topsquare"" ></div>",null,practice,word_square,LOUD,prac_response,0,Top,none,true,,,,,,,
html-keyboard-response,39,197919,null,"<div style=""font-size:42px;"">LOUD</div>",null,,word,LOUD,,,,,,,,,,,,
html-keyboard-response,40,199421,null,"",null,,word,LOUD,,,,,,,,,,,,
html-keyboard-response,41,199634,null,"<div style=""font-size:42px;"">SMART</div><img id = ""stim"" ><div class = red_square id = ""topsquare"" ></div>",null,practice,word_square,SMART,prac_response,1,Top,32,true,,,,,,,
html-keyboard-response,42,199949,null,"<div style=""font-size:42px;"">SMART</div>",null,,word,SMART,,,,,,,,,,,,
html-keyboard-response,43,201455,107,"",32,,word,SMART,,,,,,,,,,,,
html-keyboard-response,44,201659,null,"<div style=""font-size:42px;"">SMOOTH</div><img id = ""stim"" ><div class = red_square id = ""bottomsquare"" ></div>",null,practice,word_square,SMOOTH,prac_response,1,Bottom,32,true,,,,,,,
html-keyboard-response,45,201973,null,"<div style=""font-size:42px;"">SMOOTH</div>",null,,word,SMOOTH,,,,,,,,,,,,
html-keyboard-response,46,203480,262.90000000596046,"",32,,word,SMOOTH,,,,,,,,,,,,
html-keyboard-response,47,203684,null,"<div style=""font-size:42px;"">DISHONEST</div><img id = ""stim"" ><div class = green_square id = ""bottomsquare"" ></div>",null,practice,word_square,DISHONEST,prac_response,0,Bottom,none,true,,,,,,,
html-keyboard-response,48,203998,null,"<div style=""font-size:42px;"">DISHONEST</div>",null,,word,DISHONEST,,,,,,,,,,,,
html-keyboard-response,49,205507,null,"",null,,word,DISHONEST,,,,,,,,,,,,
html-keyboard-response,50,205724,null,"<div style=""font-size:42px;"">WEALTHY</div><img id = ""stim"" ><div class = red_square id = ""topsquare"" ></div>",null,practice,word_square,WEALTHY,prac_response,1,Top,32,true,,,,,,,
html-keyboard-response,51,206039,null,"<div style=""font-size:42px;"">WEALTHY</div>",null,,word,WEALTHY,,,,,,,,,,,,
html-keyboard-response,52,207542,656.1000000238419,"",32,,word,WEALTHY,,,,,,,,,,,,
html-keyboard-response,53,207756,null,"<div style=""font-size:42px;"">BEAUTIFUL</div><img id = ""stim"" ><div class = green_square id = ""topsquare"" ></div>",null,practice,word_square,BEAUTIFUL,prac_response,0,Top,none,true,,,,,,,
html-keyboard-response,54,208063,null,"<div style=""font-size:42px;"">BEAUTIFUL</div>",null,,word,BEAUTIFUL,,,,,,,,,,,,
html-keyboard-response,55,209578,null,"",null,,word,BEAUTIFUL,,,,,,,,,,,,
html-keyboard-response,56,303826,94244.79999998212,"<p> Good job! You responded correctly to 88% of the trials. </p>
                  <p>Be sure to only press the spacebar if you see a red square, and please keep your accuracy above 80%.</p>
                  <p>We're going to try once more to make sure you understand the task. press any key to continue. </p>",32,,,,,,,,,,,,,,,
html-keyboard-response,57,315682,11854.700000017881,"<p>You will see a list of words and colored squares in the following task.<p><p>Press the spacebar whenever you see a red square.<p><p>Do not press a key if the square is green<p><p>Press the spacebar to continue.</p>",32,,,,,,,,,,,,,,,
html-keyboard-response,58,318200,null,"<div style=""font-size:60px;"">+</div>",null,,,,,,,,,,,,,,,
html-keyboard-response,59,318405,null,"<div style=""font-size:42px;"">HAPPY</div><img id = ""stim"" ><div class = green_square id = ""bottomsquare"" ></div>",null,practice2,word_square,HAPPY,prac_response,0,Bottom,none,false,,,,,,,
html-keyboard-response,60,318721,null,"<div style=""font-size:42px;"">HAPPY</div>",null,,word,HAPPY,,,,,,,,,,,,
html-keyboard-response,61,320226,34.30000001192093,"",32,,word,HAPPY,,,,,,,,,,,,
html-keyboard-response,62,320429,null,"<div style=""font-size:42px;"">COLD</div><img id = ""stim"" ><div class = red_square id = ""bottomsquare"" ></div>",null,practice2,word_square,,prac_response,1,Bottom,32,false,,,,,,,
html-keyboard-response,63,320743,null,"<div style=""font-size:42px;"">COLD</div>",null,,word,COLD,,,,,,,,,,,,
html-keyboard-response,64,322258,null,"",null,,word,COLD,,,,,,,,,,,,
html-keyboard-response,65,322461,null,"<div style=""font-size:42px;"">HEAVY</div><img id = ""stim"" ><div class = red_square id = ""topsquare"" ></div>",null,practice2,word_square,,prac_response,1,Top,32,true,,,,,,,
html-keyboard-response,66,322776,null,"<div style=""font-size:42px;"">HEAVY</div>",null,,word,HEAVY,,,,,,,,,,,,
html-keyboard-response,67,324279,581.4000000059605,"",32,,word,HEAVY,,,,,,,,,,,,
html-keyboard-response,68,324497,null,"<div style=""font-size:42px;"">FUNNY</div><img id = ""stim"" ><div class = green_square id = ""topsquare"" ></div>",null,practice2,word_square,,prac_response,0,Top,none,true,,,,,,,
html-keyboard-response,69,324810,null,"<div style=""font-size:42px;"">FUNNY</div>",null,,word,FUNNY,,,,,,,,,,,,
html-keyboard-response,70,326327,null,"",null,,word,FUNNY,,,,,,,,,,,,
html-keyboard-response,71,326530,null,"<div style=""font-size:42px;"">SCARY</div><img id = ""stim"" ><div class = red_square id = ""bottomsquare"" ></div>",null,practice2,word_square,,prac_response,1,Bottom,32,false,,,,,,,
html-keyboard-response,72,326837,null,"<div style=""font-size:42px;"">SCARY</div>",null,,word,SCARY,,,,,,,,,,,,
html-keyboard-response,73,328347,null,"",null,,word,SCARY,,,,,,,,,,,,
html-keyboard-response,74,328564,58.5,"<div style=""font-size:42px;"">PEACEFUL</div><img id = ""stim"" ><div class = red_square id = ""topsquare"" ></div>",32,practice2,word_square,,prac_response,1,Top,32,true,,,,,,,
html-keyboard-response,75,328878,null,"<div style=""font-size:42px;"">PEACEFUL</div>",null,,word,PEACEFUL,,,,,,,,,,,,
html-keyboard-response,76,330380,324.5,"",32,,word,PEACEFUL,,,,,,,,,,,,
html-keyboard-response,77,330585,null,"<div style=""font-size:42px;"">LITTLE</div><img id = ""stim"" ><div class = green_square id = ""bottomsquare"" ></div>",null,practice2,word_square,LITTLE,prac_response,0,Bottom,none,true,,,,,,,
html-keyboard-response,78,330899,null,"<div style=""font-size:42px;"">LITTLE</div>",null,,word,LITTLE,,,,,,,,,,,,
html-keyboard-response,79,332409,null,"",null,,word,LITTLE,,,,,,,,,,,,
html-keyboard-response,80,332626,null,"<div style=""font-size:42px;"">TIRED</div><img id = ""stim"" ><div class = green_square id = ""topsquare"" ></div>",null,practice2,word_square,,prac_response,0,Top,none,true,,,,,,,
html-keyboard-response,81,332941,null,"<div style=""font-size:42px;"">TIRED</div>",null,,word,TIRED,,,,,,,,,,,,
html-keyboard-response,82,334448,null,"",null,,word,TIRED,,,,,,,,,,,,
html-keyboard-response,83,334652,null,"<div style=""font-size:42px;"">ENTERTAINING</div><img id = ""stim"" ><div class = green_square id = ""bottomsquare"" ></div>",null,practice2,word_square,ENTERTAINING,prac_response,0,Bottom,none,true,,,,,,,
html-keyboard-response,84,334964,null,"<div style=""font-size:42px;"">ENTERTAINING</div>",null,,word,ENTERTAINING,,,,,,,,,,,,
html-keyboard-response,85,336481,null,"",null,,word,ENTERTAINING,,,,,,,,,,,,
html-keyboard-response,86,336686,null,"<div style=""font-size:42px;"">GRATEFUL</div><img id = ""stim"" ><div class = red_square id = ""bottomsquare"" ></div>",null,practice2,word_square,,prac_response,1,Bottom,32,true,,,,,,,
html-keyboard-response,87,337000,null,"<div style=""font-size:42px;"">GRATEFUL</div>",null,,word,GRATEFUL,,,,,,,,,,,,
html-keyboard-response,88,338511,344.90000000596046,"",32,,word,GRATEFUL,,,,,,,,,,,,
html-keyboard-response,89,338716,null,"<div style=""font-size:42px;"">LOUD</div><img id = ""stim"" ><div class = green_square id = ""topsquare"" ></div>",null,practice2,word_square,,prac_response,0,Top,none,true,,,,,,,
html-keyboard-response,90,339027,null,"<div style=""font-size:42px;"">LOUD</div>",null,,word,LOUD,,,,,,,,,,,,
html-keyboard-response,91,340541,null,"",null,,word,LOUD,,,,,,,,,,,,
html-keyboard-response,92,340757,null,"<div style=""font-size:42px;"">SMART</div><img id = ""stim"" ><div class = red_square id = ""topsquare"" ></div>",null,practice2,word_square,,prac_response,1,Top,32,true,,,,,,,
html-keyboard-response,93,341070,null,"<div style=""font-size:42px;"">SMART</div>",null,,word,SMART,,,,,,,,,,,,
html-keyboard-response,94,342573,427.40000000596046,"",32,,word,SMART,,,,,,,,,,,,
html-keyboard-response,95,342776,null,"<div style=""font-size:42px;"">SMOOTH</div><img id = ""stim"" ><div class = red_square id = ""bottomsquare"" ></div>",null,practice2,word_square,,prac_response,1,Bottom,32,true,,,,,,,
html-keyboard-response,96,343089,null,"<div style=""font-size:42px;"">SMOOTH</div>",null,,word,SMOOTH,,,,,,,,,,,,
html-keyboard-response,97,344605,1.5999999940395355,"",32,,word,SMOOTH,,,,,,,,,,,,
html-keyboard-response,98,344808,null,"<div style=""font-size:42px;"">DISHONEST</div><img id = ""stim"" ><div class = green_square id = ""bottomsquare"" ></div>",null,practice2,word_square,DISHONEST,prac_response,0,Bottom,none,true,,,,,,,
html-keyboard-response,99,345120,null,"<div style=""font-size:42px;"">DISHONEST</div>",null,,word,DISHONEST,,,,,,,,,,,,
html-keyboard-response,100,346639,null,"",null,,word,DISHONEST,,,,,,,,,,,,
html-keyboard-response,101,346842,null,"<div style=""font-size:42px;"">WEALTHY</div><img id = ""stim"" ><div class = red_square id = ""topsquare"" ></div>",null,practice2,word_square,,prac_response,1,Top,32,true,,,,,,,
html-keyboard-response,102,347154,null,"<div style=""font-size:42px;"">WEALTHY</div>",null,,word,WEALTHY,,,,,,,,,,,,
html-keyboard-response,103,348661,71.5,"",32,,word,WEALTHY,,,,,,,,,,,,
html-keyboard-response,104,348865,null,"<div style=""font-size:42px;"">BEAUTIFUL</div><img id = ""stim"" ><div class = green_square id = ""topsquare"" ></div>",null,practice2,word_square,,prac_response,0,Top,none,true,,,,,,,
html-keyboard-response,105,349179,null,"<div style=""font-size:42px;"">BEAUTIFUL</div>",null,,word,BEAUTIFUL,,,,,,,,,,,,
html-keyboard-response,106,350695,null,"",null,,word,BEAUTIFUL,,,,,,,,,,,,
html-keyboard-response,107,401782,51085.79999998212,"<p> Good job! You responded correctly to 81% of the trials. </p>
                    <p>Be sure to only press the spacebar if you see a red square, and please keep your accuracy above 80%.</p>
                    <p>Press any key to begin the math and recall sections. Thank you! </p>",32,,,,,,,,,,,,,,,
call-function,108,401784,,"",,,,,,,,,,,,,,,,
html-keyboard-response,109,401893,null,"",null,,,,,,,,,,,,,,,
math-period,110,409658,18354.899999976158,"",,,,,,,,,,,2 ,,,,,
html-keyboard-response,111,409772,null,"",null,,,,,,,,,,,,,,,
math-period,112,411559,3270.300000011921,"",,,,,,,,,,,2,,,,,
html-keyboard-response,113,411674,null,"",null,,,,,,,,,,,,,,,
math-period,114,413312,2882.300000011921,"",,,,,,,,,,,2,,,,,
html-keyboard-response,115,413421,null,"",null,,,,,,,,,,,,,,,
math-period,116,415574,4032.4999999701977,"",,,,,,,,,,,3,,,,,
html-keyboard-response,117,415683,null,"",null,,,,,,,,,,,,,,,
math-period,118,416988,2375.5999999940395,"",,,,,,,,,,,3,,,,,
html-keyboard-response,119,417091,null,"",null,,,,,,,,,,,,,,,
math-period,120,419397,4291.099999964237,"",,,,,,,,,,,5,,,,,
html-keyboard-response,121,419505,null,"",null,,,,,,,,,,,,,,,
math-period,122,421470,3716.600000023842,"",,,,,,,,,,,5,,,,,
html-keyboard-response,123,421573,null,"",null,,,,,,,,,,,,,,,
math-period,124,424528,5664.899999976158,"",,,,,,,,,,,1,,,,,
html-keyboard-response,125,424637,null,"",null,,,,,,,,,,,,,,,
math-period,126,425796,null,"",,,,,,,,,,,,,,,,
html-keyboard-response,127,426810,null,"Recall Period!",null,,,,,,,,,,,,,,,
call-function,128,426811,,"",,,,,,,,,,,,,,,,
html-keyboard-response,129,426921,null,"",null,,,,,,,,,,,,,,,
recall-period,130,437928,11004.09999999404,"",,,,,,,,,,,,,,,,
html-keyboard-response,131,438042,null,"",null,,,,,,,,,,,,,,,
recall-period,132,446601,45315.20000001788,"",,,,,,,,,,, happy,,,,,
html-keyboard-response,133,446718,null,"",null,,,,,,,,,,,,,,,
recall-period,134,448527,5968.300000041723,"",,,,,,,,,,,cold,,,,,
html-keyboard-response,135,448632,null,"",null,,,,,,,,,,,,,,,
recall-period,136,452316,13409.599999964237,"",,,,,,,,,,,heavy,,,,,
html-keyboard-response,137,452428,null,"",null,,,,,,,,,,,,,,,
recall-period,138,455277,11012.999999940395,"",,,,,,,,,,,smoth,,,,,
html-keyboard-response,139,455388,null,"",null,,,,,,,,,,,,,,,
recall-period,140,457722,7289.699999988079,"",,,,,,,,,,,smart,,,,,
html-keyboard-response,141,457824,null,"",null,,,,,,,,,,,,,,,
recall-period,142,461950,20323.500000059605,"",,,,,,,,,,,beautiful,,,,,
html-keyboard-response,143,462067,null,"",null,,,,,,,,,,,,,,,
recall-period,144,468166,26379.900000035763,"",,,,,,,,,,,cold,,,,,
html-keyboard-response,145,468284,null,"",null,,,,,,,,,,,,,,,
recall-period,146,471877,13586.099999904633,"",,,,,,,,,,,little,,,,,
html-keyboard-response,147,471980,null,"",null,,,,,,,,,,,,,,,
recall-period,148,475437,12995.699999958277,"",,,,,,,,,,,tired,,,,,
html-keyboard-response,149,475551,null,"",null,,,,,,,,,,,,,,,
recall-period,150,481205,21508.90000000596,"",,,,,,,,,,,heavy,,,,,
html-keyboard-response,151,481311,null,"",null,,,,,,,,,,,,,,,
recall-period,152,501822,null,"",,,,,,,,,,,,,,,,
html-keyboard-response,153,502326,null,"Time's Up!",null,,,,,,,,,,,,,,,
html-keyboard-response,154,522402,20074.100000023842,"<p>We will now begin the experiment!<p><p>Please try to remember all words from each list.<p><p>Press the spacebar whenever you see a red square.<p><p><p><p>Press the spacebar to begin.</p>",32,,,,,,,,,,,,,,,
html-keyboard-response,155,525877,2958.5999999940395,"<div style=""font-size:48px;"">Press any key to begin list 1 of 16 </div>",32,,,,,,,,,,,,,,,
html-keyboard-response,156,528383,null,"<div style=""font-size:60px;"">+</div>",null,,,,,,,,,,,,,,,
html-keyboard-response,157,528586,null,"<div style=""font-size:42px;"">CAPTIVE</div><img id = ""stim"" ><div class = red_square id = topsquare></div>",null,encoding,word_square,,,1,topsquare,32,true,,,CAPTIVE,0,,,
html-keyboard-response,158,528888,null,"<div style=""font-size:42px;"">CAPTIVE</div>",null,,word,CAPTIVE,,,,,,,,,,,,
html-keyboard-response,159,530400,451.7999999821186,"",32,,word,CAPTIVE,,,,,,,,,,,,
html-keyboard-response,160,530617,null,"<div style=""font-size:42px;"">RACKET</div><img id = ""stim"" ><div class = red_square id = bottomsquare></div>",null,encoding,word_square,,,1,bottomsquare,32,true,,,RACKET,0,,,
html-keyboard-response,161,530933,null,"<div style=""font-size:42px;"">RACKET</div>",null,,word,RACKET,,,,,,,,,,,,
html-keyboard-response,162,532435,889.2000000178814,"",32,,word,RACKET,,,,,,,,,,,,
html-keyboard-response,163,532639,null,"<div style=""font-size:42px;"">YARN</div><img id = ""stim"" ><div class = green_square id = bottomsquare></div>",null,encoding,word_square,,,0,bottomsquare,none,true,,,YARN,0,,,
html-keyboard-response,164,532954,null,"<div style=""font-size:42px;"">YARN</div>",null,,word,YARN,,,,,,,,,,,,
html-keyboard-response,165,534464,null,"",null,,word,YARN,,,,,,,,,,,,
html-keyboard-response,166,534669,null,"<div style=""font-size:42px;"">PASSAGE</div><img id = ""stim"" ><div class = green_square id = topsquare></div>",null,encoding,word_square,,,0,topsquare,none,true,,,PASSAGE,0,,,
html-keyboard-response,167,534983,null,"<div style=""font-size:42px;"">PASSAGE</div>",null,,word,PASSAGE,,,,,,,,,,,,
html-keyboard-response,168,536491,null,"",null,,word,PASSAGE,,,,,,,,,,,,
html-keyboard-response,169,536695,null,"<div style=""font-size:42px;"">CRAB</div><img id = ""stim"" ><div class = red_square id = topsquare></div>",null,encoding,word_square,,,1,topsquare,32,true,,,CRAB,0,,,
html-keyboard-response,170,537009,null,"<div style=""font-size:42px;"">CRAB</div>",null,,word,CRAB,,,,,,,,,,,,
html-keyboard-response,171,538515,251.80000001192093,"",32,,word,CRAB,,,,,,,,,,,,
html-keyboard-response,172,538720,null,"<div style=""font-size:42px;"">TROUT</div><img id = ""stim"" ><div class = green_square id = bottomsquare></div>",null,encoding,word_square,,,0,bottomsquare,none,true,,,TROUT,0,,,
html-keyboard-response,173,539034,null,"<div style=""font-size:42px;"">TROUT</div>",null,,word,TROUT,,,,,,,,,,,,
html-keyboard-response,174,540546,null,"",null,,word,TROUT,,,,,,,,,,,,
html-keyboard-response,175,540750,null,"<div style=""font-size:42px;"">JELLY</div><img id = ""stim"" ><div class = green_square id = topsquare></div>",null,encoding,word_square,,,0,topsquare,none,true,,,JELLY,0,,,
html-keyboard-response,176,541065,null,"<div style=""font-size:42px;"">JELLY</div>",null,,word,JELLY,,,,,,,,,,,,
html-keyboard-response,177,542569,null,"",null,,word,JELLY,,,,,,,,,,,,
html-keyboard-response,178,542773,null,"<div style=""font-size:42px;"">SHORTS</div><img id = ""stim"" ><div class = red_square id = bottomsquare></div>",null,encoding,word_square,,,1,bottomsquare,32,true,,,SHORTS,0,,,
html-keyboard-response,179,543087,null,"<div style=""font-size:42px;"">SHORTS</div>",null,,word,SHORTS,,,,,,,,,,,,
html-keyboard-response,180,544591,107.5,"",32,,word,SHORTS,,,,,,,,,,,,
html-keyboard-response,181,544795,null,"<div style=""font-size:42px;"">CHISEL</div><img id = ""stim"" ><div class = green_square id = bottomsquare></div>",null,encoding,word_square,,,0,bottomsquare,none,true,,,CHISEL,0,,,
html-keyboard-response,182,545110,null,"<div style=""font-size:42px;"">CHISEL</div>",null,,word,CHISEL,,,,,,,,,,,,
html-keyboard-response,183,546626,null,"",null,,word,CHISEL,,,,,,,,,,,,
html-keyboard-response,184,546829,null,"<div style=""font-size:42px;"">HOSTESS</div><img id = ""stim"" ><div class = red_square id = topsquare></div>",null,encoding,word_square,,,1,topsquare,32,true,,,HOSTESS,0,,,
html-keyboard-response,185,547143,null,"<div style=""font-size:42px;"">HOSTESS</div>",null,,word,HOSTESS,,,,,,,,,,,,
html-keyboard-response,186,548650,102.2999999821186,"",32,,word,HOSTESS,,,,,,,,,,,,
html-keyboard-response,187,548855,null,"<div style=""font-size:42px;"">FREEWAY</div><img id = ""stim"" ><div class = red_square id = bottomsquare></div>",null,encoding,word_square,,,1,bottomsquare,32,true,,,FREEWAY,0,,,
html-keyboard-response,188,549168,null,"<div style=""font-size:42px;"">FREEWAY</div>",null,,word,FREEWAY,,,,,,,,,,,,
html-keyboard-response,189,550674,171.59999999403954,"",32,,word,FREEWAY,,,,,,,,,,,,
html-keyboard-response,190,550879,null,"<div style=""font-size:42px;"">LOUNGE</div><img id = ""stim"" ><div class = green_square id = topsquare></div>",null,encoding,word_square,,,0,topsquare,none,true,,,LOUNGE,0,,,
html-keyboard-response,191,551193,null,"<div style=""font-size:42px;"">LOUNGE</div>",null,,word,LOUNGE,,,,,,,,,,,,
html-keyboard-response,192,552702,null,"",null,,word,LOUNGE,,,,,,,,,,,,
html-keyboard-response,193,552907,null,"<div style=""font-size:42px;"">COSTUME</div><img id = ""stim"" ><div class = green_square id = bottomsquare></div>",null,encoding,word_square,,,0,bottomsquare,none,false,,,COSTUME,0,,,
html-keyboard-response,194,553216,null,"<div style=""font-size:42px;"">COSTUME</div>",null,,word,COSTUME,,,,,,,,,,,,
html-keyboard-response,195,554727,154.80000001192093,"",32,,word,COSTUME,,,,,,,,,,,,
html-keyboard-response,196,554931,null,"<div style=""font-size:42px;"">NOTEBOOK</div><img id = ""stim"" ><div class = red_square id = topsquare></div>",null,encoding,word_square,,,1,topsquare,32,true,,,NOTEBOOK,0,,,
html-keyboard-response,197,555244,null,"<div style=""font-size:42px;"">NOTEBOOK</div>",null,,word,NOTEBOOK,,,,,,,,,,,,
html-keyboard-response,198,556756,104.69999998807907,"",32,,word,NOTEBOOK,,,,,,,,,,,,
html-keyboard-response,199,556961,null,"<div style=""font-size:42px;"">BABY</div><img id = ""stim"" ><div class = green_square id = topsquare></div>",null,encoding,word_square,,,0,topsquare,none,true,,,BABY,0,,,
html-keyboard-response,200,557273,null,"<div style=""font-size:42px;"">BABY</div>",null,,word,BABY,,,,,,,,,,,,
html-keyboard-response,201,558780,null,"",null,,word,BABY,,,,,,,,,,,,
html-keyboard-response,202,558985,null,"<div style=""font-size:42px;"">CRIB</div><img id = ""stim"" ><div class = red_square id = bottomsquare></div>",null,encoding,word_square,,,1,bottomsquare,32,true,,,CRIB,0,,,
html-keyboard-response,203,559296,309.2000000178814,"<div style=""font-size:42px;"">CRIB</div>",32,,word,CRIB,,,,,,,,,,,,
html-keyboard-response,204,560806,null,"",null,,word,CRIB,,,,,,,,,,,,
call-function,205,560807,,"",,,,,,,,,,,,,,,,
html-keyboard-response,206,560916,null,"",null,,,,,,,,,,,,,,,
math-period,207,572645,22794,"",,,,,,,,,,,2,,,,,
html-keyboard-response,208,572751,null,"",null,,,,,,,,,,,,,,,
math-period,209,577253,8412.700000017881,"",,,,,,,,,,,0,,,,,
html-keyboard-response,210,577367,null,"",null,,,,,,,,,,,,,,,
math-period,211,580161,5395.500000029802,"",,,,,,,,,,,5,,,,,
html-keyboard-response,212,580272,null,"",null,,,,,,,,,,,,,,,
math-period,213,584653,8539.199999988079,"",,,,,,,,,,,4,,,,,
html-keyboard-response,214,584756,null,"",null,,,,,,,,,,,,,,,
math-period,215,584811,null,"",,,,,,,,,,,,,,,,
html-keyboard-response,216,585821,null,"Recall Period!",null,,,,,,,,,,,,,,,
call-function,217,585822,,"",,,,,,,,,,,,,,,,
html-keyboard-response,218,585931,null,"",null,,,,,,,,,,,,,,,
recall-period,219,591947,34933.90000003576,"",,,,,,,,,,,captain,,,,,
html-keyboard-response,220,592059,null,"",null,,,,,,,,,,,,,,,
recall-period,221,596724,15551.499999940395,"",,,,,,,,,,,launge,,,,,
html-keyboard-response,222,596836,null,"",null,,,,,,,,,,,,,,,
recall-period,223,600237,16001.000000029802,"",,,,,,,,,,,costume,,,,,
html-keyboard-response,224,600341,null,"",null,,,,,,,,,,,,,,,
recall-period,225,602889,7481.499999940395,"",,,,,,,,,,,baby,,,,,
html-keyboard-response,226,602995,null,"",null,,,,,,,,,,,,,,,
recall-period,227,606338,11676.399999916553,"",,,,,,,,,,,crib,,,,,
html-keyboard-response,228,606441,null,"",null,,,,,,,,,,,,,,,
recall-period,229,610133,22503.999999940395,"",,,,,,,,,,,attention,,,,,
html-keyboard-response,230,610249,null,"",null,,,,,,,,,,,,,,,
recall-period,231,646871,273285.6999999881,"",,,,,,,,,,,captain,,,,,
html-keyboard-response,232,646974,null,"",null,,,,,,,,,,,,,,,
recall-period,233,660832,null,"",,,,,,,,,,,,,,,,
html-keyboard-response,234,661346,null,"Time's Up!",null,,,,,,,,,,,,,,,
html-keyboard-response,235,689401,28052.399999976158,"<p> Good job! You have responded correctly to 94% of the trials. </p>
                      <p>Be sure to only press the spacebar if you see a red square, and please keep your accuracy above 80%.</p>
                      <p> Press any key to continue the experiment. </p>",32,,,,,,,,,,,,,,,
html-keyboard-response,236,694487,5084,"<div style=""font-size:48px;"">Press any key to begin list 2 of 16 </div>",32,,,,,,,,,,,,,,,
html-keyboard-response,237,696996,null,"<div style=""font-size:60px;"">+</div>",null,,,,,,,,,,,,,,,
html-keyboard-response,238,697202,null,"<div style=""font-size:42px;"">HOSTAGE</div><img id = ""stim"" ><div class = red_square id = bottomsquare></div>",null,encoding,word_square,,,1,bottomsquare,32,true,,,HOSTAGE,1,,,
html-keyboard-response,239,697518,null,"<div style=""font-size:42px;"">HOSTAGE</div>",null,,word,HOSTAGE,,,,,,,,,,,,
html-keyboard-response,240,699023,1126.300000011921,"",32,,word,HOSTAGE,,,,,,,,,,,,
html-keyboard-response,241,699227,null,"<div style=""font-size:42px;"">PEDAL</div><img id = ""stim"" ><div class = green_square id = topsquare></div>",null,encoding,word_square,,,0,topsquare,none,true,,,PEDAL,1,,,
html-keyboard-response,242,699541,null,"<div style=""font-size:42px;"">PEDAL</div>",null,,word,PEDAL,,,,,,,,,,,,
html-keyboard-response,243,701051,null,"",null,,word,PEDAL,,,,,,,,,,,,
html-keyboard-response,244,701255,null,"<div style=""font-size:42px;"">GAZELLE</div><img id = ""stim"" ><div class = red_square id = topsquare></div>",null,encoding,word_square,,,1,topsquare,32,true,,,GAZELLE,1,,,
html-keyboard-response,245,701572,null,"<div style=""font-size:42px;"">GAZELLE</div>",null,,word,GAZELLE,,,,,,,,,,,,
html-keyboard-response,246,703077,276.90000000596046,"",32,,word,GAZELLE,,,,,,,,,,,,
html-keyboard-response,247,703280,null,"<div style=""font-size:42px;"">STREAM</div><img id = ""stim"" ><div class = green_square id = bottomsquare></div>",null,encoding,word_square,,,0,bottomsquare,none,false,,,STREAM,1,,,
html-keyboard-response,248,703595,null,"<div style=""font-size:42px;"">STREAM</div>",null,,word,STREAM,,,,,,,,,,,,
html-keyboard-response,249,705102,315.59999999403954,"",32,,word,STREAM,,,,,,,,,,,,
html-keyboard-response,250,705308,null,"<div style=""font-size:42px;"">RIVER</div><img id = ""stim"" ><div class = green_square id = topsquare></div>",null,encoding,word_square,,,0,topsquare,none,true,,,RIVER,1,,,
html-keyboard-response,251,705622,null,"<div style=""font-size:42px;"">RIVER</div>",null,,word,RIVER,,,,,,,,,,,,
html-keyboard-response,252,707134,null,"",null,,word,RIVER,,,,,,,,,,,,
html-keyboard-response,253,707340,null,"<div style=""font-size:42px;"">CABOOSE</div><img id = ""stim"" ><div class = red_square id = bottomsquare></div>",null,encoding,word_square,,,1,bottomsquare,32,true,,,CABOOSE,1,,,
html-keyboard-response,254,707656,null,"<div style=""font-size:42px;"">CABOOSE</div>",null,,word,CABOOSE,,,,,,,,,,,,
html-keyboard-response,255,709158,1055.7000000178814,"",32,,word,CABOOSE,,,,,,,,,,,,
html-keyboard-response,256,709362,null,"<div style=""font-size:42px;"">CLOSET</div><img id = ""stim"" ><div class = red_square id = topsquare></div>",null,encoding,word_square,,,1,topsquare,32,true,,,CLOSET,1,,,
html-keyboard-response,257,709677,null,"<div style=""font-size:42px;"">CLOSET</div>",null,,word,CLOSET,,,,,,,,,,,,
html-keyboard-response,258,711186,225.90000000596046,"",32,,word,CLOSET,,,,,,,,,,,,
html-keyboard-response,259,711390,null,"<div style=""font-size:42px;"">STONE</div><img id = ""stim"" ><div class = green_square id = bottomsquare></div>",null,encoding,word_square,,,0,bottomsquare,none,true,,,STONE,1,,,
html-keyboard-response,260,711704,null,"<div style=""font-size:42px;"">STONE</div>",null,,word,STONE,,,,,,,,,,,,
html-keyboard-response,261,713219,null,"",null,,word,STONE,,,,,,,,,,,,
html-keyboard-response,262,713423,null,"<div style=""font-size:42px;"">KIDNEY</div><img id = ""stim"" ><div class = red_square id = bottomsquare></div>",null,encoding,word_square,,,1,bottomsquare,32,true,,,KIDNEY,1,,,
html-keyboard-response,263,713735,null,"<div style=""font-size:42px;"">KIDNEY</div>",null,,word,KIDNEY,,,,,,,,,,,,
html-keyboard-response,264,715239,70.10000002384186,"",32,,word,KIDNEY,,,,,,,,,,,,
html-keyboard-response,265,715443,null,"<div style=""font-size:42px;"">POSSUM</div><img id = ""stim"" ><div class = green_square id = topsquare></div>",null,encoding,word_square,,,0,topsquare,none,true,,,POSSUM,1,,,
html-keyboard-response,266,715756,null,"<div style=""font-size:42px;"">POSSUM</div>",null,,word,POSSUM,,,,,,,,,,,,
html-keyboard-response,267,717258,null,"",null,,word,POSSUM,,,,,,,,,,,,
html-keyboard-response,268,717474,null,"<div style=""font-size:42px;"">STOCKING</div><img id = ""stim"" ><div class = green_square id = bottomsquare></div>",null,encoding,word_square,,,0,bottomsquare,none,true,,,STOCKING,1,,,
html-keyboard-response,269,717791,null,"<div style=""font-size:42px;"">STOCKING</div>",null,,word,STOCKING,,,,,,,,,,,,
html-keyboard-response,270,719297,null,"",null,,word,STOCKING,,,,,,,,,,,,
html-keyboard-response,271,719504,null,"<div style=""font-size:42px;"">EGYPT</div><img id = ""stim"" ><div class = red_square id = topsquare></div>",null,encoding,word_square,,,1,topsquare,32,true,,,EGYPT,1,,,
html-keyboard-response,272,719819,null,"<div style=""font-size:42px;"">EGYPT</div>",null,,word,EGYPT,,,,,,,,,,,,
html-keyboard-response,273,721336,1.699999988079071,"",32,,word,EGYPT,,,,,,,,,,,,
html-keyboard-response,274,721540,null,"<div style=""font-size:42px;"">COUNTRY</div><img id = ""stim"" ><div class = green_square id = topsquare></div>",null,encoding,word_square,,,0,topsquare,none,true,,,COUNTRY,1,,,
html-keyboard-response,275,721854,null,"<div style=""font-size:42px;"">COUNTRY</div>",null,,word,COUNTRY,,,,,,,,,,,,
html-keyboard-response,276,723372,null,"",null,,word,COUNTRY,,,,,,,,,,,,
html-keyboard-response,277,723577,null,"<div style=""font-size:42px;"">DAISY</div><img id = ""stim"" ><div class = green_square id = bottomsquare></div>",null,encoding,word_square,,,0,bottomsquare,none,true,,,DAISY,1,,,
html-keyboard-response,278,723892,null,"<div style=""font-size:42px;"">DAISY</div>",null,,word,DAISY,,,,,,,,,,,,
html-keyboard-response,279,725398,null,"",null,,word,DAISY,,,,,,,,,,,,
html-keyboard-response,280,725600,null,"<div style=""font-size:42px;"">PRIMATE</div><img id = ""stim"" ><div class = red_square id = bottomsquare></div>",null,encoding,word_square,,,1,bottomsquare,32,false,,,PRIMATE,1,,,
html-keyboard-response,281,725913,null,"<div style=""font-size:42px;"">PRIMATE</div>",null,,word,PRIMATE,,,,,,,,,,,,
html-keyboard-response,282,727420,null,"",null,,word,PRIMATE,,,,,,,,,,,,
html-keyboard-response,283,727625,null,"<div style=""font-size:42px;"">GIRL</div><img id = ""stim"" ><div class = red_square id = topsquare></div>",null,encoding,word_square,,,1,topsquare,32,true,,,GIRL,1,,,
html-keyboard-response,284,727940,null,"<div style=""font-size:42px;"">GIRL</div>",null,,word,GIRL,,,,,,,,,,,,
html-keyboard-response,285,729449,191.5,"",32,,word,GIRL,,,,,,,,,,,,
call-function,286,729450,,"",,,,,,,,,,,,,,,,
html-keyboard-response,287,729551,null,"",null,,,,,,,,,,,,,,,
math-period,288,736096,12856.299999952316,"",,,,,,,,,,,2,,,,,
html-keyboard-response,289,736199,null,"",null,,,,,,,,,,,,,,,
math-period,290,738507,4462.600000023842,"",,,,,,,,,,,3,,,,,
html-keyboard-response,291,738624,null,"",null,,,,,,,,,,,,,,,
math-period,292,740979,4506.9000000059605,"",,,,,,,,,,,6,,,,,
html-keyboard-response,293,741082,null,"",null,,,,,,,,,,,,,,,
math-period,294,743749,5210.499999970198,"",,,,,,,,,,,0,,,,,
html-keyboard-response,295,743865,null,"",null,,,,,,,,,,,,,,,
math-period,296,746719,5403.700000017881,"",,,,,,,,,,,4,,,,,
html-keyboard-response,297,746829,null,"",null,,,,,,,,,,,,,,,
math-period,298,750396,6910.299999982119,"",,,,,,,,,,,1,,,,,
html-keyboard-response,299,750499,null,"",null,,,,,,,,,,,,,,,
math-period,300,753076,4823.000000029802,"",,,,,,,,,,,4,,,,,
html-keyboard-response,301,753190,null,"",null,,,,,,,,,,,,,,,
math-period,302,753458,null,"",,,,,,,,,,,,,,,,
html-keyboard-response,303,754464,null,"Recall Period!",null,,,,,,,,,,,,,,,
call-function,304,754465,,"",,,,,,,,,,,,,,,,
html-keyboard-response,305,754574,null,"",null,,,,,,,,,,,,,,,
recall-period,306,761466,28121.700000047684,"",,,,,,,,,,,girl,,,,,
html-keyboard-response,307,761572,null,"",null,,,,,,,,,,,,,,,
recall-period,308,764113,7948.700000077486,"",,,,,,,,,,,daisy,,,,,
html-keyboard-response,309,764221,null,"",null,,,,,,,,,,,,,,,
recall-period,310,772654,46440.50000011921,"",,,,,,,,,,,closet,,,,,
html-keyboard-response,311,772769,null,"",null,,,,,,,,,,,,,,,
recall-period,312,778937,23530.700000077486,"",,,,,,,,,,,egypt,,,,,
html-keyboard-response,313,779049,null,"",null,,,,,,,,,,,,,,,
recall-period,314,801264,126200.9999999404,"",,,,,,,,,,,river,,,,,
html-keyboard-response,315,801374,null,"",null,,,,,,,,,,,,,,,
recall-period,316,820151,105865.29999989271,"",,,,,,,,,,,pride,,,,,
html-keyboard-response,317,820256,null,"",null,,,,,,,,,,,,,,,
recall-period,318,821866,1607.800000011921,"",,,,,,,,,,,,,,,,
html-keyboard-response,319,821982,null,"",null,,,,,,,,,,,,,,,
recall-period,320,826075,17889.79999998212,"",,,,,,,,,,,daisy,,,,,
html-keyboard-response,321,826178,null,"",null,,,,,,,,,,,,,,,
recall-period,322,829467,null,"",,,,,,,,,,,,,,,,
html-keyboard-response,323,829985,null,"Time's Up!",null,,,,,,,,,,,,,,,
html-keyboard-response,324,834063,4076,"<p> Good job! You have responded correctly to 91% of the trials. </p>
                      <p>Be sure to only press the spacebar if you see a red square, and please keep your accuracy above 80%.</p>
                      <p> Press any key to continue the experiment. </p>",32,,,,,,,,,,,,,,,
html-keyboard-response,325,863298,29233.100000023842,"<div style=""font-size:48px;"">Press any key to begin list 3 of 16 </div>",32,,,,,,,,,,,,,,,
html-keyboard-response,326,865823,null,"<div style=""font-size:60px;"">+</div>",null,,,,,,,,,,,,,,,
html-keyboard-response,327,866041,null,"<div style=""font-size:42px;"">RADISH</div><img id = ""stim"" ><div class = green_square id = bottomsquare></div>",null,encoding,word_square,,,0,bottomsquare,none,true,,,RADISH,2,,,
html-keyboard-response,328,866352,null,"<div style=""font-size:42px;"">RADISH</div>",null,,word,RADISH,,,,,,,,,,,,
html-keyboard-response,329,867855,null,"",null,,word,RADISH,,,,,,,,,,,,
html-keyboard-response,330,868059,null,"<div style=""font-size:42px;"">SICKLE</div><img id = ""stim"" ><div class = green_square id = topsquare></div>",null,encoding,word_square,,,0,topsquare,none,true,,,SICKLE,2,,,
html-keyboard-response,331,868373,null,"<div style=""font-size:42px;"">SICKLE</div>",null,,word,SICKLE,,,,,,,,,,,,
html-keyboard-response,332,869879,null,"",null,,word,SICKLE,,,,,,,,,,,,
html-keyboard-response,333,870084,null,"<div style=""font-size:42px;"">BALLOON</div><img id = ""stim"" ><div class = red_square id = topsquare></div>",null,encoding,word_square,,,1,topsquare,32,true,,,BALLOON,2,,,
html-keyboard-response,334,870387,null,"<div style=""font-size:42px;"">BALLOON</div>",null,,word,BALLOON,,,,,,,,,,,,
html-keyboard-response,335,871898,499.19999998807907,"",32,,word,BALLOON,,,,,,,,,,,,
html-keyboard-response,336,872101,null,"<div style=""font-size:42px;"">FROG</div><img id = ""stim"" ><div class = red_square id = bottomsquare></div>",null,encoding,word_square,,,1,bottomsquare,32,true,,,FROG,2,,,
html-keyboard-response,337,872417,null,"<div style=""font-size:42px;"">FROG</div>",null,,word,FROG,,,,,,,,,,,,
html-keyboard-response,338,873933,215.39999997615814,"",32,,word,FROG,,,,,,,,,,,,
html-keyboard-response,339,874138,null,"<div style=""font-size:42px;"">ARM</div><img id = ""stim"" ><div class = green_square id = bottomsquare></div>",null,encoding,word_square,,,0,bottomsquare,none,false,,,ARM,2,,,
html-keyboard-response,340,874453,null,"<div style=""font-size:42px;"">ARM</div>",null,,word,ARM,,,,,,,,,,,,
html-keyboard-response,341,875959,141.69999998807907,"",32,,word,ARM,,,,,,,,,,,,
html-keyboard-response,342,876163,null,"<div style=""font-size:42px;"">TULIP</div><img id = ""stim"" ><div class = red_square id = topsquare></div>",null,encoding,word_square,,,1,topsquare,32,true,,,TULIP,2,,,
html-keyboard-response,343,876476,null,"<div style=""font-size:42px;"">TULIP</div>",null,,word,TULIP,,,,,,,,,,,,
html-keyboard-response,344,877983,1147.1000000238419,"",32,,word,TULIP,,,,,,,,,,,,
html-keyboard-response,345,878187,null,"<div style=""font-size:42px;"">CREVICE</div><img id = ""stim"" ><div class = red_square id = bottomsquare></div>",null,encoding,word_square,,,1,bottomsquare,32,true,,,CREVICE,2,,,
html-keyboard-response,346,878499,null,"<div style=""font-size:42px;"">CREVICE</div>",null,,word,CREVICE,,,,,,,,,,,,
html-keyboard-response,347,880017,1069.800000011921,"",32,,word,CREVICE,,,,,,,,,,,,
html-keyboard-response,348,880234,null,"<div style=""font-size:42px;"">SHIRT</div><img id = ""stim"" ><div class = green_square id = topsquare></div>",null,encoding,word_square,,,0,topsquare,none,true,,,SHIRT,2,,,
html-keyboard-response,349,880549,null,"<div style=""font-size:42px;"">SHIRT</div>",null,,word,SHIRT,,,,,,,,,,,,
html-keyboard-response,350,882056,null,"",null,,word,SHIRT,,,,,,,,,,,,
html-keyboard-response,351,882263,null,"<div style=""font-size:42px;"">POSTAGE</div><img id = ""stim"" ><div class = red_square id = topsquare></div>",null,encoding,word_square,,,1,topsquare,32,true,,,POSTAGE,2,,,
html-keyboard-response,352,882576,235.60000002384186,"<div style=""font-size:42px;"">POSTAGE</div>",32,,word,POSTAGE,,,,,,,,,,,,
html-keyboard-response,353,884085,null,"",null,,word,POSTAGE,,,,,,,,,,,,
html-keyboard-response,354,884289,null,"<div style=""font-size:42px;"">STICKER</div><img id = ""stim"" ><div class = green_square id = bottomsquare></div>",null,encoding,word_square,,,0,bottomsquare,none,true,,,STICKER,2,,,
html-keyboard-response,355,884605,null,"<div style=""font-size:42px;"">STICKER</div>",null,,word,STICKER,,,,,,,,,,,,
html-keyboard-response,356,886111,null,"",null,,word,STICKER,,,,,,,,,,,,
html-keyboard-response,357,886317,null,"<div style=""font-size:42px;"">COTTAGE</div><img id = ""stim"" ><div class = green_square id = topsquare></div>",null,encoding,word_square,,,0,topsquare,none,true,,,COTTAGE,2,,,
html-keyboard-response,358,886630,null,"<div style=""font-size:42px;"">COTTAGE</div>",null,,word,COTTAGE,,,,,,,,,,,,
html-keyboard-response,359,888133,null,"",null,,word,COTTAGE,,,,,,,,,,,,
html-keyboard-response,360,888337,null,"<div style=""font-size:42px;"">TURNIP</div><img id = ""stim"" ><div class = red_square id = bottomsquare></div>",null,encoding,word_square,,,1,bottomsquare,32,true,,,TURNIP,2,,,
html-keyboard-response,361,888651,null,"<div style=""font-size:42px;"">TURNIP</div>",null,,word,TURNIP,,,,,,,,,,,,
html-keyboard-response,362,890161,244.7000000178814,"",32,,word,TURNIP,,,,,,,,,,,,
html-keyboard-response,363,890378,null,"<div style=""font-size:42px;"">DRIVER</div><img id = ""stim"" ><div class = red_square id = topsquare></div>",null,encoding,word_square,,,1,topsquare,32,true,,,DRIVER,2,,,
html-keyboard-response,364,890690,null,"<div style=""font-size:42px;"">DRIVER</div>",null,,word,DRIVER,,,,,,,,,,,,
html-keyboard-response,365,892196,436.19999998807907,"",32,,word,DRIVER,,,,,,,,,,,,
html-keyboard-response,366,892400,null,"<div style=""font-size:42px;"">TAXI</div><img id = ""stim"" ><div class = green_square id = bottomsquare></div>",null,encoding,word_square,,,0,bottomsquare,none,true,,,TAXI,2,,,
html-keyboard-response,367,892712,null,"<div style=""font-size:42px;"">TAXI</div>",null,,word,TAXI,,,,,,,,,,,,
html-keyboard-response,368,894215,null,"",null,,word,TAXI,,,,,,,,,,,,
html-keyboard-response,369,894422,null,"<div style=""font-size:42px;"">SKILLET</div><img id = ""stim"" ><div class = red_square id = bottomsquare></div>",null,encoding,word_square,,,1,bottomsquare,32,true,,,SKILLET,2,,,
html-keyboard-response,370,894735,null,"<div style=""font-size:42px;"">SKILLET</div>",null,,word,SKILLET,,,,,,,,,,,,
html-keyboard-response,371,896248,218.40000000596046,"",32,,word,SKILLET,,,,,,,,,,,,
html-keyboard-response,372,896453,null,"<div style=""font-size:42px;"">PLANET</div><img id = ""stim"" ><div class = green_square id = topsquare></div>",null,encoding,word_square,,,0,topsquare,none,true,,,PLANET,2,,,
html-keyboard-response,373,896769,null,"<div style=""font-size:42px;"">PLANET</div>",null,,word,PLANET,,,,,,,,,,,,
html-keyboard-response,374,898277,null,"",null,,word,PLANET,,,,,,,,,,,,
call-function,375,898278,,"",,,,,,,,,,,,,,,,
html-keyboard-response,376,898381,null,"",null,,,,,,,,,,,,,,,
math-period,377,912323,27352.30000001192,"",,,,,,,,,,,3,,,,,
html-keyboard-response,378,912426,null,"",null,,,,,,,,,,,,,,,
math-period,379,918591,16686.90000000596,"",,,,,,,,,,,1,,,,,
html-keyboard-response,380,918708,null,"",null,,,,,,,,,,,,,,,
math-period,381,921411,5240.0999999940395,"",,,,,,,,,,,1,,,,,
html-keyboard-response,382,921520,null,"",null,,,,,,,,,,,,,,,
math-period,383,922294,null,"",,,,,,,,,,,,,,,,
html-keyboard-response,384,923299,null,"Recall Period!",null,,,,,,,,,,,,,,,
call-function,385,923300,,"",,,,,,,,,,,,,,,,
html-keyboard-response,386,923407,null,"",null,,,,,,,,,,,,,,,
recall-period,387,930662,42251.699999928474,"",,,,,,,,,,,radish,,,,,
html-keyboard-response,388,930769,null,"",null,,,,,,,,,,,,,,,
recall-period,389,934563,17776.90000000596,"",,,,,,,,,,,driver,,,,,
html-keyboard-response,390,934673,null,"",null,,,,,,,,,,,,,,,
recall-period,391,937248,11391.499999970198,"",,,,,,,,,,,skillet,,,,,
html-keyboard-response,392,937358,null,"",null,,,,,,,,,,,,,,,
recall-period,393,941158,11569.90000000596,"",,,,,,,,,,,cab,,,,,
html-keyboard-response,394,941271,null,"",null,,,,,,,,,,,,,,,
recall-period,395,946763,24545.09999999404,"",,,,,,,,,,,tunip,,,,,
html-keyboard-response,396,946877,null,"",null,,,,,,,,,,,,,,,
recall-period,397,950844,16120.400000035763,"",,,,,,,,,,,shirt,,,,,
html-keyboard-response,398,950956,null,"",null,,,,,,,,,,,,,,,
recall-period,399,956737,31080.400000095367,"",,,,,,,,,,,baloon,,,,,
html-keyboard-response,400,956848,null,"",null,,,,,,,,,,,,,,,
recall-period,401,965254,37379.299999952316,"",,,,,,,,,,,taxi,,,,,
html-keyboard-response,402,965368,null,"",null,,,,,,,,,,,,,,,
recall-period,403,968957,16909.100000023842,"",,,,,,,,,,,cottage,,,,,
html-keyboard-response,404,969071,null,"",null,,,,,,,,,,,,,,,
recall-period,405,998315,null,"",,,,,,,,,,,,,,,,
html-keyboard-response,406,998831,null,"Time's Up!",null,,,,,,,,,,,,,,,
html-keyboard-response,407,1001531,2698.0999999940395,"<p> Good job! You have responded correctly to 92% of the trials. </p>
                      <p>Be sure to only press the spacebar if you see a red square, and please keep your accuracy above 80%.</p>
                      <p> Press any key to continue the experiment. </p>",32,,,,,,,,,,,,,,,
html-keyboard-response,408,1002758,1225,"<div style=""font-size:48px;"">Press any key to begin list 4 of 16 </div>",32,,,,,,,,,,,,,,,
html-keyboard-response,409,1005282,null,"<div style=""font-size:60px;"">+</div>",null,,,,,,,,,,,,,,,
html-keyboard-response,410,1005487,null,"<div style=""font-size:42px;"">TURKEY</div><img id = ""stim"" ><div class = green_square id = topsquare></div>",null,encoding,word_square,,,0,topsquare,none,true,,,TURKEY,3,,,
html-keyboard-response,411,1005800,null,"<div style=""font-size:42px;"">TURKEY</div>",null,,word,TURKEY,,,,,,,,,,,,
html-keyboard-response,412,1007309,null,"",null,,word,TURKEY,,,,,,,,,,,,
html-keyboard-response,413,1007515,null,"<div style=""font-size:42px;"">MESSAGE</div><img id = ""stim"" ><div class = red_square id = bottomsquare></div>",null,encoding,word_square,,,1,bottomsquare,32,true,,,MESSAGE,3,,,
html-keyboard-response,414,1007829,262.90000000596046,"<div style=""font-size:42px;"">MESSAGE</div>",32,,word,MESSAGE,,,,,,,,,,,,
html-keyboard-response,415,1009338,null,"",null,,word,MESSAGE,,,,,,,,,,,,
html-keyboard-response,416,1009542,null,"<div style=""font-size:42px;"">LAKE</div><img id = ""stim"" ><div class = green_square id = bottomsquare></div>",null,encoding,word_square,,,0,bottomsquare,none,true,,,LAKE,3,,,
html-keyboard-response,417,1009855,null,"<div style=""font-size:42px;"">LAKE</div>",null,,word,LAKE,,,,,,,,,,,,
html-keyboard-response,418,1011370,null,"",null,,word,LAKE,,,,,,,,,,,,
html-keyboard-response,419,1011574,null,"<div style=""font-size:42px;"">SUBURB</div><img id = ""stim"" ><div class = red_square id = topsquare></div>",null,encoding,word_square,,,1,topsquare,32,true,,,SUBURB,3,,,
html-keyboard-response,420,1011888,null,"<div style=""font-size:42px;"">SUBURB</div>",null,,word,SUBURB,,,,,,,,,,,,
html-keyboard-response,421,1013394,125.30000001192093,"",32,,word,SUBURB,,,,,,,,,,,,
html-keyboard-response,422,1013598,null,"<div style=""font-size:42px;"">MATCH</div><img id = ""stim"" ><div class = red_square id = bottomsquare></div>",null,encoding,word_square,,,1,bottomsquare,32,true,,,MATCH,3,,,
html-keyboard-response,423,1013912,null,"<div style=""font-size:42px;"">MATCH</div>",null,,word,MATCH,,,,,,,,,,,,
html-keyboard-response,424,1015430,211.5,"",32,,word,MATCH,,,,,,,,,,,,
html-keyboard-response,425,1015650,null,"<div style=""font-size:42px;"">LIGHTNING</div><img id = ""stim"" ><div class = green_square id = topsquare></div>",null,encoding,word_square,,,0,topsquare,none,true,,,LIGHTNING,3,,,
html-keyboard-response,426,1015962,null,"<div style=""font-size:42px;"">LIGHTNING</div>",null,,word,LIGHTNING,,,,,,,,,,,,
html-keyboard-response,427,1017467,null,"",null,,word,LIGHTNING,,,,,,,,,,,,
html-keyboard-response,428,1017673,null,"<div style=""font-size:42px;"">FINGER</div><img id = ""stim"" ><div class = green_square id = bottomsquare></div>",null,encoding,word_square,,,0,bottomsquare,none,true,,,FINGER,3,,,
html-keyboard-response,429,1017985,null,"<div style=""font-size:42px;"">FINGER</div>",null,,word,FINGER,,,,,,,,,,,,
html-keyboard-response,430,1019499,null,"",null,,word,FINGER,,,,,,,,,,,,
html-keyboard-response,431,1019703,null,"<div style=""font-size:42px;"">VAMPIRE</div><img id = ""stim"" ><div class = red_square id = topsquare></div>",null,encoding,word_square,,,1,topsquare,32,true,,,VAMPIRE,3,,,
html-keyboard-response,432,1020016,null,"<div style=""font-size:42px;"">VAMPIRE</div>",null,,word,VAMPIRE,,,,,,,,,,,,
html-keyboard-response,433,1021529,308.5,"",32,,word,VAMPIRE,,,,,,,,,,,,
html-keyboard-response,434,1021732,null,"<div style=""font-size:42px;"">BANJO</div><img id = ""stim"" ><div class = green_square id = topsquare></div>",null,encoding,word_square,,,0,topsquare,none,true,,,BANJO,3,,,
html-keyboard-response,435,1022046,null,"<div style=""font-size:42px;"">BANJO</div>",null,,word,BANJO,,,,,,,,,,,,
html-keyboard-response,436,1023558,null,"",null,,word,BANJO,,,,,,,,,,,,
html-keyboard-response,437,1023762,null,"<div style=""font-size:42px;"">WHISTLE</div><img id = ""stim"" ><div class = red_square id = bottomsquare></div>",null,encoding,word_square,,,1,bottomsquare,32,false,,,WHISTLE,3,,,
html-keyboard-response,438,1024072,null,"<div style=""font-size:42px;"">WHISTLE</div>",null,,word,WHISTLE,,,,,,,,,,,,
html-keyboard-response,439,1025574,null,"",null,,word,WHISTLE,,,,,,,,,,,,
html-keyboard-response,440,1025778,null,"<div style=""font-size:42px;"">QUEEN</div><img id = ""stim"" ><div class = red_square id = topsquare></div>",null,encoding,word_square,,,1,topsquare,32,true,,,QUEEN,3,,,
html-keyboard-response,441,1026091,null,"<div style=""font-size:42px;"">QUEEN</div>",null,,word,QUEEN,,,,,,,,,,,,
html-keyboard-response,442,1027606,33.599999994039536,"",32,,word,QUEEN,,,,,,,,,,,,
html-keyboard-response,443,1027808,null,"<div style=""font-size:42px;"">PRINCESS</div><img id = ""stim"" ><div class = green_square id = bottomsquare></div>",null,encoding,word_square,,,0,bottomsquare,none,true,,,PRINCESS,3,,,
html-keyboard-response,444,1028120,null,"<div style=""font-size:42px;"">PRINCESS</div>",null,,word,PRINCESS,,,,,,,,,,,,
html-keyboard-response,445,1029636,null,"",null,,word,PRINCESS,,,,,,,,,,,,
html-keyboard-response,446,1029853,null,"<div style=""font-size:42px;"">DRIVEWAY</div><img id = ""stim"" ><div class = red_square id = bottomsquare></div>",null,encoding,word_square,,,1,bottomsquare,32,true,,,DRIVEWAY,3,,,
html-keyboard-response,447,1030167,null,"<div style=""font-size:42px;"">DRIVEWAY</div>",null,,word,DRIVEWAY,,,,,,,,,,,,
html-keyboard-response,448,1031681,590.9000000059605,"",32,,word,DRIVEWAY,,,,,,,,,,,,
html-keyboard-response,449,1031885,null,"<div style=""font-size:42px;"">SEAGULL</div><img id = ""stim"" ><div class = red_square id = topsquare></div>",null,encoding,word_square,,,1,topsquare,32,true,,,SEAGULL,3,,,
html-keyboard-response,450,1032197,null,"<div style=""font-size:42px;"">SEAGULL</div>",null,,word,SEAGULL,,,,,,,,,,,,
html-keyboard-response,451,1033710,135.60000002384186,"",32,,word,SEAGULL,,,,,,,,,,,,
html-keyboard-response,452,1033913,null,"<div style=""font-size:42px;"">BLANKET</div><img id = ""stim"" ><div class = green_square id = topsquare></div>",null,encoding,word_square,,,0,topsquare,none,true,,,BLANKET,3,,,
html-keyboard-response,453,1034226,null,"<div style=""font-size:42px;"">BLANKET</div>",null,,word,BLANKET,,,,,,,,,,,,
html-keyboard-response,454,1035742,null,"",null,,word,BLANKET,,,,,,,,,,,,
html-keyboard-response,455,1035946,null,"<div style=""font-size:42px;"">PORCH</div><img id = ""stim"" ><div class = green_square id = bottomsquare></div>",null,encoding,word_square,,,0,bottomsquare,none,true,,,PORCH,3,,,
html-keyboard-response,456,1036258,null,"<div style=""font-size:42px;"">PORCH</div>",null,,word,PORCH,,,,,,,,,,,,
html-keyboard-response,457,1037761,null,"",null,,word,PORCH,,,,,,,,,,,,
call-function,458,1037763,,"",,,,,,,,,,,,,,,,
html-keyboard-response,459,1037870,null,"",null,,,,,,,,,,,,,,,
math-period,460,1046390,16616.399999976158,"",,,,,,,,,,,6,,,,,
html-keyboard-response,461,1046504,null,"",null,,,,,,,,,,,,,,,
math-period,462,1049697,5784.5999999940395,"",,,,,,,,,,,5,,,,,
html-keyboard-response,463,1049804,null,"",null,,,,,,,,,,,,,,,
math-period,464,1053327,6772.5,"",,,,,,,,,,,3,,,,,
html-keyboard-response,465,1053430,null,"",null,,,,,,,,,,,,,,,
math-period,466,1056378,5472.5,"",,,,,,,,,,,5,,,,,
html-keyboard-response,467,1056481,null,"",null,,,,,,,,,,,,,,,
math-period,468,1058990,4774.800000011921,"",,,,,,,,,,,5,,,,,
html-keyboard-response,469,1059104,null,"",null,,,,,,,,,,,,,,,
math-period,470,1061472,4382.099999964237,"",,,,,,,,,,,2,,,,,
html-keyboard-response,471,1061589,null,"",null,,,,,,,,,,,,,,,
math-period,472,1061776,null,"",,,,,,,,,,,,,,,,
html-keyboard-response,473,1062795,null,"Recall Period!",null,,,,,,,,,,,,,,,
call-function,474,1062796,,"",,,,,,,,,,,,,,,,
html-keyboard-response,475,1062903,null,"",null,,,,,,,,,,,,,,,
recall-period,476,1068994,38463.10000011325,"",,,,,,,,,,,blanket,,,,,
html-keyboard-response,477,1069101,null,"",null,,,,,,,,,,,,,,,
recall-period,478,1072289,12769.500000029802,"",,,,,,,,,,,porch,,,,,
html-keyboard-response,479,1072404,null,"",null,,,,,,,,,,,,,,,
recall-period,480,1076361,15558.599999964237,"",,,,,,,,,,,seagul,,,,,
html-keyboard-response,481,1076478,null,"",null,,,,,,,,,,,,,,,
recall-period,482,1079181,10201.800000041723,"",,,,,,,,,,,finger,,,,,
html-keyboard-response,483,1079294,null,"",null,,,,,,,,,,,,,,,
recall-period,484,1137799,null,"",,,,,,,,,,,,,,,,
html-keyboard-response,485,1138315,null,"Time's Up!",null,,,,,,,,,,,,,,,
html-keyboard-response,486,1265133,126813.40000000596,"<p> Good job! You have responded correctly to 92% of the trials. </p>
                      <p>Be sure to only press the spacebar if you see a red square, and please keep your accuracy above 80%.</p>
                      <p> Press any key to continue the experiment. </p>",32,,,,,,,,,,,,,,,
html-keyboard-response,487,1266657,1522.199999988079,"<div style=""font-size:48px;"">Press any key to begin list 5 of 16 </div>",32,,,,,,,,,,,,,,,
html-keyboard-response,488,1269176,null,"<div style=""font-size:60px;"">+</div>",null,,,,,,,,,,,,,,,
html-keyboard-response,489,1269381,null,"<div style=""font-size:42px;"">SHAMPOO</div><img id = ""stim"" ><div class = red_square id = topsquare></div>",null,encoding,word_square,,,1,topsquare,32,true,,,SHAMPOO,4,,,
html-keyboard-response,490,1269691,null,"<div style=""font-size:42px;"">SHAMPOO</div>",null,,word,SHAMPOO,,,,,,,,,,,,
html-keyboard-response,491,1271209,179.5,"",32,,word,SHAMPOO,,,,,,,,,,,,
html-keyboard-response,492,1271413,null,"<div style=""font-size:42px;"">FRIES</div><img id = ""stim"" ><div class = green_square id = bottomsquare></div>",null,encoding,word_square,,,0,bottomsquare,none,true,,,FRIES,4,,,
html-keyboard-response,493,1271728,null,"<div style=""font-size:42px;"">FRIES</div>",null,,word,FRIES,,,,,,,,,,,,
html-keyboard-response,494,1273246,null,"",null,,word,FRIES,,,,,,,,,,,,
html-keyboard-response,495,1273463,null,"<div style=""font-size:42px;"">FAUCET</div><img id = ""stim"" ><div class = red_square id = bottomsquare></div>",null,encoding,word_square,,,1,bottomsquare,32,true,,,FAUCET,4,,,
html-keyboard-response,496,1273777,null,"<div style=""font-size:42px;"">FAUCET</div>",null,,word,FAUCET,,,,,,,,,,,,
html-keyboard-response,497,1275292,89.69999998807907,"",32,,word,FAUCET,,,,,,,,,,,,
html-keyboard-response,498,1275509,null,"<div style=""font-size:42px;"">SHARK</div><img id = ""stim"" ><div class = red_square id = topsquare></div>",null,encoding,word_square,,,1,topsquare,32,true,,,SHARK,4,,,
html-keyboard-response,499,1275821,null,"<div style=""font-size:42px;"">SHARK</div>",null,,word,SHARK,,,,,,,,,,,,
html-keyboard-response,500,1277336,59,"",32,,word,SHARK,,,,,,,,,,,,
html-keyboard-response,501,1277553,null,"<div style=""font-size:42px;"">BATHTUB</div><img id = ""stim"" ><div class = green_square id = topsquare></div>",null,encoding,word_square,,,0,topsquare,none,true,,,BATHTUB,4,,,
html-keyboard-response,502,1277867,null,"<div style=""font-size:42px;"">BATHTUB</div>",null,,word,BATHTUB,,,,,,,,,,,,
html-keyboard-response,503,1279386,null,"",null,,word,BATHTUB,,,,,,,,,,,,
html-keyboard-response,504,1279589,null,"<div style=""font-size:42px;"">SERVANT</div><img id = ""stim"" ><div class = green_square id = bottomsquare></div>",null,encoding,word_square,,,0,bottomsquare,none,false,,,SERVANT,4,,,
html-keyboard-response,505,1279904,null,"<div style=""font-size:42px;"">SERVANT</div>",null,,word,SERVANT,,,,,,,,,,,,
html-keyboard-response,506,1281418,95.5,"",32,,word,SERVANT,,,,,,,,,,,,
html-keyboard-response,507,1281636,null,"<div style=""font-size:42px;"">BLACKBOARD</div><img id = ""stim"" ><div class = red_square id = bottomsquare></div>",null,encoding,word_square,,,1,bottomsquare,32,true,,,BLACKBOARD,4,,,
html-keyboard-response,508,1281949,null,"<div style=""font-size:42px;"">BLACKBOARD</div>",null,,word,BLACKBOARD,,,,,,,,,,,,
html-keyboard-response,509,1283463,113.59999999403954,"",32,,word,BLACKBOARD,,,,,,,,,,,,
html-keyboard-response,510,1283668,null,"<div style=""font-size:42px;"">PEOPLE</div><img id = ""stim"" ><div class = red_square id = topsquare></div>",null,encoding,word_square,,,1,topsquare,32,true,,,PEOPLE,4,,,
html-keyboard-response,511,1283977,null,"<div style=""font-size:42px;"">PEOPLE</div>",null,,word,PEOPLE,,,,,,,,,,,,
html-keyboard-response,512,1285495,42.79999998211861,"",32,,word,PEOPLE,,,,,,,,,,,,
html-keyboard-response,513,1285713,null,"<div style=""font-size:42px;"">HOOK</div><img id = ""stim"" ><div class = green_square id = topsquare></div>",null,encoding,word_square,,,0,topsquare,none,true,,,HOOK,4,,,
html-keyboard-response,514,1286026,null,"<div style=""font-size:42px;"">HOOK</div>",null,,word,HOOK,,,,,,,,,,,,
html-keyboard-response,515,1287542,null,"",null,,word,HOOK,,,,,,,,,,,,
html-keyboard-response,516,1287747,null,"<div style=""font-size:42px;"">TRANSPLANT</div><img id = ""stim"" ><div class = red_square id = bottomsquare></div>",null,encoding,word_square,,,1,bottomsquare,32,true,,,TRANSPLANT,4,,,
html-keyboard-response,517,1288057,null,"<div style=""font-size:42px;"">TRANSPLANT</div>",null,,word,TRANSPLANT,,,,,,,,,,,,
html-keyboard-response,518,1289572,281.7000000178814,"",32,,word,TRANSPLANT,,,,,,,,,,,,
html-keyboard-response,519,1289775,null,"<div style=""font-size:42px;"">DONOR</div><img id = ""stim"" ><div class = green_square id = bottomsquare></div>",null,encoding,word_square,,,0,bottomsquare,none,true,,,DONOR,4,,,
html-keyboard-response,520,1290087,null,"<div style=""font-size:42px;"">DONOR</div>",null,,word,DONOR,,,,,,,,,,,,
html-keyboard-response,521,1291602,null,"",null,,word,DONOR,,,,,,,,,,,,
html-keyboard-response,522,1291806,null,"<div style=""font-size:42px;"">WOMAN</div><img id = ""stim"" ><div class = green_square id = topsquare></div>",null,encoding,word_square,,,0,topsquare,none,true,,,WOMAN,4,,,
html-keyboard-response,523,1292119,null,"<div style=""font-size:42px;"">WOMAN</div>",null,,word,WOMAN,,,,,,,,,,,,
html-keyboard-response,524,1293630,null,"",null,,word,WOMAN,,,,,,,,,,,,
html-keyboard-response,525,1293834,null,"<div style=""font-size:42px;"">WASP</div><img id = ""stim"" ><div class = red_square id = topsquare></div>",null,encoding,word_square,,,1,topsquare,32,true,,,WASP,4,,,
html-keyboard-response,526,1294145,null,"<div style=""font-size:42px;"">WASP</div>",null,,word,WASP,,,,,,,,,,,,
html-keyboard-response,527,1295662,149.69999998807907,"",32,,word,WASP,,,,,,,,,,,,
html-keyboard-response,528,1295881,null,"<div style=""font-size:42px;"">SPIDER</div><img id = ""stim"" ><div class = green_square id = bottomsquare></div>",null,encoding,word_square,,,0,bottomsquare,none,true,,,SPIDER,4,,,
html-keyboard-response,529,1296194,null,"<div style=""font-size:42px;"">SPIDER</div>",null,,word,SPIDER,,,,,,,,,,,,
html-keyboard-response,530,1297709,null,"",null,,word,SPIDER,,,,,,,,,,,,
html-keyboard-response,531,1297927,null,"<div style=""font-size:42px;"">FEMALE</div><img id = ""stim"" ><div class = green_square id = topsquare></div>",null,encoding,word_square,,,0,topsquare,none,true,,,FEMALE,4,,,
html-keyboard-response,532,1298240,null,"<div style=""font-size:42px;"">FEMALE</div>",null,,word,FEMALE,,,,,,,,,,,,
html-keyboard-response,533,1299755,null,"",null,,word,FEMALE,,,,,,,,,,,,
html-keyboard-response,534,1299959,null,"<div style=""font-size:42px;"">SLIME</div><img id = ""stim"" ><div class = red_square id = bottomsquare></div>",null,encoding,word_square,,,1,bottomsquare,32,true,,,SLIME,4,,,
html-keyboard-response,535,1300273,null,"<div style=""font-size:42px;"">SLIME</div>",null,,word,SLIME,,,,,,,,,,,,
html-keyboard-response,536,1301786,50.5,"",32,,word,SLIME,,,,,,,,,,,,
call-function,537,1301787,,"",,,,,,,,,,,,,,,,
html-keyboard-response,538,1301895,null,"",null,,,,,,,,,,,,,,,
math-period,539,1307577,10950.000000029802,"",,,,,,,,,,,2,,,,,
html-keyboard-response,540,1307681,null,"",null,,,,,,,,,,,,,,,
math-period,541,1309323,3127.5,"",,,,,,,,,,,2,,,,,
html-keyboard-response,542,1309429,null,"",null,,,,,,,,,,,,,,,
math-period,543,1312516,6000,"",,,,,,,,,,,3,,,,,
html-keyboard-response,544,1312629,null,"",null,,,,,,,,,,,,,,,
math-period,545,1314551,3668.1999999582767,"",,,,,,,,,,,5,,,,,
html-keyboard-response,546,1314660,null,"",null,,,,,,,,,,,,,,,
math-period,547,1321263,12749.199999988079,"",,,,,,,,,,,5,,,,,
html-keyboard-response,548,1321375,null,"",null,,,,,,,,,,,,,,,
math-period,549,1324684,6223.200000017881,"",,,,,,,,,,,2,,,,,
html-keyboard-response,550,1324792,null,"",null,,,,,,,,,,,,,,,
math-period,551,1325796,null,"",,,,,,,,,,,,,,,,
html-keyboard-response,552,1326810,null,"Recall Period!",null,,,,,,,,,,,,,,,
call-function,553,1326811,,"",,,,,,,,,,,,,,,,
html-keyboard-response,554,1326920,null,"",null,,,,,,,,,,,,,,,
recall-period,555,1375926,374921.40000009537,"",,,,,,,,,,,bathtub,,,,,
html-keyboard-response,556,1376039,null,"",null,,,,,,,,,,,,,,,
recall-period,557,1378870,11110.700000047684,"",,,,,,,,,,,water,,,,,
html-keyboard-response,558,1378988,null,"",null,,,,,,,,,,,,,,,
recall-period,559,1382226,10352.499999940395,"",,,,,,,,,,,shark,,,,,
html-keyboard-response,560,1382336,null,"",null,,,,,,,,,,,,,,,
recall-period,561,1385143,12203.399999976158,"",,,,,,,,,,,servant,,,,,
html-keyboard-response,562,1385250,null,"",null,,,,,,,,,,,,,,,
recall-period,563,1388185,8305.09999999404,"",,,,,,,,,,,woman,,,,,
html-keyboard-response,564,1388293,null,"",null,,,,,,,,,,,,,,,
recall-period,565,1401814,null,"",,,,,,,,,,,,,,,,
html-keyboard-response,566,1402324,null,"Time's Up!",null,,,,,,,,,,,,,,,
html-keyboard-response,567,1405789,3462.300000011921,"<p> Good job! You have responded correctly to 93% of the trials. </p>
                      <p>Be sure to only press the spacebar if you see a red square, and please keep your accuracy above 80%.</p>
                      <p> Press any key to continue the experiment. </p>",32,,,,,,,,,,,,,,,
html-keyboard-response,568,1410170,4378.4000000059605,"<div style=""font-size:48px;"">Press any key to begin list 6 of 16 </div>",32,,,,,,,,,,,,,,,
html-keyboard-response,569,1412694,null,"<div style=""font-size:60px;"">+</div>",null,,,,,,,,,,,,,,,
html-keyboard-response,570,1412902,null,"<div style=""font-size:42px;"">NOMAD</div><img id = ""stim"" ><div class = red_square id = bottomsquare></div>",null,encoding,word_square,,,1,bottomsquare,32,true,,,NOMAD,5,,,
html-keyboard-response,571,1413205,null,"<div style=""font-size:42px;"">NOMAD</div>",null,,word,NOMAD,,,,,,,,,,,,
html-keyboard-response,572,1414723,490.40000000596046,"",32,,word,NOMAD,,,,,,,,,,,,
html-keyboard-response,573,1414931,null,"<div style=""font-size:42px;"">SPRINKLE</div><img id = ""stim"" ><div class = green_square id = topsquare></div>",null,encoding,word_square,,,0,topsquare,none,true,,,SPRINKLE,5,,,
html-keyboard-response,574,1415235,null,"<div style=""font-size:42px;"">SPRINKLE</div>",null,,word,SPRINKLE,,,,,,,,,,,,
html-keyboard-response,575,1416745,null,"",null,,word,SPRINKLE,,,,,,,,,,,,
html-keyboard-response,576,1416953,null,"<div style=""font-size:42px;"">CAMEL</div><img id = ""stim"" ><div class = green_square id = bottomsquare></div>",null,encoding,word_square,,,0,bottomsquare,none,true,,,CAMEL,5,,,
html-keyboard-response,577,1417257,null,"<div style=""font-size:42px;"">CAMEL</div>",null,,word,CAMEL,,,,,,,,,,,,
html-keyboard-response,578,1418769,null,"",null,,word,CAMEL,,,,,,,,,,,,
html-keyboard-response,579,1418977,null,"<div style=""font-size:42px;"">COFFIN</div><img id = ""stim"" ><div class = red_square id = topsquare></div>",null,encoding,word_square,,,1,topsquare,32,true,,,COFFIN,5,,,
html-keyboard-response,580,1419282,null,"<div style=""font-size:42px;"">COFFIN</div>",null,,word,COFFIN,,,,,,,,,,,,
html-keyboard-response,581,1420795,265.7000000178814,"",32,,word,COFFIN,,,,,,,,,,,,
html-keyboard-response,582,1421001,null,"<div style=""font-size:42px;"">HOOD</div><img id = ""stim"" ><div class = green_square id = topsquare></div>",null,encoding,word_square,,,0,topsquare,none,true,,,HOOD,5,,,
html-keyboard-response,583,1421305,null,"<div style=""font-size:42px;"">HOOD</div>",null,,word,HOOD,,,,,,,,,,,,
html-keyboard-response,584,1422821,null,"",null,,word,HOOD,,,,,,,,,,,,
html-keyboard-response,585,1423029,null,"<div style=""font-size:42px;"">BANDAGE</div><img id = ""stim"" ><div class = green_square id = bottomsquare></div>",null,encoding,word_square,,,0,bottomsquare,none,true,,,BANDAGE,5,,,
html-keyboard-response,586,1423333,null,"<div style=""font-size:42px;"">BANDAGE</div>",null,,word,BANDAGE,,,,,,,,,,,,
html-keyboard-response,587,1424849,null,"",null,,word,BANDAGE,,,,,,,,,,,,
html-keyboard-response,588,1425057,null,"<div style=""font-size:42px;"">NEPTUNE</div><img id = ""stim"" ><div class = red_square id = bottomsquare></div>",null,encoding,word_square,,,1,bottomsquare,32,true,,,NEPTUNE,5,,,
html-keyboard-response,589,1425361,null,"<div style=""font-size:42px;"">NEPTUNE</div>",null,,word,NEPTUNE,,,,,,,,,,,,
html-keyboard-response,590,1426873,182.7999999821186,"",32,,word,NEPTUNE,,,,,,,,,,,,
html-keyboard-response,591,1427081,null,"<div style=""font-size:42px;"">CROOK</div><img id = ""stim"" ><div class = green_square id = topsquare></div>",null,encoding,word_square,,,0,topsquare,none,true,,,CROOK,5,,,
html-keyboard-response,592,1427385,null,"<div style=""font-size:42px;"">CROOK</div>",null,,word,CROOK,,,,,,,,,,,,
html-keyboard-response,593,1428903,null,"",null,,word,CROOK,,,,,,,,,,,,
html-keyboard-response,594,1429110,null,"<div style=""font-size:42px;"">CARROT</div><img id = ""stim"" ><div class = red_square id = topsquare></div>",null,encoding,word_square,,,1,topsquare,32,true,,,CARROT,5,,,
html-keyboard-response,595,1429415,null,"<div style=""font-size:42px;"">CARROT</div>",null,,word,CARROT,,,,,,,,,,,,
html-keyboard-response,596,1430932,72.5,"",32,,word,CARROT,,,,,,,,,,,,
html-keyboard-response,597,1431138,null,"<div style=""font-size:42px;"">PISTON</div><img id = ""stim"" ><div class = red_square id = bottomsquare></div>",null,encoding,word_square,,,1,bottomsquare,32,true,,,PISTON,5,,,
html-keyboard-response,598,1431457,null,"<div style=""font-size:42px;"">PISTON</div>",null,,word,PISTON,,,,,,,,,,,,
html-keyboard-response,599,1432970,96.80000001192093,"",32,,word,PISTON,,,,,,,,,,,,
html-keyboard-response,600,1433178,null,"<div style=""font-size:42px;"">BEAST</div><img id = ""stim"" ><div class = green_square id = bottomsquare></div>",null,encoding,word_square,,,0,bottomsquare,none,true,,,BEAST,5,,,
html-keyboard-response,601,1433483,null,"<div style=""font-size:42px;"">BEAST</div>",null,,word,BEAST,,,,,,,,,,,,
html-keyboard-response,602,1434988,null,"",null,,word,BEAST,,,,,,,,,,,,
html-keyboard-response,603,1435194,null,"<div style=""font-size:42px;"">OMELET</div><img id = ""stim"" ><div class = green_square id = topsquare></div>",null,encoding,word_square,,,0,topsquare,none,true,,,OMELET,5,,,
html-keyboard-response,604,1435499,null,"<div style=""font-size:42px;"">OMELET</div>",null,,word,OMELET,,,,,,,,,,,,
html-keyboard-response,605,1437014,null,"",null,,word,OMELET,,,,,,,,,,,,
html-keyboard-response,606,1437222,null,"<div style=""font-size:42px;"">YOLK</div><img id = ""stim"" ><div class = red_square id = topsquare></div>",null,encoding,word_square,,,1,topsquare,32,true,,,YOLK,5,,,
html-keyboard-response,607,1437526,null,"<div style=""font-size:42px;"">YOLK</div>",null,,word,YOLK,,,,,,,,,,,,
html-keyboard-response,608,1439032,64.80000001192093,"",32,,word,YOLK,,,,,,,,,,,,
html-keyboard-response,609,1439240,null,"<div style=""font-size:42px;"">BARREL</div><img id = ""stim"" ><div class = red_square id = bottomsquare></div>",null,encoding,word_square,,,1,bottomsquare,32,true,,,BARREL,5,,,
html-keyboard-response,610,1439544,null,"<div style=""font-size:42px;"">BARREL</div>",null,,word,BARREL,,,,,,,,,,,,
html-keyboard-response,611,1441052,435.5,"",32,,word,BARREL,,,,,,,,,,,,
html-keyboard-response,612,1441258,null,"<div style=""font-size:42px;"">HAMPER</div><img id = ""stim"" ><div class = green_square id = bottomsquare></div>",null,encoding,word_square,,,0,bottomsquare,none,true,,,HAMPER,5,,,
html-keyboard-response,613,1441576,null,"<div style=""font-size:42px;"">HAMPER</div>",null,,word,HAMPER,,,,,,,,,,,,
html-keyboard-response,614,1443084,null,"",null,,word,HAMPER,,,,,,,,,,,,
html-keyboard-response,615,1443291,null,"<div style=""font-size:42px;"">MILDEW</div><img id = ""stim"" ><div class = red_square id = topsquare></div>",null,encoding,word_square,,,1,topsquare,32,true,,,MILDEW,5,,,
html-keyboard-response,616,1443608,null,"<div style=""font-size:42px;"">MILDEW</div>",null,,word,MILDEW,,,,,,,,,,,,
html-keyboard-response,617,1445124,148.80000001192093,"",32,,word,MILDEW,,,,,,,,,,,,
call-function,618,1445128,,"",,,,,,,,,,,,,,,,
html-keyboard-response,619,1445236,null,"",null,,,,,,,,,,,,,,,
math-period,620,1452232,13222.100000023842,"",,,,,,,,,,,1,,,,,
html-keyboard-response,621,1452345,null,"",null,,,,,,,,,,,,,,,
math-period,622,1456317,7629.500000029802,"",,,,,,,,,,,4,,,,,
html-keyboard-response,623,1456434,null,"",null,,,,,,,,,,,,,,,
math-period,624,1460577,7982.4000000059605,"",,,,,,,,,,,2,,,,,
html-keyboard-response,625,1460694,null,"",null,,,,,,,,,,,,,,,
math-period,626,1463705,5728.700000017881,"",,,,,,,,,,,3,,,,,
html-keyboard-response,627,1463821,null,"",null,,,,,,,,,,,,,,,
math-period,628,1467512,7004.5999999940395,"",,,,,,,,,,,1,,,,,
html-keyboard-response,629,1467625,null,"",null,,,,,,,,,,,,,,,
math-period,630,1469144,null,"",,,,,,,,,,,,,,,,
html-keyboard-response,631,1470151,null,"Recall Period!",null,,,,,,,,,,,,,,,
call-function,632,1470153,,"",,,,,,,,,,,,,,,,
html-keyboard-response,633,1470262,null,"",null,,,,,,,,,,,,,,,
recall-period,634,1475899,30943.100000053644,"",,,,,,,,,,,coffin,,,,,
html-keyboard-response,635,1476012,null,"",null,,,,,,,,,,,,,,,
recall-period,636,1479993,17452.099999934435,"",,,,,,,,,,,omlet,,,,,
html-keyboard-response,637,1480100,null,"",null,,,,,,,,,,,,,,,
recall-period,638,1484322,22967.5,"",,,,,,,,,,,carrige,,,,,
html-keyboard-response,639,1484439,null,"",null,,,,,,,,,,,,,,,
recall-period,640,1489652,20191.09999999404,"",,,,,,,,,,,sink,,,,,
html-keyboard-response,641,1489760,null,"",null,,,,,,,,,,,,,,,
recall-period,642,1503571,71423.90000003576,"",,,,,,,,,,,donar,,,,,
html-keyboard-response,643,1503679,null,"",null,,,,,,,,,,,,,,,
recall-period,644,1507667,24248,"",,,,,,,,,,,transplant,,,,,
html-keyboard-response,645,1507783,null,"",null,,,,,,,,,,,,,,,
recall-period,646,1545156,null,"",,,,,,,,,,,,,,,,
html-keyboard-response,647,1545667,null,"Time's Up!",null,,,,,,,,,,,,,,,
html-keyboard-response,648,1650686,105016.59999999404,"<p> Good job! You have responded correctly to 94% of the trials. </p>
                      <p>Be sure to only press the spacebar if you see a red square, and please keep your accuracy above 80%.</p>
                      <p> Press any key to continue the experiment. </p>",32,,,,,,,,,,,,,,,
html-keyboard-response,649,1652113,1424.6000000238419,"<div style=""font-size:48px;"">Press any key to begin list 7 of 16 </div>",32,,,,,,,,,,,,,,,
html-keyboard-response,650,1654630,null,"<div style=""font-size:60px;"">+</div>",null,,,,,,,,,,,,,,,
html-keyboard-response,651,1654835,null,"<div style=""font-size:42px;"">BARLEY</div><img id = ""stim"" ><div class = green_square id = bottomsquare></div>",null,encoding,word_square,,,0,bottomsquare,none,true,,,BARLEY,6,,,
html-keyboard-response,652,1655147,null,"<div style=""font-size:42px;"">BARLEY</div>",null,,word,BARLEY,,,,,,,,,,,,
html-keyboard-response,653,1656659,null,"",null,,word,BARLEY,,,,,,,,,,,,
html-keyboard-response,654,1656862,null,"<div style=""font-size:42px;"">JAPAN</div><img id = ""stim"" ><div class = red_square id = topsquare></div>",null,encoding,word_square,,,1,topsquare,32,true,,,JAPAN,6,,,
html-keyboard-response,655,1657177,null,"<div style=""font-size:42px;"">JAPAN</div>",null,,word,JAPAN,,,,,,,,,,,,
html-keyboard-response,656,1658685,27.700000017881393,"",32,,word,JAPAN,,,,,,,,,,,,
html-keyboard-response,657,1658890,null,"<div style=""font-size:42px;"">EUROPE</div><img id = ""stim"" ><div class = green_square id = topsquare></div>",null,encoding,word_square,,,0,topsquare,none,true,,,EUROPE,6,,,
html-keyboard-response,658,1659203,null,"<div style=""font-size:42px;"">EUROPE</div>",null,,word,EUROPE,,,,,,,,,,,,
html-keyboard-response,659,1660711,null,"",null,,word,EUROPE,,,,,,,,,,,,
html-keyboard-response,660,1660917,null,"<div style=""font-size:42px;"">TOOTHBRUSH</div><img id = ""stim"" ><div class = green_square id = bottomsquare></div>",null,encoding,word_square,,,0,bottomsquare,none,true,,,TOOTHBRUSH,6,,,
html-keyboard-response,661,1661233,null,"<div style=""font-size:42px;"">TOOTHBRUSH</div>",null,,word,TOOTHBRUSH,,,,,,,,,,,,
html-keyboard-response,662,1662745,null,"",null,,word,TOOTHBRUSH,,,,,,,,,,,,
html-keyboard-response,663,1662962,null,"<div style=""font-size:42px;"">OFFICE</div><img id = ""stim"" ><div class = red_square id = bottomsquare></div>",null,encoding,word_square,,,1,bottomsquare,32,true,,,OFFICE,6,,,
html-keyboard-response,664,1663279,233.40000000596046,"<div style=""font-size:42px;"">OFFICE</div>",32,,word,OFFICE,,,,,,,,,,,,
html-keyboard-response,665,1664790,null,"",null,,word,OFFICE,,,,,,,,,,,,
html-keyboard-response,666,1664995,null,"<div style=""font-size:42px;"">LILY</div><img id = ""stim"" ><div class = red_square id = topsquare></div>",null,encoding,word_square,,,1,topsquare,32,true,,,LILY,6,,,
html-keyboard-response,667,1665311,null,"<div style=""font-size:42px;"">LILY</div>",null,,word,LILY,,,,,,,,,,,,
html-keyboard-response,668,1666828,139,"",32,,word,LILY,,,,,,,,,,,,
html-keyboard-response,669,1667035,null,"<div style=""font-size:42px;"">BOUQUET</div><img id = ""stim"" ><div class = green_square id = topsquare></div>",null,encoding,word_square,,,0,topsquare,none,true,,,BOUQUET,6,,,
html-keyboard-response,670,1667346,null,"<div style=""font-size:42px;"">BOUQUET</div>",null,,word,BOUQUET,,,,,,,,,,,,
html-keyboard-response,671,1668852,null,"",null,,word,BOUQUET,,,,,,,,,,,,
html-keyboard-response,672,1669056,null,"<div style=""font-size:42px;"">RUG</div><img id = ""stim"" ><div class = green_square id = bottomsquare></div>",null,encoding,word_square,,,0,bottomsquare,none,true,,,RUG,6,,,
html-keyboard-response,673,1669368,null,"<div style=""font-size:42px;"">RUG</div>",null,,word,RUG,,,,,,,,,,,,
html-keyboard-response,674,1670873,null,"",null,,word,RUG,,,,,,,,,,,,
html-keyboard-response,675,1671076,null,"<div style=""font-size:42px;"">STAPLE</div><img id = ""stim"" ><div class = red_square id = bottomsquare></div>",null,encoding,word_square,,,1,bottomsquare,32,true,,,STAPLE,6,,,
html-keyboard-response,676,1671390,null,"<div style=""font-size:42px;"">STAPLE</div>",null,,word,STAPLE,,,,,,,,,,,,
html-keyboard-response,677,1672906,384.40000000596046,"",32,,word,STAPLE,,,,,,,,,,,,
html-keyboard-response,678,1673111,null,"<div style=""font-size:42px;"">PAPER</div><img id = ""stim"" ><div class = green_square id = topsquare></div>",null,encoding,word_square,,,0,topsquare,none,false,,,PAPER,6,,,
html-keyboard-response,679,1673426,null,"<div style=""font-size:42px;"">PAPER</div>",null,,word,PAPER,,,,,,,,,,,,
html-keyboard-response,680,1674930,270.69999998807907,"",32,,word,PAPER,,,,,,,,,,,,
html-keyboard-response,681,1675147,null,"<div style=""font-size:42px;"">FOREST</div><img id = ""stim"" ><div class = red_square id = topsquare></div>",null,encoding,word_square,,,1,topsquare,32,false,,,FOREST,6,,,
html-keyboard-response,682,1675459,null,"<div style=""font-size:42px;"">FOREST</div>",null,,word,FOREST,,,,,,,,,,,,
html-keyboard-response,683,1676965,null,"",null,,word,FOREST,,,,,,,,,,,,
html-keyboard-response,684,1677181,null,"<div style=""font-size:42px;"">LUNCH</div><img id = ""stim"" ><div class = red_square id = bottomsquare></div>",null,encoding,word_square,,,1,bottomsquare,32,true,,,LUNCH,6,,,
html-keyboard-response,685,1677496,null,"<div style=""font-size:42px;"">LUNCH</div>",null,,word,LUNCH,,,,,,,,,,,,
html-keyboard-response,686,1679002,21,"",32,,word,LUNCH,,,,,,,,,,,,
html-keyboard-response,687,1679205,null,"<div style=""font-size:42px;"">BLOSSOM</div><img id = ""stim"" ><div class = green_square id = bottomsquare></div>",null,encoding,word_square,,,0,bottomsquare,none,true,,,BLOSSOM,6,,,
html-keyboard-response,688,1679520,null,"<div style=""font-size:42px;"">BLOSSOM</div>",null,,word,BLOSSOM,,,,,,,,,,,,
html-keyboard-response,689,1681025,null,"",null,,word,BLOSSOM,,,,,,,,,,,,
html-keyboard-response,690,1681230,null,"<div style=""font-size:42px;"">DRAWER</div><img id = ""stim"" ><div class = red_square id = topsquare></div>",null,encoding,word_square,,,1,topsquare,32,true,,,DRAWER,6,,,
html-keyboard-response,691,1681543,null,"<div style=""font-size:42px;"">DRAWER</div>",null,,word,DRAWER,,,,,,,,,,,,
html-keyboard-response,692,1683060,72.89999997615814,"",32,,word,DRAWER,,,,,,,,,,,,
html-keyboard-response,693,1683263,null,"<div style=""font-size:42px;"">CEILING</div><img id = ""stim"" ><div class = red_square id = bottomsquare></div>",null,encoding,word_square,,,1,bottomsquare,32,true,,,CEILING,6,,,
html-keyboard-response,694,1683575,null,"<div style=""font-size:42px;"">CEILING</div>",null,,word,CEILING,,,,,,,,,,,,
html-keyboard-response,695,1685081,455.7000000178814,"",32,,word,CEILING,,,,,,,,,,,,
html-keyboard-response,696,1685285,null,"<div style=""font-size:42px;"">LUMBER</div><img id = ""stim"" ><div class = green_square id = topsquare></div>",null,encoding,word_square,,,0,topsquare,none,true,,,LUMBER,6,,,
html-keyboard-response,697,1685601,null,"<div style=""font-size:42px;"">LUMBER</div>",null,,word,LUMBER,,,,,,,,,,,,
html-keyboard-response,698,1687107,null,"",null,,word,LUMBER,,,,,,,,,,,,
call-function,699,1687108,,"",,,,,,,,,,,,,,,,
html-keyboard-response,700,1687210,null,"",null,,,,,,,,,,,,,,,
math-period,701,1692869,10871.499999970198,"",,,,,,,,,,,3,,,,,
html-keyboard-response,702,1692981,null,"",null,,,,,,,,,,,,,,,
math-period,703,1694882,3659.800000011921,"",,,,,,,,,,,5,,,,,
html-keyboard-response,704,1694994,null,"",null,,,,,,,,,,,,,,,
math-period,705,1696779,3377.2999999821186,"",,,,,,,,,,,5,,,,,
html-keyboard-response,706,1696893,null,"",null,,,,,,,,,,,,,,,
math-period,707,1699754,5459.200000017881,"",,,,,,,,,,,1,,,,,
html-keyboard-response,708,1699862,null,"",null,,,,,,,,,,,,,,,
math-period,709,1702846,5613.700000017881,"",,,,,,,,,,,4,,,,,
html-keyboard-response,710,1702958,null,"",null,,,,,,,,,,,,,,,
math-period,711,1705412,4654.0999999940395,"",,,,,,,,,,,3,,,,,
html-keyboard-response,712,1705522,null,"",null,,,,,,,,,,,,,,,
math-period,713,1707578,3836.199999988079,"",,,,,,,,,,,6,,,,,
html-keyboard-response,714,1707682,null,"",null,,,,,,,,,,,,,,,
math-period,715,1711090,6430.800000041723,"",,,,,,,,,,,1,,,,,
html-keyboard-response,716,1711194,null,"",null,,,,,,,,,,,,,,,
math-period,717,1711198,null,"",,,,,,,,,,,,,,,,
html-keyboard-response,718,1712213,null,"Recall Period!",null,,,,,,,,,,,,,,,
call-function,719,1712214,,"",,,,,,,,,,,,,,,,
html-keyboard-response,720,1712324,null,"",null,,,,,,,,,,,,,,,
recall-period,721,1727758,289860.80000048876,"",,,,,,,,,,,japan,,,,,
html-keyboard-response,722,1727873,null,"",null,,,,,,,,,,,,,,,
recall-period,723,1732082,19204.400000035763,"",,,,,,,,,,,europe,,,,,
html-keyboard-response,724,1732193,null,"",null,,,,,,,,,,,,,,,
recall-period,725,1734724,9615.099999964237,"",,,,,,,,,,,office,,,,,
html-keyboard-response,726,1734840,null,"",null,,,,,,,,,,,,,,,
recall-period,727,1737630,11525.099999964237,"",,,,,,,,,,,drawer,,,,,
html-keyboard-response,728,1737736,null,"",null,,,,,,,,,,,,,,,
recall-period,729,1740810,14044.399999916553,"",,,,,,,,,,,ceiling,,,,,
html-keyboard-response,730,1740926,null,"",null,,,,,,,,,,,,,,,
recall-period,731,1754401,69595.5,"",,,,,,,,,,,buquet,,,,,
html-keyboard-response,732,1754505,null,"",null,,,,,,,,,,,,,,,
recall-period,733,1757337,8439.099999904633,"",,,,,,,,,,,lily,,,,,
html-keyboard-response,734,1757441,null,"",null,,,,,,,,,,,,,,,
recall-period,735,1766820,58103.40000003576,"",,,,,,,,,,,office,,,,,
html-keyboard-response,736,1766937,null,"",null,,,,,,,,,,,,,,,
recall-period,737,1769218,8583.90000000596,"",,,,,,,,,,,file,,,,,
html-keyboard-response,738,1769332,null,"",null,,,,,,,,,,,,,,,
recall-period,739,1787232,null,"",,,,,,,,,,,,,,,,
html-keyboard-response,740,1787746,null,"Time's Up!",null,,,,,,,,,,,,,,,
html-keyboard-response,741,1837143,49394.80000001192,"<p> Good job! You have responded correctly to 93% of the trials. </p>
                      <p>Be sure to only press the spacebar if you see a red square, and please keep your accuracy above 80%.</p>
                      <p> Press any key to continue the experiment. </p>",32,,,,,,,,,,,,,,,
html-keyboard-response,742,1837721,575.6000000238419,"<div style=""font-size:48px;"">Press any key to begin list 8 of 16 </div>",32,,,,,,,,,,,,,,,
html-keyboard-response,743,1840242,null,"<div style=""font-size:60px;"">+</div>",null,,,,,,,,,,,,,,,
html-keyboard-response,744,1840446,null,"<div style=""font-size:42px;"">CHEST</div><img id = ""stim"" ><div class = green_square id = topsquare></div>",null,encoding,word_square,,,0,topsquare,none,true,,,CHEST,7,,,
html-keyboard-response,745,1840758,null,"<div style=""font-size:42px;"">CHEST</div>",null,,word,CHEST,,,,,,,,,,,,
html-keyboard-response,746,1842269,null,"",null,,word,CHEST,,,,,,,,,,,,
html-keyboard-response,747,1842473,null,"<div style=""font-size:42px;"">TWEEZERS</div><img id = ""stim"" ><div class = red_square id = bottomsquare></div>",null,encoding,word_square,,,1,bottomsquare,32,true,,,TWEEZERS,7,,,
html-keyboard-response,748,1842786,null,"<div style=""font-size:42px;"">TWEEZERS</div>",null,,word,TWEEZERS,,,,,,,,,,,,
html-keyboard-response,749,1844304,253.40000000596046,"",32,,word,TWEEZERS,,,,,,,,,,,,
html-keyboard-response,750,1844509,null,"<div style=""font-size:42px;"">NEPHEW</div><img id = ""stim"" ><div class = red_square id = topsquare></div>",null,encoding,word_square,,,1,topsquare,32,true,,,NEPHEW,7,,,
html-keyboard-response,751,1844823,null,"<div style=""font-size:42px;"">NEPHEW</div>",null,,word,NEPHEW,,,,,,,,,,,,
html-keyboard-response,752,1846338,84.90000000596046,"",32,,word,NEPHEW,,,,,,,,,,,,
html-keyboard-response,753,1846544,null,"<div style=""font-size:42px;"">CONTRACT</div><img id = ""stim"" ><div class = green_square id = bottomsquare></div>",null,encoding,word_square,,,0,bottomsquare,none,true,,,CONTRACT,7,,,
html-keyboard-response,754,1846857,null,"<div style=""font-size:42px;"">CONTRACT</div>",null,,word,CONTRACT,,,,,,,,,,,,
html-keyboard-response,755,1848374,null,"",null,,word,CONTRACT,,,,,,,,,,,,
html-keyboard-response,756,1848580,null,"<div style=""font-size:42px;"">MUFFIN</div><img id = ""stim"" ><div class = red_square id = bottomsquare></div>",null,encoding,word_square,,,1,bottomsquare,32,true,,,MUFFIN,7,,,
html-keyboard-response,757,1848896,null,"<div style=""font-size:42px;"">MUFFIN</div>",null,,word,MUFFIN,,,,,,,,,,,,
html-keyboard-response,758,1850406,103.59999999403954,"",32,,word,MUFFIN,,,,,,,,,,,,
html-keyboard-response,759,1850610,null,"<div style=""font-size:42px;"">FOOTBALL</div><img id = ""stim"" ><div class = red_square id = topsquare></div>",null,encoding,word_square,,,1,topsquare,32,true,,,FOOTBALL,7,,,
html-keyboard-response,760,1850924,null,"<div style=""font-size:42px;"">FOOTBALL</div>",null,,word,FOOTBALL,,,,,,,,,,,,
html-keyboard-response,761,1852429,193.39999997615814,"",32,,word,FOOTBALL,,,,,,,,,,,,
html-keyboard-response,762,1852646,null,"<div style=""font-size:42px;"">CANDY</div><img id = ""stim"" ><div class = green_square id = topsquare></div>",null,encoding,word_square,,,0,topsquare,none,true,,,CANDY,7,,,
html-keyboard-response,763,1852962,null,"<div style=""font-size:42px;"">CANDY</div>",null,,word,CANDY,,,,,,,,,,,,
html-keyboard-response,764,1854472,null,"",null,,word,CANDY,,,,,,,,,,,,
html-keyboard-response,765,1854678,null,"<div style=""font-size:42px;"">EAGLE</div><img id = ""stim"" ><div class = red_square id = bottomsquare></div>",null,encoding,word_square,,,1,bottomsquare,32,true,,,EAGLE,7,,,
html-keyboard-response,766,1854994,null,"<div style=""font-size:42px;"">EAGLE</div>",null,,word,EAGLE,,,,,,,,,,,,
html-keyboard-response,767,1856506,135.59999999403954,"",32,,word,EAGLE,,,,,,,,,,,,
html-keyboard-response,768,1856723,null,"<div style=""font-size:42px;"">PARROT</div><img id = ""stim"" ><div class = green_square id = bottomsquare></div>",null,encoding,word_square,,,0,bottomsquare,none,true,,,PARROT,7,,,
html-keyboard-response,769,1857037,null,"<div style=""font-size:42px;"">PARROT</div>",null,,word,PARROT,,,,,,,,,,,,
html-keyboard-response,770,1858549,null,"",null,,word,PARROT,,,,,,,,,,,,
html-keyboard-response,771,1858753,null,"<div style=""font-size:42px;"">SIDEWALK</div><img id = ""stim"" ><div class = green_square id = topsquare></div>",null,encoding,word_square,,,0,topsquare,none,true,,,SIDEWALK,7,,,
html-keyboard-response,772,1859066,null,"<div style=""font-size:42px;"">SIDEWALK</div>",null,,word,SIDEWALK,,,,,,,,,,,,
html-keyboard-response,773,1860575,null,"",null,,word,SIDEWALK,,,,,,,,,,,,
html-keyboard-response,774,1860793,null,"<div style=""font-size:42px;"">UMPIRE</div><img id = ""stim"" ><div class = red_square id = topsquare></div>",null,encoding,word_square,,,1,topsquare,32,true,,,UMPIRE,7,,,
html-keyboard-response,775,1861107,null,"<div style=""font-size:42px;"">UMPIRE</div>",null,,word,UMPIRE,,,,,,,,,,,,
html-keyboard-response,776,1862615,283.10000002384186,"",32,,word,UMPIRE,,,,,,,,,,,,
html-keyboard-response,777,1862833,null,"<div style=""font-size:42px;"">HIKER</div><img id = ""stim"" ><div class = red_square id = bottomsquare></div>",null,encoding,word_square,,,1,bottomsquare,32,true,,,HIKER,7,,,
html-keyboard-response,778,1863146,null,"<div style=""font-size:42px;"">HIKER</div>",null,,word,HIKER,,,,,,,,,,,,
html-keyboard-response,779,1864658,340.69999998807907,"",32,,word,HIKER,,,,,,,,,,,,
html-keyboard-response,780,1864861,null,"<div style=""font-size:42px;"">TRIGGER</div><img id = ""stim"" ><div class = green_square id = bottomsquare></div>",null,encoding,word_square,,,0,bottomsquare,none,true,,,TRIGGER,7,,,
html-keyboard-response,781,1865176,null,"<div style=""font-size:42px;"">TRIGGER</div>",null,,word,TRIGGER,,,,,,,,,,,,
html-keyboard-response,782,1866687,null,"",null,,word,TRIGGER,,,,,,,,,,,,
html-keyboard-response,783,1866892,null,"<div style=""font-size:42px;"">PEACH</div><img id = ""stim"" ><div class = green_square id = topsquare></div>",null,encoding,word_square,,,0,topsquare,none,true,,,PEACH,7,,,
html-keyboard-response,784,1867206,null,"<div style=""font-size:42px;"">PEACH</div>",null,,word,PEACH,,,,,,,,,,,,
html-keyboard-response,785,1868718,null,"",null,,word,PEACH,,,,,,,,,,,,
html-keyboard-response,786,1868924,null,"<div style=""font-size:42px;"">RUST</div><img id = ""stim"" ><div class = red_square id = topsquare></div>",null,encoding,word_square,,,1,topsquare,32,true,,,RUST,7,,,
html-keyboard-response,787,1869240,null,"<div style=""font-size:42px;"">RUST</div>",null,,word,RUST,,,,,,,,,,,,
html-keyboard-response,788,1870752,0.30000001192092896,"",32,,word,RUST,,,,,,,,,,,,
html-keyboard-response,789,1870958,null,"<div style=""font-size:42px;"">CLERK</div><img id = ""stim"" ><div class = green_square id = bottomsquare></div>",null,encoding,word_square,,,0,bottomsquare,none,true,,,CLERK,7,,,
html-keyboard-response,790,1871274,null,"<div style=""font-size:42px;"">CLERK</div>",null,,word,CLERK,,,,,,,,,,,,
html-keyboard-response,791,1872791,null,"",null,,word,CLERK,,,,,,,,,,,,
call-function,792,1872792,,"",,,,,,,,,,,,,,,,
html-keyboard-response,793,1872894,null,"",null,,,,,,,,,,,,,,,
math-period,794,1882846,19492.600000023842,"",,,,,,,,,,,2,,,,,
html-keyboard-response,795,1882959,null,"",null,,,,,,,,,,,,,,,
math-period,796,1887011,7768.799999982119,"",,,,,,,,,,,2,,,,,
html-keyboard-response,797,1887123,null,"",null,,,,,,,,,,,,,,,
math-period,798,1888798,3086.4000000059605,"",,,,,,,,,,,3,,,,,
html-keyboard-response,799,1888901,null,"",null,,,,,,,,,,,,,,,
math-period,800,1890917,3798.100000023842,"",,,,,,,,,,,5,,,,,
html-keyboard-response,801,1891032,null,"",null,,,,,,,,,,,,,,,
math-period,802,1894103,5817.800000011921,"",,,,,,,,,,,4,,,,,
html-keyboard-response,803,1894218,null,"",null,,,,,,,,,,,,,,,
math-period,804,1896796,null,"",,,,,,,,,,,,,,,,
html-keyboard-response,805,1897811,null,"Recall Period!",null,,,,,,,,,,,,,,,
call-function,806,1897813,,"",,,,,,,,,,,,,,,,
html-keyboard-response,807,1897920,null,"",null,,,,,,,,,,,,,,,
recall-period,808,1901441,18386.200000077486,"",,,,,,,,,,,trigger,,,,,
html-keyboard-response,809,1901552,null,"",null,,,,,,,,,,,,,,,
recall-period,810,1903824,8060.599999934435,"",,,,,,,,,,,hiker,,,,,
html-keyboard-response,811,1903932,null,"",null,,,,,,,,,,,,,,,
recall-period,812,1906962,12514.299999922514,"",,,,,,,,,,,muffin,,,,,
html-keyboard-response,813,1907074,null,"",null,,,,,,,,,,,,,,,
recall-period,814,1911352,17684.89999988675,"",,,,,,,,,,,eagle,,,,,
html-keyboard-response,815,1911460,null,"",null,,,,,,,,,,,,,,,
recall-period,816,1972820,null,"",,,,,,,,,,,,,,,,
html-keyboard-response,817,1973337,null,"Time's Up!",null,,,,,,,,,,,,,,,
html-keyboard-response,818,2034285,60945.90000000596,"<p> Good job! You have responded correctly to 94% of the trials. </p>
                      <p>Be sure to only press the spacebar if you see a red square, and please keep your accuracy above 80%.</p>
                      <p> Press any key to continue the experiment. </p>",32,,,,,,,,,,,,,,,
html-keyboard-response,819,2035285,998.0999999940395,"<div style=""font-size:48px;"">Press any key to begin list 9 of 16 </div>",32,,,,,,,,,,,,,,,
html-keyboard-response,820,2037805,null,"<div style=""font-size:60px;"">+</div>",null,,,,,,,,,,,,,,,
html-keyboard-response,821,2038010,null,"<div style=""font-size:42px;"">BUG</div><img id = ""stim"" ><div class = red_square id = topsquare></div>",null,encoding,word_square,,,1,topsquare,32,false,,,BUG,8,,,
html-keyboard-response,822,2038321,null,"<div style=""font-size:42px;"">BUG</div>",null,,word,BUG,,,,,,,,,,,,
html-keyboard-response,823,2039827,null,"",null,,word,BUG,,,,,,,,,,,,
html-keyboard-response,824,2040032,null,"<div style=""font-size:42px;"">ATTIC</div><img id = ""stim"" ><div class = green_square id = bottomsquare></div>",null,encoding,word_square,,,0,bottomsquare,none,true,,,ATTIC,8,,,
html-keyboard-response,825,2040346,null,"<div style=""font-size:42px;"">ATTIC</div>",null,,word,ATTIC,,,,,,,,,,,,
html-keyboard-response,826,2041853,null,"",null,,word,ATTIC,,,,,,,,,,,,
html-keyboard-response,827,2042071,null,"<div style=""font-size:42px;"">LIZARD</div><img id = ""stim"" ><div class = red_square id = bottomsquare></div>",null,encoding,word_square,,,1,bottomsquare,32,true,,,LIZARD,8,,,
html-keyboard-response,828,2042385,283,"<div style=""font-size:42px;"">LIZARD</div>",32,,word,LIZARD,,,,,,,,,,,,
html-keyboard-response,829,2043900,null,"",null,,word,LIZARD,,,,,,,,,,,,
html-keyboard-response,830,2044105,null,"<div style=""font-size:42px;"">POISON</div><img id = ""stim"" ><div class = red_square id = topsquare></div>",null,encoding,word_square,,,1,topsquare,32,true,,,POISON,8,,,
html-keyboard-response,831,2044419,null,"<div style=""font-size:42px;"">POISON</div>",null,,word,POISON,,,,,,,,,,,,
html-keyboard-response,832,2045930,394.19999998807907,"",32,,word,POISON,,,,,,,,,,,,
html-keyboard-response,833,2046137,null,"<div style=""font-size:42px;"">KNIFE</div><img id = ""stim"" ><div class = green_square id = topsquare></div>",null,encoding,word_square,,,0,topsquare,none,true,,,KNIFE,8,,,
html-keyboard-response,834,2046450,null,"<div style=""font-size:42px;"">KNIFE</div>",null,,word,KNIFE,,,,,,,,,,,,
html-keyboard-response,835,2047963,null,"",null,,word,KNIFE,,,,,,,,,,,,
html-keyboard-response,836,2048166,null,"<div style=""font-size:42px;"">CROSS</div><img id = ""stim"" ><div class = green_square id = bottomsquare></div>",null,encoding,word_square,,,0,bottomsquare,none,false,,,CROSS,8,,,
html-keyboard-response,837,2048483,null,"<div style=""font-size:42px;"">CROSS</div>",null,,word,CROSS,,,,,,,,,,,,
html-keyboard-response,838,2049990,904.1999999880791,"",32,,word,CROSS,,,,,,,,,,,,
html-keyboard-response,839,2050196,null,"<div style=""font-size:42px;"">DRUG</div><img id = ""stim"" ><div class = red_square id = bottomsquare></div>",null,encoding,word_square,,,1,bottomsquare,32,true,,,DRUG,8,,,
html-keyboard-response,840,2050510,253.7999999821186,"<div style=""font-size:42px;"">DRUG</div>",32,,word,DRUG,,,,,,,,,,,,
html-keyboard-response,841,2052028,null,"",null,,word,DRUG,,,,,,,,,,,,
html-keyboard-response,842,2052231,null,"<div style=""font-size:42px;"">STREET</div><img id = ""stim"" ><div class = red_square id = topsquare></div>",null,encoding,word_square,,,1,topsquare,32,true,,,STREET,8,,,
html-keyboard-response,843,2052544,null,"<div style=""font-size:42px;"">STREET</div>",null,,word,STREET,,,,,,,,,,,,
html-keyboard-response,844,2054051,94.90000000596046,"",32,,word,STREET,,,,,,,,,,,,
html-keyboard-response,845,2054255,null,"<div style=""font-size:42px;"">BLADE</div><img id = ""stim"" ><div class = green_square id = topsquare></div>",null,encoding,word_square,,,0,topsquare,none,true,,,BLADE,8,,,
html-keyboard-response,846,2054570,null,"<div style=""font-size:42px;"">BLADE</div>",null,,word,BLADE,,,,,,,,,,,,
html-keyboard-response,847,2056086,null,"",null,,word,BLADE,,,,,,,,,,,,
html-keyboard-response,848,2056292,null,"<div style=""font-size:42px;"">JOINT</div><img id = ""stim"" ><div class = red_square id = bottomsquare></div>",null,encoding,word_square,,,1,bottomsquare,32,true,,,JOINT,8,,,
html-keyboard-response,849,2056606,null,"<div style=""font-size:42px;"">JOINT</div>",null,,word,JOINT,,,,,,,,,,,,
html-keyboard-response,850,2058114,297,"",32,,word,JOINT,,,,,,,,,,,,
html-keyboard-response,851,2058318,null,"<div style=""font-size:42px;"">OINTMENT</div><img id = ""stim"" ><div class = green_square id = bottomsquare></div>",null,encoding,word_square,,,0,bottomsquare,none,true,,,OINTMENT,8,,,
html-keyboard-response,852,2058632,null,"<div style=""font-size:42px;"">OINTMENT</div>",null,,word,OINTMENT,,,,,,,,,,,,
html-keyboard-response,853,2060141,null,"",null,,word,OINTMENT,,,,,,,,,,,,
html-keyboard-response,854,2060347,null,"<div style=""font-size:42px;"">FILM</div><img id = ""stim"" ><div class = green_square id = topsquare></div>",null,encoding,word_square,,,0,topsquare,none,true,,,FILM,8,,,
html-keyboard-response,855,2060664,null,"<div style=""font-size:42px;"">FILM</div>",null,,word,FILM,,,,,,,,,,,,
html-keyboard-response,856,2062171,null,"",null,,word,FILM,,,,,,,,,,,,
html-keyboard-response,857,2062390,null,"<div style=""font-size:42px;"">TREASURE</div><img id = ""stim"" ><div class = red_square id = topsquare></div>",null,encoding,word_square,,,1,topsquare,32,true,,,TREASURE,8,,,
html-keyboard-response,858,2062704,null,"<div style=""font-size:42px;"">TREASURE</div>",null,,word,TREASURE,,,,,,,,,,,,
html-keyboard-response,859,2064215,311.80000001192093,"",32,,word,TREASURE,,,,,,,,,,,,
html-keyboard-response,860,2064418,null,"<div style=""font-size:42px;"">JUGGLER</div><img id = ""stim"" ><div class = red_square id = bottomsquare></div>",null,encoding,word_square,,,1,bottomsquare,32,true,,,JUGGLER,8,,,
html-keyboard-response,861,2064735,null,"<div style=""font-size:42px;"">JUGGLER</div>",null,,word,JUGGLER,,,,,,,,,,,,
html-keyboard-response,862,2066251,102.59999999403954,"",32,,word,JUGGLER,,,,,,,,,,,,
html-keyboard-response,863,2066468,null,"<div style=""font-size:42px;"">GYMNAST</div><img id = ""stim"" ><div class = green_square id = bottomsquare></div>",null,encoding,word_square,,,0,bottomsquare,none,false,,,GYMNAST,8,,,
html-keyboard-response,864,2066780,null,"<div style=""font-size:42px;"">GYMNAST</div>",null,,word,GYMNAST,,,,,,,,,,,,
html-keyboard-response,865,2068298,386.30000001192093,"",32,,word,GYMNAST,,,,,,,,,,,,
html-keyboard-response,866,2068502,null,"<div style=""font-size:42px;"">BOUILLON</div><img id = ""stim"" ><div class = green_square id = topsquare></div>",null,encoding,word_square,,,0,topsquare,none,true,,,BOUILLON,8,,,
html-keyboard-response,867,2068814,null,"<div style=""font-size:42px;"">BOUILLON</div>",null,,word,BOUILLON,,,,,,,,,,,,
html-keyboard-response,868,2070331,null,"",null,,word,BOUILLON,,,,,,,,,,,,
call-function,869,2070333,,"",,,,,,,,,,,,,,,,
html-keyboard-response,870,2070434,null,"",null,,,,,,,,,,,,,,,
math-period,871,2074732,7129.5999999940395,"",,,,,,,,,,,3,,,,,
html-keyboard-response,872,2074841,null,"",null,,,,,,,,,,,,,,,
math-period,873,2076632,3396.5999999940395,"",,,,,,,,,,,5,,,,,
html-keyboard-response,874,2076739,null,"",null,,,,,,,,,,,,,,,
math-period,875,2081416,8883.500000029802,"",,,,,,,,,,,5,,,,,
html-keyboard-response,876,2081528,null,"",null,,,,,,,,,,,,,,,
