trial_type,trial_index,time_elapsed,rt,stimulus,key_press,exp_phase,test_part,word,task,targ_cond,sq_pos,correctKeyCode,correct,value,response,Word,List,RecResp,serial_pos,colorChosen
pavlovia,0,2739,,"",,,,,,,,,,,,,,,,
external-html,1,6304,3385.899999976158,"",,,,,,,,,,,,,,,,
html-keyboard-response,2,7667,1359,"Welcome to the experiment. Press any key to begin.",188,,,,,,,,,,,,,,,
html-keyboard-response,3,32584,24916.100000023842,"<p>You will see a list of words and colored squares in the following task.<p><p>Press the spacebar whenever you see a red square.<p><p>Do not press a key if the square is green.<p><p>Press the spacebar to continue.</p>",32,,,,,,,,,,,,,,,
html-keyboard-response,4,41822,8727.399999976158,"<p>Please try to remember as many of the words as you can, and try to think about the meaning of each word as it appears.<p><p>After the detection and encoding task you will be asked to solve some math problems for 24 seconds.<p> Please solve as many problems as you can in the time given. <p><p><p>Press the spacebar to continue.</p>",32,,,,,,,,,,,,,,,
html-keyboard-response,5,50355,8022.700000047684,"After solving the math problems, you will be asked to type in as many words <p>from the previous list as you can remember for 75 seconds.<p> If you finish recalling before the 75 seconds are up,<p> just sit tight and try to think of any more words you could have missed. <p><p><p>Press the spacebar to continue.</p>",32,,,,,,,,,,,,,,,
html-keyboard-response,6,57017,6144.799999952316,"There will be 16 lists of words and recall, followed  by<p><p> a recognition phase. The experiment is expected to take up to 90 minutes.<p>We will begin with a brief practice session.<p>Press the spacebar to begin the practice.</p>",32,,,,,,,,,,,,,,,
html-keyboard-response,7,59532,null,"<div style=""font-size:60px;"">+</div>",null,,,,,,,,,,,,,,,
html-keyboard-response,8,59736,null,"<div style=""font-size:42px;"">HAPPY</div><img id = ""stim"" ><div class = green_square id = ""bottomsquare"" ></div>",null,practice,word_square,HAPPY,prac_response,0,Bottom,none,true,,,,,,,
html-keyboard-response,9,60055,null,"<div style=""font-size:42px;"">HAPPY</div>",null,,word,HAPPY,,,,,,,,,,,,
html-keyboard-response,10,61558,null,"",null,,word,HAPPY,,,,,,,,,,,,
html-keyboard-response,11,61764,null,"<div style=""font-size:42px;"">COLD</div><img id = ""stim"" ><div class = red_square id = ""bottomsquare"" ></div>",null,practice,word_square,COLD,prac_response,1,Bottom,32,true,,,,,,,
html-keyboard-response,12,62067,166.70000004768372,"<div style=""font-size:42px;"">COLD</div>",32,,word,COLD,,,,,,,,,,,,
html-keyboard-response,13,63579,null,"",null,,word,COLD,,,,,,,,,,,,
html-keyboard-response,14,63791,null,"<div style=""font-size:42px;"">HEAVY</div><img id = ""stim"" ><div class = red_square id = ""topsquare"" ></div>",null,practice,word_square,HEAVY,prac_response,1,Top,32,true,,,,,,,
html-keyboard-response,15,64098,null,"<div style=""font-size:42px;"">HEAVY</div>",null,,word,HEAVY,,,,,,,,,,,,
html-keyboard-response,16,65611,113.70000004768372,"",32,,word,HEAVY,,,,,,,,,,,,
html-keyboard-response,17,65819,null,"<div style=""font-size:42px;"">FUNNY</div><img id = ""stim"" ><div class = green_square id = ""topsquare"" ></div>",null,practice,word_square,FUNNY,prac_response,0,Top,none,true,,,,,,,
html-keyboard-response,18,66122,null,"<div style=""font-size:42px;"">FUNNY</div>",null,,word,FUNNY,,,,,,,,,,,,
html-keyboard-response,19,67627,null,"",null,,word,FUNNY,,,,,,,,,,,,
html-keyboard-response,20,67836,null,"<div style=""font-size:42px;"">SCARY</div><img id = ""stim"" ><div class = red_square id = ""bottomsquare"" ></div>",null,practice,word_square,SCARY,prac_response,1,Bottom,32,true,,,,,,,
html-keyboard-response,21,68138,287.7000000476837,"<div style=""font-size:42px;"">SCARY</div>",32,,word,SCARY,,,,,,,,,,,,
html-keyboard-response,22,69641,null,"",null,,word,SCARY,,,,,,,,,,,,
html-keyboard-response,23,69845,null,"<div style=""font-size:42px;"">PEACEFUL</div><img id = ""stim"" ><div class = red_square id = ""topsquare"" ></div>",null,practice,word_square,PEACEFUL,prac_response,1,Top,32,true,,,,,,,
html-keyboard-response,24,70164,146.29999995231628,"<div style=""font-size:42px;"">PEACEFUL</div>",32,,word,PEACEFUL,,,,,,,,,,,,
html-keyboard-response,25,71680,null,"",null,,word,PEACEFUL,,,,,,,,,,,,
html-keyboard-response,26,71895,null,"<div style=""font-size:42px;"">LITTLE</div><img id = ""stim"" ><div class = green_square id = ""bottomsquare"" ></div>",null,practice,word_square,LITTLE,prac_response,0,Bottom,none,false,,,,,,,
html-keyboard-response,27,72205,154,"<div style=""font-size:42px;"">LITTLE</div>",32,,word,LITTLE,,,,,,,,,,,,
html-keyboard-response,28,73708,null,"",null,,word,LITTLE,,,,,,,,,,,,
html-keyboard-response,29,73910,null,"<div style=""font-size:42px;"">TIRED</div><img id = ""stim"" ><div class = green_square id = ""topsquare"" ></div>",null,practice,word_square,TIRED,prac_response,0,Top,none,true,,,,,,,
html-keyboard-response,30,74216,null,"<div style=""font-size:42px;"">TIRED</div>",null,,word,TIRED,,,,,,,,,,,,
html-keyboard-response,31,75732,null,"",null,,word,TIRED,,,,,,,,,,,,
html-keyboard-response,32,75935,null,"<div style=""font-size:42px;"">ENTERTAINING</div><img id = ""stim"" ><div class = green_square id = ""bottomsquare"" ></div>",null,practice,word_square,ENTERTAINING,prac_response,0,Bottom,none,true,,,,,,,
html-keyboard-response,33,76245,null,"<div style=""font-size:42px;"">ENTERTAINING</div>",null,,word,ENTERTAINING,,,,,,,,,,,,
html-keyboard-response,34,77749,null,"",null,,word,ENTERTAINING,,,,,,,,,,,,
html-keyboard-response,35,77964,null,"<div style=""font-size:42px;"">GRATEFUL</div><img id = ""stim"" ><div class = red_square id = ""bottomsquare"" ></div>",null,practice,word_square,GRATEFUL,prac_response,1,Bottom,32,true,,,,,,,
html-keyboard-response,36,78271,215.29999995231628,"<div style=""font-size:42px;"">GRATEFUL</div>",32,,word,GRATEFUL,,,,,,,,,,,,
html-keyboard-response,37,79777,null,"",null,,word,GRATEFUL,,,,,,,,,,,,
html-keyboard-response,38,79984,null,"<div style=""font-size:42px;"">LOUD</div><img id = ""stim"" ><div class = green_square id = ""topsquare"" ></div>",null,practice,word_square,LOUD,prac_response,0,Top,none,false,,,,,,,
html-keyboard-response,39,80287,162.89999997615814,"<div style=""font-size:42px;"">LOUD</div>",32,,word,LOUD,,,,,,,,,,,,
html-keyboard-response,40,81798,null,"",null,,word,LOUD,,,,,,,,,,,,
html-keyboard-response,41,82003,null,"<div style=""font-size:42px;"">SMART</div><img id = ""stim"" ><div class = red_square id = ""topsquare"" ></div>",null,practice,word_square,SMART,prac_response,1,Top,32,true,,,,,,,
html-keyboard-response,42,82306,170.39999997615814,"<div style=""font-size:42px;"">SMART</div>",32,,word,SMART,,,,,,,,,,,,
html-keyboard-response,43,83814,null,"",null,,word,SMART,,,,,,,,,,,,
html-keyboard-response,44,84021,null,"<div style=""font-size:42px;"">SMOOTH</div><img id = ""stim"" ><div class = red_square id = ""bottomsquare"" ></div>",null,practice,word_square,SMOOTH,prac_response,1,Bottom,32,true,,,,,,,
html-keyboard-response,45,84332,191,"<div style=""font-size:42px;"">SMOOTH</div>",32,,word,SMOOTH,,,,,,,,,,,,
html-keyboard-response,46,85846,null,"",null,,word,SMOOTH,,,,,,,,,,,,
html-keyboard-response,47,86056,null,"<div style=""font-size:42px;"">DISHONEST</div><img id = ""stim"" ><div class = green_square id = ""bottomsquare"" ></div>",null,practice,word_square,DISHONEST,prac_response,0,Bottom,none,true,,,,,,,
html-keyboard-response,48,86373,null,"<div style=""font-size:42px;"">DISHONEST</div>",null,,word,DISHONEST,,,,,,,,,,,,
html-keyboard-response,49,87882,null,"",null,,word,DISHONEST,,,,,,,,,,,,
html-keyboard-response,50,88087,null,"<div style=""font-size:42px;"">WEALTHY</div><img id = ""stim"" ><div class = red_square id = ""topsquare"" ></div>",null,practice,word_square,WEALTHY,prac_response,1,Top,32,true,,,,,,,
html-keyboard-response,51,88395,149,"<div style=""font-size:42px;"">WEALTHY</div>",32,,word,WEALTHY,,,,,,,,,,,,
html-keyboard-response,52,89898,null,"",null,,word,WEALTHY,,,,,,,,,,,,
html-keyboard-response,53,90106,null,"<div style=""font-size:42px;"">BEAUTIFUL</div><img id = ""stim"" ><div class = green_square id = ""topsquare"" ></div>",null,practice,word_square,BEAUTIFUL,prac_response,0,Top,none,true,,,,,,,
html-keyboard-response,54,90421,null,"<div style=""font-size:42px;"">BEAUTIFUL</div>",null,,word,BEAUTIFUL,,,,,,,,,,,,
html-keyboard-response,55,91925,null,"",null,,word,BEAUTIFUL,,,,,,,,,,,,
html-keyboard-response,56,97844,5916.399999976158,"<p> Good job! You responded correctly to 88% of the trials. </p>
                  <p>Be sure to only press the spacebar if you see a red square, and please keep your accuracy above 80%.</p>
                  <p>We're going to try once more to make sure you understand the task. press any key to continue. </p>",32,,,,,,,,,,,,,,,
html-keyboard-response,57,101320,3475.6999999284744,"<p>You will see a list of words and colored squares in the following task.<p><p>Press the spacebar whenever you see a red square.<p><p>Do not press a key if the square is green<p><p>Press the spacebar to continue.</p>",32,,,,,,,,,,,,,,,
html-keyboard-response,58,103851,null,"<div style=""font-size:60px;"">+</div>",null,,,,,,,,,,,,,,,
html-keyboard-response,59,104071,null,"<div style=""font-size:42px;"">HAPPY</div><img id = ""stim"" ><div class = green_square id = ""bottomsquare"" ></div>",null,practice2,word_square,HAPPY,prac_response,0,Bottom,none,true,,,,,,,
html-keyboard-response,60,104386,null,"<div style=""font-size:42px;"">HAPPY</div>",null,,word,HAPPY,,,,,,,,,,,,
html-keyboard-response,61,105897,null,"",null,,word,HAPPY,,,,,,,,,,,,
html-keyboard-response,62,106110,null,"<div style=""font-size:42px;"">COLD</div><img id = ""stim"" ><div class = red_square id = ""bottomsquare"" ></div>",null,practice2,word_square,,prac_response,1,Bottom,32,true,,,,,,,
html-keyboard-response,63,106423,70.40000009536743,"<div style=""font-size:42px;"">COLD</div>",32,,word,COLD,,,,,,,,,,,,
html-keyboard-response,64,107936,null,"",null,,word,COLD,,,,,,,,,,,,
html-keyboard-response,65,108139,null,"<div style=""font-size:42px;"">HEAVY</div><img id = ""stim"" ><div class = red_square id = ""topsquare"" ></div>",null,practice2,word_square,,prac_response,1,Top,32,true,,,,,,,
html-keyboard-response,66,108442,null,"<div style=""font-size:42px;"">HEAVY</div>",null,,word,HEAVY,,,,,,,,,,,,
html-keyboard-response,67,109955,51,"",32,,word,HEAVY,,,,,,,,,,,,
html-keyboard-response,68,110159,null,"<div style=""font-size:42px;"">FUNNY</div><img id = ""stim"" ><div class = green_square id = ""topsquare"" ></div>",null,practice2,word_square,,prac_response,0,Top,none,true,,,,,,,
html-keyboard-response,69,110477,null,"<div style=""font-size:42px;"">FUNNY</div>",null,,word,FUNNY,,,,,,,,,,,,
html-keyboard-response,70,111983,null,"",null,,word,FUNNY,,,,,,,,,,,,
html-keyboard-response,71,112190,null,"<div style=""font-size:42px;"">SCARY</div><img id = ""stim"" ><div class = red_square id = ""bottomsquare"" ></div>",null,practice2,word_square,,prac_response,1,Bottom,32,true,,,,,,,
html-keyboard-response,72,112498,100.59999990463257,"<div style=""font-size:42px;"">SCARY</div>",32,,word,SCARY,,,,,,,,,,,,
html-keyboard-response,73,114010,null,"",null,,word,SCARY,,,,,,,,,,,,
html-keyboard-response,74,114222,null,"<div style=""font-size:42px;"">PEACEFUL</div><img id = ""stim"" ><div class = red_square id = ""topsquare"" ></div>",null,practice2,word_square,,prac_response,1,Top,32,true,,,,,,,
html-keyboard-response,75,114525,162.89999997615814,"<div style=""font-size:42px;"">PEACEFUL</div>",32,,word,PEACEFUL,,,,,,,,,,,,
html-keyboard-response,76,116044,null,"",null,,word,PEACEFUL,,,,,,,,,,,,
html-keyboard-response,77,116250,null,"<div style=""font-size:42px;"">LITTLE</div><img id = ""stim"" ><div class = green_square id = ""bottomsquare"" ></div>",null,practice2,word_square,LITTLE,prac_response,0,Bottom,none,true,,,,,,,
html-keyboard-response,78,116567,null,"<div style=""font-size:42px;"">LITTLE</div>",null,,word,LITTLE,,,,,,,,,,,,
html-keyboard-response,79,118079,null,"",null,,word,LITTLE,,,,,,,,,,,,
html-keyboard-response,80,118292,null,"<div style=""font-size:42px;"">TIRED</div><img id = ""stim"" ><div class = green_square id = ""topsquare"" ></div>",null,practice2,word_square,,prac_response,0,Top,none,true,,,,,,,
html-keyboard-response,81,118602,null,"<div style=""font-size:42px;"">TIRED</div>",null,,word,TIRED,,,,,,,,,,,,
html-keyboard-response,82,120118,null,"",null,,word,TIRED,,,,,,,,,,,,
html-keyboard-response,83,120328,null,"<div style=""font-size:42px;"">ENTERTAINING</div><img id = ""stim"" ><div class = green_square id = ""bottomsquare"" ></div>",null,practice2,word_square,ENTERTAINING,prac_response,0,Bottom,none,true,,,,,,,
html-keyboard-response,84,120640,null,"<div style=""font-size:42px;"">ENTERTAINING</div>",null,,word,ENTERTAINING,,,,,,,,,,,,
html-keyboard-response,85,122153,null,"",null,,word,ENTERTAINING,,,,,,,,,,,,
html-keyboard-response,86,122369,null,"<div style=""font-size:42px;"">GRATEFUL</div><img id = ""stim"" ><div class = red_square id = ""bottomsquare"" ></div>",null,practice2,word_square,,prac_response,1,Bottom,32,true,,,,,,,
html-keyboard-response,87,122680,106.29999995231628,"<div style=""font-size:42px;"">GRATEFUL</div>",32,,word,GRATEFUL,,,,,,,,,,,,
html-keyboard-response,88,124186,null,"",null,,word,GRATEFUL,,,,,,,,,,,,
html-keyboard-response,89,124398,null,"<div style=""font-size:42px;"">LOUD</div><img id = ""stim"" ><div class = green_square id = ""topsquare"" ></div>",null,practice2,word_square,,prac_response,0,Top,none,true,,,,,,,
html-keyboard-response,90,124704,null,"<div style=""font-size:42px;"">LOUD</div>",null,,word,LOUD,,,,,,,,,,,,
html-keyboard-response,91,126207,null,"",null,,word,LOUD,,,,,,,,,,,,
html-keyboard-response,92,126425,null,"<div style=""font-size:42px;"">SMART</div><img id = ""stim"" ><div class = red_square id = ""topsquare"" ></div>",null,practice2,word_square,,prac_response,1,Top,32,true,,,,,,,
html-keyboard-response,93,126734,159.5,"<div style=""font-size:42px;"">SMART</div>",32,,word,SMART,,,,,,,,,,,,
html-keyboard-response,94,128249,null,"",null,,word,SMART,,,,,,,,,,,,
html-keyboard-response,95,128454,null,"<div style=""font-size:42px;"">SMOOTH</div><img id = ""stim"" ><div class = red_square id = ""bottomsquare"" ></div>",null,practice2,word_square,,prac_response,1,Bottom,32,true,,,,,,,
html-keyboard-response,96,128759,184.60000002384186,"<div style=""font-size:42px;"">SMOOTH</div>",32,,word,SMOOTH,,,,,,,,,,,,
html-keyboard-response,97,130276,null,"",null,,word,SMOOTH,,,,,,,,,,,,
html-keyboard-response,98,130486,null,"<div style=""font-size:42px;"">DISHONEST</div><img id = ""stim"" ><div class = green_square id = ""bottomsquare"" ></div>",null,practice2,word_square,DISHONEST,prac_response,0,Bottom,none,true,,,,,,,
html-keyboard-response,99,130797,null,"<div style=""font-size:42px;"">DISHONEST</div>",null,,word,DISHONEST,,,,,,,,,,,,
html-keyboard-response,100,132313,null,"",null,,word,DISHONEST,,,,,,,,,,,,
html-keyboard-response,101,132524,null,"<div style=""font-size:42px;"">WEALTHY</div><img id = ""stim"" ><div class = red_square id = ""topsquare"" ></div>",null,practice2,word_square,,prac_response,1,Top,32,true,,,,,,,
html-keyboard-response,102,132827,136,"<div style=""font-size:42px;"">WEALTHY</div>",32,,word,WEALTHY,,,,,,,,,,,,
html-keyboard-response,103,134332,null,"",null,,word,WEALTHY,,,,,,,,,,,,
html-keyboard-response,104,134543,null,"<div style=""font-size:42px;"">BEAUTIFUL</div><img id = ""stim"" ><div class = green_square id = ""topsquare"" ></div>",null,practice2,word_square,,prac_response,0,Top,none,false,,,,,,,
html-keyboard-response,105,134849,null,"<div style=""font-size:42px;"">BEAUTIFUL</div>",null,,word,BEAUTIFUL,,,,,,,,,,,,
html-keyboard-response,106,136351,null,"",null,,word,BEAUTIFUL,,,,,,,,,,,,
html-keyboard-response,107,141369,5016.300000071526,"<p> Good job! You responded correctly to 100% of the trials. </p>
                    <p>Be sure to only press the spacebar if you see a red square, and please keep your accuracy above 80%.</p>
                    <p>Press any key to begin the math and recall sections. Thank you! </p>",32,,,,,,,,,,,,,,,
call-function,108,141370,,"",,,,,,,,,,,,,,,,
html-keyboard-response,109,141475,null,"",null,,,,,,,,,,,,,,,
math-period,110,148345,13030,"",,,,,,,,,,,3,,,,,
html-keyboard-response,111,148451,null,"",null,,,,,,,,,,,,,,,
math-period,112,151490,5129.999999880791,"",,,,,,,,,,,4,,,,,
html-keyboard-response,113,151605,null,"",null,,,,,,,,,,,,,,,
math-period,114,153768,4071.899999976158,"",,,,,,,,,,,5,,,,,
html-keyboard-response,115,153872,null,"",null,,,,,,,,,,,,,,,
math-period,116,159425,10880.099999904633,"",,,,,,,,,,,1,,,,,
html-keyboard-response,117,159529,null,"",null,,,,,,,,,,,,,,,
math-period,118,161401,3472.5,"",,,,,,,,,,,4,,,,,
html-keyboard-response,119,161514,null,"",null,,,,,,,,,,,,,,,
math-period,120,162947,2519.2000000476837,"",,,,,,,,,,,2,,,,,
html-keyboard-response,121,163053,null,"",null,,,,,,,,,,,,,,,
math-period,122,164866,3328.100000023842,"",,,,,,,,,,,3,,,,,
html-keyboard-response,123,164983,null,"",null,,,,,,,,,,,,,,,
math-period,124,165382,null,"",,,,,,,,,,,,,,,,
html-keyboard-response,125,166391,null,"Recall Period!",null,,,,,,,,,,,,,,,
call-function,126,166392,,"",,,,,,,,,,,,,,,,
html-keyboard-response,127,166503,null,"",null,,,,,,,,,,,,,,,
recall-period,128,172898,59537.09999990463,"",,,,,,,,,,,little,,,,,
html-keyboard-response,129,173001,null,"",null,,,,,,,,,,,,,,,
recall-period,130,175054,9111.000000357628,"",,,,,,,,,,,wealthy,,,,,
html-keyboard-response,131,175162,null,"",null,,,,,,,,,,,,,,,
recall-period,132,178880,19182.499999642372,"",,,,,,,,,,,heavy,,,,,
html-keyboard-response,133,178983,null,"",null,,,,,,,,,,,,,,,
recall-period,134,181236,10238.200000047684,"",,,,,,,,,,,happy,,,,,
html-keyboard-response,135,181349,null,"",null,,,,,,,,,,,,,,,
recall-period,136,185038,34510.30000042915,"",,,,,,,,,,,entertaining,,,,,
html-keyboard-response,137,185147,null,"",null,,,,,,,,,,,,,,,
recall-period,138,199265,67004.2999998331,"",,,,,,,,,,,cold,,,,,
html-keyboard-response,139,199369,null,"",null,,,,,,,,,,,,,,,
recall-period,140,241406,null,"",,,,,,,,,,,,,,,,
html-keyboard-response,141,241920,null,"Time's Up!",null,,,,,,,,,,,,,,,
html-keyboard-response,142,303251,61330.299999952316,"<p>We will now begin the experiment!<p><p>Please try to remember all words from each list.<p><p>Press the spacebar whenever you see a red square.<p><p><p><p>Press the spacebar to begin.</p>",32,,,,,,,,,,,,,,,
html-keyboard-response,143,307166,3409.8000000715256,"<div style=""font-size:48px;"">Press any key to begin list 1 of 16 </div>",32,,,,,,,,,,,,,,,
html-keyboard-response,144,309682,null,"<div style=""font-size:60px;"">+</div>",null,,,,,,,,,,,,,,,
html-keyboard-response,145,309885,null,"<div style=""font-size:42px;"">CAPTIVE</div><img id = ""stim"" ><div class = red_square id = topsquare></div>",null,encoding,word_square,,,1,topsquare,32,true,,,CAPTIVE,0,,,
html-keyboard-response,146,310194,null,"<div style=""font-size:42px;"">CAPTIVE</div>",null,,word,CAPTIVE,,,,,,,,,,,,
html-keyboard-response,147,311706,121,"",32,,word,CAPTIVE,,,,,,,,,,,,
html-keyboard-response,148,311912,null,"<div style=""font-size:42px;"">RACKET</div><img id = ""stim"" ><div class = green_square id = bottomsquare></div>",null,encoding,word_square,,,0,bottomsquare,none,true,,,RACKET,0,,,
html-keyboard-response,149,312225,null,"<div style=""font-size:42px;"">RACKET</div>",null,,word,RACKET,,,,,,,,,,,,
html-keyboard-response,150,313729,null,"",null,,word,RACKET,,,,,,,,,,,,
html-keyboard-response,151,313934,null,"<div style=""font-size:42px;"">YARN</div><img id = ""stim"" ><div class = red_square id = bottomsquare></div>",null,encoding,word_square,,,1,bottomsquare,32,true,,,YARN,0,,,
html-keyboard-response,152,314249,123.29999995231628,"<div style=""font-size:42px;"">YARN</div>",32,,word,YARN,,,,,,,,,,,,
html-keyboard-response,153,315755,null,"",null,,word,YARN,,,,,,,,,,,,
html-keyboard-response,154,315964,null,"<div style=""font-size:42px;"">PASSAGE</div><img id = ""stim"" ><div class = red_square id = topsquare></div>",null,encoding,word_square,,,1,topsquare,32,true,,,PASSAGE,0,,,
html-keyboard-response,155,316266,225.5,"<div style=""font-size:42px;"">PASSAGE</div>",32,,word,PASSAGE,,,,,,,,,,,,
html-keyboard-response,156,317778,null,"",null,,word,PASSAGE,,,,,,,,,,,,
html-keyboard-response,157,317982,null,"<div style=""font-size:42px;"">CRAB</div><img id = ""stim"" ><div class = green_square id = topsquare></div>",null,encoding,word_square,,,0,topsquare,none,true,,,CRAB,0,,,
html-keyboard-response,158,318293,null,"<div style=""font-size:42px;"">CRAB</div>",null,,word,CRAB,,,,,,,,,,,,
html-keyboard-response,159,319808,null,"",null,,word,CRAB,,,,,,,,,,,,
html-keyboard-response,160,320016,null,"<div style=""font-size:42px;"">TROUT</div><img id = ""stim"" ><div class = green_square id = bottomsquare></div>",null,encoding,word_square,,,0,bottomsquare,none,true,,,TROUT,0,,,
html-keyboard-response,161,320328,null,"<div style=""font-size:42px;"">TROUT</div>",null,,word,TROUT,,,,,,,,,,,,
html-keyboard-response,162,321842,null,"",null,,word,TROUT,,,,,,,,,,,,
html-keyboard-response,163,322048,null,"<div style=""font-size:42px;"">JELLY</div><img id = ""stim"" ><div class = red_square id = bottomsquare></div>",null,encoding,word_square,,,1,bottomsquare,32,true,,,JELLY,0,,,
html-keyboard-response,164,322363,182.20000004768372,"<div style=""font-size:42px;"">JELLY</div>",32,,word,JELLY,,,,,,,,,,,,
html-keyboard-response,165,323878,null,"",null,,word,JELLY,,,,,,,,,,,,
html-keyboard-response,166,324082,null,"<div style=""font-size:42px;"">SHORTS</div><img id = ""stim"" ><div class = green_square id = topsquare></div>",null,encoding,word_square,,,0,topsquare,none,true,,,SHORTS,0,,,
html-keyboard-response,167,324394,null,"<div style=""font-size:42px;"">SHORTS</div>",null,,word,SHORTS,,,,,,,,,,,,
html-keyboard-response,168,325898,null,"",null,,word,SHORTS,,,,,,,,,,,,
html-keyboard-response,169,326101,null,"<div style=""font-size:42px;"">CHISEL</div><img id = ""stim"" ><div class = red_square id = topsquare></div>",null,encoding,word_square,,,1,topsquare,32,true,,,CHISEL,0,,,
html-keyboard-response,170,326413,140.80000007152557,"<div style=""font-size:42px;"">CHISEL</div>",32,,word,CHISEL,,,,,,,,,,,,
html-keyboard-response,171,327929,null,"",null,,word,CHISEL,,,,,,,,,,,,
html-keyboard-response,172,328132,null,"<div style=""font-size:42px;"">HOSTESS</div><img id = ""stim"" ><div class = green_square id = bottomsquare></div>",null,encoding,word_square,,,0,bottomsquare,none,true,,,HOSTESS,0,,,
html-keyboard-response,173,328447,null,"<div style=""font-size:42px;"">HOSTESS</div>",null,,word,HOSTESS,,,,,,,,,,,,
html-keyboard-response,174,329953,null,"",null,,word,HOSTESS,,,,,,,,,,,,
html-keyboard-response,175,330156,null,"<div style=""font-size:42px;"">FREEWAY</div><img id = ""stim"" ><div class = green_square id = topsquare></div>",null,encoding,word_square,,,0,topsquare,none,true,,,FREEWAY,0,,,
html-keyboard-response,176,330468,null,"<div style=""font-size:42px;"">FREEWAY</div>",null,,word,FREEWAY,,,,,,,,,,,,
html-keyboard-response,177,331971,null,"",null,,word,FREEWAY,,,,,,,,,,,,
html-keyboard-response,178,332181,null,"<div style=""font-size:42px;"">LOUNGE</div><img id = ""stim"" ><div class = red_square id = bottomsquare></div>",null,encoding,word_square,,,1,bottomsquare,32,true,,,LOUNGE,0,,,
html-keyboard-response,179,332483,198.29999995231628,"<div style=""font-size:42px;"">LOUNGE</div>",32,,word,LOUNGE,,,,,,,,,,,,
html-keyboard-response,180,333985,null,"",null,,word,LOUNGE,,,,,,,,,,,,
html-keyboard-response,181,334189,null,"<div style=""font-size:42px;"">COSTUME</div><img id = ""stim"" ><div class = red_square id = topsquare></div>",null,encoding,word_square,,,1,topsquare,32,true,,,COSTUME,0,,,
html-keyboard-response,182,334499,null,"<div style=""font-size:42px;"">COSTUME</div>",null,,word,COSTUME,,,,,,,,,,,,
html-keyboard-response,183,336014,33.39999997615814,"",32,,word,COSTUME,,,,,,,,,,,,
html-keyboard-response,184,336216,null,"<div style=""font-size:42px;"">NOTEBOOK</div><img id = ""stim"" ><div class = red_square id = bottomsquare></div>",null,encoding,word_square,,,1,bottomsquare,32,true,,,NOTEBOOK,0,,,
html-keyboard-response,185,336527,149.90000009536743,"<div style=""font-size:42px;"">NOTEBOOK</div>",32,,word,NOTEBOOK,,,,,,,,,,,,
html-keyboard-response,186,338034,null,"",null,,word,NOTEBOOK,,,,,,,,,,,,
html-keyboard-response,187,338238,null,"<div style=""font-size:42px;"">BABY</div><img id = ""stim"" ><div class = green_square id = bottomsquare></div>",null,encoding,word_square,,,0,bottomsquare,none,true,,,BABY,0,,,
html-keyboard-response,188,338554,null,"<div style=""font-size:42px;"">BABY</div>",null,,word,BABY,,,,,,,,,,,,
html-keyboard-response,189,340056,null,"",null,,word,BABY,,,,,,,,,,,,
html-keyboard-response,190,340266,null,"<div style=""font-size:42px;"">CRIB</div><img id = ""stim"" ><div class = green_square id = topsquare></div>",null,encoding,word_square,,,0,topsquare,none,true,,,CRIB,0,,,
html-keyboard-response,191,340578,null,"<div style=""font-size:42px;"">CRIB</div>",null,,word,CRIB,,,,,,,,,,,,
html-keyboard-response,192,342091,null,"",null,,word,CRIB,,,,,,,,,,,,
call-function,193,342092,,"",,,,,,,,,,,,,,,,
html-keyboard-response,194,342200,null,"",null,,,,,,,,,,,,,,,
math-period,195,344254,3688,"",,,,,,,,,,,3,,,,,
html-keyboard-response,196,344367,null,"",null,,,,,,,,,,,,,,,
math-period,197,348863,8378.700000047684,"",,,,,,,,,,,3,,,,,
html-keyboard-response,198,348970,null,"",null,,,,,,,,,,,,,,,
math-period,199,351418,8064.400000214577,"",,,,,,,,,,,6,,,,,
html-keyboard-response,200,351523,null,"",null,,,,,,,,,,,,,,,
math-period,201,354140,4893.299999952316,"",,,,,,,,,,,4,,,,,
html-keyboard-response,202,354244,null,"",null,,,,,,,,,,,,,,,
math-period,203,357820,5854.100000023842,"",,,,,,,,,,,1,,,,,
html-keyboard-response,204,357926,null,"",null,,,,,,,,,,,,,,,
math-period,205,362539,6677.799999952316,"",,,,,,,,,,,1,,,,,
html-keyboard-response,206,362642,null,"",null,,,,,,,,,,,,,,,
math-period,207,366104,null,"",,,,,,,,,,,,,,,,
html-keyboard-response,208,367112,null,"Recall Period!",null,,,,,,,,,,,,,,,
call-function,209,367113,,"",,,,,,,,,,,,,,,,
html-keyboard-response,210,367214,null,"",null,,,,,,,,,,,,,,,
recall-period,211,369490,8619,"",,,,,,,,,,,crib,,,,,
html-keyboard-response,212,369591,null,"",null,,,,,,,,,,,,,,,
recall-period,213,374807,44082.59999907017,"",,,,,,,,,,,racket,,,,,
html-keyboard-response,214,374915,null,"",null,,,,,,,,,,,,,,,
recall-period,215,423878,386687.4000003338,"",,,,,,,,,,,captive,,,,,
html-keyboard-response,216,423990,null,"",null,,,,,,,,,,,,,,,
recall-period,217,442119,null,"",,,,,,,,,,,,,,,,
html-keyboard-response,218,442634,null,"Time's Up!",null,,,,,,,,,,,,,,,
html-keyboard-response,219,447181,4545.399999976158,"<p> Good job! You have responded correctly to 100% of the trials. </p>
                      <p>Be sure to only press the spacebar if you see a red square, and please keep your accuracy above 80%.</p>
                      <p> Press any key to continue the experiment. </p>",32,,,,,,,,,,,,,,,
html-keyboard-response,220,450044,2861.899999976158,"<div style=""font-size:48px;"">Press any key to begin list 2 of 16 </div>",32,,,,,,,,,,,,,,,
html-keyboard-response,221,452575,null,"<div style=""font-size:60px;"">+</div>",null,,,,,,,,,,,,,,,
html-keyboard-response,222,452778,null,"<div style=""font-size:42px;"">HOSTAGE</div><img id = ""stim"" ><div class = green_square id = topsquare></div>",null,encoding,word_square,,,0,topsquare,none,false,,,HOSTAGE,1,,,
html-keyboard-response,223,453093,null,"<div style=""font-size:42px;"">HOSTAGE</div>",null,,word,HOSTAGE,,,,,,,,,,,,
html-keyboard-response,224,454605,93.39999997615814,"",32,,word,HOSTAGE,,,,,,,,,,,,
html-keyboard-response,225,454815,null,"<div style=""font-size:42px;"">PEDAL</div><img id = ""stim"" ><div class = green_square id = bottomsquare></div>",null,encoding,word_square,,,0,bottomsquare,none,true,,,PEDAL,1,,,
html-keyboard-response,226,455126,null,"<div style=""font-size:42px;"">PEDAL</div>",null,,word,PEDAL,,,,,,,,,,,,
html-keyboard-response,227,456634,null,"",null,,word,PEDAL,,,,,,,,,,,,
html-keyboard-response,228,456850,null,"<div style=""font-size:42px;"">GAZELLE</div><img id = ""stim"" ><div class = red_square id = bottomsquare></div>",null,encoding,word_square,,,1,bottomsquare,32,true,,,GAZELLE,1,,,
html-keyboard-response,229,457156,160.20000004768372,"<div style=""font-size:42px;"">GAZELLE</div>",32,,word,GAZELLE,,,,,,,,,,,,
html-keyboard-response,230,458664,null,"",null,,word,GAZELLE,,,,,,,,,,,,
html-keyboard-response,231,458879,null,"<div style=""font-size:42px;"">STREAM</div><img id = ""stim"" ><div class = red_square id = topsquare></div>",null,encoding,word_square,,,1,topsquare,32,true,,,STREAM,1,,,
html-keyboard-response,232,459180,294.60000002384186,"<div style=""font-size:42px;"">STREAM</div>",32,,word,STREAM,,,,,,,,,,,,
html-keyboard-response,233,460697,null,"",null,,word,STREAM,,,,,,,,,,,,
html-keyboard-response,234,460905,null,"<div style=""font-size:42px;"">RIVER</div><img id = ""stim"" ><div class = red_square id = bottomsquare></div>",null,encoding,word_square,,,1,bottomsquare,32,true,,,RIVER,1,,,
html-keyboard-response,235,461213,229.69999992847443,"<div style=""font-size:42px;"">RIVER</div>",32,,word,RIVER,,,,,,,,,,,,
html-keyboard-response,236,462720,null,"",null,,word,RIVER,,,,,,,,,,,,
html-keyboard-response,237,462923,null,"<div style=""font-size:42px;"">CABOOSE</div><img id = ""stim"" ><div class = green_square id = topsquare></div>",null,encoding,word_square,,,0,topsquare,none,true,,,CABOOSE,1,,,
html-keyboard-response,238,463231,null,"<div style=""font-size:42px;"">CABOOSE</div>",null,,word,CABOOSE,,,,,,,,,,,,
html-keyboard-response,239,464738,null,"",null,,word,CABOOSE,,,,,,,,,,,,
html-keyboard-response,240,464941,null,"<div style=""font-size:42px;"">CLOSET</div><img id = ""stim"" ><div class = green_square id = bottomsquare></div>",null,encoding,word_square,,,0,bottomsquare,none,true,,,CLOSET,1,,,
html-keyboard-response,241,465255,null,"<div style=""font-size:42px;"">CLOSET</div>",null,,word,CLOSET,,,,,,,,,,,,
html-keyboard-response,242,466757,null,"",null,,word,CLOSET,,,,,,,,,,,,
html-keyboard-response,243,466961,null,"<div style=""font-size:42px;"">STONE</div><img id = ""stim"" ><div class = red_square id = topsquare></div>",null,encoding,word_square,,,1,topsquare,32,true,,,STONE,1,,,
html-keyboard-response,244,467266,181.60000002384186,"<div style=""font-size:42px;"">STONE</div>",32,,word,STONE,,,,,,,,,,,,
html-keyboard-response,245,468772,null,"",null,,word,STONE,,,,,,,,,,,,
html-keyboard-response,246,468978,null,"<div style=""font-size:42px;"">KIDNEY</div><img id = ""stim"" ><div class = green_square id = topsquare></div>",null,encoding,word_square,,,0,topsquare,none,true,,,KIDNEY,1,,,
html-keyboard-response,247,469285,null,"<div style=""font-size:42px;"">KIDNEY</div>",null,,word,KIDNEY,,,,,,,,,,,,
html-keyboard-response,248,470792,null,"",null,,word,KIDNEY,,,,,,,,,,,,
html-keyboard-response,249,471009,null,"<div style=""font-size:42px;"">POSSUM</div><img id = ""stim"" ><div class = red_square id = bottomsquare></div>",null,encoding,word_square,,,1,bottomsquare,32,true,,,POSSUM,1,,,
html-keyboard-response,250,471314,132.80000007152557,"<div style=""font-size:42px;"">POSSUM</div>",32,,word,POSSUM,,,,,,,,,,,,
html-keyboard-response,251,472823,null,"",null,,word,POSSUM,,,,,,,,,,,,
html-keyboard-response,252,473034,null,"<div style=""font-size:42px;"">STOCKING</div><img id = ""stim"" ><div class = green_square id = bottomsquare></div>",null,encoding,word_square,,,0,bottomsquare,none,true,,,STOCKING,1,,,
html-keyboard-response,253,473344,null,"<div style=""font-size:42px;"">STOCKING</div>",null,,word,STOCKING,,,,,,,,,,,,
html-keyboard-response,254,474858,null,"",null,,word,STOCKING,,,,,,,,,,,,
html-keyboard-response,255,475070,null,"<div style=""font-size:42px;"">EGYPT</div><img id = ""stim"" ><div class = green_square id = topsquare></div>",null,encoding,word_square,,,0,topsquare,none,true,,,EGYPT,1,,,
html-keyboard-response,256,475380,null,"<div style=""font-size:42px;"">EGYPT</div>",null,,word,EGYPT,,,,,,,,,,,,
html-keyboard-response,257,476889,null,"",null,,word,EGYPT,,,,,,,,,,,,
html-keyboard-response,258,477092,null,"<div style=""font-size:42px;"">COUNTRY</div><img id = ""stim"" ><div class = red_square id = topsquare></div>",null,encoding,word_square,,,1,topsquare,32,true,,,COUNTRY,1,,,
html-keyboard-response,259,477395,199.10000002384186,"<div style=""font-size:42px;"">COUNTRY</div>",32,,word,COUNTRY,,,,,,,,,,,,
html-keyboard-response,260,478909,null,"",null,,word,COUNTRY,,,,,,,,,,,,
html-keyboard-response,261,479123,null,"<div style=""font-size:42px;"">DAISY</div><img id = ""stim"" ><div class = red_square id = bottomsquare></div>",null,encoding,word_square,,,1,bottomsquare,32,true,,,DAISY,1,,,
html-keyboard-response,262,479430,177,"<div style=""font-size:42px;"">DAISY</div>",32,,word,DAISY,,,,,,,,,,,,
html-keyboard-response,263,480944,null,"",null,,word,DAISY,,,,,,,,,,,,
html-keyboard-response,264,481148,null,"<div style=""font-size:42px;"">PRIMATE</div><img id = ""stim"" ><div class = green_square id = bottomsquare></div>",null,encoding,word_square,,,0,bottomsquare,none,true,,,PRIMATE,1,,,
html-keyboard-response,265,481454,null,"<div style=""font-size:42px;"">PRIMATE</div>",null,,word,PRIMATE,,,,,,,,,,,,
html-keyboard-response,266,482959,null,"",null,,word,PRIMATE,,,,,,,,,,,,
html-keyboard-response,267,483165,null,"<div style=""font-size:42px;"">GIRL</div><img id = ""stim"" ><div class = red_square id = topsquare></div>",null,encoding,word_square,,,1,topsquare,32,true,,,GIRL,1,,,
html-keyboard-response,268,483479,127.20000004768372,"<div style=""font-size:42px;"">GIRL</div>",32,,word,GIRL,,,,,,,,,,,,
html-keyboard-response,269,484994,null,"",null,,word,GIRL,,,,,,,,,,,,
call-function,270,484995,,"",,,,,,,,,,,,,,,,
html-keyboard-response,271,485097,null,"",null,,,,,,,,,,,,,,,
math-period,272,490673,10806.199999928474,"",,,,,,,,,,,2,,,,,
html-keyboard-response,273,490777,null,"",null,,,,,,,,,,,,,,,
math-period,274,494281,12809.800000071526,"",,,,,,,,,,,5,,,,,
html-keyboard-response,275,494396,null,"",null,,,,,,,,,,,,,,,
math-period,276,497176,5255.100000143051,"",,,,,,,,,,,1,,,,,
html-keyboard-response,277,497284,null,"",null,,,,,,,,,,,,,,,
math-period,278,501301,7797.799999952316,"",,,,,,,,,,,1,,,,,
html-keyboard-response,279,501417,null,"",null,,,,,,,,,,,,,,,
math-period,280,502956,2851.6999999284744,"",,,,,,,,,,,4,,,,,
html-keyboard-response,281,503059,null,"",null,,,,,,,,,,,,,,,
math-period,282,506490,6612.700000047684,"",,,,,,,,,,,3,,,,,
html-keyboard-response,283,506594,null,"",null,,,,,,,,,,,,,,,
math-period,284,508811,4117.600000023842,"",,,,,,,,,,,2,,,,,
html-keyboard-response,285,508917,null,"",null,,,,,,,,,,,,,,,
math-period,286,508999,null,"",,,,,,,,,,,,,,,,
html-keyboard-response,287,510004,null,"Recall Period!",null,,,,,,,,,,,,,,,
call-function,288,510005,,"",,,,,,,,,,,,,,,,
html-keyboard-response,289,510118,null,"",null,,,,,,,,,,,,,,,
recall-period,290,512924,15164.099999547005,"",,,,,,,,,,,stream,,,,,
html-keyboard-response,291,513026,null,"",null,,,,,,,,,,,,,,,
recall-period,292,514815,9933.700000286102,"",,,,,,,,,,,river,,,,,
html-keyboard-response,293,514920,null,"",null,,,,,,,,,,,,,,,
recall-period,294,516978,7631.900000333786,"",,,,,,,,,,,eygpt,,,,,
html-keyboard-response,295,517081,null,"",null,,,,,,,,,,,,,,,
recall-period,296,518951,7230.500000119209,"",,,,,,,,,,,caboose,,,,,
html-keyboard-response,297,519052,null,"",null,,,,,,,,,,,,,,,
recall-period,298,585012,null,"",,,,,,,,,,,,,,,,
html-keyboard-response,299,585528,null,"Time's Up!",null,,,,,,,,,,,,,,,
html-keyboard-response,300,609808,24278.699999928474,"<p> Good job! You have responded correctly to 97% of the trials. </p>
                      <p>Be sure to only press the spacebar if you see a red square, and please keep your accuracy above 80%.</p>
                      <p> Press any key to continue the experiment. </p>",32,,,,,,,,,,,,,,,
html-keyboard-response,301,610902,1093.3000000715256,"<div style=""font-size:48px;"">Press any key to begin list 3 of 16 </div>",32,,,,,,,,,,,,,,,
html-keyboard-response,302,613420,null,"<div style=""font-size:60px;"">+</div>",null,,,,,,,,,,,,,,,
html-keyboard-response,303,613637,null,"<div style=""font-size:42px;"">RADISH</div><img id = ""stim"" ><div class = green_square id = bottomsquare></div>",null,encoding,word_square,,,0,bottomsquare,none,true,,,RADISH,2,,,
html-keyboard-response,304,613952,null,"<div style=""font-size:42px;"">RADISH</div>",null,,word,RADISH,,,,,,,,,,,,
html-keyboard-response,305,615467,null,"",null,,word,RADISH,,,,,,,,,,,,
html-keyboard-response,306,615669,null,"<div style=""font-size:42px;"">SICKLE</div><img id = ""stim"" ><div class = red_square id = topsquare></div>",null,encoding,word_square,,,1,topsquare,32,true,,,SICKLE,2,,,
html-keyboard-response,307,615980,176.19999992847443,"<div style=""font-size:42px;"">SICKLE</div>",32,,word,SICKLE,,,,,,,,,,,,
html-keyboard-response,308,617492,null,"",null,,word,SICKLE,,,,,,,,,,,,
html-keyboard-response,309,617695,null,"<div style=""font-size:42px;"">BALLOON</div><img id = ""stim"" ><div class = green_square id = topsquare></div>",null,encoding,word_square,,,0,topsquare,none,true,,,BALLOON,2,,,
html-keyboard-response,310,617998,null,"<div style=""font-size:42px;"">BALLOON</div>",null,,word,BALLOON,,,,,,,,,,,,
html-keyboard-response,311,619507,null,"",null,,word,BALLOON,,,,,,,,,,,,
html-keyboard-response,312,619720,null,"<div style=""font-size:42px;"">FROG</div><img id = ""stim"" ><div class = green_square id = bottomsquare></div>",null,encoding,word_square,,,0,bottomsquare,none,true,,,FROG,2,,,
html-keyboard-response,313,620033,null,"<div style=""font-size:42px;"">FROG</div>",null,,word,FROG,,,,,,,,,,,,
html-keyboard-response,314,621546,null,"",null,,word,FROG,,,,,,,,,,,,
html-keyboard-response,315,621748,null,"<div style=""font-size:42px;"">ARM</div><img id = ""stim"" ><div class = red_square id = bottomsquare></div>",null,encoding,word_square,,,1,bottomsquare,32,true,,,ARM,2,,,
html-keyboard-response,316,622052,131.5,"<div style=""font-size:42px;"">ARM</div>",32,,word,ARM,,,,,,,,,,,,
html-keyboard-response,317,623564,null,"",null,,word,ARM,,,,,,,,,,,,
html-keyboard-response,318,623771,null,"<div style=""font-size:42px;"">TULIP</div><img id = ""stim"" ><div class = red_square id = topsquare></div>",null,encoding,word_square,,,1,topsquare,32,true,,,TULIP,2,,,
html-keyboard-response,319,624085,null,"<div style=""font-size:42px;"">TULIP</div>",null,,word,TULIP,,,,,,,,,,,,
html-keyboard-response,320,625591,84,"",32,,word,TULIP,,,,,,,,,,,,
html-keyboard-response,321,625794,null,"<div style=""font-size:42px;"">CREVICE</div><img id = ""stim"" ><div class = green_square id = topsquare></div>",null,encoding,word_square,,,0,topsquare,none,true,,,CREVICE,2,,,
html-keyboard-response,322,626100,null,"<div style=""font-size:42px;"">CREVICE</div>",null,,word,CREVICE,,,,,,,,,,,,
html-keyboard-response,323,627615,null,"",null,,word,CREVICE,,,,,,,,,,,,
html-keyboard-response,324,627819,null,"<div style=""font-size:42px;"">SHIRT</div><img id = ""stim"" ><div class = red_square id = bottomsquare></div>",null,encoding,word_square,,,1,bottomsquare,32,true,,,SHIRT,2,,,
html-keyboard-response,325,628135,148,"<div style=""font-size:42px;"">SHIRT</div>",32,,word,SHIRT,,,,,,,,,,,,
html-keyboard-response,326,629646,null,"",null,,word,SHIRT,,,,,,,,,,,,
html-keyboard-response,327,629848,null,"<div style=""font-size:42px;"">POSTAGE</div><img id = ""stim"" ><div class = green_square id = bottomsquare></div>",null,encoding,word_square,,,0,bottomsquare,none,true,,,POSTAGE,2,,,
html-keyboard-response,328,630163,null,"<div style=""font-size:42px;"">POSTAGE</div>",null,,word,POSTAGE,,,,,,,,,,,,
html-keyboard-response,329,631665,null,"",null,,word,POSTAGE,,,,,,,,,,,,
html-keyboard-response,330,631868,null,"<div style=""font-size:42px;"">STICKER</div><img id = ""stim"" ><div class = red_square id = topsquare></div>",null,encoding,word_square,,,1,topsquare,32,true,,,STICKER,2,,,
html-keyboard-response,331,632173,109.60000002384186,"<div style=""font-size:42px;"">STICKER</div>",32,,word,STICKER,,,,,,,,,,,,
html-keyboard-response,332,633689,null,"",null,,word,STICKER,,,,,,,,,,,,
html-keyboard-response,333,633892,null,"<div style=""font-size:42px;"">COTTAGE</div><img id = ""stim"" ><div class = red_square id = bottomsquare></div>",null,encoding,word_square,,,1,bottomsquare,32,true,,,COTTAGE,2,,,
html-keyboard-response,334,634198,188.60000002384186,"<div style=""font-size:42px;"">COTTAGE</div>",32,,word,COTTAGE,,,,,,,,,,,,
html-keyboard-response,335,635700,null,"",null,,word,COTTAGE,,,,,,,,,,,,
html-keyboard-response,336,635916,null,"<div style=""font-size:42px;"">TURNIP</div><img id = ""stim"" ><div class = green_square id = topsquare></div>",null,encoding,word_square,,,0,topsquare,none,true,,,TURNIP,2,,,
html-keyboard-response,337,636233,null,"<div style=""font-size:42px;"">TURNIP</div>",null,,word,TURNIP,,,,,,,,,,,,
html-keyboard-response,338,637736,null,"",null,,word,TURNIP,,,,,,,,,,,,
html-keyboard-response,339,637942,null,"<div style=""font-size:42px;"">DRIVER</div><img id = ""stim"" ><div class = green_square id = bottomsquare></div>",null,encoding,word_square,,,0,bottomsquare,none,true,,,DRIVER,2,,,
html-keyboard-response,340,638255,null,"<div style=""font-size:42px;"">DRIVER</div>",null,,word,DRIVER,,,,,,,,,,,,
html-keyboard-response,341,639757,null,"",null,,word,DRIVER,,,,,,,,,,,,
html-keyboard-response,342,639974,null,"<div style=""font-size:42px;"">TAXI</div><img id = ""stim"" ><div class = green_square id = topsquare></div>",null,encoding,word_square,,,0,topsquare,none,true,,,TAXI,2,,,
html-keyboard-response,343,640287,161.09999990463257,"<div style=""font-size:42px;"">TAXI</div>",32,,word,TAXI,,,,,,,,,,,,
html-keyboard-response,344,641789,null,"",null,,word,TAXI,,,,,,,,,,,,
html-keyboard-response,345,641993,null,"<div style=""font-size:42px;"">SKILLET</div><img id = ""stim"" ><div class = red_square id = topsquare></div>",null,encoding,word_square,,,1,topsquare,32,true,,,SKILLET,2,,,
html-keyboard-response,346,642307,115,"<div style=""font-size:42px;"">SKILLET</div>",32,,word,SKILLET,,,,,,,,,,,,
html-keyboard-response,347,643813,null,"",null,,word,SKILLET,,,,,,,,,,,,
html-keyboard-response,348,644031,null,"<div style=""font-size:42px;"">PLANET</div><img id = ""stim"" ><div class = red_square id = bottomsquare></div>",null,encoding,word_square,,,1,bottomsquare,32,true,,,PLANET,2,,,
html-keyboard-response,349,644345,197.70000004768372,"<div style=""font-size:42px;"">PLANET</div>",32,,word,PLANET,,,,,,,,,,,,
html-keyboard-response,350,645849,null,"",null,,word,PLANET,,,,,,,,,,,,
call-function,351,645850,,"",,,,,,,,,,,,,,,,
html-keyboard-response,352,645958,null,"",null,,,,,,,,,,,,,,,
math-period,353,647810,3428.5999999046326,"",,,,,,,,,,,3,,,,,
html-keyboard-response,354,647926,null,"",null,,,,,,,,,,,,,,,
math-period,355,649709,3249.6999999284744,"",,,,,,,,,,,1,,,,,
html-keyboard-response,356,649823,null,"",null,,,,,,,,,,,,,,,
math-period,357,651605,3177.7000000476837,"",,,,,,,,,,,3,,,,,
html-keyboard-response,358,651722,null,"",null,,,,,,,,,,,,,,,
math-period,359,656507,9361.00000011921,"",,,,,,,,,,,1,,,,,
html-keyboard-response,360,656609,null,"",null,,,,,,,,,,,,,,,
math-period,361,660508,7543.399999976158,"",,,,,,,,,,,5,,,,,
html-keyboard-response,362,660616,null,"",null,,,,,,,,,,,,,,,
math-period,363,664374,7244.800000071526,"",,,,,,,,,,,2,,,,,
html-keyboard-response,364,664480,null,"",null,,,,,,,,,,,,,,,
math-period,365,667401,5625.100000023842,"",,,,,,,,,,,3,,,,,
html-keyboard-response,366,667511,null,"",null,,,,,,,,,,,,,,,
math-period,367,669864,null,"",,,,,,,,,,,,,,,,
html-keyboard-response,368,670870,null,"Recall Period!",null,,,,,,,,,,,,,,,
call-function,369,670870,,"",,,,,,,,,,,,,,,,
html-keyboard-response,370,670975,null,"",null,,,,,,,,,,,,,,,
recall-period,371,673020,7393.799999952316,"",,,,,,,,,,,frog,,,,,
html-keyboard-response,372,673123,null,"",null,,,,,,,,,,,,,,,
recall-period,373,674056,1949.1000000238419,"",,,,,,,,,,,arm,,,,,
html-keyboard-response,374,674163,null,"",null,,,,,,,,,,,,,,,
recall-period,375,676647,11021.699999928474,"",,,,,,,,,,,radish,,,,,
html-keyboard-response,376,676751,null,"",null,,,,,,,,,,,,,,,
recall-period,377,679307,8135.999999880791,"",,,,,,,,,,,turnip,,,,,
html-keyboard-response,378,679412,null,"",null,,,,,,,,,,,,,,,
recall-period,379,721035,363764.30000030994,"",,,,,,,,,,,sickle,,,,,
html-keyboard-response,380,721136,null,"",null,,,,,,,,,,,,,,,
recall-period,381,746507,null,"",,,,,,,,,,,,,,,,
html-keyboard-response,382,747508,null,"Time's Up!",null,,,,,,,,,,,,,,,
html-keyboard-response,383,787343,39833.10000002384,"<p> Good job! You have responded correctly to 98% of the trials. </p>
                      <p>Be sure to only press the spacebar if you see a red square, and please keep your accuracy above 80%.</p>
                      <p> Press any key to continue the experiment. </p>",32,,,,,,,,,,,,,,,
html-keyboard-response,384,790604,3260.5999999046326,"<div style=""font-size:48px;"">Press any key to begin list 4 of 16 </div>",32,,,,,,,,,,,,,,,
html-keyboard-response,385,793114,null,"<div style=""font-size:60px;"">+</div>",null,,,,,,,,,,,,,,,
html-keyboard-response,386,793318,null,"<div style=""font-size:42px;"">TURKEY</div><img id = ""stim"" ><div class = red_square id = bottomsquare></div>",null,encoding,word_square,,,1,bottomsquare,32,true,,,TURKEY,3,,,
html-keyboard-response,387,793626,null,"<div style=""font-size:42px;"">TURKEY</div>",null,,word,TURKEY,,,,,,,,,,,,
html-keyboard-response,388,795134,187.39999997615814,"",32,,word,TURKEY,,,,,,,,,,,,
html-keyboard-response,389,795352,null,"<div style=""font-size:42px;"">MESSAGE</div><img id = ""stim"" ><div class = red_square id = topsquare></div>",null,encoding,word_square,,,1,topsquare,32,true,,,MESSAGE,3,,,
html-keyboard-response,390,795654,270.39999997615814,"<div style=""font-size:42px;"">MESSAGE</div>",32,,word,MESSAGE,,,,,,,,,,,,
html-keyboard-response,391,797166,null,"",null,,word,MESSAGE,,,,,,,,,,,,
html-keyboard-response,392,797368,null,"<div style=""font-size:42px;"">LAKE</div><img id = ""stim"" ><div class = green_square id = topsquare></div>",null,encoding,word_square,,,0,topsquare,none,true,,,LAKE,3,,,
html-keyboard-response,393,797680,null,"<div style=""font-size:42px;"">LAKE</div>",null,,word,LAKE,,,,,,,,,,,,
html-keyboard-response,394,799183,null,"",null,,word,LAKE,,,,,,,,,,,,
html-keyboard-response,395,799400,null,"<div style=""font-size:42px;"">SUBURB</div><img id = ""stim"" ><div class = green_square id = bottomsquare></div>",null,encoding,word_square,,,0,bottomsquare,none,true,,,SUBURB,3,,,
html-keyboard-response,396,799710,null,"<div style=""font-size:42px;"">SUBURB</div>",null,,word,SUBURB,,,,,,,,,,,,
html-keyboard-response,397,801215,null,"",null,,word,SUBURB,,,,,,,,,,,,
html-keyboard-response,398,801431,null,"<div style=""font-size:42px;"">MATCH</div><img id = ""stim"" ><div class = green_square id = topsquare></div>",null,encoding,word_square,,,0,topsquare,none,true,,,MATCH,3,,,
html-keyboard-response,399,801746,null,"<div style=""font-size:42px;"">MATCH</div>",null,,word,MATCH,,,,,,,,,,,,
html-keyboard-response,400,803252,null,"",null,,word,MATCH,,,,,,,,,,,,
html-keyboard-response,401,803454,null,"<div style=""font-size:42px;"">LIGHTNING</div><img id = ""stim"" ><div class = red_square id = bottomsquare></div>",null,encoding,word_square,,,1,bottomsquare,32,true,,,LIGHTNING,3,,,
html-keyboard-response,402,803767,131.39999997615814,"<div style=""font-size:42px;"">LIGHTNING</div>",32,,word,LIGHTNING,,,,,,,,,,,,
html-keyboard-response,403,805278,null,"",null,,word,LIGHTNING,,,,,,,,,,,,
html-keyboard-response,404,805483,null,"<div style=""font-size:42px;"">FINGER</div><img id = ""stim"" ><div class = red_square id = topsquare></div>",null,encoding,word_square,,,1,topsquare,32,true,,,FINGER,3,,,
html-keyboard-response,405,805785,247.79999995231628,"<div style=""font-size:42px;"">FINGER</div>",32,,word,FINGER,,,,,,,,,,,,
html-keyboard-response,406,807297,null,"",null,,word,FINGER,,,,,,,,,,,,
html-keyboard-response,407,807515,null,"<div style=""font-size:42px;"">VAMPIRE</div><img id = ""stim"" ><div class = green_square id = bottomsquare></div>",null,encoding,word_square,,,0,bottomsquare,none,true,,,VAMPIRE,3,,,
html-keyboard-response,408,807829,null,"<div style=""font-size:42px;"">VAMPIRE</div>",null,,word,VAMPIRE,,,,,,,,,,,,
html-keyboard-response,409,809332,null,"",null,,word,VAMPIRE,,,,,,,,,,,,
html-keyboard-response,410,809549,null,"<div style=""font-size:42px;"">BANJO</div><img id = ""stim"" ><div class = red_square id = bottomsquare></div>",null,encoding,word_square,,,1,bottomsquare,32,true,,,BANJO,3,,,
html-keyboard-response,411,809860,158.79999995231628,"<div style=""font-size:42px;"">BANJO</div>",32,,word,BANJO,,,,,,,,,,,,
html-keyboard-response,412,811374,null,"",null,,word,BANJO,,,,,,,,,,,,
html-keyboard-response,413,811577,null,"<div style=""font-size:42px;"">WHISTLE</div><img id = ""stim"" ><div class = green_square id = topsquare></div>",null,encoding,word_square,,,0,topsquare,none,true,,,WHISTLE,3,,,
html-keyboard-response,414,811887,null,"<div style=""font-size:42px;"">WHISTLE</div>",null,,word,WHISTLE,,,,,,,,,,,,
html-keyboard-response,415,813393,null,"",null,,word,WHISTLE,,,,,,,,,,,,
html-keyboard-response,416,813595,null,"<div style=""font-size:42px;"">QUEEN</div><img id = ""stim"" ><div class = red_square id = topsquare></div>",null,encoding,word_square,,,1,topsquare,32,true,,,QUEEN,3,,,
html-keyboard-response,417,813909,124.39999997615814,"<div style=""font-size:42px;"">QUEEN</div>",32,,word,QUEEN,,,,,,,,,,,,
html-keyboard-response,418,815415,null,"",null,,word,QUEEN,,,,,,,,,,,,
html-keyboard-response,419,815619,null,"<div style=""font-size:42px;"">PRINCESS</div><img id = ""stim"" ><div class = red_square id = bottomsquare></div>",null,encoding,word_square,,,1,bottomsquare,32,true,,,PRINCESS,3,,,
html-keyboard-response,420,815930,197.39999997615814,"<div style=""font-size:42px;"">PRINCESS</div>",32,,word,PRINCESS,,,,,,,,,,,,
html-keyboard-response,421,817435,null,"",null,,word,PRINCESS,,,,,,,,,,,,
html-keyboard-response,422,817637,null,"<div style=""font-size:42px;"">DRIVEWAY</div><img id = ""stim"" ><div class = green_square id = bottomsquare></div>",null,encoding,word_square,,,0,bottomsquare,none,true,,,DRIVEWAY,3,,,
html-keyboard-response,423,817950,null,"<div style=""font-size:42px;"">DRIVEWAY</div>",null,,word,DRIVEWAY,,,,,,,,,,,,
html-keyboard-response,424,819466,null,"",null,,word,DRIVEWAY,,,,,,,,,,,,
html-keyboard-response,425,819673,null,"<div style=""font-size:42px;"">SEAGULL</div><img id = ""stim"" ><div class = green_square id = topsquare></div>",null,encoding,word_square,,,0,topsquare,none,true,,,SEAGULL,3,,,
html-keyboard-response,426,819976,null,"<div style=""font-size:42px;"">SEAGULL</div>",null,,word,SEAGULL,,,,,,,,,,,,
html-keyboard-response,427,821486,null,"",null,,word,SEAGULL,,,,,,,,,,,,
html-keyboard-response,428,821688,null,"<div style=""font-size:42px;"">BLANKET</div><img id = ""stim"" ><div class = red_square id = topsquare></div>",null,encoding,word_square,,,1,topsquare,32,true,,,BLANKET,3,,,
html-keyboard-response,429,822003,123,"<div style=""font-size:42px;"">BLANKET</div>",32,,word,BLANKET,,,,,,,,,,,,
html-keyboard-response,430,823509,null,"",null,,word,BLANKET,,,,,,,,,,,,
html-keyboard-response,431,823713,null,"<div style=""font-size:42px;"">PORCH</div><img id = ""stim"" ><div class = green_square id = bottomsquare></div>",null,encoding,word_square,,,0,bottomsquare,none,true,,,PORCH,3,,,
html-keyboard-response,432,824030,null,"<div style=""font-size:42px;"">PORCH</div>",null,,word,PORCH,,,,,,,,,,,,
html-keyboard-response,433,825537,null,"",null,,word,PORCH,,,,,,,,,,,,
call-function,434,825538,,"",,,,,,,,,,,,,,,,
html-keyboard-response,435,825648,null,"",null,,,,,,,,,,,,,,,
math-period,436,835508,19534.00000011921,"",,,,,,,,,,,0,,,,,
html-keyboard-response,437,835620,null,"",null,,,,,,,,,,,,,,,
math-period,438,838280,5098.099999904633,"",,,,,,,,,,,0,,,,,
html-keyboard-response,439,838385,null,"",null,,,,,,,,,,,,,,,
math-period,440,842489,8036.700000047684,"",,,,,,,,,,,2,,,,,
html-keyboard-response,441,842593,null,"",null,,,,,,,,,,,,,,,
math-period,442,843913,2444.3000000715256,"",,,,,,,,,,,2,,,,,
html-keyboard-response,443,844017,null,"",null,,,,,,,,,,,,,,,
math-period,444,845742,3250.9000000953674,"",,,,,,,,,,,4,,,,,
html-keyboard-response,445,845849,null,"",null,,,,,,,,,,,,,,,
math-period,446,847744,3510.9000000953674,"",,,,,,,,,,,3,,,,,
html-keyboard-response,447,847860,null,"",null,,,,,,,,,,,,,,,
math-period,448,849022,2114.2000000476837,"",,,,,,,,,,,2,,,,,
html-keyboard-response,449,849127,null,"",null,,,,,,,,,,,,,,,
math-period,450,849540,null,"",,,,,,,,,,,,,,,,
html-keyboard-response,451,850543,null,"Recall Period!",null,,,,,,,,,,,,,,,
call-function,452,850543,,"",,,,,,,,,,,,,,,,
html-keyboard-response,453,850645,null,"",null,,,,,,,,,,,,,,,
recall-period,454,853058,13740.899999976158,"",,,,,,,,,,,vampire,,,,,
html-keyboard-response,455,853162,null,"",null,,,,,,,,,,,,,,,
recall-period,456,855167,8633.000000238419,"",,,,,,,,,,,lake,,,,,
html-keyboard-response,457,855274,null,"",null,,,,,,,,,,,,,,,
recall-period,458,856265,4119.599999666214,"",,,,,,,,,,,finger,,,,,
html-keyboard-response,459,856373,null,"",null,,,,,,,,,,,,,,,
recall-period,460,925554,null,"",,,,,,,,,,,,,,,,
html-keyboard-response,461,926070,null,"Time's Up!",null,,,,,,,,,,,,,,,
html-keyboard-response,462,1089078,163005.70000004768,"<p> Good job! You have responded correctly to 98% of the trials. </p>
                      <p>Be sure to only press the spacebar if you see a red square, and please keep your accuracy above 80%.</p>
                      <p> Press any key to continue the experiment. </p>",32,,,,,,,,,,,,,,,
html-keyboard-response,463,1204076,114996.09999990463,"<div style=""font-size:48px;"">Press any key to begin list 5 of 16 </div>",32,,,,,,,,,,,,,,,
html-keyboard-response,464,1206595,null,"<div style=""font-size:60px;"">+</div>",null,,,,,,,,,,,,,,,
html-keyboard-response,465,1206822,null,"<div style=""font-size:42px;"">SHAMPOO</div><img id = ""stim"" ><div class = red_square id = topsquare></div>",null,encoding,word_square,,,1,topsquare,32,true,,,SHAMPOO,4,,,
html-keyboard-response,466,1207127,null,"<div style=""font-size:42px;"">SHAMPOO</div>",null,,word,SHAMPOO,,,,,,,,,,,,
html-keyboard-response,467,1208644,230.5,"",32,,word,SHAMPOO,,,,,,,,,,,,
html-keyboard-response,468,1208849,null,"<div style=""font-size:42px;"">FRIES</div><img id = ""stim"" ><div class = red_square id = bottomsquare></div>",null,encoding,word_square,,,1,bottomsquare,32,true,,,FRIES,4,,,
html-keyboard-response,469,1209151,246.10000002384186,"<div style=""font-size:42px;"">FRIES</div>",32,,word,FRIES,,,,,,,,,,,,
html-keyboard-response,470,1210658,null,"",null,,word,FRIES,,,,,,,,,,,,
html-keyboard-response,471,1210860,null,"<div style=""font-size:42px;"">FAUCET</div><img id = ""stim"" ><div class = green_square id = bottomsquare></div>",null,encoding,word_square,,,0,bottomsquare,none,true,,,FAUCET,4,,,
html-keyboard-response,472,1211164,null,"<div style=""font-size:42px;"">FAUCET</div>",null,,word,FAUCET,,,,,,,,,,,,
html-keyboard-response,473,1212681,null,"",null,,word,FAUCET,,,,,,,,,,,,
html-keyboard-response,474,1212886,null,"<div style=""font-size:42px;"">SHARK</div><img id = ""stim"" ><div class = green_square id = topsquare></div>",null,encoding,word_square,,,0,topsquare,none,true,,,SHARK,4,,,
html-keyboard-response,475,1213199,null,"<div style=""font-size:42px;"">SHARK</div>",null,,word,SHARK,,,,,,,,,,,,
html-keyboard-response,476,1214713,null,"",null,,word,SHARK,,,,,,,,,,,,
html-keyboard-response,477,1214930,null,"<div style=""font-size:42px;"">BATHTUB</div><img id = ""stim"" ><div class = red_square id = topsquare></div>",null,encoding,word_square,,,1,topsquare,32,true,,,BATHTUB,4,,,
html-keyboard-response,478,1215244,142.80000007152557,"<div style=""font-size:42px;"">BATHTUB</div>",32,,word,BATHTUB,,,,,,,,,,,,
html-keyboard-response,479,1216757,null,"",null,,word,BATHTUB,,,,,,,,,,,,
html-keyboard-response,480,1216960,null,"<div style=""font-size:42px;"">SERVANT</div><img id = ""stim"" ><div class = red_square id = bottomsquare></div>",null,encoding,word_square,,,1,bottomsquare,32,true,,,SERVANT,4,,,
html-keyboard-response,481,1217275,142.10000002384186,"<div style=""font-size:42px;"">SERVANT</div>",32,,word,SERVANT,,,,,,,,,,,,
html-keyboard-response,482,1218782,null,"",null,,word,SERVANT,,,,,,,,,,,,
html-keyboard-response,483,1218985,null,"<div style=""font-size:42px;"">BLACKBOARD</div><img id = ""stim"" ><div class = green_square id = bottomsquare></div>",null,encoding,word_square,,,0,bottomsquare,none,true,,,BLACKBOARD,4,,,
html-keyboard-response,484,1219301,null,"<div style=""font-size:42px;"">BLACKBOARD</div>",null,,word,BLACKBOARD,,,,,,,,,,,,
html-keyboard-response,485,1220809,null,"",null,,word,BLACKBOARD,,,,,,,,,,,,
html-keyboard-response,486,1221014,null,"<div style=""font-size:42px;"">PEOPLE</div><img id = ""stim"" ><div class = green_square id = topsquare></div>",null,encoding,word_square,,,0,topsquare,none,true,,,PEOPLE,4,,,
html-keyboard-response,487,1221327,null,"<div style=""font-size:42px;"">PEOPLE</div>",null,,word,PEOPLE,,,,,,,,,,,,
html-keyboard-response,488,1222829,null,"",null,,word,PEOPLE,,,,,,,,,,,,
html-keyboard-response,489,1223047,null,"<div style=""font-size:42px;"">HOOK</div><img id = ""stim"" ><div class = red_square id = topsquare></div>",null,encoding,word_square,,,1,topsquare,32,true,,,HOOK,4,,,
html-keyboard-response,490,1223360,66.10000002384186,"<div style=""font-size:42px;"">HOOK</div>",32,,word,HOOK,,,,,,,,,,,,
html-keyboard-response,491,1224866,null,"",null,,word,HOOK,,,,,,,,,,,,
html-keyboard-response,492,1225069,null,"<div style=""font-size:42px;"">TRANSPLANT</div><img id = ""stim"" ><div class = green_square id = bottomsquare></div>",null,encoding,word_square,,,0,bottomsquare,none,false,,,TRANSPLANT,4,,,
html-keyboard-response,493,1225382,null,"<div style=""font-size:42px;"">TRANSPLANT</div>",null,,word,TRANSPLANT,,,,,,,,,,,,
html-keyboard-response,494,1226896,391.10000002384186,"",32,,word,TRANSPLANT,,,,,,,,,,,,
html-keyboard-response,495,1227102,null,"<div style=""font-size:42px;"">DONOR</div><img id = ""stim"" ><div class = red_square id = bottomsquare></div>",null,encoding,word_square,,,1,bottomsquare,32,true,,,DONOR,4,,,
html-keyboard-response,496,1227411,121.59999990463257,"<div style=""font-size:42px;"">DONOR</div>",32,,word,DONOR,,,,,,,,,,,,
html-keyboard-response,497,1228927,null,"",null,,word,DONOR,,,,,,,,,,,,
html-keyboard-response,498,1229130,null,"<div style=""font-size:42px;"">WOMAN</div><img id = ""stim"" ><div class = green_square id = topsquare></div>",null,encoding,word_square,,,0,topsquare,none,true,,,WOMAN,4,,,
html-keyboard-response,499,1229444,null,"<div style=""font-size:42px;"">WOMAN</div>",null,,word,WOMAN,,,,,,,,,,,,
html-keyboard-response,500,1230956,null,"",null,,word,WOMAN,,,,,,,,,,,,
html-keyboard-response,501,1231161,null,"<div style=""font-size:42px;"">WASP</div><img id = ""stim"" ><div class = red_square id = topsquare></div>",null,encoding,word_square,,,1,topsquare,32,true,,,WASP,4,,,
html-keyboard-response,502,1231469,109.80000007152557,"<div style=""font-size:42px;"">WASP</div>",32,,word,WASP,,,,,,,,,,,,
html-keyboard-response,503,1232982,null,"",null,,word,WASP,,,,,,,,,,,,
html-keyboard-response,504,1233185,null,"<div style=""font-size:42px;"">SPIDER</div><img id = ""stim"" ><div class = green_square id = bottomsquare></div>",null,encoding,word_square,,,0,bottomsquare,none,true,,,SPIDER,4,,,
html-keyboard-response,505,1233497,null,"<div style=""font-size:42px;"">SPIDER</div>",null,,word,SPIDER,,,,,,,,,,,,
html-keyboard-response,506,1235011,null,"",null,,word,SPIDER,,,,,,,,,,,,
html-keyboard-response,507,1235216,null,"<div style=""font-size:42px;"">FEMALE</div><img id = ""stim"" ><div class = green_square id = topsquare></div>",null,encoding,word_square,,,0,topsquare,none,true,,,FEMALE,4,,,
html-keyboard-response,508,1235527,null,"<div style=""font-size:42px;"">FEMALE</div>",null,,word,FEMALE,,,,,,,,,,,,
html-keyboard-response,509,1237037,null,"",null,,word,FEMALE,,,,,,,,,,,,
html-keyboard-response,510,1237239,null,"<div style=""font-size:42px;"">SLIME</div><img id = ""stim"" ><div class = red_square id = bottomsquare></div>",null,encoding,word_square,,,1,bottomsquare,32,true,,,SLIME,4,,,
html-keyboard-response,511,1237551,132.5,"<div style=""font-size:42px;"">SLIME</div>",32,,word,SLIME,,,,,,,,,,,,
html-keyboard-response,512,1239064,null,"",null,,word,SLIME,,,,,,,,,,,,
call-function,513,1239067,,"",,,,,,,,,,,,,,,,
html-keyboard-response,514,1239173,null,"",null,,,,,,,,,,,,,,,
math-period,515,1243203,7662.400000095367,"",,,,,,,,,,,1,,,,,
html-keyboard-response,516,1243311,null,"",null,,,,,,,,,,,,,,,
math-period,517,1245903,8078.800000190735,"",,,,,,,,,,,4,,,,,
html-keyboard-response,518,1246015,null,"",null,,,,,,,,,,,,,,,
math-period,519,1250804,9292.700000047684,"",,,,,,,,,,,1,,,,,
html-keyboard-response,520,1250906,null,"",null,,,,,,,,,,,,,,,
math-period,521,1252213,2266.0000001192093,"",,,,,,,,,,,3,,,,,
html-keyboard-response,522,1252322,null,"",null,,,,,,,,,,,,,,,
math-period,523,1257628,10289,"",,,,,,,,,,,1,,,,,
html-keyboard-response,524,1257733,null,"",null,,,,,,,,,,,,,,,
math-period,525,1263078,null,"",,,,,,,,,,,,,,,,
html-keyboard-response,526,1264090,null,"Recall Period!",null,,,,,,,,,,,,,,,
call-function,527,1264090,,"",,,,,,,,,,,,,,,,
html-keyboard-response,528,1264198,null,"",null,,,,,,,,,,,,,,,
recall-period,529,1279675,85651.2000001669,"",,,,,,,,,,,fries,,,,,
html-keyboard-response,530,1279778,null,"",null,,,,,,,,,,,,,,,
recall-period,531,1283422,14259.5,"",,,,,,,,,,,hook,,,,,
html-keyboard-response,532,1283529,null,"",null,,,,,,,,,,,,,,,
recall-period,533,1339093,null,"",,,,,,,,,,,,,,,,
html-keyboard-response,534,1339599,null,"Time's Up!",null,,,,,,,,,,,,,,,
html-keyboard-response,535,1367642,28041.399999976158,"<p> Good job! You have responded correctly to 98% of the trials. </p>
                      <p>Be sure to only press the spacebar if you see a red square, and please keep your accuracy above 80%.</p>
                      <p> Press any key to continue the experiment. </p>",32,,,,,,,,,,,,,,,
html-keyboard-response,536,1368776,1133.6999999284744,"<div style=""font-size:48px;"">Press any key to begin list 6 of 16 </div>",32,,,,,,,,,,,,,,,
html-keyboard-response,537,1371295,null,"<div style=""font-size:60px;"">+</div>",null,,,,,,,,,,,,,,,
html-keyboard-response,538,1371500,null,"<div style=""font-size:42px;"">NOMAD</div><img id = ""stim"" ><div class = red_square id = bottomsquare></div>",null,encoding,word_square,,,1,bottomsquare,32,true,,,NOMAD,5,,,
html-keyboard-response,539,1371814,184.5,"<div style=""font-size:42px;"">NOMAD</div>",32,,word,NOMAD,,,,,,,,,,,,
html-keyboard-response,540,1373331,null,"",null,,word,NOMAD,,,,,,,,,,,,
html-keyboard-response,541,1373533,null,"<div style=""font-size:42px;"">SPRINKLE</div><img id = ""stim"" ><div class = green_square id = topsquare></div>",null,encoding,word_square,,,0,topsquare,none,false,,,SPRINKLE,5,,,
html-keyboard-response,542,1373843,null,"<div style=""font-size:42px;"">SPRINKLE</div>",null,,word,SPRINKLE,,,,,,,,,,,,
html-keyboard-response,543,1375349,509.89999997615814,"",32,,word,SPRINKLE,,,,,,,,,,,,
html-keyboard-response,544,1375555,null,"<div style=""font-size:42px;"">CAMEL</div><img id = ""stim"" ><div class = green_square id = bottomsquare></div>",null,encoding,word_square,,,0,bottomsquare,none,true,,,CAMEL,5,,,
html-keyboard-response,545,1375869,null,"<div style=""font-size:42px;"">CAMEL</div>",null,,word,CAMEL,,,,,,,,,,,,
html-keyboard-response,546,1377373,null,"",null,,word,CAMEL,,,,,,,,,,,,
html-keyboard-response,547,1377590,null,"<div style=""font-size:42px;"">COFFIN</div><img id = ""stim"" ><div class = red_square id = topsquare></div>",null,encoding,word_square,,,1,topsquare,32,true,,,COFFIN,5,,,
html-keyboard-response,548,1377905,240.80000007152557,"<div style=""font-size:42px;"">COFFIN</div>",32,,word,COFFIN,,,,,,,,,,,,
html-keyboard-response,549,1379408,null,"",null,,word,COFFIN,,,,,,,,,,,,
html-keyboard-response,550,1379626,null,"<div style=""font-size:42px;"">HOOD</div><img id = ""stim"" ><div class = green_square id = topsquare></div>",null,encoding,word_square,,,0,topsquare,none,true,,,HOOD,5,,,
html-keyboard-response,551,1379940,null,"<div style=""font-size:42px;"">HOOD</div>",null,,word,HOOD,,,,,,,,,,,,
html-keyboard-response,552,1381454,null,"",null,,word,HOOD,,,,,,,,,,,,
html-keyboard-response,553,1381656,null,"<div style=""font-size:42px;"">BANDAGE</div><img id = ""stim"" ><div class = red_square id = bottomsquare></div>",null,encoding,word_square,,,1,bottomsquare,32,true,,,BANDAGE,5,,,
html-keyboard-response,554,1381958,245.39999997615814,"<div style=""font-size:42px;"">BANDAGE</div>",32,,word,BANDAGE,,,,,,,,,,,,
html-keyboard-response,555,1383464,null,"",null,,word,BANDAGE,,,,,,,,,,,,
html-keyboard-response,556,1383668,null,"<div style=""font-size:42px;"">NEPTUNE</div><img id = ""stim"" ><div class = green_square id = bottomsquare></div>",null,encoding,word_square,,,0,bottomsquare,none,true,,,NEPTUNE,5,,,
html-keyboard-response,557,1383979,null,"<div style=""font-size:42px;"">NEPTUNE</div>",null,,word,NEPTUNE,,,,,,,,,,,,
html-keyboard-response,558,1385482,null,"",null,,word,NEPTUNE,,,,,,,,,,,,
html-keyboard-response,559,1385685,null,"<div style=""font-size:42px;"">CROOK</div><img id = ""stim"" ><div class = red_square id = topsquare></div>",null,encoding,word_square,,,1,topsquare,32,true,,,CROOK,5,,,
html-keyboard-response,560,1385987,263.5,"<div style=""font-size:42px;"">CROOK</div>",32,,word,CROOK,,,,,,,,,,,,
html-keyboard-response,561,1387500,null,"",null,,word,CROOK,,,,,,,,,,,,
html-keyboard-response,562,1387717,null,"<div style=""font-size:42px;"">CARROT</div><img id = ""stim"" ><div class = green_square id = topsquare></div>",null,encoding,word_square,,,0,topsquare,none,true,,,CARROT,5,,,
html-keyboard-response,563,1388033,null,"<div style=""font-size:42px;"">CARROT</div>",null,,word,CARROT,,,,,,,,,,,,
html-keyboard-response,564,1389550,null,"",null,,word,CARROT,,,,,,,,,,,,
html-keyboard-response,565,1389752,null,"<div style=""font-size:42px;"">PISTON</div><img id = ""stim"" ><div class = green_square id = bottomsquare></div>",null,encoding,word_square,,,0,bottomsquare,none,true,,,PISTON,5,,,
html-keyboard-response,566,1390066,null,"<div style=""font-size:42px;"">PISTON</div>",null,,word,PISTON,,,,,,,,,,,,
html-keyboard-response,567,1391570,null,"",null,,word,PISTON,,,,,,,,,,,,
html-keyboard-response,568,1391788,null,"<div style=""font-size:42px;"">BEAST</div><img id = ""stim"" ><div class = red_square id = bottomsquare></div>",null,encoding,word_square,,,1,bottomsquare,32,true,,,BEAST,5,,,
html-keyboard-response,569,1392102,224.79999995231628,"<div style=""font-size:42px;"">BEAST</div>",32,,word,BEAST,,,,,,,,,,,,
html-keyboard-response,570,1393614,null,"",null,,word,BEAST,,,,,,,,,,,,
html-keyboard-response,571,1393819,null,"<div style=""font-size:42px;"">OMELET</div><img id = ""stim"" ><div class = red_square id = topsquare></div>",null,encoding,word_square,,,1,topsquare,32,true,,,OMELET,5,,,
html-keyboard-response,572,1394121,286.5,"<div style=""font-size:42px;"">OMELET</div>",32,,word,OMELET,,,,,,,,,,,,
html-keyboard-response,573,1395624,null,"",null,,word,OMELET,,,,,,,,,,,,
html-keyboard-response,574,1395841,null,"<div style=""font-size:42px;"">YOLK</div><img id = ""stim"" ><div class = green_square id = topsquare></div>",null,encoding,word_square,,,0,topsquare,none,true,,,YOLK,5,,,
html-keyboard-response,575,1396143,267.39999997615814,"<div style=""font-size:42px;"">YOLK</div>",32,,word,YOLK,,,,,,,,,,,,
html-keyboard-response,576,1397652,null,"",null,,word,YOLK,,,,,,,,,,,,
html-keyboard-response,577,1397856,null,"<div style=""font-size:42px;"">BARREL</div><img id = ""stim"" ><div class = green_square id = bottomsquare></div>",null,encoding,word_square,,,0,bottomsquare,none,true,,,BARREL,5,,,
html-keyboard-response,578,1398170,null,"<div style=""font-size:42px;"">BARREL</div>",null,,word,BARREL,,,,,,,,,,,,
html-keyboard-response,579,1399672,null,"",null,,word,BARREL,,,,,,,,,,,,
html-keyboard-response,580,1399877,null,"<div style=""font-size:42px;"">HAMPER</div><img id = ""stim"" ><div class = red_square id = bottomsquare></div>",null,encoding,word_square,,,1,bottomsquare,32,true,,,HAMPER,5,,,
html-keyboard-response,581,1400180,298.5,"<div style=""font-size:42px;"">HAMPER</div>",32,,word,HAMPER,,,,,,,,,,,,
html-keyboard-response,582,1401688,null,"",null,,word,HAMPER,,,,,,,,,,,,
html-keyboard-response,583,1401892,null,"<div style=""font-size:42px;"">MILDEW</div><img id = ""stim"" ><div class = red_square id = topsquare></div>",null,encoding,word_square,,,1,topsquare,32,true,,,MILDEW,5,,,
html-keyboard-response,584,1402194,286.2000000476837,"<div style=""font-size:42px;"">MILDEW</div>",32,,word,MILDEW,,,,,,,,,,,,
html-keyboard-response,585,1403707,null,"",null,,word,MILDEW,,,,,,,,,,,,
call-function,586,1403708,,"",,,,,,,,,,,,,,,,
html-keyboard-response,587,1403815,null,"",null,,,,,,,,,,,,,,,
math-period,588,1415831,23759.399999976158,"",,,,,,,,,,,2,,,,,
html-keyboard-response,589,1415934,null,"",null,,,,,,,,,,,,,,,
math-period,590,1418102,4044.7999999523163,"",,,,,,,,,,,4,,,,,
html-keyboard-response,591,1418207,null,"",null,,,,,,,,,,,,,,,
math-period,592,1420944,5158.500000119209,"",,,,,,,,,,,5,,,,,
html-keyboard-response,593,1421046,null,"",null,,,,,,,,,,,,,,,
math-period,594,1424097,5869.600000143051,"",,,,,,,,,,,1,,,,,
html-keyboard-response,595,1424200,null,"",null,,,,,,,,,,,,,,,
math-period,596,1427173,5651.700000047684,"",,,,,,,,,,,1,,,,,
html-keyboard-response,597,1427277,null,"",null,,,,,,,,,,,,,,,
math-period,598,1427716,null,"",,,,,,,,,,,,,,,,
html-keyboard-response,599,1428722,null,"Recall Period!",null,,,,,,,,,,,,,,,
call-function,600,1428722,,"",,,,,,,,,,,,,,,,
html-keyboard-response,601,1428830,null,"",null,,,,,,,,,,,,,,,
recall-period,602,1449073,113388.2000002861,"",,,,,,,,,,,nomad,,,,,
html-keyboard-response,603,1449183,null,"",null,,,,,,,,,,,,,,,
recall-period,604,1453924,27392.60000038147,"",,,,,,,,,,,coffin,,,,,
html-keyboard-response,605,1454028,null,"",null,,,,,,,,,,,,,,,
recall-period,606,1456114,6359.999999880791,"",,,,,,,,,,,hood,,,,,
html-keyboard-response,607,1456228,null,"",null,,,,,,,,,,,,,,,
recall-period,608,1464423,90789.19999945164,"",,,,,,,,,,,carrot,,,,,
html-keyboard-response,609,1464527,null,"",null,,,,,,,,,,,,,,,
recall-period,610,1467958,15011.799999952316,"",,,,,,,,,,,beast,,,,,
html-keyboard-response,611,1468062,null,"",null,,,,,,,,,,,,,,,
recall-period,612,1471925,16319.899999856949,"",,,,,,,,,,,yolk,,,,,
html-keyboard-response,613,1472031,null,"",null,,,,,,,,,,,,,,,
recall-period,614,1503734,null,"",,,,,,,,,,,,,,,,
html-keyboard-response,615,1504236,null,"Time's Up!",null,,,,,,,,,,,,,,,
html-keyboard-response,616,1506562,2324.6999999284744,"<p> Good job! You have responded correctly to 97% of the trials. </p>
                      <p>Be sure to only press the spacebar if you see a red square, and please keep your accuracy above 80%.</p>
                      <p> Press any key to continue the experiment. </p>",32,,,,,,,,,,,,,,,
html-keyboard-response,617,1507497,933.5,"<div style=""font-size:48px;"">Press any key to begin list 7 of 16 </div>",32,,,,,,,,,,,,,,,
html-keyboard-response,618,1510021,null,"<div style=""font-size:60px;"">+</div>",null,,,,,,,,,,,,,,,
html-keyboard-response,619,1510227,null,"<div style=""font-size:42px;"">BARLEY</div><img id = ""stim"" ><div class = green_square id = bottomsquare></div>",null,encoding,word_square,,,0,bottomsquare,none,false,,,BARLEY,6,,,
html-keyboard-response,620,1510542,null,"<div style=""font-size:42px;"">BARLEY</div>",null,,word,BARLEY,,,,,,,,,,,,
html-keyboard-response,621,1512051,140.20000004768372,"",32,,word,BARLEY,,,,,,,,,,,,
html-keyboard-response,622,1512270,null,"<div style=""font-size:42px;"">JAPAN</div><img id = ""stim"" ><div class = green_square id = topsquare></div>",null,encoding,word_square,,,0,topsquare,none,true,,,JAPAN,6,,,
html-keyboard-response,623,1512581,null,"<div style=""font-size:42px;"">JAPAN</div>",null,,word,JAPAN,,,,,,,,,,,,
html-keyboard-response,624,1514084,null,"",null,,word,JAPAN,,,,,,,,,,,,
html-keyboard-response,625,1514286,null,"<div style=""font-size:42px;"">EUROPE</div><img id = ""stim"" ><div class = red_square id = topsquare></div>",null,encoding,word_square,,,1,topsquare,32,true,,,EUROPE,6,,,
html-keyboard-response,626,1514603,163.69999992847443,"<div style=""font-size:42px;"">EUROPE</div>",32,,word,EUROPE,,,,,,,,,,,,
html-keyboard-response,627,1516109,null,"",null,,word,EUROPE,,,,,,,,,,,,
html-keyboard-response,628,1516326,null,"<div style=""font-size:42px;"">TOOTHBRUSH</div><img id = ""stim"" ><div class = red_square id = bottomsquare></div>",null,encoding,word_square,,,1,bottomsquare,32,true,,,TOOTHBRUSH,6,,,
html-keyboard-response,629,1516637,null,"<div style=""font-size:42px;"">TOOTHBRUSH</div>",null,,word,TOOTHBRUSH,,,,,,,,,,,,
html-keyboard-response,630,1518141,370.09999990463257,"",32,,word,TOOTHBRUSH,,,,,,,,,,,,
html-keyboard-response,631,1518359,null,"<div style=""font-size:42px;"">OFFICE</div><img id = ""stim"" ><div class = green_square id = bottomsquare></div>",null,encoding,word_square,,,0,bottomsquare,none,true,,,OFFICE,6,,,
html-keyboard-response,632,1518672,null,"<div style=""font-size:42px;"">OFFICE</div>",null,,word,OFFICE,,,,,,,,,,,,
html-keyboard-response,633,1520185,null,"",null,,word,OFFICE,,,,,,,,,,,,
html-keyboard-response,634,1520388,null,"<div style=""font-size:42px;"">LILY</div><img id = ""stim"" ><div class = green_square id = topsquare></div>",null,encoding,word_square,,,0,topsquare,none,true,,,LILY,6,,,
html-keyboard-response,635,1520700,null,"<div style=""font-size:42px;"">LILY</div>",null,,word,LILY,,,,,,,,,,,,
html-keyboard-response,636,1522208,null,"",null,,word,LILY,,,,,,,,,,,,
html-keyboard-response,637,1522424,null,"<div style=""font-size:42px;"">BOUQUET</div><img id = ""stim"" ><div class = red_square id = topsquare></div>",null,encoding,word_square,,,1,topsquare,32,true,,,BOUQUET,6,,,
html-keyboard-response,638,1522737,190.20000004768372,"<div style=""font-size:42px;"">BOUQUET</div>",32,,word,BOUQUET,,,,,,,,,,,,
html-keyboard-response,639,1524249,null,"",null,,word,BOUQUET,,,,,,,,,,,,
html-keyboard-response,640,1524452,null,"<div style=""font-size:42px;"">RUG</div><img id = ""stim"" ><div class = red_square id = bottomsquare></div>",null,encoding,word_square,,,1,bottomsquare,32,true,,,RUG,6,,,
html-keyboard-response,641,1524767,null,"<div style=""font-size:42px;"">RUG</div>",null,,word,RUG,,,,,,,,,,,,
html-keyboard-response,642,1526282,164.30000007152557,"",32,,word,RUG,,,,,,,,,,,,
html-keyboard-response,643,1526487,null,"<div style=""font-size:42px;"">STAPLE</div><img id = ""stim"" ><div class = green_square id = bottomsquare></div>",null,encoding,word_square,,,0,bottomsquare,none,true,,,STAPLE,6,,,
html-keyboard-response,644,1526789,237.20000004768372,"<div style=""font-size:42px;"">STAPLE</div>",32,,word,STAPLE,,,,,,,,,,,,
html-keyboard-response,645,1528304,null,"",null,,word,STAPLE,,,,,,,,,,,,
html-keyboard-response,646,1528508,null,"<div style=""font-size:42px;"">PAPER</div><img id = ""stim"" ><div class = red_square id = topsquare></div>",null,encoding,word_square,,,1,topsquare,32,true,,,PAPER,6,,,
html-keyboard-response,647,1528810,251.70000004768372,"<div style=""font-size:42px;"">PAPER</div>",32,,word,PAPER,,,,,,,,,,,,
html-keyboard-response,648,1530315,null,"",null,,word,PAPER,,,,,,,,,,,,
html-keyboard-response,649,1530520,null,"<div style=""font-size:42px;"">FOREST</div><img id = ""stim"" ><div class = green_square id = topsquare></div>",null,encoding,word_square,,,0,topsquare,none,true,,,FOREST,6,,,
html-keyboard-response,650,1530834,null,"<div style=""font-size:42px;"">FOREST</div>",null,,word,FOREST,,,,,,,,,,,,
html-keyboard-response,651,1532347,null,"",null,,word,FOREST,,,,,,,,,,,,
html-keyboard-response,652,1532552,null,"<div style=""font-size:42px;"">LUNCH</div><img id = ""stim"" ><div class = red_square id = bottomsquare></div>",null,encoding,word_square,,,1,bottomsquare,32,false,,,LUNCH,6,,,
html-keyboard-response,653,1532864,null,"<div style=""font-size:42px;"">LUNCH</div>",null,,word,LUNCH,,,,,,,,,,,,
html-keyboard-response,654,1534367,null,"",null,,word,LUNCH,,,,,,,,,,,,
html-keyboard-response,655,1534584,null,"<div style=""font-size:42px;"">BLOSSOM</div><img id = ""stim"" ><div class = green_square id = bottomsquare></div>",null,encoding,word_square,,,0,bottomsquare,none,true,,,BLOSSOM,6,,,
html-keyboard-response,656,1534898,null,"<div style=""font-size:42px;"">BLOSSOM</div>",null,,word,BLOSSOM,,,,,,,,,,,,
html-keyboard-response,657,1536401,null,"",null,,word,BLOSSOM,,,,,,,,,,,,
html-keyboard-response,658,1536605,null,"<div style=""font-size:42px;"">DRAWER</div><img id = ""stim"" ><div class = red_square id = topsquare></div>",null,encoding,word_square,,,1,topsquare,32,true,,,DRAWER,6,,,
html-keyboard-response,659,1536907,264.2000000476837,"<div style=""font-size:42px;"">DRAWER</div>",32,,word,DRAWER,,,,,,,,,,,,
html-keyboard-response,660,1538415,null,"",null,,word,DRAWER,,,,,,,,,,,,
html-keyboard-response,661,1538623,null,"<div style=""font-size:42px;"">CEILING</div><img id = ""stim"" ><div class = red_square id = bottomsquare></div>",null,encoding,word_square,,,1,bottomsquare,32,true,,,CEILING,6,,,
html-keyboard-response,662,1538933,null,"<div style=""font-size:42px;"">CEILING</div>",null,,word,CEILING,,,,,,,,,,,,
html-keyboard-response,663,1540439,77.10000002384186,"",32,,word,CEILING,,,,,,,,,,,,
html-keyboard-response,664,1540641,null,"<div style=""font-size:42px;"">LUMBER</div><img id = ""stim"" ><div class = green_square id = topsquare></div>",null,encoding,word_square,,,0,topsquare,none,true,,,LUMBER,6,,,
html-keyboard-response,665,1540943,236.39999997615814,"<div style=""font-size:42px;"">LUMBER</div>",32,,word,LUMBER,,,,,,,,,,,,
html-keyboard-response,666,1542454,null,"",null,,word,LUMBER,,,,,,,,,,,,
call-function,667,1542454,,"",,,,,,,,,,,,,,,,
html-keyboard-response,668,1542556,null,"",null,,,,,,,,,,,,,,,
math-period,669,1546816,12989.000000238419,"",,,,,,,,,,,4,,,,,
html-keyboard-response,670,1546917,null,"",null,,,,,,,,,,,,,,,
math-period,671,1552024,9397.599999904633,"",,,,,,,,,,,5,,,,,
html-keyboard-response,672,1552125,null,"",null,,,,,,,,,,,,,,,
math-period,673,1557593,21090.699999809265,"",,,,,,,,,,,1,,,,,
html-keyboard-response,674,1557703,null,"",null,,,,,,,,,,,,,,,
math-period,675,1560753,5123.899999976158,"",,,,,,,,,,,6,,,,,
html-keyboard-response,676,1560859,null,"",null,,,,,,,,,,,,,,,
math-period,677,1564788,7098.000000119209,"",,,,,,,,,,,2,,,,,
html-keyboard-response,678,1564902,null,"",null,,,,,,,,,,,,,,,
math-period,679,1566466,null,"",,,,,,,,,,,,,,,,
html-keyboard-response,680,1567482,null,"Recall Period!",null,,,,,,,,,,,,,,,
call-function,681,1567483,,"",,,,,,,,,,,,,,,,
html-keyboard-response,682,1567589,null,"",null,,,,,,,,,,,,,,,
recall-period,683,1574435,43621.300000071526,"",,,,,,,,,,,blossom,,,,,
html-keyboard-response,684,1574547,null,"",null,,,,,,,,,,,,,,,
recall-period,685,1578292,16930,"",,,,,,,,,,,drawer,,,,,
html-keyboard-response,686,1578405,null,"",null,,,,,,,,,,,,,,,
recall-period,687,1592637,94283.69999992847,"",,,,,,,,,,,lumber,,,,,
html-keyboard-response,688,1592741,null,"",null,,,,,,,,,,,,,,,
recall-period,689,1602612,67888.89999949932,"",,,,,,,,,,,ceiling,,,,,
html-keyboard-response,690,1602714,null,"",null,,,,,,,,,,,,,,,
recall-period,691,1613202,48366.2000002861,"",,,,,,,,,,,lily,,,,,
html-keyboard-response,692,1613319,null,"",null,,,,,,,,,,,,,,,
recall-period,693,1642497,null,"",,,,,,,,,,,,,,,,
html-keyboard-response,694,1643002,null,"Time's Up!",null,,,,,,,,,,,,,,,
html-keyboard-response,695,1646258,3254.5,"<p> Good job! You have responded correctly to 96% of the trials. </p>
                      <p>Be sure to only press the spacebar if you see a red square, and please keep your accuracy above 80%.</p>
                      <p> Press any key to continue the experiment. </p>",32,,,,,,,,,,,,,,,
html-keyboard-response,696,1647287,1028.2999999523163,"<div style=""font-size:48px;"">Press any key to begin list 8 of 16 </div>",32,,,,,,,,,,,,,,,
html-keyboard-response,697,1649806,null,"<div style=""font-size:60px;"">+</div>",null,,,,,,,,,,,,,,,
html-keyboard-response,698,1650023,null,"<div style=""font-size:42px;"">CHEST</div><img id = ""stim"" ><div class = green_square id = topsquare></div>",null,encoding,word_square,,,0,topsquare,none,true,,,CHEST,7,,,
html-keyboard-response,699,1650336,null,"<div style=""font-size:42px;"">CHEST</div>",null,,word,CHEST,,,,,,,,,,,,
html-keyboard-response,700,1651853,null,"",null,,word,CHEST,,,,,,,,,,,,
html-keyboard-response,701,1652059,null,"<div style=""font-size:42px;"">TWEEZERS</div><img id = ""stim"" ><div class = red_square id = bottomsquare></div>",null,encoding,word_square,,,1,bottomsquare,32,true,,,TWEEZERS,7,,,
html-keyboard-response,702,1652361,202.89999997615814,"<div style=""font-size:42px;"">TWEEZERS</div>",32,,word,TWEEZERS,,,,,,,,,,,,
html-keyboard-response,703,1653876,null,"",null,,word,TWEEZERS,,,,,,,,,,,,
html-keyboard-response,704,1654084,null,"<div style=""font-size:42px;"">NEPHEW</div><img id = ""stim"" ><div class = red_square id = topsquare></div>",null,encoding,word_square,,,1,topsquare,32,true,,,NEPHEW,7,,,
html-keyboard-response,705,1654397,234.70000004768372,"<div style=""font-size:42px;"">NEPHEW</div>",32,,word,NEPHEW,,,,,,,,,,,,
html-keyboard-response,706,1655908,null,"",null,,word,NEPHEW,,,,,,,,,,,,
html-keyboard-response,707,1656113,null,"<div style=""font-size:42px;"">CONTRACT</div><img id = ""stim"" ><div class = green_square id = bottomsquare></div>",null,encoding,word_square,,,0,bottomsquare,none,true,,,CONTRACT,7,,,
html-keyboard-response,708,1656424,null,"<div style=""font-size:42px;"">CONTRACT</div>",null,,word,CONTRACT,,,,,,,,,,,,
html-keyboard-response,709,1657936,null,"",null,,word,CONTRACT,,,,,,,,,,,,
html-keyboard-response,710,1658153,null,"<div style=""font-size:42px;"">MUFFIN</div><img id = ""stim"" ><div class = red_square id = bottomsquare></div>",null,encoding,word_square,,,1,bottomsquare,32,true,,,MUFFIN,7,,,
html-keyboard-response,711,1658456,204.39999997615814,"<div style=""font-size:42px;"">MUFFIN</div>",32,,word,MUFFIN,,,,,,,,,,,,
html-keyboard-response,712,1659967,null,"",null,,word,MUFFIN,,,,,,,,,,,,
html-keyboard-response,713,1660169,null,"<div style=""font-size:42px;"">FOOTBALL</div><img id = ""stim"" ><div class = green_square id = topsquare></div>",null,encoding,word_square,,,0,topsquare,none,true,,,FOOTBALL,7,,,
html-keyboard-response,714,1660484,null,"<div style=""font-size:42px;"">FOOTBALL</div>",null,,word,FOOTBALL,,,,,,,,,,,,
html-keyboard-response,715,1661992,null,"",null,,word,FOOTBALL,,,,,,,,,,,,
html-keyboard-response,716,1662196,null,"<div style=""font-size:42px;"">CANDY</div><img id = ""stim"" ><div class = red_square id = topsquare></div>",null,encoding,word_square,,,1,topsquare,32,true,,,CANDY,7,,,
html-keyboard-response,717,1662513,182.60000002384186,"<div style=""font-size:42px;"">CANDY</div>",32,,word,CANDY,,,,,,,,,,,,
html-keyboard-response,718,1664018,null,"",null,,word,CANDY,,,,,,,,,,,,
html-keyboard-response,719,1664223,null,"<div style=""font-size:42px;"">EAGLE</div><img id = ""stim"" ><div class = green_square id = bottomsquare></div>",null,encoding,word_square,,,0,bottomsquare,none,true,,,EAGLE,7,,,
html-keyboard-response,720,1664529,null,"<div style=""font-size:42px;"">EAGLE</div>",null,,word,EAGLE,,,,,,,,,,,,
html-keyboard-response,721,1666040,null,"",null,,word,EAGLE,,,,,,,,,,,,
html-keyboard-response,722,1666244,null,"<div style=""font-size:42px;"">PARROT</div><img id = ""stim"" ><div class = red_square id = bottomsquare></div>",null,encoding,word_square,,,1,bottomsquare,32,true,,,PARROT,7,,,
html-keyboard-response,723,1666556,148.80000007152557,"<div style=""font-size:42px;"">PARROT</div>",32,,word,PARROT,,,,,,,,,,,,
html-keyboard-response,724,1668066,null,"",null,,word,PARROT,,,,,,,,,,,,
html-keyboard-response,725,1668284,null,"<div style=""font-size:42px;"">SIDEWALK</div><img id = ""stim"" ><div class = red_square id = topsquare></div>",null,encoding,word_square,,,1,topsquare,32,true,,,SIDEWALK,7,,,
html-keyboard-response,726,1668597,222.89999997615814,"<div style=""font-size:42px;"">SIDEWALK</div>",32,,word,SIDEWALK,,,,,,,,,,,,
html-keyboard-response,727,1670101,null,"",null,,word,SIDEWALK,,,,,,,,,,,,
html-keyboard-response,728,1670308,null,"<div style=""font-size:42px;"">UMPIRE</div><img id = ""stim"" ><div class = green_square id = topsquare></div>",null,encoding,word_square,,,0,topsquare,none,true,,,UMPIRE,7,,,
html-keyboard-response,729,1670624,null,"<div style=""font-size:42px;"">UMPIRE</div>",null,,word,UMPIRE,,,,,,,,,,,,
html-keyboard-response,730,1672139,null,"",null,,word,UMPIRE,,,,,,,,,,,,
html-keyboard-response,731,1672357,null,"<div style=""font-size:42px;"">HIKER</div><img id = ""stim"" ><div class = green_square id = bottomsquare></div>",null,encoding,word_square,,,0,bottomsquare,none,true,,,HIKER,7,,,
html-keyboard-response,732,1672674,null,"<div style=""font-size:42px;"">HIKER</div>",null,,word,HIKER,,,,,,,,,,,,
html-keyboard-response,733,1674186,null,"",null,,word,HIKER,,,,,,,,,,,,
html-keyboard-response,734,1674390,null,"<div style=""font-size:42px;"">TRIGGER</div><img id = ""stim"" ><div class = red_square id = bottomsquare></div>",null,encoding,word_square,,,1,bottomsquare,32,true,,,TRIGGER,7,,,
html-keyboard-response,735,1674705,182.5,"<div style=""font-size:42px;"">TRIGGER</div>",32,,word,TRIGGER,,,,,,,,,,,,
html-keyboard-response,736,1676215,null,"",null,,word,TRIGGER,,,,,,,,,,,,
html-keyboard-response,737,1676429,null,"<div style=""font-size:42px;"">PEACH</div><img id = ""stim"" ><div class = red_square id = topsquare></div>",null,encoding,word_square,,,1,topsquare,32,true,,,PEACH,7,,,
html-keyboard-response,738,1676740,191.40000009536743,"<div style=""font-size:42px;"">PEACH</div>",32,,word,PEACH,,,,,,,,,,,,
html-keyboard-response,739,1678249,null,"",null,,word,PEACH,,,,,,,,,,,,
html-keyboard-response,740,1678454,null,"<div style=""font-size:42px;"">RUST</div><img id = ""stim"" ><div class = green_square id = topsquare></div>",null,encoding,word_square,,,0,topsquare,none,true,,,RUST,7,,,
html-keyboard-response,741,1678766,null,"<div style=""font-size:42px;"">RUST</div>",null,,word,RUST,,,,,,,,,,,,
html-keyboard-response,742,1680272,null,"",null,,word,RUST,,,,,,,,,,,,
html-keyboard-response,743,1680476,null,"<div style=""font-size:42px;"">CLERK</div><img id = ""stim"" ><div class = green_square id = bottomsquare></div>",null,encoding,word_square,,,0,bottomsquare,none,true,,,CLERK,7,,,
html-keyboard-response,744,1680789,null,"<div style=""font-size:42px;"">CLERK</div>",null,,word,CLERK,,,,,,,,,,,,
html-keyboard-response,745,1682301,null,"",null,,word,CLERK,,,,,,,,,,,,
call-function,746,1682302,,"",,,,,,,,,,,,,,,,
html-keyboard-response,747,1682411,null,"",null,,,,,,,,,,,,,,,
math-period,748,1687744,9919.899999976158,"",,,,,,,,,,,4,,,,,
html-keyboard-response,749,1687854,null,"",null,,,,,,,,,,,,,,,
math-period,750,1706311,null,"",,,,,,,,,,,,,,,,
html-keyboard-response,751,1707326,null,"Recall Period!",null,,,,,,,,,,,,,,,
call-function,752,1707328,,"",,,,,,,,,,,,,,,,
html-keyboard-response,753,1707431,null,"",null,,,,,,,,,,,,,,,
recall-period,754,1782333,null,"",,,,,,,,,,,,,,,,
html-keyboard-response,755,1782845,null,"Time's Up!",null,,,,,,,,,,,,,,,
html-keyboard-response,756,1792870,10022.899999976158,"<p> Good job! You have responded correctly to 96% of the trials. </p>
                      <p>Be sure to only press the spacebar if you see a red square, and please keep your accuracy above 80%.</p>
                      <p> Press any key to continue the experiment. </p>",32,,,,,,,,,,,,,,,
html-keyboard-response,757,1793647,776.2000000476837,"<div style=""font-size:48px;"">Press any key to begin list 9 of 16 </div>",32,,,,,,,,,,,,,,,
html-keyboard-response,758,1796178,null,"<div style=""font-size:60px;"">+</div>",null,,,,,,,,,,,,,,,
html-keyboard-response,759,1796380,null,"<div style=""font-size:42px;"">BUG</div><img id = ""stim"" ><div class = red_square id = topsquare></div>",null,encoding,word_square,,,1,topsquare,32,true,,,BUG,8,,,
html-keyboard-response,760,1796693,234.80000007152557,"<div style=""font-size:42px;"">BUG</div>",32,,word,BUG,,,,,,,,,,,,
html-keyboard-response,761,1798202,null,"",null,,word,BUG,,,,,,,,,,,,
html-keyboard-response,762,1798406,null,"<div style=""font-size:42px;"">ATTIC</div><img id = ""stim"" ><div class = red_square id = bottomsquare></div>",null,encoding,word_square,,,1,bottomsquare,32,true,,,ATTIC,8,,,
html-keyboard-response,763,1798707,289.59999990463257,"<div style=""font-size:42px;"">ATTIC</div>",32,,word,ATTIC,,,,,,,,,,,,
html-keyboard-response,764,1800221,null,"",null,,word,ATTIC,,,,,,,,,,,,
html-keyboard-response,765,1800438,null,"<div style=""font-size:42px;"">LIZARD</div><img id = ""stim"" ><div class = red_square id = topsquare></div>",null,encoding,word_square,,,1,topsquare,32,true,,,LIZARD,8,,,
html-keyboard-response,766,1800740,261.7999999523163,"<div style=""font-size:42px;"">LIZARD</div>",32,,word,LIZARD,,,,,,,,,,,,
html-keyboard-response,767,1802254,null,"",null,,word,LIZARD,,,,,,,,,,,,
html-keyboard-response,768,1802458,null,"<div style=""font-size:42px;"">POISON</div><img id = ""stim"" ><div class = green_square id = bottomsquare></div>",null,encoding,word_square,,,0,bottomsquare,none,true,,,POISON,8,,,
html-keyboard-response,769,1802772,null,"<div style=""font-size:42px;"">POISON</div>",null,,word,POISON,,,,,,,,,,,,
html-keyboard-response,770,1804289,null,"",null,,word,POISON,,,,,,,,,,,,
html-keyboard-response,771,1804492,null,"<div style=""font-size:42px;"">KNIFE</div><img id = ""stim"" ><div class = green_square id = topsquare></div>",null,encoding,word_square,,,0,topsquare,none,true,,,KNIFE,8,,,
html-keyboard-response,772,1804807,null,"<div style=""font-size:42px;"">KNIFE</div>",null,,word,KNIFE,,,,,,,,,,,,
html-keyboard-response,773,1806314,null,"",null,,word,KNIFE,,,,,,,,,,,,
html-keyboard-response,774,1806517,null,"<div style=""font-size:42px;"">CROSS</div><img id = ""stim"" ><div class = red_square id = bottomsquare></div>",null,encoding,word_square,,,1,bottomsquare,32,true,,,CROSS,8,,,
html-keyboard-response,775,1806819,206.5,"<div style=""font-size:42px;"">CROSS</div>",32,,word,CROSS,,,,,,,,,,,,
html-keyboard-response,776,1808323,null,"",null,,word,CROSS,,,,,,,,,,,,
html-keyboard-response,777,1808540,null,"<div style=""font-size:42px;"">DRUG</div><img id = ""stim"" ><div class = green_square id = bottomsquare></div>",null,encoding,word_square,,,0,bottomsquare,none,true,,,DRUG,8,,,
html-keyboard-response,778,1808852,null,"<div style=""font-size:42px;"">DRUG</div>",null,,word,DRUG,,,,,,,,,,,,
html-keyboard-response,779,1810356,null,"",null,,word,DRUG,,,,,,,,,,,,
html-keyboard-response,780,1810574,null,"<div style=""font-size:42px;"">STREET</div><img id = ""stim"" ><div class = green_square id = topsquare></div>",null,encoding,word_square,,,0,topsquare,none,true,,,STREET,8,,,
html-keyboard-response,781,1810887,null,"<div style=""font-size:42px;"">STREET</div>",null,,word,STREET,,,,,,,,,,,,
html-keyboard-response,782,1812389,null,"",null,,word,STREET,,,,,,,,,,,,
html-keyboard-response,783,1812591,null,"<div style=""font-size:42px;"">BLADE</div><img id = ""stim"" ><div class = red_square id = topsquare></div>",null,encoding,word_square,,,1,topsquare,32,true,,,BLADE,8,,,
html-keyboard-response,784,1812893,216.80000007152557,"<div style=""font-size:42px;"">BLADE</div>",32,,word,BLADE,,,,,,,,,,,,
html-keyboard-response,785,1814403,null,"",null,,word,BLADE,,,,,,,,,,,,
html-keyboard-response,786,1814621,null,"<div style=""font-size:42px;"">JOINT</div><img id = ""stim"" ><div class = red_square id = bottomsquare></div>",null,encoding,word_square,,,1,bottomsquare,32,true,,,JOINT,8,,,
html-keyboard-response,787,1814923,200.29999995231628,"<div style=""font-size:42px;"">JOINT</div>",32,,word,JOINT,,,,,,,,,,,,
html-keyboard-response,788,1816430,null,"",null,,word,JOINT,,,,,,,,,,,,
html-keyboard-response,789,1816648,null,"<div style=""font-size:42px;"">OINTMENT</div><img id = ""stim"" ><div class = green_square id = bottomsquare></div>",null,encoding,word_square,,,0,bottomsquare,none,true,,,OINTMENT,8,,,
html-keyboard-response,790,1816960,null,"<div style=""font-size:42px;"">OINTMENT</div>",null,,word,OINTMENT,,,,,,,,,,,,
html-keyboard-response,791,1818465,null,"",null,,word,OINTMENT,,,,,,,,,,,,
html-keyboard-response,792,1818683,null,"<div style=""font-size:42px;"">FILM</div><img id = ""stim"" ><div class = green_square id = topsquare></div>",null,encoding,word_square,,,0,topsquare,none,true,,,FILM,8,,,
html-keyboard-response,793,1818995,null,"<div style=""font-size:42px;"">FILM</div>",null,,word,FILM,,,,,,,,,,,,
html-keyboard-response,794,1820509,null,"",null,,word,FILM,,,,,,,,,,,,
html-keyboard-response,795,1820711,null,"<div style=""font-size:42px;"">TREASURE</div><img id = ""stim"" ><div class = red_square id = topsquare></div>",null,encoding,word_square,,,1,topsquare,32,true,,,TREASURE,8,,,
html-keyboard-response,796,1821013,274.10000002384186,"<div style=""font-size:42px;"">TREASURE</div>",32,,word,TREASURE,,,,,,,,,,,,
html-keyboard-response,797,1822523,null,"",null,,word,TREASURE,,,,,,,,,,,,
html-keyboard-response,798,1822727,null,"<div style=""font-size:42px;"">JUGGLER</div><img id = ""stim"" ><div class = green_square id = bottomsquare></div>",null,encoding,word_square,,,0,bottomsquare,none,true,,,JUGGLER,8,,,
html-keyboard-response,799,1823038,null,"<div style=""font-size:42px;"">JUGGLER</div>",null,,word,JUGGLER,,,,,,,,,,,,
html-keyboard-response,800,1824551,null,"",null,,word,JUGGLER,,,,,,,,,,,,
html-keyboard-response,801,1824754,null,"<div style=""font-size:42px;"">GYMNAST</div><img id = ""stim"" ><div class = red_square id = bottomsquare></div>",null,encoding,word_square,,,1,bottomsquare,32,true,,,GYMNAST,8,,,
html-keyboard-response,802,1825060,246.60000002384186,"<div style=""font-size:42px;"">GYMNAST</div>",32,,word,GYMNAST,,,,,,,,,,,,
html-keyboard-response,803,1826576,null,"",null,,word,GYMNAST,,,,,,,,,,,,
html-keyboard-response,804,1826779,null,"<div style=""font-size:42px;"">BOUILLON</div><img id = ""stim"" ><div class = green_square id = topsquare></div>",null,encoding,word_square,,,0,topsquare,none,true,,,BOUILLON,8,,,
html-keyboard-response,805,1827091,null,"<div style=""font-size:42px;"">BOUILLON</div>",null,,word,BOUILLON,,,,,,,,,,,,
html-keyboard-response,806,1828607,null,"",null,,word,BOUILLON,,,,,,,,,,,,
call-function,807,1828608,,"",,,,,,,,,,,,,,,,
html-keyboard-response,808,1828715,null,"",null,,,,,,,,,,,,,,,
math-period,809,1833480,8564.400000095367,"",,,,,,,,,,,3,,,,,
html-keyboard-response,810,1833596,null,"",null,,,,,,,,,,,,,,,
math-period,811,1836947,5684.599999904633,"",,,,,,,,,,,4,,,,,
html-keyboard-response,812,1837063,null,"",null,,,,,,,,,,,,,,,
math-period,813,1839885,4970.5,"",,,,,,,,,,,5,,,,,
html-keyboard-response,814,1839992,null,"",null,,,,,,,,,,,,,,,
math-period,815,1842814,4696.899999976158,"",,,,,,,,,,,4,,,,,
html-keyboard-response,816,1842925,null,"",null,,,,,,,,,,,,,,,
math-period,817,1845836,4984.599999904633,"",,,,,,,,,,,5,,,,,
html-keyboard-response,818,1845943,null,"",null,,,,,,,,,,,,,,,
math-period,819,1848741,4842,"",,,,,,,,,,,4,,,,,
html-keyboard-response,820,1848846,null,"",null,,,,,,,,,,,,,,,
math-period,821,1852290,6223.800000071526,"",,,,,,,,,,,3,,,,,
html-keyboard-response,822,1852397,null,"",null,,,,,,,,,,,,,,,
math-period,823,1852616,null,"",,,,,,,,,,,,,,,,
html-keyboard-response,824,1853632,null,"Recall Period!",null,,,,,,,,,,,,,,,
call-function,825,1853633,,"",,,,,,,,,,,,,,,,
html-keyboard-response,826,1853734,null,"",null,,,,,,,,,,,,,,,
recall-period,827,1863935,38013.99999976158,"",,,,,,,,,,,bug,,,,,
html-keyboard-response,828,1864050,null,"",null,,,,,,,,,,,,,,,
recall-period,829,1870828,40649.09999978542,"",,,,,,,,,,,poison,,,,,
html-keyboard-response,830,1870933,null,"",null,,,,,,,,,,,,,,,
recall-period,831,1875304,17998.399999976158,"",,,,,,,,,,,cross,,,,,
html-keyboard-response,832,1875413,null,"",null,,,,,,,,,,,,,,,
recall-period,833,1878876,16558.900000214577,"",,,,,,,,,,,street,,,,,
html-keyboard-response,834,1878978,null,"",null,,,,,,,,,,,,,,,
recall-period,835,1882179,15495.900000095367,"",,,,,,,,,,,joint,,,,,
html-keyboard-response,836,1882290,null,"",null,,,,,,,,,,,,,,,
recall-period,837,1890728,72286.30000030994,"",,,,,,,,,,,treasure,,,,,
html-keyboard-response,838,1890833,null,"",null,,,,,,,,,,,,,,,
recall-period,839,1928648,null,"",,,,,,,,,,,,,,,,
html-keyboard-response,840,1929163,null,"Time's Up!",null,,,,,,,,,,,,,,,
html-keyboard-response,841,1933634,4469.600000023842,"<p> Good job! You have responded correctly to 97% of the trials. </p>
                      <p>Be sure to only press the spacebar if you see a red square, and please keep your accuracy above 80%.</p>
                      <p> Press any key to continue the experiment. </p>",32,,,,,,,,,,,,,,,
html-keyboard-response,842,1936542,2906.899999976158,"<div style=""font-size:48px;"">Press any key to begin list 10 of 16 </div>",32,,,,,,,,,,,,,,,
html-keyboard-response,843,1939066,null,"<div style=""font-size:60px;"">+</div>",null,,,,,,,,,,,,,,,
html-keyboard-response,844,1939284,null,"<div style=""font-size:42px;"">CABLE</div><img id = ""stim"" ><div class = green_square id = topsquare></div>",null,encoding,word_square,,,0,topsquare,none,true,,,CABLE,9,,,
html-keyboard-response,845,1939596,null,"<div style=""font-size:42px;"">CABLE</div>",null,,word,CABLE,,,,,,,,,,,,
html-keyboard-response,846,1941107,null,"",null,,word,CABLE,,,,,,,,,,,,
html-keyboard-response,847,1941310,null,"<div style=""font-size:42px;"">PECAN</div><img id = ""stim"" ><div class = red_square id = bottomsquare></div>",null,encoding,word_square,,,1,bottomsquare,32,true,,,PECAN,9,,,
html-keyboard-response,848,1941612,279.10000002384186,"<div style=""font-size:42px;"">PECAN</div>",32,,word,PECAN,,,,,,,,,,,,
html-keyboard-response,849,1943123,null,"",null,,word,PECAN,,,,,,,,,,,,
html-keyboard-response,850,1943328,null,"<div style=""font-size:42px;"">APPLE</div><img id = ""stim"" ><div class = green_square id = bottomsquare></div>",null,encoding,word_square,,,0,bottomsquare,none,true,,,APPLE,9,,,
html-keyboard-response,851,1943639,null,"<div style=""font-size:42px;"">APPLE</div>",null,,word,APPLE,,,,,,,,,,,,
html-keyboard-response,852,1945147,null,"",null,,word,APPLE,,,,,,,,,,,,
html-keyboard-response,853,1945364,null,"<div style=""font-size:42px;"">AGENT</div><img id = ""stim"" ><div class = red_square id = topsquare></div>",null,encoding,word_square,,,1,topsquare,32,true,,,AGENT,9,,,
html-keyboard-response,854,1945666,229.79999995231628,"<div style=""font-size:42px;"">AGENT</div>",32,,word,AGENT,,,,,,,,,,,,
html-keyboard-response,855,1947181,null,"",null,,word,AGENT,,,,,,,,,,,,
html-keyboard-response,856,1947399,null,"<div style=""font-size:42px;"">CYCLONE</div><img id = ""stim"" ><div class = green_square id = topsquare></div>",null,encoding,word_square,,,0,topsquare,none,true,,,CYCLONE,9,,,
