trial_type,trial_index,time_elapsed,rt,stimulus,key_press,exp_phase,test_part,word,task,targ_cond,sq_pos,correctKeyCode,correct,value,response,Word,List,RecResp,serial_pos,colorChosen
pavlovia,0,2504,,"",,,,,,,,,,,,,,,,
external-html,1,6284,3647.2999999970198,"",,,,,,,,,,,,,,,,
html-keyboard-response,2,8437,2151.1999999955297,"Welcome to the experiment. Press any key to begin.",71,,,,,,,,,,,,,,,
html-keyboard-response,3,15533,7094.60000000149,"<p>You will see a list of words and colored squares in the following task.<p><p>Press the spacebar whenever you see a red square.<p><p>Do not press a key if the square is green.<p><p>Press the spacebar to continue.</p>",32,,,,,,,,,,,,,,,
html-keyboard-response,4,22206,6168.70000000298,"<p>Please try to remember as many of the words as you can, and try to think about the meaning of each word as it appears.<p><p>After the detection and encoding task you will be asked to solve some math problems for 24 seconds.<p> Please solve as many problems as you can in the time given. <p><p><p>Press the spacebar to continue.</p>",32,,,,,,,,,,,,,,,
html-keyboard-response,5,28768,6060.4000000059605,"After solving the math problems, you will be asked to type in as many words <p>from the previous list as you can remember for 75 seconds.<p> If you finish recalling before the 75 seconds are up,<p> just sit tight and try to think of any more words you could have missed. <p><p><p>Press the spacebar to continue.</p>",32,,,,,,,,,,,,,,,
html-keyboard-response,6,33888,4609.5999999940395,"There will be 16 lists of words and recall, followed  by<p><p> a recognition phase. The experiment is expected to take up to 90 minutes.<p>We will begin with a brief practice session.<p>Press the spacebar to begin the practice.</p>",32,,,,,,,,,,,,,,,
html-keyboard-response,7,36406,null,"<div style=""font-size:60px;"">+</div>",null,,,,,,,,,,,,,,,
html-keyboard-response,8,36624,null,"<div style=""font-size:42px;"">HAPPY</div><img id = ""stim"" ><div class = green_square id = ""bottomsquare"" ></div>",null,practice,word_square,HAPPY,prac_response,0,Bottom,none,true,,,,,,,
html-keyboard-response,9,36935,null,"<div style=""font-size:42px;"">HAPPY</div>",null,,word,HAPPY,,,,,,,,,,,,
html-keyboard-response,10,38440,null,"",null,,word,HAPPY,,,,,,,,,,,,
html-keyboard-response,11,38641,null,"<div style=""font-size:42px;"">COLD</div><img id = ""stim"" ><div class = red_square id = ""bottomsquare"" ></div>",null,practice,word_square,COLD,prac_response,1,Bottom,32,true,,,,,,,
html-keyboard-response,12,38951,null,"<div style=""font-size:42px;"">COLD</div>",null,,word,COLD,,,,,,,,,,,,
html-keyboard-response,13,40465,16.5,"",32,,word,COLD,,,,,,,,,,,,
html-keyboard-response,14,40668,null,"<div style=""font-size:42px;"">HEAVY</div><img id = ""stim"" ><div class = red_square id = ""topsquare"" ></div>",null,practice,word_square,HEAVY,prac_response,1,Top,32,true,,,,,,,
html-keyboard-response,15,40970,299.90000000596046,"<div style=""font-size:42px;"">HEAVY</div>",32,,word,HEAVY,,,,,,,,,,,,
html-keyboard-response,16,42483,null,"",null,,word,HEAVY,,,,,,,,,,,,
html-keyboard-response,17,42686,null,"<div style=""font-size:42px;"">FUNNY</div><img id = ""stim"" ><div class = green_square id = ""topsquare"" ></div>",null,practice,word_square,FUNNY,prac_response,0,Top,none,true,,,,,,,
html-keyboard-response,18,42996,null,"<div style=""font-size:42px;"">FUNNY</div>",null,,word,FUNNY,,,,,,,,,,,,
html-keyboard-response,19,44503,null,"",null,,word,FUNNY,,,,,,,,,,,,
html-keyboard-response,20,44707,null,"<div style=""font-size:42px;"">SCARY</div><img id = ""stim"" ><div class = red_square id = ""bottomsquare"" ></div>",null,practice,word_square,SCARY,prac_response,1,Bottom,32,true,,,,,,,
html-keyboard-response,21,45017,null,"<div style=""font-size:42px;"">SCARY</div>",null,,word,SCARY,,,,,,,,,,,,
html-keyboard-response,22,46529,15.100000001490116,"",32,,word,SCARY,,,,,,,,,,,,
html-keyboard-response,23,46732,null,"<div style=""font-size:42px;"">PEACEFUL</div><img id = ""stim"" ><div class = red_square id = ""topsquare"" ></div>",null,practice,word_square,PEACEFUL,prac_response,1,Top,32,true,,,,,,,
html-keyboard-response,24,47045,null,"<div style=""font-size:42px;"">PEACEFUL</div>",null,,word,PEACEFUL,,,,,,,,,,,,
html-keyboard-response,25,48556,188.09999999403954,"",32,,word,PEACEFUL,,,,,,,,,,,,
html-keyboard-response,26,48760,null,"<div style=""font-size:42px;"">LITTLE</div><img id = ""stim"" ><div class = green_square id = ""bottomsquare"" ></div>",null,practice,word_square,LITTLE,prac_response,0,Bottom,none,true,,,,,,,
html-keyboard-response,27,49073,null,"<div style=""font-size:42px;"">LITTLE</div>",null,,word,LITTLE,,,,,,,,,,,,
html-keyboard-response,28,50584,null,"",null,,word,LITTLE,,,,,,,,,,,,
html-keyboard-response,29,50788,null,"<div style=""font-size:42px;"">TIRED</div><img id = ""stim"" ><div class = green_square id = ""topsquare"" ></div>",null,practice,word_square,TIRED,prac_response,0,Top,none,true,,,,,,,
html-keyboard-response,30,51101,null,"<div style=""font-size:42px;"">TIRED</div>",null,,word,TIRED,,,,,,,,,,,,
html-keyboard-response,31,52615,null,"",null,,word,TIRED,,,,,,,,,,,,
html-keyboard-response,32,52817,null,"<div style=""font-size:42px;"">ENTERTAINING</div><img id = ""stim"" ><div class = green_square id = ""bottomsquare"" ></div>",null,practice,word_square,ENTERTAINING,prac_response,0,Bottom,none,true,,,,,,,
html-keyboard-response,33,53128,null,"<div style=""font-size:42px;"">ENTERTAINING</div>",null,,word,ENTERTAINING,,,,,,,,,,,,
html-keyboard-response,34,54636,null,"",null,,word,ENTERTAINING,,,,,,,,,,,,
html-keyboard-response,35,54853,null,"<div style=""font-size:42px;"">GRATEFUL</div><img id = ""stim"" ><div class = red_square id = ""bottomsquare"" ></div>",null,practice,word_square,GRATEFUL,prac_response,1,Bottom,32,true,,,,,,,
html-keyboard-response,36,55163,286.30000000447035,"<div style=""font-size:42px;"">GRATEFUL</div>",32,,word,GRATEFUL,,,,,,,,,,,,
html-keyboard-response,37,56673,null,"",null,,word,GRATEFUL,,,,,,,,,,,,
html-keyboard-response,38,56874,null,"<div style=""font-size:42px;"">LOUD</div><img id = ""stim"" ><div class = green_square id = ""topsquare"" ></div>",null,practice,word_square,LOUD,prac_response,0,Top,none,true,,,,,,,
html-keyboard-response,39,57182,null,"<div style=""font-size:42px;"">LOUD</div>",null,,word,LOUD,,,,,,,,,,,,
html-keyboard-response,40,58696,null,"",null,,word,LOUD,,,,,,,,,,,,
html-keyboard-response,41,58898,null,"<div style=""font-size:42px;"">SMART</div><img id = ""stim"" ><div class = red_square id = ""topsquare"" ></div>",null,practice,word_square,SMART,prac_response,1,Top,32,true,,,,,,,
html-keyboard-response,42,59210,216.10000000149012,"<div style=""font-size:42px;"">SMART</div>",32,,word,SMART,,,,,,,,,,,,
html-keyboard-response,43,60719,null,"",null,,word,SMART,,,,,,,,,,,,
html-keyboard-response,44,60922,null,"<div style=""font-size:42px;"">SMOOTH</div><img id = ""stim"" ><div class = red_square id = ""bottomsquare"" ></div>",null,practice,word_square,SMOOTH,prac_response,1,Bottom,32,true,,,,,,,
html-keyboard-response,45,61234,208.90000000596046,"<div style=""font-size:42px;"">SMOOTH</div>",32,,word,SMOOTH,,,,,,,,,,,,
html-keyboard-response,46,62746,null,"",null,,word,SMOOTH,,,,,,,,,,,,
html-keyboard-response,47,62961,null,"<div style=""font-size:42px;"">DISHONEST</div><img id = ""stim"" ><div class = green_square id = ""bottomsquare"" ></div>",null,practice,word_square,DISHONEST,prac_response,0,Bottom,none,true,,,,,,,
html-keyboard-response,48,63270,null,"<div style=""font-size:42px;"">DISHONEST</div>",null,,word,DISHONEST,,,,,,,,,,,,
html-keyboard-response,49,64780,null,"",null,,word,DISHONEST,,,,,,,,,,,,
html-keyboard-response,50,64984,null,"<div style=""font-size:42px;"">WEALTHY</div><img id = ""stim"" ><div class = red_square id = ""topsquare"" ></div>",null,practice,word_square,WEALTHY,prac_response,1,Top,32,true,,,,,,,
html-keyboard-response,51,65296,null,"<div style=""font-size:42px;"">WEALTHY</div>",null,,word,WEALTHY,,,,,,,,,,,,
html-keyboard-response,52,66806,205.39999999850988,"",32,,word,WEALTHY,,,,,,,,,,,,
html-keyboard-response,53,67023,null,"<div style=""font-size:42px;"">BEAUTIFUL</div><img id = ""stim"" ><div class = green_square id = ""topsquare"" ></div>",null,practice,word_square,BEAUTIFUL,prac_response,0,Top,none,true,,,,,,,
html-keyboard-response,54,67332,null,"<div style=""font-size:42px;"">BEAUTIFUL</div>",null,,word,BEAUTIFUL,,,,,,,,,,,,
html-keyboard-response,55,68848,null,"",null,,word,BEAUTIFUL,,,,,,,,,,,,
html-keyboard-response,56,74095,5245.10000000149,"<p> Good job! You responded correctly to 100% of the trials. </p>
                  <p>Be sure to only press the spacebar if you see a red square, and please keep your accuracy above 80%.</p>
                  <p>We're going to try once more to make sure you understand the task. press any key to continue. </p>",32,,,,,,,,,,,,,,,
html-keyboard-response,57,77336,3240.60000000149,"<p>You will see a list of words and colored squares in the following task.<p><p>Press the spacebar whenever you see a red square.<p><p>Do not press a key if the square is green<p><p>Press the spacebar to continue.</p>",32,,,,,,,,,,,,,,,
html-keyboard-response,58,79849,null,"<div style=""font-size:60px;"">+</div>",null,,,,,,,,,,,,,,,
html-keyboard-response,59,80053,null,"<div style=""font-size:42px;"">HAPPY</div><img id = ""stim"" ><div class = green_square id = ""bottomsquare"" ></div>",null,practice2,word_square,HAPPY,prac_response,0,Bottom,none,true,,,,,,,
html-keyboard-response,60,80362,null,"<div style=""font-size:42px;"">HAPPY</div>",null,,word,HAPPY,,,,,,,,,,,,
html-keyboard-response,61,81872,null,"",null,,word,HAPPY,,,,,,,,,,,,
html-keyboard-response,62,82076,null,"<div style=""font-size:42px;"">COLD</div><img id = ""stim"" ><div class = red_square id = ""bottomsquare"" ></div>",null,practice2,word_square,,prac_response,1,Bottom,32,true,,,,,,,
html-keyboard-response,63,82387,226.29999999701977,"<div style=""font-size:42px;"">COLD</div>",32,,word,COLD,,,,,,,,,,,,
html-keyboard-response,64,83900,null,"",null,,word,COLD,,,,,,,,,,,,
html-keyboard-response,65,84104,null,"<div style=""font-size:42px;"">HEAVY</div><img id = ""stim"" ><div class = red_square id = ""topsquare"" ></div>",null,practice2,word_square,,prac_response,1,Top,32,true,,,,,,,
html-keyboard-response,66,84416,null,"<div style=""font-size:42px;"">HEAVY</div>",null,,word,HEAVY,,,,,,,,,,,,
html-keyboard-response,67,85930,182.10000000149012,"",32,,word,HEAVY,,,,,,,,,,,,
html-keyboard-response,68,86134,null,"<div style=""font-size:42px;"">FUNNY</div><img id = ""stim"" ><div class = green_square id = ""topsquare"" ></div>",null,practice2,word_square,,prac_response,0,Top,none,true,,,,,,,
html-keyboard-response,69,86445,null,"<div style=""font-size:42px;"">FUNNY</div>",null,,word,FUNNY,,,,,,,,,,,,
html-keyboard-response,70,87958,null,"",null,,word,FUNNY,,,,,,,,,,,,
html-keyboard-response,71,88160,null,"<div style=""font-size:42px;"">SCARY</div><img id = ""stim"" ><div class = red_square id = ""bottomsquare"" ></div>",null,practice2,word_square,,prac_response,1,Bottom,32,true,,,,,,,
html-keyboard-response,72,88471,null,"<div style=""font-size:42px;"">SCARY</div>",null,,word,SCARY,,,,,,,,,,,,
html-keyboard-response,73,89980,119.69999999552965,"",32,,word,SCARY,,,,,,,,,,,,
html-keyboard-response,74,90183,null,"<div style=""font-size:42px;"">PEACEFUL</div><img id = ""stim"" ><div class = red_square id = ""topsquare"" ></div>",null,practice2,word_square,,prac_response,1,Top,32,true,,,,,,,
html-keyboard-response,75,90497,200.29999999701977,"<div style=""font-size:42px;"">PEACEFUL</div>",32,,word,PEACEFUL,,,,,,,,,,,,
html-keyboard-response,76,92005,null,"",null,,word,PEACEFUL,,,,,,,,,,,,
html-keyboard-response,77,92210,null,"<div style=""font-size:42px;"">LITTLE</div><img id = ""stim"" ><div class = green_square id = ""bottomsquare"" ></div>",null,practice2,word_square,LITTLE,prac_response,0,Bottom,none,true,,,,,,,
html-keyboard-response,78,92520,null,"<div style=""font-size:42px;"">LITTLE</div>",null,,word,LITTLE,,,,,,,,,,,,
html-keyboard-response,79,94030,null,"",null,,word,LITTLE,,,,,,,,,,,,
html-keyboard-response,80,94233,null,"<div style=""font-size:42px;"">TIRED</div><img id = ""stim"" ><div class = green_square id = ""topsquare"" ></div>",null,practice2,word_square,,prac_response,0,Top,none,true,,,,,,,
html-keyboard-response,81,94544,null,"<div style=""font-size:42px;"">TIRED</div>",null,,word,TIRED,,,,,,,,,,,,
html-keyboard-response,82,96058,null,"",null,,word,TIRED,,,,,,,,,,,,
html-keyboard-response,83,96261,null,"<div style=""font-size:42px;"">ENTERTAINING</div><img id = ""stim"" ><div class = green_square id = ""bottomsquare"" ></div>",null,practice2,word_square,ENTERTAINING,prac_response,0,Bottom,none,true,,,,,,,
html-keyboard-response,84,96572,null,"<div style=""font-size:42px;"">ENTERTAINING</div>",null,,word,ENTERTAINING,,,,,,,,,,,,
html-keyboard-response,85,98074,null,"",null,,word,ENTERTAINING,,,,,,,,,,,,
html-keyboard-response,86,98278,null,"<div style=""font-size:42px;"">GRATEFUL</div><img id = ""stim"" ><div class = red_square id = ""bottomsquare"" ></div>",null,practice2,word_square,,prac_response,1,Bottom,32,true,,,,,,,
html-keyboard-response,87,98592,290.5,"<div style=""font-size:42px;"">GRATEFUL</div>",32,,word,GRATEFUL,,,,,,,,,,,,
html-keyboard-response,88,100108,null,"",null,,word,GRATEFUL,,,,,,,,,,,,
html-keyboard-response,89,100323,null,"<div style=""font-size:42px;"">LOUD</div><img id = ""stim"" ><div class = green_square id = ""topsquare"" ></div>",null,practice2,word_square,,prac_response,0,Top,none,true,,,,,,,
html-keyboard-response,90,100634,null,"<div style=""font-size:42px;"">LOUD</div>",null,,word,LOUD,,,,,,,,,,,,
html-keyboard-response,91,102145,null,"",null,,word,LOUD,,,,,,,,,,,,
html-keyboard-response,92,102360,null,"<div style=""font-size:42px;"">SMART</div><img id = ""stim"" ><div class = red_square id = ""topsquare"" ></div>",null,practice2,word_square,,prac_response,1,Top,32,true,,,,,,,
html-keyboard-response,93,102670,194.30000000447035,"<div style=""font-size:42px;"">SMART</div>",32,,word,SMART,,,,,,,,,,,,
html-keyboard-response,94,104185,null,"",null,,word,SMART,,,,,,,,,,,,
html-keyboard-response,95,104388,null,"<div style=""font-size:42px;"">SMOOTH</div><img id = ""stim"" ><div class = red_square id = ""bottomsquare"" ></div>",null,practice2,word_square,,prac_response,1,Bottom,32,true,,,,,,,
html-keyboard-response,96,104690,301.5,"<div style=""font-size:42px;"">SMOOTH</div>",32,,word,SMOOTH,,,,,,,,,,,,
html-keyboard-response,97,106197,null,"",null,,word,SMOOTH,,,,,,,,,,,,
html-keyboard-response,98,106412,null,"<div style=""font-size:42px;"">DISHONEST</div><img id = ""stim"" ><div class = green_square id = ""bottomsquare"" ></div>",null,practice2,word_square,DISHONEST,prac_response,0,Bottom,none,true,,,,,,,
html-keyboard-response,99,106726,null,"<div style=""font-size:42px;"">DISHONEST</div>",null,,word,DISHONEST,,,,,,,,,,,,
html-keyboard-response,100,108234,null,"",null,,word,DISHONEST,,,,,,,,,,,,
html-keyboard-response,101,108436,null,"<div style=""font-size:42px;"">WEALTHY</div><img id = ""stim"" ><div class = red_square id = ""topsquare"" ></div>",null,practice2,word_square,,prac_response,1,Top,32,true,,,,,,,
html-keyboard-response,102,108749,174,"<div style=""font-size:42px;"">WEALTHY</div>",32,,word,WEALTHY,,,,,,,,,,,,
html-keyboard-response,103,110263,null,"",null,,word,WEALTHY,,,,,,,,,,,,
html-keyboard-response,104,110467,null,"<div style=""font-size:42px;"">BEAUTIFUL</div><img id = ""stim"" ><div class = green_square id = ""topsquare"" ></div>",null,practice2,word_square,,prac_response,0,Top,none,false,,,,,,,
html-keyboard-response,105,110780,null,"<div style=""font-size:42px;"">BEAUTIFUL</div>",null,,word,BEAUTIFUL,,,,,,,,,,,,
html-keyboard-response,106,112290,null,"",null,,word,BEAUTIFUL,,,,,,,,,,,,
html-keyboard-response,107,116044,3752.6999999955297,"<p> Good job! You responded correctly to 100% of the trials. </p>
                    <p>Be sure to only press the spacebar if you see a red square, and please keep your accuracy above 80%.</p>
                    <p>Press any key to begin the math and recall sections. Thank you! </p>",32,,,,,,,,,,,,,,,
call-function,108,116044,,"",,,,,,,,,,,,,,,,
html-keyboard-response,109,116150,null,"",null,,,,,,,,,,,,,,,
math-period,110,122885,10323.60000000149,"",,,,,,,,,,,4numpad,,,,,
html-keyboard-response,111,122993,null,"",null,,,,,,,,,,,,,,,
math-period,112,126693,6638.30000000447,"",,,,,,,,,,,2,,,,,
html-keyboard-response,113,126797,null,"",null,,,,,,,,,,,,,,,
math-period,114,129093,4439.39999999851,"",,,,,,,,,,,2,,,,,
html-keyboard-response,115,129195,null,"",null,,,,,,,,,,,,,,,
math-period,116,131061,3474.6000000089407,"",,,,,,,,,,,1,,,,,
html-keyboard-response,117,131165,null,"",null,,,,,,,,,,,,,,,
math-period,118,133566,4624.000000007451,"",,,,,,,,,,,1,,,,,
html-keyboard-response,119,133680,null,"",null,,,,,,,,,,,,,,,
math-period,120,137598,12541.69999999553,"",,,,,,,,,,,4,,,,,
html-keyboard-response,121,137715,null,"",null,,,,,,,,,,,,,,,
math-period,122,139599,3607.200000010431,"",,,,,,,,,,,4,,,,,
html-keyboard-response,123,139703,null,"",null,,,,,,,,,,,,,,,
math-period,124,140046,null,"",,,,,,,,,,,,,,,,
html-keyboard-response,125,141056,null,"Recall Period!",null,,,,,,,,,,,,,,,
call-function,126,141056,,"",,,,,,,,,,,,,,,,
html-keyboard-response,127,141158,null,"",null,,,,,,,,,,,,,,,
recall-period,128,145967,25741.79999999702,"",,,,,,,,,,,happy,,,,,
html-keyboard-response,129,146073,null,"",null,,,,,,,,,,,,,,,
recall-period,130,148728,12056.19999999553,"",,,,,,,,,,,scary,,,,,
html-keyboard-response,131,148833,null,"",null,,,,,,,,,,,,,,,
recall-period,132,151136,9841.19999999553,"",,,,,,,,,,,mall,,,,,
html-keyboard-response,133,151243,null,"",null,,,,,,,,,,,,,,,
recall-period,134,194511,170843.89999999106,"",,,,,,,,,,,bad,,,,,
html-keyboard-response,135,194616,null,"",null,,,,,,,,,,,,,,,
recall-period,136,216069,null,"",,,,,,,,,,,,,,,,
html-keyboard-response,137,216582,null,"Time's Up!",null,,,,,,,,,,,,,,,
html-keyboard-response,138,220227,3644.8000000044703,"<p>We will now begin the experiment!<p><p>Please try to remember all words from each list.<p><p>Press the spacebar whenever you see a red square.<p><p><p><p>Press the spacebar to begin.</p>",32,,,,,,,,,,,,,,,
html-keyboard-response,139,221947,1216,"<div style=""font-size:48px;"">Press any key to begin list 1 of 16 </div>",68,,,,,,,,,,,,,,,
html-keyboard-response,140,224469,null,"<div style=""font-size:60px;"">+</div>",null,,,,,,,,,,,,,,,
html-keyboard-response,141,224686,null,"<div style=""font-size:42px;"">SHOULDER</div><img id = ""stim"" ><div class = red_square id = topsquare></div>",null,encoding,word_square,,,1,topsquare,32,true,,,SHOULDER,0,,,
html-keyboard-response,142,224996,null,"<div style=""font-size:42px;"">SHOULDER</div>",null,,word,SHOULDER,,,,,,,,,,,,
html-keyboard-response,143,226499,14.100000001490116,"",32,,word,SHOULDER,,,,,,,,,,,,
html-keyboard-response,144,226703,null,"<div style=""font-size:42px;"">JUGGLER</div><img id = ""stim"" ><div class = green_square id = bottomsquare></div>",null,encoding,word_square,,,0,bottomsquare,none,true,,,JUGGLER,0,,,
html-keyboard-response,145,227013,null,"<div style=""font-size:42px;"">JUGGLER</div>",null,,word,JUGGLER,,,,,,,,,,,,
html-keyboard-response,146,228524,null,"",null,,word,JUGGLER,,,,,,,,,,,,
html-keyboard-response,147,228728,null,"<div style=""font-size:42px;"">BROOK</div><img id = ""stim"" ><div class = green_square id = topsquare></div>",null,encoding,word_square,,,0,topsquare,none,true,,,BROOK,0,,,
html-keyboard-response,148,229041,null,"<div style=""font-size:42px;"">BROOK</div>",null,,word,BROOK,,,,,,,,,,,,
html-keyboard-response,149,230556,null,"",null,,word,BROOK,,,,,,,,,,,,
html-keyboard-response,150,230773,null,"<div style=""font-size:42px;"">PAIL</div><img id = ""stim"" ><div class = red_square id = bottomsquare></div>",null,encoding,word_square,,,1,bottomsquare,32,true,,,PAIL,0,,,
html-keyboard-response,151,231085,223.60000000149012,"<div style=""font-size:42px;"">PAIL</div>",32,,word,PAIL,,,,,,,,,,,,
html-keyboard-response,152,232599,null,"",null,,word,PAIL,,,,,,,,,,,,
html-keyboard-response,153,232802,null,"<div style=""font-size:42px;"">CRADLE</div><img id = ""stim"" ><div class = green_square id = bottomsquare></div>",null,encoding,word_square,,,0,bottomsquare,none,true,,,CRADLE,0,,,
html-keyboard-response,154,233113,null,"<div style=""font-size:42px;"">CRADLE</div>",null,,word,CRADLE,,,,,,,,,,,,
html-keyboard-response,155,234624,null,"",null,,word,CRADLE,,,,,,,,,,,,
html-keyboard-response,156,234829,null,"<div style=""font-size:42px;"">FRAGRANCE</div><img id = ""stim"" ><div class = red_square id = topsquare></div>",null,encoding,word_square,,,1,topsquare,32,true,,,FRAGRANCE,0,,,
html-keyboard-response,157,235141,null,"<div style=""font-size:42px;"">FRAGRANCE</div>",null,,word,FRAGRANCE,,,,,,,,,,,,
html-keyboard-response,158,236657,63.400000005960464,"",32,,word,FRAGRANCE,,,,,,,,,,,,
html-keyboard-response,159,236872,null,"<div style=""font-size:42px;"">PLAZA</div><img id = ""stim"" ><div class = green_square id = topsquare></div>",null,encoding,word_square,,,0,topsquare,none,true,,,PLAZA,0,,,
html-keyboard-response,160,237182,null,"<div style=""font-size:42px;"">PLAZA</div>",null,,word,PLAZA,,,,,,,,,,,,
html-keyboard-response,161,238689,null,"",null,,word,PLAZA,,,,,,,,,,,,
html-keyboard-response,162,238893,null,"<div style=""font-size:42px;"">DRINK</div><img id = ""stim"" ><div class = green_square id = bottomsquare></div>",null,encoding,word_square,,,0,bottomsquare,none,true,,,DRINK,0,,,
html-keyboard-response,163,239205,null,"<div style=""font-size:42px;"">DRINK</div>",null,,word,DRINK,,,,,,,,,,,,
html-keyboard-response,164,240715,null,"",null,,word,DRINK,,,,,,,,,,,,
html-keyboard-response,165,240919,null,"<div style=""font-size:42px;"">ACTRESS</div><img id = ""stim"" ><div class = red_square id = bottomsquare></div>",null,encoding,word_square,,,1,bottomsquare,32,true,,,ACTRESS,0,,,
html-keyboard-response,166,241233,null,"<div style=""font-size:42px;"">ACTRESS</div>",null,,word,ACTRESS,,,,,,,,,,,,
html-keyboard-response,167,242745,12.799999997019768,"",32,,word,ACTRESS,,,,,,,,,,,,
html-keyboard-response,168,242948,null,"<div style=""font-size:42px;"">ANKLE</div><img id = ""stim"" ><div class = red_square id = topsquare></div>",null,encoding,word_square,,,1,topsquare,32,true,,,ANKLE,0,,,
html-keyboard-response,169,243256,273.29999999701977,"<div style=""font-size:42px;"">ANKLE</div>",32,,word,ANKLE,,,,,,,,,,,,
html-keyboard-response,170,244764,null,"",null,,word,ANKLE,,,,,,,,,,,,
html-keyboard-response,171,244968,null,"<div style=""font-size:42px;"">PEPPER</div><img id = ""stim"" ><div class = red_square id = bottomsquare></div>",null,encoding,word_square,,,1,bottomsquare,32,true,,,PEPPER,0,,,
html-keyboard-response,172,245279,null,"<div style=""font-size:42px;"">PEPPER</div>",null,,word,PEPPER,,,,,,,,,,,,
html-keyboard-response,173,246794,47,"",32,,word,PEPPER,,,,,,,,,,,,
html-keyboard-response,174,247009,null,"<div style=""font-size:42px;"">GARLIC</div><img id = ""stim"" ><div class = red_square id = topsquare></div>",null,encoding,word_square,,,1,topsquare,32,true,,,GARLIC,0,,,
html-keyboard-response,175,247320,284.70000000298023,"<div style=""font-size:42px;"">GARLIC</div>",32,,word,GARLIC,,,,,,,,,,,,
html-keyboard-response,176,248837,null,"",null,,word,GARLIC,,,,,,,,,,,,
html-keyboard-response,177,249039,null,"<div style=""font-size:42px;"">CHICKEN</div><img id = ""stim"" ><div class = green_square id = topsquare></div>",null,encoding,word_square,,,0,topsquare,none,false,,,CHICKEN,0,,,
html-keyboard-response,178,249349,null,"<div style=""font-size:42px;"">CHICKEN</div>",null,,word,CHICKEN,,,,,,,,,,,,
html-keyboard-response,179,250860,57.19999999552965,"",32,,word,CHICKEN,,,,,,,,,,,,
html-keyboard-response,180,251062,null,"<div style=""font-size:42px;"">COCOON</div><img id = ""stim"" ><div class = green_square id = bottomsquare></div>",null,encoding,word_square,,,0,bottomsquare,none,true,,,COCOON,0,,,
html-keyboard-response,181,251370,null,"<div style=""font-size:42px;"">COCOON</div>",null,,word,COCOON,,,,,,,,,,,,
html-keyboard-response,182,252872,null,"",null,,word,COCOON,,,,,,,,,,,,
html-keyboard-response,183,253088,null,"<div style=""font-size:42px;"">FACE</div><img id = ""stim"" ><div class = red_square id = bottomsquare></div>",null,encoding,word_square,,,1,bottomsquare,32,true,,,FACE,0,,,
html-keyboard-response,184,253398,264.5,"<div style=""font-size:42px;"">FACE</div>",32,,word,FACE,,,,,,,,,,,,
html-keyboard-response,185,254910,null,"",null,,word,FACE,,,,,,,,,,,,
html-keyboard-response,186,255113,null,"<div style=""font-size:42px;"">REPORT</div><img id = ""stim"" ><div class = green_square id = topsquare></div>",null,encoding,word_square,,,0,topsquare,none,true,,,REPORT,0,,,
html-keyboard-response,187,255424,null,"<div style=""font-size:42px;"">REPORT</div>",null,,word,REPORT,,,,,,,,,,,,
html-keyboard-response,188,256933,null,"",null,,word,REPORT,,,,,,,,,,,,
call-function,189,256934,,"",,,,,,,,,,,,,,,,
html-keyboard-response,190,257041,null,"",null,,,,,,,,,,,,,,,
math-period,191,260825,7222.39999999851,"",,,,,,,,,,,4,,,,,
html-keyboard-response,192,260932,null,"",null,,,,,,,,,,,,,,,
math-period,193,262370,2713.7999999970198,"",,,,,,,,,,,3,,,,,
html-keyboard-response,194,262487,null,"",null,,,,,,,,,,,,,,,
math-period,195,263666,2044.8999999985099,"",,,,,,,,,,,2,,,,,
html-keyboard-response,196,263777,null,"",null,,,,,,,,,,,,,,,
math-period,197,265674,3616.6999999955297,"",,,,,,,,,,,1,,,,,
html-keyboard-response,198,265787,null,"",null,,,,,,,,,,,,,,,
math-period,199,267290,2876.7999999970198,"",,,,,,,,,,,2,,,,,
html-keyboard-response,200,267402,null,"",null,,,,,,,,,,,,,,,
math-period,201,268467,1903.7999999970198,"",,,,,,,,,,,3,,,,,
html-keyboard-response,202,268571,null,"",null,,,,,,,,,,,,,,,
math-period,203,271971,6502.899999991059,"",,,,,,,,,,,0,,,,,
html-keyboard-response,204,272084,null,"",null,,,,,,,,,,,,,,,
math-period,205,274467,4566.20000000298,"",,,,,,,,,,,5,,,,,
html-keyboard-response,206,274569,null,"",null,,,,,,,,,,,,,,,
math-period,207,276100,2939.2999999970198,"",,,,,,,,,,,2,,,,,
html-keyboard-response,208,276216,null,"",null,,,,,,,,,,,,,,,
math-period,209,277516,2502,"",,,,,,,,,,,4,,,,,
html-keyboard-response,210,277618,null,"",null,,,,,,,,,,,,,,,
math-period,211,278828,2329.5,"",,,,,,,,,,,4,,,,,
html-keyboard-response,212,278940,null,"",null,,,,,,,,,,,,,,,
math-period,213,280885,3783.300000011921,"",,,,,,,,,,,3,,,,,
html-keyboard-response,214,280989,null,"",null,,,,,,,,,,,,,,,
math-period,215,280991,null,"",,,,,,,,,,,,,,,,
html-keyboard-response,216,282004,null,"Recall Period!",null,,,,,,,,,,,,,,,
call-function,217,282005,,"",,,,,,,,,,,,,,,,
html-keyboard-response,218,282113,null,"",null,,,,,,,,,,,,,,,
recall-period,219,285053,20799.19999998808,"",,,,,,,,,,,shoulder,,,,,
html-keyboard-response,220,285167,null,"",null,,,,,,,,,,,,,,,
recall-period,221,287333,12600.79999998957,"",,,,,,,,,,,pepper,,,,,
html-keyboard-response,222,287448,null,"",null,,,,,,,,,,,,,,,
recall-period,223,289157,8286.000000014901,"",,,,,,,,,,,actress,,,,,
html-keyboard-response,224,289271,null,"",null,,,,,,,,,,,,,,,
recall-period,225,357016,null,"",,,,,,,,,,,,,,,,
html-keyboard-response,226,357530,null,"Time's Up!",null,,,,,,,,,,,,,,,
html-keyboard-response,227,361938,4406.5,"<p> Good job! You have responded correctly to 94% of the trials. </p>
                      <p>Be sure to only press the spacebar if you see a red square, and please keep your accuracy above 80%.</p>
                      <p> Press any key to continue the experiment. </p>",70,,,,,,,,,,,,,,,
html-keyboard-response,228,362808,869.3999999985099,"<div style=""font-size:48px;"">Press any key to begin list 2 of 16 </div>",32,,,,,,,,,,,,,,,
html-keyboard-response,229,365320,null,"<div style=""font-size:60px;"">+</div>",null,,,,,,,,,,,,,,,
html-keyboard-response,230,365536,null,"<div style=""font-size:42px;"">ISLAND</div><img id = ""stim"" ><div class = green_square id = topsquare></div>",null,encoding,word_square,,,0,topsquare,none,true,,,ISLAND,1,,,
html-keyboard-response,231,365847,null,"<div style=""font-size:42px;"">ISLAND</div>",null,,word,ISLAND,,,,,,,,,,,,
html-keyboard-response,232,367359,null,"",null,,word,ISLAND,,,,,,,,,,,,
html-keyboard-response,233,367572,null,"<div style=""font-size:42px;"">SERPENT</div><img id = ""stim"" ><div class = red_square id = bottomsquare></div>",null,encoding,word_square,,,1,bottomsquare,32,true,,,SERPENT,1,,,
html-keyboard-response,234,367886,null,"<div style=""font-size:42px;"">SERPENT</div>",null,,word,SERPENT,,,,,,,,,,,,
html-keyboard-response,235,369400,25.100000001490116,"",32,,word,SERPENT,,,,,,,,,,,,
html-keyboard-response,236,369602,null,"<div style=""font-size:42px;"">BELT</div><img id = ""stim"" ><div class = green_square id = bottomsquare></div>",null,encoding,word_square,,,0,bottomsquare,none,true,,,BELT,1,,,
html-keyboard-response,237,369911,null,"<div style=""font-size:42px;"">BELT</div>",null,,word,BELT,,,,,,,,,,,,
html-keyboard-response,238,371418,null,"",null,,word,BELT,,,,,,,,,,,,
html-keyboard-response,239,371634,null,"<div style=""font-size:42px;"">VALVE</div><img id = ""stim"" ><div class = green_square id = topsquare></div>",null,encoding,word_square,,,0,topsquare,none,true,,,VALVE,1,,,
html-keyboard-response,240,371947,null,"<div style=""font-size:42px;"">VALVE</div>",null,,word,VALVE,,,,,,,,,,,,
html-keyboard-response,241,373460,null,"",null,,word,VALVE,,,,,,,,,,,,
html-keyboard-response,242,373662,null,"<div style=""font-size:42px;"">HOOD</div><img id = ""stim"" ><div class = red_square id = topsquare></div>",null,encoding,word_square,,,1,topsquare,32,true,,,HOOD,1,,,
html-keyboard-response,243,373971,307.80000000447035,"<div style=""font-size:42px;"">HOOD</div>",32,,word,HOOD,,,,,,,,,,,,
html-keyboard-response,244,375482,null,"",null,,word,HOOD,,,,,,,,,,,,
html-keyboard-response,245,375685,null,"<div style=""font-size:42px;"">DENTIST</div><img id = ""stim"" ><div class = red_square id = bottomsquare></div>",null,encoding,word_square,,,1,bottomsquare,32,true,,,DENTIST,1,,,
html-keyboard-response,246,375995,228,"<div style=""font-size:42px;"">DENTIST</div>",32,,word,DENTIST,,,,,,,,,,,,
html-keyboard-response,247,377509,null,"",null,,word,DENTIST,,,,,,,,,,,,
html-keyboard-response,248,377711,null,"<div style=""font-size:42px;"">BRACES</div><img id = ""stim"" ><div class = red_square id = topsquare></div>",null,encoding,word_square,,,1,topsquare,32,true,,,BRACES,1,,,
html-keyboard-response,249,378018,170.60000000149012,"<div style=""font-size:42px;"">BRACES</div>",32,,word,BRACES,,,,,,,,,,,,
html-keyboard-response,250,379533,null,"",null,,word,BRACES,,,,,,,,,,,,
html-keyboard-response,251,379735,null,"<div style=""font-size:42px;"">TRUCK</div><img id = ""stim"" ><div class = red_square id = bottomsquare></div>",null,encoding,word_square,,,1,bottomsquare,32,true,,,TRUCK,1,,,
html-keyboard-response,252,380047,225.60000000149012,"<div style=""font-size:42px;"">TRUCK</div>",32,,word,TRUCK,,,,,,,,,,,,
html-keyboard-response,253,381557,null,"",null,,word,TRUCK,,,,,,,,,,,,
html-keyboard-response,254,381772,null,"<div style=""font-size:42px;"">STOVE</div><img id = ""stim"" ><div class = green_square id = bottomsquare></div>",null,encoding,word_square,,,0,bottomsquare,none,true,,,STOVE,1,,,
html-keyboard-response,255,382082,null,"<div style=""font-size:42px;"">STOVE</div>",null,,word,STOVE,,,,,,,,,,,,
html-keyboard-response,256,383593,null,"",null,,word,STOVE,,,,,,,,,,,,
html-keyboard-response,257,383796,null,"<div style=""font-size:42px;"">SUNSET</div><img id = ""stim"" ><div class = green_square id = topsquare></div>",null,encoding,word_square,,,0,topsquare,none,true,,,SUNSET,1,,,
html-keyboard-response,258,384109,null,"<div style=""font-size:42px;"">SUNSET</div>",null,,word,SUNSET,,,,,,,,,,,,
html-keyboard-response,259,385623,null,"",null,,word,SUNSET,,,,,,,,,,,,
html-keyboard-response,260,385840,null,"<div style=""font-size:42px;"">JOINT</div><img id = ""stim"" ><div class = red_square id = topsquare></div>",null,encoding,word_square,,,1,topsquare,32,true,,,JOINT,1,,,
html-keyboard-response,261,386146,235.59999999403954,"<div style=""font-size:42px;"">JOINT</div>",32,,word,JOINT,,,,,,,,,,,,
html-keyboard-response,262,387660,null,"",null,,word,JOINT,,,,,,,,,,,,
html-keyboard-response,263,387876,null,"<div style=""font-size:42px;"">DASHBOARD</div><img id = ""stim"" ><div class = green_square id = bottomsquare></div>",null,encoding,word_square,,,0,bottomsquare,none,true,,,DASHBOARD,1,,,
html-keyboard-response,264,388186,null,"<div style=""font-size:42px;"">DASHBOARD</div>",null,,word,DASHBOARD,,,,,,,,,,,,
html-keyboard-response,265,389699,null,"",null,,word,DASHBOARD,,,,,,,,,,,,
html-keyboard-response,266,389916,null,"<div style=""font-size:42px;"">COOK</div><img id = ""stim"" ><div class = red_square id = bottomsquare></div>",null,encoding,word_square,,,1,bottomsquare,32,true,,,COOK,1,,,
html-keyboard-response,267,390230,223.19999999552965,"<div style=""font-size:42px;"">COOK</div>",32,,word,COOK,,,,,,,,,,,,
html-keyboard-response,268,391738,null,"",null,,word,COOK,,,,,,,,,,,,
html-keyboard-response,269,391942,null,"<div style=""font-size:42px;"">CONVENT</div><img id = ""stim"" ><div class = green_square id = topsquare></div>",null,encoding,word_square,,,0,topsquare,none,true,,,CONVENT,1,,,
html-keyboard-response,270,392255,null,"<div style=""font-size:42px;"">CONVENT</div>",null,,word,CONVENT,,,,,,,,,,,,
html-keyboard-response,271,393764,null,"",null,,word,CONVENT,,,,,,,,,,,,
html-keyboard-response,272,393968,null,"<div style=""font-size:42px;"">WORKER</div><img id = ""stim"" ><div class = green_square id = bottomsquare></div>",null,encoding,word_square,,,0,bottomsquare,none,true,,,WORKER,1,,,
html-keyboard-response,273,394277,null,"<div style=""font-size:42px;"">WORKER</div>",null,,word,WORKER,,,,,,,,,,,,
html-keyboard-response,274,395779,null,"",null,,word,WORKER,,,,,,,,,,,,
html-keyboard-response,275,395983,null,"<div style=""font-size:42px;"">COMET</div><img id = ""stim"" ><div class = red_square id = topsquare></div>",null,encoding,word_square,,,1,topsquare,32,true,,,COMET,1,,,
html-keyboard-response,276,396294,213.60000000149012,"<div style=""font-size:42px;"">COMET</div>",32,,word,COMET,,,,,,,,,,,,
html-keyboard-response,277,397802,null,"",null,,word,COMET,,,,,,,,,,,,
call-function,278,397802,,"",,,,,,,,,,,,,,,,
html-keyboard-response,279,397905,null,"",null,,,,,,,,,,,,,,,
math-period,280,404070,11943.49999999255,"",,,,,,,,,,,2,,,,,
html-keyboard-response,281,404171,null,"",null,,,,,,,,,,,,,,,
math-period,282,406862,8496.20000000298,"",,,,,,,,,,,4,,,,,
html-keyboard-response,283,406976,null,"",null,,,,,,,,,,,,,,,
math-period,284,408470,2834.9000000059605,"",,,,,,,,,,,6,,,,,
html-keyboard-response,285,408580,null,"",null,,,,,,,,,,,,,,,
math-period,286,409799,2347.3999999910593,"",,,,,,,,,,,4,,,,,
html-keyboard-response,287,409904,null,"",null,,,,,,,,,,,,,,,
math-period,288,411983,4092.39999999851,"",,,,,,,,,,,2,,,,,
html-keyboard-response,289,412088,null,"",null,,,,,,,,,,,,,,,
math-period,290,413295,2347,"",,,,,,,,,,,6,,,,,
html-keyboard-response,291,413409,null,"",null,,,,,,,,,,,,,,,
math-period,292,414296,1684.0999999940395,"",,,,,,,,,,,3,,,,,
html-keyboard-response,293,414404,null,"",null,,,,,,,,,,,,,,,
math-period,294,415743,2548.6999999955297,"",,,,,,,,,,,2,,,,,
html-keyboard-response,295,415851,null,"",null,,,,,,,,,,,,,,,
math-period,296,416912,2057.9000000059605,"",,,,,,,,,,,4,,,,,
html-keyboard-response,297,417016,null,"",null,,,,,,,,,,,,,,,
math-period,298,418336,2533.8000000044703,"",,,,,,,,,,,3,,,,,
html-keyboard-response,299,418440,null,"",null,,,,,,,,,,,,,,,
math-period,300,419583,2197.1000000089407,"",,,,,,,,,,,3,,,,,
html-keyboard-response,301,419685,null,"",null,,,,,,,,,,,,,,,
math-period,302,421192,2956.10000000149,"",,,,,,,,,,,5,,,,,
html-keyboard-response,303,421297,null,"",null,,,,,,,,,,,,,,,
math-period,304,421813,null,"",,,,,,,,,,,,,,,,
html-keyboard-response,305,422827,null,"Recall Period!",null,,,,,,,,,,,,,,,
call-function,306,422828,,"",,,,,,,,,,,,,,,,
html-keyboard-response,307,422930,null,"",null,,,,,,,,,,,,,,,
recall-period,308,425202,10007.900000013411,"",,,,,,,,,,,valve,,,,,
html-keyboard-response,309,425317,null,"",null,,,,,,,,,,,,,,,
recall-period,310,429114,16369.499999985099,"",,,,,,,,,,,cook,,,,,
html-keyboard-response,311,429223,null,"",null,,,,,,,,,,,,,,,
recall-period,312,497843,null,"",,,,,,,,,,,,,,,,
html-keyboard-response,313,498356,null,"Time's Up!",null,,,,,,,,,,,,,,,
html-keyboard-response,314,503693,5334.9000000059605,"<p> Good job! You have responded correctly to 97% of the trials. </p>
                      <p>Be sure to only press the spacebar if you see a red square, and please keep your accuracy above 80%.</p>
                      <p> Press any key to continue the experiment. </p>",32,,,,,,,,,,,,,,,
html-keyboard-response,315,504636,942.7000000029802,"<div style=""font-size:48px;"">Press any key to begin list 3 of 16 </div>",32,,,,,,,,,,,,,,,
html-keyboard-response,316,507152,null,"<div style=""font-size:60px;"">+</div>",null,,,,,,,,,,,,,,,
html-keyboard-response,317,507358,null,"<div style=""font-size:42px;"">TILE</div><img id = ""stim"" ><div class = green_square id = bottomsquare></div>",null,encoding,word_square,,,0,bottomsquare,none,true,,,TILE,2,,,
html-keyboard-response,318,507674,null,"<div style=""font-size:42px;"">TILE</div>",null,,word,TILE,,,,,,,,,,,,
html-keyboard-response,319,509175,null,"",null,,word,TILE,,,,,,,,,,,,
html-keyboard-response,320,509388,null,"<div style=""font-size:42px;"">PREACHER</div><img id = ""stim"" ><div class = red_square id = topsquare></div>",null,encoding,word_square,,,1,topsquare,32,true,,,PREACHER,2,,,
html-keyboard-response,321,509701,280.40000000596046,"<div style=""font-size:42px;"">PREACHER</div>",32,,word,PREACHER,,,,,,,,,,,,
html-keyboard-response,322,511205,null,"",null,,word,PREACHER,,,,,,,,,,,,
html-keyboard-response,323,511409,null,"<div style=""font-size:42px;"">IDOL</div><img id = ""stim"" ><div class = red_square id = bottomsquare></div>",null,encoding,word_square,,,1,bottomsquare,32,true,,,IDOL,2,,,
html-keyboard-response,324,511718,187.20000000298023,"<div style=""font-size:42px;"">IDOL</div>",32,,word,IDOL,,,,,,,,,,,,
html-keyboard-response,325,513229,null,"",null,,word,IDOL,,,,,,,,,,,,
html-keyboard-response,326,513432,null,"<div style=""font-size:42px;"">TROUSERS</div><img id = ""stim"" ><div class = green_square id = topsquare></div>",null,encoding,word_square,,,0,topsquare,none,true,,,TROUSERS,2,,,
html-keyboard-response,327,513743,null,"<div style=""font-size:42px;"">TROUSERS</div>",null,,word,TROUSERS,,,,,,,,,,,,
html-keyboard-response,328,515253,null,"",null,,word,TROUSERS,,,,,,,,,,,,
html-keyboard-response,329,515456,null,"<div style=""font-size:42px;"">GLASS</div><img id = ""stim"" ><div class = red_square id = topsquare></div>",null,encoding,word_square,,,1,topsquare,32,true,,,GLASS,2,,,
html-keyboard-response,330,515770,null,"<div style=""font-size:42px;"">GLASS</div>",null,,word,GLASS,,,,,,,,,,,,
html-keyboard-response,331,517274,11.5,"",32,,word,GLASS,,,,,,,,,,,,
html-keyboard-response,332,517478,null,"<div style=""font-size:42px;"">VIRUS</div><img id = ""stim"" ><div class = green_square id = bottomsquare></div>",null,encoding,word_square,,,0,bottomsquare,none,true,,,VIRUS,2,,,
html-keyboard-response,333,517788,null,"<div style=""font-size:42px;"">VIRUS</div>",null,,word,VIRUS,,,,,,,,,,,,
html-keyboard-response,334,519295,null,"",null,,word,VIRUS,,,,,,,,,,,,
html-keyboard-response,335,519499,null,"<div style=""font-size:42px;"">SADDLE</div><img id = ""stim"" ><div class = red_square id = bottomsquare></div>",null,encoding,word_square,,,1,bottomsquare,32,true,,,SADDLE,2,,,
html-keyboard-response,336,519811,275.29999999701977,"<div style=""font-size:42px;"">SADDLE</div>",32,,word,SADDLE,,,,,,,,,,,,
html-keyboard-response,337,521319,null,"",null,,word,SADDLE,,,,,,,,,,,,
html-keyboard-response,338,521522,null,"<div style=""font-size:42px;"">BOULDER</div><img id = ""stim"" ><div class = red_square id = topsquare></div>",null,encoding,word_square,,,1,topsquare,32,true,,,BOULDER,2,,,
html-keyboard-response,339,521835,180.20000000298023,"<div style=""font-size:42px;"">BOULDER</div>",32,,word,BOULDER,,,,,,,,,,,,
html-keyboard-response,340,523345,null,"",null,,word,BOULDER,,,,,,,,,,,,
html-keyboard-response,341,523548,null,"<div style=""font-size:42px;"">STONE</div><img id = ""stim"" ><div class = green_square id = topsquare></div>",null,encoding,word_square,,,0,topsquare,none,true,,,STONE,2,,,
html-keyboard-response,342,523857,null,"<div style=""font-size:42px;"">STONE</div>",null,,word,STONE,,,,,,,,,,,,
html-keyboard-response,343,525367,null,"",null,,word,STONE,,,,,,,,,,,,
html-keyboard-response,344,525585,null,"<div style=""font-size:42px;"">PICNIC</div><img id = ""stim"" ><div class = green_square id = bottomsquare></div>",null,encoding,word_square,,,0,bottomsquare,none,true,,,PICNIC,2,,,
html-keyboard-response,345,525896,null,"<div style=""font-size:42px;"">PICNIC</div>",null,,word,PICNIC,,,,,,,,,,,,
html-keyboard-response,346,527412,null,"",null,,word,PICNIC,,,,,,,,,,,,
html-keyboard-response,347,527616,null,"<div style=""font-size:42px;"">STRING</div><img id = ""stim"" ><div class = green_square id = topsquare></div>",null,encoding,word_square,,,0,topsquare,none,true,,,STRING,2,,,
html-keyboard-response,348,527924,null,"<div style=""font-size:42px;"">STRING</div>",null,,word,STRING,,,,,,,,,,,,
html-keyboard-response,349,529433,null,"",null,,word,STRING,,,,,,,,,,,,
html-keyboard-response,350,529635,null,"<div style=""font-size:42px;"">CLIMBER</div><img id = ""stim"" ><div class = green_square id = bottomsquare></div>",null,encoding,word_square,,,0,bottomsquare,none,true,,,CLIMBER,2,,,
html-keyboard-response,351,529950,null,"<div style=""font-size:42px;"">CLIMBER</div>",null,,word,CLIMBER,,,,,,,,,,,,
html-keyboard-response,352,531461,null,"",null,,word,CLIMBER,,,,,,,,,,,,
html-keyboard-response,353,531667,null,"<div style=""font-size:42px;"">CANYON</div><img id = ""stim"" ><div class = red_square id = bottomsquare></div>",null,encoding,word_square,,,1,bottomsquare,32,true,,,CANYON,2,,,
html-keyboard-response,354,531975,null,"<div style=""font-size:42px;"">CANYON</div>",null,,word,CANYON,,,,,,,,,,,,
html-keyboard-response,355,533482,0.29999999701976776,"",32,,word,CANYON,,,,,,,,,,,,
html-keyboard-response,356,533684,null,"<div style=""font-size:42px;"">SLOPE</div><img id = ""stim"" ><div class = red_square id = topsquare></div>",null,encoding,word_square,,,1,topsquare,32,true,,,SLOPE,2,,,
html-keyboard-response,357,533994,211.29999999701977,"<div style=""font-size:42px;"">SLOPE</div>",32,,word,SLOPE,,,,,,,,,,,,
html-keyboard-response,358,535502,null,"",null,,word,SLOPE,,,,,,,,,,,,
html-keyboard-response,359,535706,null,"<div style=""font-size:42px;"">GIRAFFE</div><img id = ""stim"" ><div class = green_square id = topsquare></div>",null,encoding,word_square,,,0,topsquare,none,true,,,GIRAFFE,2,,,
html-keyboard-response,360,536019,null,"<div style=""font-size:42px;"">GIRAFFE</div>",null,,word,GIRAFFE,,,,,,,,,,,,
html-keyboard-response,361,537528,null,"",null,,word,GIRAFFE,,,,,,,,,,,,
html-keyboard-response,362,537744,null,"<div style=""font-size:42px;"">PEBBLE</div><img id = ""stim"" ><div class = red_square id = bottomsquare></div>",null,encoding,word_square,,,1,bottomsquare,32,true,,,PEBBLE,2,,,
html-keyboard-response,363,538050,304.5,"<div style=""font-size:42px;"">PEBBLE</div>",32,,word,PEBBLE,,,,,,,,,,,,
html-keyboard-response,364,539561,null,"",null,,word,PEBBLE,,,,,,,,,,,,
call-function,365,539562,,"",,,,,,,,,,,,,,,,
html-keyboard-response,366,539663,null,"",null,,,,,,,,,,,,,,,
math-period,367,542122,4627.39999999851,"",,,,,,,,,,,4,,,,,
html-keyboard-response,368,542223,null,"",null,,,,,,,,,,,,,,,
math-period,369,543242,1940.3999999910593,"",,,,,,,,,,,3,,,,,
html-keyboard-response,370,543347,null,"",null,,,,,,,,,,,,,,,
math-period,371,544483,2172.5,"",,,,,,,,,,,5,,,,,
html-keyboard-response,372,544584,null,"",null,,,,,,,,,,,,,,,
math-period,373,546011,2755.10000000149,"",,,,,,,,,,,4,,,,,
html-keyboard-response,374,546122,null,"",null,,,,,,,,,,,,,,,
math-period,375,547747,3151.5999999940395,"",,,,,,,,,,,1,,,,,
html-keyboard-response,376,547851,null,"",null,,,,,,,,,,,,,,,
math-period,377,550491,5190.5999999940395,"",,,,,,,,,,,2,,,,,
html-keyboard-response,378,550593,null,"",null,,,,,,,,,,,,,,,
math-period,379,551989,2725.7000000029802,"",,,,,,,,,,,6,,,,,
html-keyboard-response,380,552096,null,"",null,,,,,,,,,,,,,,,
math-period,381,553164,2071.1000000089407,"",,,,,,,,,,,2,,,,,
html-keyboard-response,382,553279,null,"",null,,,,,,,,,,,,,,,
math-period,383,554628,2585.1999999955297,"",,,,,,,,,,,4,,,,,
html-keyboard-response,384,554733,null,"",null,,,,,,,,,,,,,,,
math-period,385,555644,1741.5999999940395,"",,,,,,,,,,,2,,,,,
html-keyboard-response,386,555752,null,"",null,,,,,,,,,,,,,,,
math-period,387,557669,3718.0999999940395,"",,,,,,,,,,,2,,,,,
html-keyboard-response,388,557770,null,"",null,,,,,,,,,,,,,,,
math-period,389,558957,2283.6999999955297,"",,,,,,,,,,,5,,,,,
html-keyboard-response,390,559067,null,"",null,,,,,,,,,,,,,,,
math-period,391,560213,2217.4999999925494,"",,,,,,,,,,,2,,,,,
html-keyboard-response,392,560317,null,"",null,,,,,,,,,,,,,,,
math-period,393,561181,1669.1000000014901,"",,,,,,,,,,,4,,,,,
html-keyboard-response,394,561283,null,"",null,,,,,,,,,,,,,,,
math-period,395,562045,1451.5000000074506,"",,,,,,,,,,,4,,,,,
html-keyboard-response,396,562157,null,"",null,,,,,,,,,,,,,,,
math-period,397,563558,2687.89999999851,"",,,,,,,,,,,2,,,,,
html-keyboard-response,398,563670,null,"",null,,,,,,,,,,,,,,,
math-period,399,563672,null,"",,,,,,,,,,,,,,,,
html-keyboard-response,400,564688,null,"Recall Period!",null,,,,,,,,,,,,,,,
call-function,401,564689,,"",,,,,,,,,,,,,,,,
html-keyboard-response,402,564800,null,"",null,,,,,,,,,,,,,,,
recall-period,403,566462,7796.899999983609,"",,,,,,,,,,,slope,,,,,
html-keyboard-response,404,566573,null,"",null,,,,,,,,,,,,,,,
recall-period,405,568967,11495.199999988079,"",,,,,,,,,,,giraffe,,,,,
html-keyboard-response,406,569068,null,"",null,,,,,,,,,,,,,,,
recall-period,407,571119,10890.199999973178,"",,,,,,,,,,,boulder,,,,,
html-keyboard-response,408,571222,null,"",null,,,,,,,,,,,,,,,
recall-period,409,572799,5118.700000010431,"",,,,,,,,,,,stone,,,,,
html-keyboard-response,410,572906,null,"",null,,,,,,,,,,,,,,,
recall-period,411,575751,11506.699999988079,"",,,,,,,,,,,pebble,,,,,
html-keyboard-response,412,575857,null,"",null,,,,,,,,,,,,,,,
recall-period,413,639690,null,"",,,,,,,,,,,,,,,,
html-keyboard-response,414,640203,null,"Time's Up!",null,,,,,,,,,,,,,,,
html-keyboard-response,415,643970,3766.10000000149,"<p> Good job! You have responded correctly to 98% of the trials. </p>
                      <p>Be sure to only press the spacebar if you see a red square, and please keep your accuracy above 80%.</p>
                      <p> Press any key to continue the experiment. </p>",32,,,,,,,,,,,,,,,
html-keyboard-response,416,645018,1046.2999999970198,"<div style=""font-size:48px;"">Press any key to begin list 4 of 16 </div>",32,,,,,,,,,,,,,,,
html-keyboard-response,417,647521,null,"<div style=""font-size:60px;"">+</div>",null,,,,,,,,,,,,,,,
html-keyboard-response,418,647723,null,"<div style=""font-size:42px;"">CIRCUS</div><img id = ""stim"" ><div class = red_square id = bottomsquare></div>",null,encoding,word_square,,,1,bottomsquare,32,true,,,CIRCUS,3,,,
html-keyboard-response,419,648032,null,"<div style=""font-size:42px;"">CIRCUS</div>",null,,word,CIRCUS,,,,,,,,,,,,
html-keyboard-response,420,649538,88.70000000298023,"",32,,word,CIRCUS,,,,,,,,,,,,
html-keyboard-response,421,649741,null,"<div style=""font-size:42px;"">CABLE</div><img id = ""stim"" ><div class = green_square id = topsquare></div>",null,encoding,word_square,,,0,topsquare,none,true,,,CABLE,3,,,
html-keyboard-response,422,650052,null,"<div style=""font-size:42px;"">CABLE</div>",null,,word,CABLE,,,,,,,,,,,,
html-keyboard-response,423,651560,null,"",null,,word,CABLE,,,,,,,,,,,,
html-keyboard-response,424,651763,null,"<div style=""font-size:42px;"">NEPTUNE</div><img id = ""stim"" ><div class = red_square id = topsquare></div>",null,encoding,word_square,,,1,topsquare,32,true,,,NEPTUNE,3,,,
html-keyboard-response,425,652070,null,"<div style=""font-size:42px;"">NEPTUNE</div>",null,,word,NEPTUNE,,,,,,,,,,,,
html-keyboard-response,426,653583,2.3000000044703484,"",32,,word,NEPTUNE,,,,,,,,,,,,
html-keyboard-response,427,653787,null,"<div style=""font-size:42px;"">PADDLE</div><img id = ""stim"" ><div class = red_square id = bottomsquare></div>",null,encoding,word_square,,,1,bottomsquare,32,true,,,PADDLE,3,,,
html-keyboard-response,428,654096,200.19999999552965,"<div style=""font-size:42px;"">PADDLE</div>",32,,word,PADDLE,,,,,,,,,,,,
html-keyboard-response,429,655604,null,"",null,,word,PADDLE,,,,,,,,,,,,
html-keyboard-response,430,655821,null,"<div style=""font-size:42px;"">KEEPER</div><img id = ""stim"" ><div class = green_square id = bottomsquare></div>",null,encoding,word_square,,,0,bottomsquare,none,true,,,KEEPER,3,,,
html-keyboard-response,431,656136,null,"<div style=""font-size:42px;"">KEEPER</div>",null,,word,KEEPER,,,,,,,,,,,,
html-keyboard-response,432,657646,null,"",null,,word,KEEPER,,,,,,,,,,,,
html-keyboard-response,433,657862,null,"<div style=""font-size:42px;"">KITTEN</div><img id = ""stim"" ><div class = green_square id = topsquare></div>",null,encoding,word_square,,,0,topsquare,none,true,,,KITTEN,3,,,
html-keyboard-response,434,658173,null,"<div style=""font-size:42px;"">KITTEN</div>",null,,word,KITTEN,,,,,,,,,,,,
html-keyboard-response,435,659685,null,"",null,,word,KITTEN,,,,,,,,,,,,
html-keyboard-response,436,659903,null,"<div style=""font-size:42px;"">BOX</div><img id = ""stim"" ><div class = green_square id = bottomsquare></div>",null,encoding,word_square,,,0,bottomsquare,none,true,,,BOX,3,,,
html-keyboard-response,437,660217,null,"<div style=""font-size:42px;"">BOX</div>",null,,word,BOX,,,,,,,,,,,,
html-keyboard-response,438,661725,null,"",null,,word,BOX,,,,,,,,,,,,
html-keyboard-response,439,661942,null,"<div style=""font-size:42px;"">HIKER</div><img id = ""stim"" ><div class = green_square id = topsquare></div>",null,encoding,word_square,,,0,topsquare,none,true,,,HIKER,3,,,
html-keyboard-response,440,662252,null,"<div style=""font-size:42px;"">HIKER</div>",null,,word,HIKER,,,,,,,,,,,,
html-keyboard-response,441,663760,null,"",null,,word,HIKER,,,,,,,,,,,,
html-keyboard-response,442,663977,null,"<div style=""font-size:42px;"">TAXI</div><img id = ""stim"" ><div class = red_square id = topsquare></div>",null,encoding,word_square,,,1,topsquare,32,true,,,TAXI,3,,,
html-keyboard-response,443,664288,243.39999999850988,"<div style=""font-size:42px;"">TAXI</div>",32,,word,TAXI,,,,,,,,,,,,
html-keyboard-response,444,665802,null,"",null,,word,TAXI,,,,,,,,,,,,
html-keyboard-response,445,666004,null,"<div style=""font-size:42px;"">COUNTRY</div><img id = ""stim"" ><div class = red_square id = bottomsquare></div>",null,encoding,word_square,,,1,bottomsquare,32,true,,,COUNTRY,3,,,
html-keyboard-response,446,666317,214.70000000298023,"<div style=""font-size:42px;"">COUNTRY</div>",32,,word,COUNTRY,,,,,,,,,,,,
html-keyboard-response,447,667824,null,"",null,,word,COUNTRY,,,,,,,,,,,,
html-keyboard-response,448,668027,null,"<div style=""font-size:42px;"">JAPAN</div><img id = ""stim"" ><div class = green_square id = bottomsquare></div>",null,encoding,word_square,,,0,bottomsquare,none,true,,,JAPAN,3,,,
html-keyboard-response,449,668337,null,"<div style=""font-size:42px;"">JAPAN</div>",null,,word,JAPAN,,,,,,,,,,,,
html-keyboard-response,450,669839,null,"",null,,word,JAPAN,,,,,,,,,,,,
html-keyboard-response,451,670057,null,"<div style=""font-size:42px;"">HELMET</div><img id = ""stim"" ><div class = red_square id = topsquare></div>",null,encoding,word_square,,,1,topsquare,32,true,,,HELMET,3,,,
html-keyboard-response,452,670368,235.10000000149012,"<div style=""font-size:42px;"">HELMET</div>",32,,word,HELMET,,,,,,,,,,,,
html-keyboard-response,453,671878,null,"",null,,word,HELMET,,,,,,,,,,,,
html-keyboard-response,454,672081,null,"<div style=""font-size:42px;"">LIPSTICK</div><img id = ""stim"" ><div class = green_square id = topsquare></div>",null,encoding,word_square,,,0,topsquare,none,true,,,LIPSTICK,3,,,
html-keyboard-response,455,672390,null,"<div style=""font-size:42px;"">LIPSTICK</div>",null,,word,LIPSTICK,,,,,,,,,,,,
html-keyboard-response,456,673906,null,"",null,,word,LIPSTICK,,,,,,,,,,,,
html-keyboard-response,457,674109,null,"<div style=""font-size:42px;"">POWDER</div><img id = ""stim"" ><div class = red_square id = bottomsquare></div>",null,encoding,word_square,,,1,bottomsquare,32,true,,,POWDER,3,,,
html-keyboard-response,458,674419,240.09999999403954,"<div style=""font-size:42px;"">POWDER</div>",32,,word,POWDER,,,,,,,,,,,,
html-keyboard-response,459,675935,null,"",null,,word,POWDER,,,,,,,,,,,,
html-keyboard-response,460,676152,null,"<div style=""font-size:42px;"">PEDAL</div><img id = ""stim"" ><div class = red_square id = topsquare></div>",null,encoding,word_square,,,1,topsquare,32,true,,,PEDAL,3,,,
html-keyboard-response,461,676465,197.10000000149012,"<div style=""font-size:42px;"">PEDAL</div>",32,,word,PEDAL,,,,,,,,,,,,
html-keyboard-response,462,677976,null,"",null,,word,PEDAL,,,,,,,,,,,,
html-keyboard-response,463,678192,null,"<div style=""font-size:42px;"">STABLE</div><img id = ""stim"" ><div class = green_square id = bottomsquare></div>",null,encoding,word_square,,,0,bottomsquare,none,true,,,STABLE,3,,,
html-keyboard-response,464,678504,null,"<div style=""font-size:42px;"">STABLE</div>",null,,word,STABLE,,,,,,,,,,,,
html-keyboard-response,465,680006,null,"",null,,word,STABLE,,,,,,,,,,,,
call-function,466,680007,,"",,,,,,,,,,,,,,,,
html-keyboard-response,467,680108,null,"",null,,,,,,,,,,,,,,,
math-period,468,683983,7123.29999999702,"",,,,,,,,,,,2,,,,,
html-keyboard-response,469,684089,null,"",null,,,,,,,,,,,,,,,
math-period,470,686400,4498.0999999940395,"",,,,,,,,,,,2,,,,,
html-keyboard-response,471,686503,null,"",null,,,,,,,,,,,,,,,
math-period,472,687535,1926.1000000014901,"",,,,,,,,,,,3,,,,,
html-keyboard-response,473,687643,null,"",null,,,,,,,,,,,,,,,
math-period,474,688871,2318.39999999851,"",,,,,,,,,,,6,,,,,
html-keyboard-response,475,688984,null,"",null,,,,,,,,,,,,,,,
math-period,476,689976,1884.5999999940395,"",,,,,,,,,,,3,,,,,
html-keyboard-response,477,690088,null,"",null,,,,,,,,,,,,,,,
math-period,478,691088,1893.1999999955297,"",,,,,,,,,,,3,,,,,
html-keyboard-response,479,691191,null,"",null,,,,,,,,,,,,,,,
math-period,480,692703,2911.5999999940395,"",,,,,,,,,,,4,,,,,
html-keyboard-response,481,692807,null,"",null,,,,,,,,,,,,,,,
math-period,482,693864,1975.6000000089407,"",,,,,,,,,,,4,,,,,
html-keyboard-response,483,693967,null,"",null,,,,,,,,,,,,,,,
math-period,484,695225,2384.8000000044703,"",,,,,,,,,,,6,,,,,
html-keyboard-response,485,695326,null,"",null,,,,,,,,,,,,,,,
math-period,486,696176,1618.7999999970198,"",,,,,,,,,,,6,,,,,
html-keyboard-response,487,696285,null,"",null,,,,,,,,,,,,,,,
math-period,488,697936,3190.1999999955297,"",,,,,,,,,,,1,,,,,
html-keyboard-response,489,698048,null,"",null,,,,,,,,,,,,,,,
math-period,490,699257,2303.8000000044703,"",,,,,,,,,,,5,,,,,
html-keyboard-response,491,699372,null,"",null,,,,,,,,,,,,,,,
math-period,492,700569,2297.7999999970198,"",,,,,,,,,,,3,,,,,
html-keyboard-response,493,700672,null,"",null,,,,,,,,,,,,,,,
math-period,494,702497,3560.4000000059605,"",,,,,,,,,,,4,,,,,
html-keyboard-response,495,702610,null,"",null,,,,,,,,,,,,,,,
math-period,496,703546,1677.0999999940395,"",,,,,,,,,,,2,,,,,
html-keyboard-response,497,703650,null,"",null,,,,,,,,,,,,,,,
math-period,498,704010,null,"",,,,,,,,,,,,,,,,
html-keyboard-response,499,705020,null,"Recall Period!",null,,,,,,,,,,,,,,,
call-function,500,705021,,"",,,,,,,,,,,,,,,,
html-keyboard-response,501,705122,null,"",null,,,,,,,,,,,,,,,
recall-period,502,708379,14476.90000000596,"",,,,,,,,,,,circus,,,,,
html-keyboard-response,503,708480,null,"",null,,,,,,,,,,,,,,,
recall-period,504,711019,12129.70000001043,"",,,,,,,,,,,clown,,,,,
html-keyboard-response,505,711126,null,"",null,,,,,,,,,,,,,,,
recall-period,506,715388,25436.49999999255,"",,,,,,,,,,,paddle,,,,,
html-keyboard-response,507,715499,null,"",null,,,,,,,,,,,,,,,
recall-period,508,780023,null,"",,,,,,,,,,,,,,,,
html-keyboard-response,509,780539,null,"Time's Up!",null,,,,,,,,,,,,,,,
html-keyboard-response,510,782534,1994.1999999955297,"<p> Good job! You have responded correctly to 98% of the trials. </p>
                      <p>Be sure to only press the spacebar if you see a red square, and please keep your accuracy above 80%.</p>
                      <p> Press any key to continue the experiment. </p>",32,,,,,,,,,,,,,,,
html-keyboard-response,511,783406,871.0999999940395,"<div style=""font-size:48px;"">Press any key to begin list 5 of 16 </div>",32,,,,,,,,,,,,,,,
html-keyboard-response,512,785929,null,"<div style=""font-size:60px;"">+</div>",null,,,,,,,,,,,,,,,
html-keyboard-response,513,786147,null,"<div style=""font-size:42px;"">FOSSIL</div><img id = ""stim"" ><div class = red_square id = topsquare></div>",null,encoding,word_square,,,1,topsquare,32,true,,,FOSSIL,4,,,
html-keyboard-response,514,786460,null,"<div style=""font-size:42px;"">FOSSIL</div>",null,,word,FOSSIL,,,,,,,,,,,,
html-keyboard-response,515,787970,113.89999999850988,"",32,,word,FOSSIL,,,,,,,,,,,,
html-keyboard-response,516,788186,null,"<div style=""font-size:42px;"">SPONGE</div><img id = ""stim"" ><div class = red_square id = bottomsquare></div>",null,encoding,word_square,,,1,bottomsquare,32,true,,,SPONGE,4,,,
html-keyboard-response,517,788497,275.69999999552965,"<div style=""font-size:42px;"">SPONGE</div>",32,,word,SPONGE,,,,,,,,,,,,
html-keyboard-response,518,790009,null,"",null,,word,SPONGE,,,,,,,,,,,,
html-keyboard-response,519,790226,null,"<div style=""font-size:42px;"">SAUSAGE</div><img id = ""stim"" ><div class = green_square id = bottomsquare></div>",null,encoding,word_square,,,0,bottomsquare,none,true,,,SAUSAGE,4,,,
html-keyboard-response,520,790539,null,"<div style=""font-size:42px;"">SAUSAGE</div>",null,,word,SAUSAGE,,,,,,,,,,,,
html-keyboard-response,521,792049,null,"",null,,word,SAUSAGE,,,,,,,,,,,,
html-keyboard-response,522,792262,null,"<div style=""font-size:42px;"">HUSBAND</div><img id = ""stim"" ><div class = green_square id = topsquare></div>",null,encoding,word_square,,,0,topsquare,none,true,,,HUSBAND,4,,,
html-keyboard-response,523,792570,null,"<div style=""font-size:42px;"">HUSBAND</div>",null,,word,HUSBAND,,,,,,,,,,,,
html-keyboard-response,524,794080,null,"",null,,word,HUSBAND,,,,,,,,,,,,
html-keyboard-response,525,794297,null,"<div style=""font-size:42px;"">VALLEY</div><img id = ""stim"" ><div class = red_square id = topsquare></div>",null,encoding,word_square,,,1,topsquare,32,true,,,VALLEY,4,,,
html-keyboard-response,526,794609,277.6000000014901,"<div style=""font-size:42px;"">VALLEY</div>",32,,word,VALLEY,,,,,,,,,,,,
html-keyboard-response,527,796115,null,"",null,,word,VALLEY,,,,,,,,,,,,
html-keyboard-response,528,796329,null,"<div style=""font-size:42px;"">SUMMIT</div><img id = ""stim"" ><div class = green_square id = bottomsquare></div>",null,encoding,word_square,,,0,bottomsquare,none,true,,,SUMMIT,4,,,
html-keyboard-response,529,796642,null,"<div style=""font-size:42px;"">SUMMIT</div>",null,,word,SUMMIT,,,,,,,,,,,,
html-keyboard-response,530,798152,null,"",null,,word,SUMMIT,,,,,,,,,,,,
html-keyboard-response,531,798355,null,"<div style=""font-size:42px;"">FOREHEAD</div><img id = ""stim"" ><div class = red_square id = bottomsquare></div>",null,encoding,word_square,,,1,bottomsquare,32,true,,,FOREHEAD,4,,,
html-keyboard-response,532,798669,188,"<div style=""font-size:42px;"">FOREHEAD</div>",32,,word,FOREHEAD,,,,,,,,,,,,
html-keyboard-response,533,800183,null,"",null,,word,FOREHEAD,,,,,,,,,,,,
html-keyboard-response,534,800398,null,"<div style=""font-size:42px;"">MISSILE</div><img id = ""stim"" ><div class = green_square id = topsquare></div>",null,encoding,word_square,,,0,topsquare,none,true,,,MISSILE,4,,,
html-keyboard-response,535,800713,null,"<div style=""font-size:42px;"">MISSILE</div>",null,,word,MISSILE,,,,,,,,,,,,
html-keyboard-response,536,802222,null,"",null,,word,MISSILE,,,,,,,,,,,,
html-keyboard-response,537,802440,null,"<div style=""font-size:42px;"">OFFICE</div><img id = ""stim"" ><div class = green_square id = bottomsquare></div>",null,encoding,word_square,,,0,bottomsquare,none,true,,,OFFICE,4,,,
html-keyboard-response,538,802751,null,"<div style=""font-size:42px;"">OFFICE</div>",null,,word,OFFICE,,,,,,,,,,,,
html-keyboard-response,539,804265,null,"",null,,word,OFFICE,,,,,,,,,,,,
html-keyboard-response,540,804469,null,"<div style=""font-size:42px;"">TYPIST</div><img id = ""stim"" ><div class = red_square id = topsquare></div>",null,encoding,word_square,,,1,topsquare,32,true,,,TYPIST,4,,,
html-keyboard-response,541,804781,284.5,"<div style=""font-size:42px;"">TYPIST</div>",32,,word,TYPIST,,,,,,,,,,,,
html-keyboard-response,542,806286,null,"",null,,word,TYPIST,,,,,,,,,,,,
html-keyboard-response,543,806489,null,"<div style=""font-size:42px;"">STUMP</div><img id = ""stim"" ><div class = red_square id = bottomsquare></div>",null,encoding,word_square,,,1,bottomsquare,32,true,,,STUMP,4,,,
html-keyboard-response,544,806797,206.89999999850988,"<div style=""font-size:42px;"">STUMP</div>",32,,word,STUMP,,,,,,,,,,,,
html-keyboard-response,545,808307,null,"",null,,word,STUMP,,,,,,,,,,,,
html-keyboard-response,546,808524,null,"<div style=""font-size:42px;"">SCARF</div><img id = ""stim"" ><div class = green_square id = topsquare></div>",null,encoding,word_square,,,0,topsquare,none,true,,,SCARF,4,,,
html-keyboard-response,547,808839,null,"<div style=""font-size:42px;"">SCARF</div>",null,,word,SCARF,,,,,,,,,,,,
html-keyboard-response,548,810344,null,"",null,,word,SCARF,,,,,,,,,,,,
html-keyboard-response,549,810547,null,"<div style=""font-size:42px;"">PERCH</div><img id = ""stim"" ><div class = red_square id = topsquare></div>",null,encoding,word_square,,,1,topsquare,32,true,,,PERCH,4,,,
html-keyboard-response,550,810850,302.09999999403954,"<div style=""font-size:42px;"">PERCH</div>",32,,word,PERCH,,,,,,,,,,,,
html-keyboard-response,551,812357,null,"",null,,word,PERCH,,,,,,,,,,,,
html-keyboard-response,552,812575,null,"<div style=""font-size:42px;"">BREAST</div><img id = ""stim"" ><div class = green_square id = bottomsquare></div>",null,encoding,word_square,,,0,bottomsquare,none,true,,,BREAST,4,,,
html-keyboard-response,553,812887,null,"<div style=""font-size:42px;"">BREAST</div>",null,,word,BREAST,,,,,,,,,,,,
html-keyboard-response,554,814394,null,"",null,,word,BREAST,,,,,,,,,,,,
html-keyboard-response,555,814610,null,"<div style=""font-size:42px;"">ROD</div><img id = ""stim"" ><div class = green_square id = topsquare></div>",null,encoding,word_square,,,0,topsquare,none,true,,,ROD,4,,,
html-keyboard-response,556,814918,null,"<div style=""font-size:42px;"">ROD</div>",null,,word,ROD,,,,,,,,,,,,
html-keyboard-response,557,816421,null,"",null,,word,ROD,,,,,,,,,,,,
html-keyboard-response,558,816637,null,"<div style=""font-size:42px;"">LAKE</div><img id = ""stim"" ><div class = red_square id = bottomsquare></div>",null,encoding,word_square,,,1,bottomsquare,32,true,,,LAKE,4,,,
html-keyboard-response,559,816953,null,"<div style=""font-size:42px;"">LAKE</div>",null,,word,LAKE,,,,,,,,,,,,
html-keyboard-response,560,818463,17,"",32,,word,LAKE,,,,,,,,,,,,
call-function,561,818464,,"",,,,,,,,,,,,,,,,
html-keyboard-response,562,818571,null,"",null,,,,,,,,,,,,,,,
math-period,563,821164,4862.19999999553,"",,,,,,,,,,,5,,,,,
html-keyboard-response,564,821268,null,"",null,,,,,,,,,,,,,,,
math-period,565,822651,2581.299999989569,"",,,,,,,,,,,4,,,,,
html-keyboard-response,566,822755,null,"",null,,,,,,,,,,,,,,,
math-period,567,824364,2951.3999999910593,"",,,,,,,,,,,3,,,,,
html-keyboard-response,568,824475,null,"",null,,,,,,,,,,,,,,,
math-period,569,826404,3704.8000000044703,"",,,,,,,,,,,1,,,,,
html-keyboard-response,570,826511,null,"",null,,,,,,,,,,,,,,,
math-period,571,828692,4257.30000000447,"",,,,,,,,,,,0,,,,,
html-keyboard-response,572,828796,null,"",null,,,,,,,,,,,,,,,
math-period,573,830316,2919.9000000059605,"",,,,,,,,,,,4,,,,,
html-keyboard-response,574,830430,null,"",null,,,,,,,,,,,,,,,
math-period,575,831173,1379,"",,,,,,,,,,,4,,,,,
html-keyboard-response,576,831286,null,"",null,,,,,,,,,,,,,,,
math-period,577,831877,1083.8999999910593,"",,,,,,,,,,,4,,,,,
html-keyboard-response,578,831987,null,"",null,,,,,,,,,,,,,,,
math-period,579,833477,2881.8000000044703,"",,,,,,,,,,,2,,,,,
html-keyboard-response,580,833580,null,"",null,,,,,,,,,,,,,,,
math-period,581,836366,5474.10000000149,"",,,,,,,,,,,4,,,,,
html-keyboard-response,582,836477,null,"",null,,,,,,,,,,,,,,,
math-period,583,837982,2894.1000000089407,"",,,,,,,,,,,4,,,,,
html-keyboard-response,584,838083,null,"",null,,,,,,,,,,,,,,,
math-period,585,839694,3116.60000000149,"",,,,,,,,,,,2,,,,,
html-keyboard-response,586,839806,null,"",null,,,,,,,,,,,,,,,
math-period,587,841071,2429.10000000149,"",,,,,,,,,,,5,,,,,
html-keyboard-response,588,841177,null,"",null,,,,,,,,,,,,,,,
math-period,589,842470,null,"",,,,,,,,,,,,,,,,
html-keyboard-response,590,843481,null,"Recall Period!",null,,,,,,,,,,,,,,,
call-function,591,843482,,"",,,,,,,,,,,,,,,,
html-keyboard-response,592,843583,null,"",null,,,,,,,,,,,,,,,
recall-period,593,847351,16849.70000000298,"",,,,,,,,,,,pump,,,,,
html-keyboard-response,594,847463,null,"",null,,,,,,,,,,,,,,,
recall-period,595,860457,98625.59999998659,"",,,,,,,,,,,address,,,,,
html-keyboard-response,596,860571,null,"",null,,,,,,,,,,,,,,,
recall-period,597,873875,113252.4999999851,"",,,,,,,,,,,shoulder,,,,,
html-keyboard-response,598,873982,null,"",null,,,,,,,,,,,,,,,
recall-period,599,918484,null,"",,,,,,,,,,,,,,,,
html-keyboard-response,600,918995,null,"Time's Up!",null,,,,,,,,,,,,,,,
html-keyboard-response,601,921308,2311.39999999851,"<p> Good job! You have responded correctly to 99% of the trials. </p>
                      <p>Be sure to only press the spacebar if you see a red square, and please keep your accuracy above 80%.</p>
                      <p> Press any key to continue the experiment. </p>",32,,,,,,,,,,,,,,,
html-keyboard-response,602,921771,462.29999999701977,"<div style=""font-size:48px;"">Press any key to begin list 6 of 16 </div>",32,,,,,,,,,,,,,,,
html-keyboard-response,603,924291,null,"<div style=""font-size:60px;"">+</div>",null,,,,,,,,,,,,,,,
html-keyboard-response,604,924495,null,"<div style=""font-size:42px;"">SOFTBALL</div><img id = ""stim"" ><div class = red_square id = bottomsquare></div>",null,encoding,word_square,,,1,bottomsquare,32,true,,,SOFTBALL,5,,,
html-keyboard-response,605,924807,null,"<div style=""font-size:42px;"">SOFTBALL</div>",null,,word,SOFTBALL,,,,,,,,,,,,
html-keyboard-response,606,926318,330.20000000298023,"",32,,word,SOFTBALL,,,,,,,,,,,,
html-keyboard-response,607,926534,null,"<div style=""font-size:42px;"">PECAN</div><img id = ""stim"" ><div class = green_square id = topsquare></div>",null,encoding,word_square,,,0,topsquare,none,true,,,PECAN,5,,,
html-keyboard-response,608,926846,null,"<div style=""font-size:42px;"">PECAN</div>",null,,word,PECAN,,,,,,,,,,,,
html-keyboard-response,609,928357,null,"",null,,word,PECAN,,,,,,,,,,,,
html-keyboard-response,610,928574,null,"<div style=""font-size:42px;"">PEACH</div><img id = ""stim"" ><div class = green_square id = bottomsquare></div>",null,encoding,word_square,,,0,bottomsquare,none,true,,,PEACH,5,,,
html-keyboard-response,611,928885,null,"<div style=""font-size:42px;"">PEACH</div>",null,,word,PEACH,,,,,,,,,,,,
html-keyboard-response,612,930387,null,"",null,,word,PEACH,,,,,,,,,,,,
html-keyboard-response,613,930589,null,"<div style=""font-size:42px;"">TURKEY</div><img id = ""stim"" ><div class = red_square id = topsquare></div>",null,encoding,word_square,,,1,topsquare,32,true,,,TURKEY,5,,,
html-keyboard-response,614,930901,null,"<div style=""font-size:42px;"">TURKEY</div>",null,,word,TURKEY,,,,,,,,,,,,
html-keyboard-response,615,932412,141.89999999850988,"",32,,word,TURKEY,,,,,,,,,,,,
html-keyboard-response,616,932629,null,"<div style=""font-size:42px;"">CREEK</div><img id = ""stim"" ><div class = green_square id = topsquare></div>",null,encoding,word_square,,,0,topsquare,none,true,,,CREEK,5,,,
html-keyboard-response,617,932937,null,"<div style=""font-size:42px;"">CREEK</div>",null,,word,CREEK,,,,,,,,,,,,
html-keyboard-response,618,934449,null,"",null,,word,CREEK,,,,,,,,,,,,
html-keyboard-response,619,934667,null,"<div style=""font-size:42px;"">THIMBLE</div><img id = ""stim"" ><div class = red_square id = bottomsquare></div>",null,encoding,word_square,,,1,bottomsquare,32,true,,,THIMBLE,5,,,
html-keyboard-response,620,934977,201.10000000149012,"<div style=""font-size:42px;"">THIMBLE</div>",32,,word,THIMBLE,,,,,,,,,,,,
html-keyboard-response,621,936483,null,"",null,,word,THIMBLE,,,,,,,,,,,,
html-keyboard-response,622,936686,null,"<div style=""font-size:42px;"">PUDDLE</div><img id = ""stim"" ><div class = red_square id = topsquare></div>",null,encoding,word_square,,,1,topsquare,32,true,,,PUDDLE,5,,,
html-keyboard-response,623,936995,253.60000000149012,"<div style=""font-size:42px;"">PUDDLE</div>",32,,word,PUDDLE,,,,,,,,,,,,
html-keyboard-response,624,938509,null,"",null,,word,PUDDLE,,,,,,,,,,,,
html-keyboard-response,625,938726,null,"<div style=""font-size:42px;"">NOMAD</div><img id = ""stim"" ><div class = green_square id = bottomsquare></div>",null,encoding,word_square,,,0,bottomsquare,none,true,,,NOMAD,5,,,
html-keyboard-response,626,939035,null,"<div style=""font-size:42px;"">NOMAD</div>",null,,word,NOMAD,,,,,,,,,,,,
html-keyboard-response,627,940545,null,"",null,,word,NOMAD,,,,,,,,,,,,
html-keyboard-response,628,940763,null,"<div style=""font-size:42px;"">PLANET</div><img id = ""stim"" ><div class = green_square id = topsquare></div>",null,encoding,word_square,,,0,topsquare,none,true,,,PLANET,5,,,
html-keyboard-response,629,941073,null,"<div style=""font-size:42px;"">PLANET</div>",null,,word,PLANET,,,,,,,,,,,,
html-keyboard-response,630,942579,null,"",null,,word,PLANET,,,,,,,,,,,,
html-keyboard-response,631,942782,null,"<div style=""font-size:42px;"">RACKET</div><img id = ""stim"" ><div class = red_square id = bottomsquare></div>",null,encoding,word_square,,,1,bottomsquare,32,true,,,RACKET,5,,,
html-keyboard-response,632,943095,198.30000000447035,"<div style=""font-size:42px;"">RACKET</div>",32,,word,RACKET,,,,,,,,,,,,
html-keyboard-response,633,944608,null,"",null,,word,RACKET,,,,,,,,,,,,
html-keyboard-response,634,944810,null,"<div style=""font-size:42px;"">TRUMPET</div><img id = ""stim"" ><div class = green_square id = bottomsquare></div>",null,encoding,word_square,,,0,bottomsquare,none,true,,,TRUMPET,5,,,
html-keyboard-response,635,945123,null,"<div style=""font-size:42px;"">TRUMPET</div>",null,,word,TRUMPET,,,,,,,,,,,,
html-keyboard-response,636,946638,null,"",null,,word,TRUMPET,,,,,,,,,,,,
html-keyboard-response,637,946855,null,"<div style=""font-size:42px;"">SKIRT</div><img id = ""stim"" ><div class = red_square id = topsquare></div>",null,encoding,word_square,,,1,topsquare,32,true,,,SKIRT,5,,,
html-keyboard-response,638,947166,270.40000000596046,"<div style=""font-size:42px;"">SKIRT</div>",32,,word,SKIRT,,,,,,,,,,,,
html-keyboard-response,639,948670,null,"",null,,word,SKIRT,,,,,,,,,,,,
html-keyboard-response,640,948876,null,"<div style=""font-size:42px;"">RIBBON</div><img id = ""stim"" ><div class = green_square id = topsquare></div>",null,encoding,word_square,,,0,topsquare,none,true,,,RIBBON,5,,,
html-keyboard-response,641,949187,null,"<div style=""font-size:42px;"">RIBBON</div>",null,,word,RIBBON,,,,,,,,,,,,
html-keyboard-response,642,950693,null,"",null,,word,RIBBON,,,,,,,,,,,,
html-keyboard-response,643,950910,null,"<div style=""font-size:42px;"">MATCH</div><img id = ""stim"" ><div class = green_square id = bottomsquare></div>",null,encoding,word_square,,,0,bottomsquare,none,true,,,MATCH,5,,,
html-keyboard-response,644,951220,null,"<div style=""font-size:42px;"">MATCH</div>",null,,word,MATCH,,,,,,,,,,,,
html-keyboard-response,645,952731,null,"",null,,word,MATCH,,,,,,,,,,,,
html-keyboard-response,646,952947,null,"<div style=""font-size:42px;"">TABLE</div><img id = ""stim"" ><div class = red_square id = bottomsquare></div>",null,encoding,word_square,,,1,bottomsquare,32,true,,,TABLE,5,,,
html-keyboard-response,647,953259,193.90000000596046,"<div style=""font-size:42px;"">TABLE</div>",32,,word,TABLE,,,,,,,,,,,,
html-keyboard-response,648,954770,null,"",null,,word,TABLE,,,,,,,,,,,,
html-keyboard-response,649,954986,null,"<div style=""font-size:42px;"">PADDING</div><img id = ""stim"" ><div class = red_square id = topsquare></div>",null,encoding,word_square,,,1,topsquare,32,true,,,PADDING,5,,,
html-keyboard-response,650,955297,null,"<div style=""font-size:42px;"">PADDING</div>",null,,word,PADDING,,,,,,,,,,,,
html-keyboard-response,651,956813,20.599999994039536,"",32,,word,PADDING,,,,,,,,,,,,
call-function,652,956814,,"",,,,,,,,,,,,,,,,
html-keyboard-response,653,956923,null,"",null,,,,,,,,,,,,,,,
math-period,654,959175,3615.9000000059605,"",,,,,,,,,,,4,,,,,
html-keyboard-response,655,959292,null,"",null,,,,,,,,,,,,,,,
math-period,656,961184,3638.4999999925494,"",,,,,,,,,,,2,,,,,
html-keyboard-response,657,961285,null,"",null,,,,,,,,,,,,,,,
math-period,658,962369,2011.5000000074506,"",,,,,,,,,,,4,,,,,
html-keyboard-response,659,962471,null,"",null,,,,,,,,,,,,,,,
math-period,660,963729,2417.10000000149,"",,,,,,,,,,,6,,,,,
html-keyboard-response,661,963830,null,"",null,,,,,,,,,,,,,,,
math-period,662,965401,3011.8000000044703,"",,,,,,,,,,,0,,,,,
html-keyboard-response,663,965505,null,"",null,,,,,,,,,,,,,,,
math-period,664,966976,2852.9999999925494,"",,,,,,,,,,,2,,,,,
html-keyboard-response,665,967082,null,"",null,,,,,,,,,,,,,,,
math-period,666,968400,2556.89999999851,"",,,,,,,,,,,4,,,,,
html-keyboard-response,667,968511,null,"",null,,,,,,,,,,,,,,,
math-period,668,970001,2888.6999999955297,"",,,,,,,,,,,2,,,,,
html-keyboard-response,669,970114,null,"",null,,,,,,,,,,,,,,,
math-period,670,971169,2011.2000000104308,"",,,,,,,,,,,2,,,,,
html-keyboard-response,671,971280,null,"",null,,,,,,,,,,,,,,,
math-period,672,972353,2079.5,"",,,,,,,,,,,6,,,,,
html-keyboard-response,673,972458,null,"",null,,,,,,,,,,,,,,,
math-period,674,973593,2188.89999999851,"",,,,,,,,,,,5,,,,,
html-keyboard-response,675,973696,null,"",null,,,,,,,,,,,,,,,
math-period,676,975098,2696.9000000059605,"",,,,,,,,,,,1,,,,,
html-keyboard-response,677,975210,null,"",null,,,,,,,,,,,,,,,
math-period,678,977537,4540.5999999940395,"",,,,,,,,,,,1,,,,,
html-keyboard-response,679,977643,null,"",null,,,,,,,,,,,,,,,
math-period,680,979778,4180.4000000059605,"",,,,,,,,,,,0,,,,,
html-keyboard-response,681,979886,null,"",null,,,,,,,,,,,,,,,
math-period,682,980816,null,"",,,,,,,,,,,,,,,,
html-keyboard-response,683,981830,null,"Recall Period!",null,,,,,,,,,,,,,,,
call-function,684,981830,,"",,,,,,,,,,,,,,,,
html-keyboard-response,685,981938,null,"",null,,,,,,,,,,,,,,,
recall-period,686,984099,10238.20000001043,"",,,,,,,,,,,pecan,,,,,
html-keyboard-response,687,984203,null,"",null,,,,,,,,,,,,,,,
recall-period,688,985699,5497.899999968708,"",,,,,,,,,,,peach,,,,,
html-keyboard-response,689,985807,null,"",null,,,,,,,,,,,,,,,
recall-period,690,993308,42033.4999999851,"",,,,,,,,,,,skirt,,,,,
html-keyboard-response,691,993410,null,"",null,,,,,,,,,,,,,,,
recall-period,692,1056836,null,"",,,,,,,,,,,,,,,,
html-keyboard-response,693,1057350,null,"Time's Up!",null,,,,,,,,,,,,,,,
html-keyboard-response,694,1059264,1912.1000000014901,"<p> Good job! You have responded correctly to 99% of the trials. </p>
                      <p>Be sure to only press the spacebar if you see a red square, and please keep your accuracy above 80%.</p>
                      <p> Press any key to continue the experiment. </p>",32,,,,,,,,,,,,,,,
html-keyboard-response,695,1062687,3421.8000000044703,"<div style=""font-size:48px;"">Press any key to begin list 7 of 16 </div>",32,,,,,,,,,,,,,,,
html-keyboard-response,696,1065192,null,"<div style=""font-size:60px;"">+</div>",null,,,,,,,,,,,,,,,
html-keyboard-response,697,1065397,null,"<div style=""font-size:42px;"">CLAMP</div><img id = ""stim"" ><div class = green_square id = bottomsquare></div>",null,encoding,word_square,,,0,bottomsquare,none,true,,,CLAMP,6,,,
html-keyboard-response,698,1065710,null,"<div style=""font-size:42px;"">CLAMP</div>",null,,word,CLAMP,,,,,,,,,,,,
html-keyboard-response,699,1067218,null,"",null,,word,CLAMP,,,,,,,,,,,,
html-keyboard-response,700,1067421,null,"<div style=""font-size:42px;"">TWEEZERS</div><img id = ""stim"" ><div class = green_square id = topsquare></div>",null,encoding,word_square,,,0,topsquare,none,true,,,TWEEZERS,6,,,
html-keyboard-response,701,1067733,null,"<div style=""font-size:42px;"">TWEEZERS</div>",null,,word,TWEEZERS,,,,,,,,,,,,
html-keyboard-response,702,1069243,null,"",null,,word,TWEEZERS,,,,,,,,,,,,
html-keyboard-response,703,1069445,null,"<div style=""font-size:42px;"">WRENCH</div><img id = ""stim"" ><div class = red_square id = topsquare></div>",null,encoding,word_square,,,1,topsquare,32,true,,,WRENCH,6,,,
html-keyboard-response,704,1069758,241.60000000149012,"<div style=""font-size:42px;"">WRENCH</div>",32,,word,WRENCH,,,,,,,,,,,,
html-keyboard-response,705,1071272,null,"",null,,word,WRENCH,,,,,,,,,,,,
html-keyboard-response,706,1071476,null,"<div style=""font-size:42px;"">SHOVEL</div><img id = ""stim"" ><div class = red_square id = bottomsquare></div>",null,encoding,word_square,,,1,bottomsquare,32,true,,,SHOVEL,6,,,
html-keyboard-response,707,1071792,227.09999999403954,"<div style=""font-size:42px;"">SHOVEL</div>",32,,word,SHOVEL,,,,,,,,,,,,
html-keyboard-response,708,1073309,null,"",null,,word,SHOVEL,,,,,,,,,,,,
html-keyboard-response,709,1073513,null,"<div style=""font-size:42px;"">PRIMATE</div><img id = ""stim"" ><div class = green_square id = bottomsquare></div>",null,encoding,word_square,,,0,bottomsquare,none,true,,,PRIMATE,6,,,
html-keyboard-response,710,1073824,null,"<div style=""font-size:42px;"">PRIMATE</div>",null,,word,PRIMATE,,,,,,,,,,,,
html-keyboard-response,711,1075329,null,"",null,,word,PRIMATE,,,,,,,,,,,,
html-keyboard-response,712,1075546,null,"<div style=""font-size:42px;"">DRILL</div><img id = ""stim"" ><div class = red_square id = topsquare></div>",null,encoding,word_square,,,1,topsquare,32,true,,,DRILL,6,,,
html-keyboard-response,713,1075856,221.40000000596046,"<div style=""font-size:42px;"">DRILL</div>",32,,word,DRILL,,,,,,,,,,,,
html-keyboard-response,714,1077366,null,"",null,,word,DRILL,,,,,,,,,,,,
html-keyboard-response,715,1077583,null,"<div style=""font-size:42px;"">ROOSTER</div><img id = ""stim"" ><div class = green_square id = topsquare></div>",null,encoding,word_square,,,0,topsquare,none,true,,,ROOSTER,6,,,
html-keyboard-response,716,1077895,null,"<div style=""font-size:42px;"">ROOSTER</div>",null,,word,ROOSTER,,,,,,,,,,,,
html-keyboard-response,717,1079398,null,"",null,,word,ROOSTER,,,,,,,,,,,,
html-keyboard-response,718,1079615,null,"<div style=""font-size:42px;"">CARPET</div><img id = ""stim"" ><div class = red_square id = bottomsquare></div>",null,encoding,word_square,,,1,bottomsquare,32,true,,,CARPET,6,,,
html-keyboard-response,719,1079930,280.6000000014901,"<div style=""font-size:42px;"">CARPET</div>",32,,word,CARPET,,,,,,,,,,,,
html-keyboard-response,720,1081436,null,"",null,,word,CARPET,,,,,,,,,,,,
html-keyboard-response,721,1081638,null,"<div style=""font-size:42px;"">MACHINE</div><img id = ""stim"" ><div class = red_square id = topsquare></div>",null,encoding,word_square,,,1,topsquare,32,true,,,MACHINE,6,,,
html-keyboard-response,722,1081950,null,"<div style=""font-size:42px;"">MACHINE</div>",null,,word,MACHINE,,,,,,,,,,,,
html-keyboard-response,723,1083455,1.6999999955296516,"",32,,word,MACHINE,,,,,,,,,,,,
html-keyboard-response,724,1083657,null,"<div style=""font-size:42px;"">POSSUM</div><img id = ""stim"" ><div class = green_square id = bottomsquare></div>",null,encoding,word_square,,,0,bottomsquare,none,true,,,POSSUM,6,,,
html-keyboard-response,725,1083968,null,"<div style=""font-size:42px;"">POSSUM</div>",null,,word,POSSUM,,,,,,,,,,,,
html-keyboard-response,726,1085472,null,"",null,,word,POSSUM,,,,,,,,,,,,
html-keyboard-response,727,1085689,null,"<div style=""font-size:42px;"">TROPHY</div><img id = ""stim"" ><div class = green_square id = topsquare></div>",null,encoding,word_square,,,0,topsquare,none,true,,,TROPHY,6,,,
html-keyboard-response,728,1085999,null,"<div style=""font-size:42px;"">TROPHY</div>",null,,word,TROPHY,,,,,,,,,,,,
html-keyboard-response,729,1087510,null,"",null,,word,TROPHY,,,,,,,,,,,,
html-keyboard-response,730,1087713,null,"<div style=""font-size:42px;"">UMPIRE</div><img id = ""stim"" ><div class = red_square id = bottomsquare></div>",null,encoding,word_square,,,1,bottomsquare,32,true,,,UMPIRE,6,,,
html-keyboard-response,731,1088023,184.29999999701977,"<div style=""font-size:42px;"">UMPIRE</div>",32,,word,UMPIRE,,,,,,,,,,,,
html-keyboard-response,732,1089532,null,"",null,,word,UMPIRE,,,,,,,,,,,,
html-keyboard-response,733,1089734,null,"<div style=""font-size:42px;"">STAKE</div><img id = ""stim"" ><div class = green_square id = bottomsquare></div>",null,encoding,word_square,,,0,bottomsquare,none,true,,,STAKE,6,,,
html-keyboard-response,734,1090045,null,"<div style=""font-size:42px;"">STAKE</div>",null,,word,STAKE,,,,,,,,,,,,
html-keyboard-response,735,1091553,null,"",null,,word,STAKE,,,,,,,,,,,,
html-keyboard-response,736,1091769,null,"<div style=""font-size:42px;"">BEAVER</div><img id = ""stim"" ><div class = red_square id = topsquare></div>",null,encoding,word_square,,,1,topsquare,32,true,,,BEAVER,6,,,
html-keyboard-response,737,1092080,217.60000000149012,"<div style=""font-size:42px;"">BEAVER</div>",32,,word,BEAVER,,,,,,,,,,,,
html-keyboard-response,738,1093591,null,"",null,,word,BEAVER,,,,,,,,,,,,
html-keyboard-response,739,1093794,null,"<div style=""font-size:42px;"">ROCKET</div><img id = ""stim"" ><div class = red_square id = bottomsquare></div>",null,encoding,word_square,,,1,bottomsquare,32,true,,,ROCKET,6,,,
html-keyboard-response,740,1094106,239.79999999701977,"<div style=""font-size:42px;"">ROCKET</div>",32,,word,ROCKET,,,,,,,,,,,,
html-keyboard-response,741,1095622,null,"",null,,word,ROCKET,,,,,,,,,,,,
html-keyboard-response,742,1095825,null,"<div style=""font-size:42px;"">SPACE</div><img id = ""stim"" ><div class = green_square id = topsquare></div>",null,encoding,word_square,,,0,topsquare,none,true,,,SPACE,6,,,
html-keyboard-response,743,1096138,null,"<div style=""font-size:42px;"">SPACE</div>",null,,word,SPACE,,,,,,,,,,,,
html-keyboard-response,744,1097652,null,"",null,,word,SPACE,,,,,,,,,,,,
call-function,745,1097653,,"",,,,,,,,,,,,,,,,
html-keyboard-response,746,1097760,null,"",null,,,,,,,,,,,,,,,
math-period,747,1100140,4349.79999999702,"",,,,,,,,,,,1,,,,,
html-keyboard-response,748,1100253,null,"",null,,,,,,,,,,,,,,,
math-period,749,1101700,2778.8999999910593,"",,,,,,,,,,,5,,,,,
html-keyboard-response,750,1101804,null,"",null,,,,,,,,,,,,,,,
math-period,751,1103444,3080.39999999851,"",,,,,,,,,,,5,,,,,
html-keyboard-response,752,1103548,null,"",null,,,,,,,,,,,,,,,
math-period,753,1104645,2055.7000000029802,"",,,,,,,,,,,2,,,,,
html-keyboard-response,754,1104746,null,"",null,,,,,,,,,,,,,,,
math-period,755,1105893,2194.700000010431,"",,,,,,,,,,,6,,,,,
html-keyboard-response,756,1106003,null,"",null,,,,,,,,,,,,,,,
math-period,757,1108213,4321.20000000298,"",,,,,,,,,,,4,,,,,
html-keyboard-response,758,1108322,null,"",null,,,,,,,,,,,,,,,
math-period,759,1109606,2468.300000011921,"",,,,,,,,,,,1,,,,,
html-keyboard-response,760,1109723,null,"",null,,,,,,,,,,,,,,,
math-period,761,1112070,4610.30000000447,"",,,,,,,,,,,2,,,,,
html-keyboard-response,762,1112184,null,"",null,,,,,,,,,,,,,,,
math-period,763,1113638,2809.89999999851,"",,,,,,,,,,,2,,,,,
html-keyboard-response,764,1113740,null,"",null,,,,,,,,,,,,,,,
math-period,765,1114982,2369.8000000044703,"",,,,,,,,,,,5,,,,,
html-keyboard-response,766,1115088,null,"",null,,,,,,,,,,,,,,,
math-period,767,1116046,1841.699999988079,"",,,,,,,,,,,3,,,,,
html-keyboard-response,768,1116153,null,"",null,,,,,,,,,,,,,,,
math-period,769,1117175,1969.6000000014901,"",,,,,,,,,,,6,,,,,
html-keyboard-response,770,1117278,null,"",null,,,,,,,,,,,,,,,
math-period,771,1118695,2743.8000000044703,"",,,,,,,,,,,4,,,,,
html-keyboard-response,772,1118809,null,"",null,,,,,,,,,,,,,,,
math-period,773,1120927,4065.2999999970198,"",,,,,,,,,,,4,,,,,
html-keyboard-response,774,1121039,null,"",null,,,,,,,,,,,,,,,
math-period,775,1121664,null,"",,,,,,,,,,,,,,,,
html-keyboard-response,776,1122680,null,"Recall Period!",null,,,,,,,,,,,,,,,
call-function,777,1122681,,"",,,,,,,,,,,,,,,,
html-keyboard-response,778,1122790,null,"",null,,,,,,,,,,,,,,,
recall-period,779,1125600,17570.100000023842,"",,,,,,,,,,,primate,,,,,
html-keyboard-response,780,1125710,null,"",null,,,,,,,,,,,,,,,
recall-period,781,1127088,5144.400000020862,"",,,,,,,,,,,rocket,,,,,
html-keyboard-response,782,1127204,null,"",null,,,,,,,,,,,,,,,
recall-period,783,1128968,6440.80000000447,"",,,,,,,,,,,space,,,,,
html-keyboard-response,784,1129074,null,"",null,,,,,,,,,,,,,,,
recall-period,785,1197684,null,"",,,,,,,,,,,,,,,,
html-keyboard-response,786,1198197,null,"Time's Up!",null,,,,,,,,,,,,,,,
html-keyboard-response,787,1199940,1741.7999999970198,"<p> Good job! You have responded correctly to 99% of the trials. </p>
                      <p>Be sure to only press the spacebar if you see a red square, and please keep your accuracy above 80%.</p>
                      <p> Press any key to continue the experiment. </p>",32,,,,,,,,,,,,,,,
html-keyboard-response,788,1200851,909.2000000029802,"<div style=""font-size:48px;"">Press any key to begin list 8 of 16 </div>",32,,,,,,,,,,,,,,,
html-keyboard-response,789,1203364,null,"<div style=""font-size:60px;"">+</div>",null,,,,,,,,,,,,,,,
html-keyboard-response,790,1203568,null,"<div style=""font-size:42px;"">BALLOON</div><img id = ""stim"" ><div class = green_square id = topsquare></div>",null,encoding,word_square,,,0,topsquare,none,true,,,BALLOON,7,,,
html-keyboard-response,791,1203877,null,"<div style=""font-size:42px;"">BALLOON</div>",null,,word,BALLOON,,,,,,,,,,,,
html-keyboard-response,792,1205391,null,"",null,,word,BALLOON,,,,,,,,,,,,
html-keyboard-response,793,1205609,null,"<div style=""font-size:42px;"">PRIEST</div><img id = ""stim"" ><div class = red_square id = bottomsquare></div>",null,encoding,word_square,,,1,bottomsquare,32,true,,,PRIEST,7,,,
html-keyboard-response,794,1205920,null,"<div style=""font-size:42px;"">PRIEST</div>",null,,word,PRIEST,,,,,,,,,,,,
html-keyboard-response,795,1207425,81.70000000298023,"",32,,word,PRIEST,,,,,,,,,,,,
html-keyboard-response,796,1207643,null,"<div style=""font-size:42px;"">COBWEB</div><img id = ""stim"" ><div class = red_square id = topsquare></div>",null,encoding,word_square,,,1,topsquare,32,true,,,COBWEB,7,,,
html-keyboard-response,797,1207954,207.09999999403954,"<div style=""font-size:42px;"">COBWEB</div>",32,,word,COBWEB,,,,,,,,,,,,
html-keyboard-response,798,1209459,null,"",null,,word,COBWEB,,,,,,,,,,,,
html-keyboard-response,799,1209676,null,"<div style=""font-size:42px;"">BRIEFCASE</div><img id = ""stim"" ><div class = green_square id = bottomsquare></div>",null,encoding,word_square,,,0,bottomsquare,none,true,,,BRIEFCASE,7,,,
html-keyboard-response,800,1209991,null,"<div style=""font-size:42px;"">BRIEFCASE</div>",null,,word,BRIEFCASE,,,,,,,,,,,,
html-keyboard-response,801,1211493,null,"",null,,word,BRIEFCASE,,,,,,,,,,,,
html-keyboard-response,802,1211697,null,"<div style=""font-size:42px;"">TROMBONE</div><img id = ""stim"" ><div class = red_square id = bottomsquare></div>",null,encoding,word_square,,,1,bottomsquare,32,true,,,TROMBONE,7,,,
html-keyboard-response,803,1212007,291.5,"<div style=""font-size:42px;"">TROMBONE</div>",32,,word,TROMBONE,,,,,,,,,,,,
html-keyboard-response,804,1213518,null,"",null,,word,TROMBONE,,,,,,,,,,,,
html-keyboard-response,805,1213722,null,"<div style=""font-size:42px;"">MILK</div><img id = ""stim"" ><div class = green_square id = topsquare></div>",null,encoding,word_square,,,0,topsquare,none,true,,,MILK,7,,,
html-keyboard-response,806,1214029,null,"<div style=""font-size:42px;"">MILK</div>",null,,word,MILK,,,,,,,,,,,,
html-keyboard-response,807,1215546,null,"",null,,word,MILK,,,,,,,,,,,,
html-keyboard-response,808,1215749,null,"<div style=""font-size:42px;"">BEEF</div><img id = ""stim"" ><div class = green_square id = bottomsquare></div>",null,encoding,word_square,,,0,bottomsquare,none,true,,,BEEF,7,,,
html-keyboard-response,809,1216060,null,"<div style=""font-size:42px;"">BEEF</div>",null,,word,BEEF,,,,,,,,,,,,
html-keyboard-response,810,1217569,null,"",null,,word,BEEF,,,,,,,,,,,,
html-keyboard-response,811,1217785,null,"<div style=""font-size:42px;"">ARM</div><img id = ""stim"" ><div class = red_square id = topsquare></div>",null,encoding,word_square,,,1,topsquare,32,true,,,ARM,7,,,
html-keyboard-response,812,1218096,202.69999999552965,"<div style=""font-size:42px;"">ARM</div>",32,,word,ARM,,,,,,,,,,,,
html-keyboard-response,813,1219606,null,"",null,,word,ARM,,,,,,,,,,,,
html-keyboard-response,814,1219809,null,"<div style=""font-size:42px;"">CRUTCH</div><img id = ""stim"" ><div class = red_square id = bottomsquare></div>",null,encoding,word_square,,,1,bottomsquare,32,true,,,CRUTCH,7,,,
html-keyboard-response,815,1220119,267.20000000298023,"<div style=""font-size:42px;"">CRUTCH</div>",32,,word,CRUTCH,,,,,,,,,,,,
html-keyboard-response,816,1221624,null,"",null,,word,CRUTCH,,,,,,,,,,,,
html-keyboard-response,817,1221841,null,"<div style=""font-size:42px;"">FIREPLACE</div><img id = ""stim"" ><div class = green_square id = topsquare></div>",null,encoding,word_square,,,0,topsquare,none,true,,,FIREPLACE,7,,,
html-keyboard-response,818,1222150,null,"<div style=""font-size:42px;"">FIREPLACE</div>",null,,word,FIREPLACE,,,,,,,,,,,,
html-keyboard-response,819,1223660,null,"",null,,word,FIREPLACE,,,,,,,,,,,,
html-keyboard-response,820,1223866,null,"<div style=""font-size:42px;"">PANTHER</div><img id = ""stim"" ><div class = red_square id = topsquare></div>",null,encoding,word_square,,,1,topsquare,32,true,,,PANTHER,7,,,
html-keyboard-response,821,1224177,155.39999999850988,"<div style=""font-size:42px;"">PANTHER</div>",32,,word,PANTHER,,,,,,,,,,,,
html-keyboard-response,822,1225684,null,"",null,,word,PANTHER,,,,,,,,,,,,
html-keyboard-response,823,1225887,null,"<div style=""font-size:42px;"">CACTUS</div><img id = ""stim"" ><div class = green_square id = bottomsquare></div>",null,encoding,word_square,,,0,bottomsquare,none,true,,,CACTUS,7,,,
html-keyboard-response,824,1226199,null,"<div style=""font-size:42px;"">CACTUS</div>",null,,word,CACTUS,,,,,,,,,,,,
html-keyboard-response,825,1227712,null,"",null,,word,CACTUS,,,,,,,,,,,,
html-keyboard-response,826,1227919,null,"<div style=""font-size:42px;"">CARRIAGE</div><img id = ""stim"" ><div class = red_square id = bottomsquare></div>",null,encoding,word_square,,,1,bottomsquare,32,true,,,CARRIAGE,7,,,
html-keyboard-response,827,1228231,246.5,"<div style=""font-size:42px;"">CARRIAGE</div>",32,,word,CARRIAGE,,,,,,,,,,,,
html-keyboard-response,828,1229744,null,"",null,,word,CARRIAGE,,,,,,,,,,,,
html-keyboard-response,829,1229947,null,"<div style=""font-size:42px;"">OZONE</div><img id = ""stim"" ><div class = red_square id = topsquare></div>",null,encoding,word_square,,,1,topsquare,32,true,,,OZONE,7,,,
html-keyboard-response,830,1230257,227.20000000298023,"<div style=""font-size:42px;"">OZONE</div>",32,,word,OZONE,,,,,,,,,,,,
html-keyboard-response,831,1231766,null,"",null,,word,OZONE,,,,,,,,,,,,
html-keyboard-response,832,1231982,null,"<div style=""font-size:42px;"">LAUNDRY</div><img id = ""stim"" ><div class = green_square id = topsquare></div>",null,encoding,word_square,,,0,topsquare,none,true,,,LAUNDRY,7,,,
html-keyboard-response,833,1232295,null,"<div style=""font-size:42px;"">LAUNDRY</div>",null,,word,LAUNDRY,,,,,,,,,,,,
html-keyboard-response,834,1233805,null,"",null,,word,LAUNDRY,,,,,,,,,,,,
html-keyboard-response,835,1234022,null,"<div style=""font-size:42px;"">HORSE</div><img id = ""stim"" ><div class = green_square id = bottomsquare></div>",null,encoding,word_square,,,0,bottomsquare,none,true,,,HORSE,7,,,
html-keyboard-response,836,1234334,null,"<div style=""font-size:42px;"">HORSE</div>",null,,word,HORSE,,,,,,,,,,,,
html-keyboard-response,837,1235841,null,"",null,,word,HORSE,,,,,,,,,,,,
call-function,838,1235841,,"",,,,,,,,,,,,,,,,
html-keyboard-response,839,1235942,null,"",null,,,,,,,,,,,,,,,
math-period,840,1241057,47512.10000003129,"",,,,,,,,,,,4,,,,,
html-keyboard-response,841,1241165,null,"",null,,,,,,,,,,,,,,,
math-period,842,1242745,3052.0000000074506,"",,,,,,,,,,,2,,,,,
html-keyboard-response,843,1242849,null,"",null,,,,,,,,,,,,,,,
math-period,844,1243993,2204.7000000029802,"",,,,,,,,,,,5,,,,,
html-keyboard-response,845,1244102,null,"",null,,,,,,,,,,,,,,,
math-period,846,1245433,2564.199999988079,"",,,,,,,,,,,5,,,,,
html-keyboard-response,847,1245536,null,"",null,,,,,,,,,,,,,,,
math-period,848,1247682,4088.60000000149,"",,,,,,,,,,,1,,,,,
html-keyboard-response,849,1247792,null,"",null,,,,,,,,,,,,,,,
math-period,850,1249554,3402.299999989569,"",,,,,,,,,,,2,,,,,
html-keyboard-response,851,1249661,null,"",null,,,,,,,,,,,,,,,
math-period,852,1250746,2104.5,"",,,,,,,,,,,4,,,,,
html-keyboard-response,853,1250848,null,"",null,,,,,,,,,,,,,,,
math-period,854,1251794,1801.1000000089407,"",,,,,,,,,,,3,,,,,
html-keyboard-response,855,1251901,null,"",null,,,,,,,,,,,,,,,
math-period,856,1252674,1464.5999999940395,"",,,,,,,,,,,3,,,,,
html-keyboard-response,857,1252778,null,"",null,,,,,,,,,,,,,,,
math-period,858,1254035,2414.2999999970198,"",,,,,,,,,,,5,,,,,
html-keyboard-response,859,1254142,null,"",null,,,,,,,,,,,,,,,
math-period,860,1255107,1838.7999999970198,"",,,,,,,,,,,5,,,,,
html-keyboard-response,861,1255210,null,"",null,,,,,,,,,,,,,,,
math-period,862,1255835,1143.4000000059605,"",,,,,,,,,,,5,,,,,
html-keyboard-response,863,1255938,null,"",null,,,,,,,,,,,,,,,
math-period,864,1257555,3119.2000000029802,"",,,,,,,,,,,1,,,,,
html-keyboard-response,865,1257657,null,"",null,,,,,,,,,,,,,,,
math-period,866,1259091,2778,"",,,,,,,,,,,5,,,,,
html-keyboard-response,867,1259199,null,"",null,,,,,,,,,,,,,,,
math-period,868,1259854,null,"",,,,,,,,,,,,,,,,
html-keyboard-response,869,1260870,null,"Recall Period!",null,,,,,,,,,,,,,,,
call-function,870,1260871,,"",,,,,,,,,,,,,,,,
html-keyboard-response,871,1260979,null,"",null,,,,,,,,,,,,,,,
recall-period,872,1263267,11601.79999999702,"",,,,,,,,,,,laundry,,,,,
html-keyboard-response,873,1263372,null,"",null,,,,,,,,,,,,,,,
recall-period,874,1264628,5099.0999999940395,"",,,,,,,,,,,horse,,,,,
html-keyboard-response,875,1264742,null,"",null,,,,,,,,,,,,,,,
recall-period,876,1335875,null,"",,,,,,,,,,,,,,,,
html-keyboard-response,877,1336379,null,"Time's Up!",null,,,,,,,,,,,,,,,
html-keyboard-response,878,1337550,1169.8000000044703,"<p> Good job! You have responded correctly to 99% of the trials. </p>
                      <p>Be sure to only press the spacebar if you see a red square, and please keep your accuracy above 80%.</p>
                      <p> Press any key to continue the experiment. </p>",32,,,,,,,,,,,,,,,
html-keyboard-response,879,1338440,888.3000000044703,"<div style=""font-size:48px;"">Press any key to begin list 9 of 16 </div>",32,,,,,,,,,,,,,,,
html-keyboard-response,880,1340956,null,"<div style=""font-size:60px;"">+</div>",null,,,,,,,,,,,,,,,
html-keyboard-response,881,1341159,null,"<div style=""font-size:42px;"">KEYBOARD</div><img id = ""stim"" ><div class = red_square id = topsquare></div>",null,encoding,word_square,,,1,topsquare,32,true,,,KEYBOARD,8,,,
html-keyboard-response,882,1341473,null,"<div style=""font-size:42px;"">KEYBOARD</div>",null,,word,KEYBOARD,,,,,,,,,,,,
html-keyboard-response,883,1342987,101.70000000298023,"",32,,word,KEYBOARD,,,,,,,,,,,,
html-keyboard-response,884,1343204,null,"<div style=""font-size:42px;"">MARKET</div><img id = ""stim"" ><div class = green_square id = bottomsquare></div>",null,encoding,word_square,,,0,bottomsquare,none,true,,,MARKET,8,,,
html-keyboard-response,885,1343519,null,"<div style=""font-size:42px;"">MARKET</div>",null,,word,MARKET,,,,,,,,,,,,
html-keyboard-response,886,1345036,null,"",null,,word,MARKET,,,,,,,,,,,,
html-keyboard-response,887,1345238,null,"<div style=""font-size:42px;"">COOKBOOK</div><img id = ""stim"" ><div class = green_square id = topsquare></div>",null,encoding,word_square,,,0,topsquare,none,true,,,COOKBOOK,8,,,
html-keyboard-response,888,1345548,null,"<div style=""font-size:42px;"">COOKBOOK</div>",null,,word,COOKBOOK,,,,,,,,,,,,
html-keyboard-response,889,1347065,null,"",null,,word,COOKBOOK,,,,,,,,,,,,
html-keyboard-response,890,1347269,null,"<div style=""font-size:42px;"">MAJOR</div><img id = ""stim"" ><div class = red_square id = bottomsquare></div>",null,encoding,word_square,,,1,bottomsquare,32,true,,,MAJOR,8,,,
html-keyboard-response,891,1347578,265.6000000014901,"<div style=""font-size:42px;"">MAJOR</div>",32,,word,MAJOR,,,,,,,,,,,,
html-keyboard-response,892,1349084,null,"",null,,word,MAJOR,,,,,,,,,,,,
html-keyboard-response,893,1349299,null,"<div style=""font-size:42px;"">CATCHER</div><img id = ""stim"" ><div class = red_square id = topsquare></div>",null,encoding,word_square,,,1,topsquare,32,true,,,CATCHER,8,,,
html-keyboard-response,894,1349612,181.10000000149012,"<div style=""font-size:42px;"">CATCHER</div>",32,,word,CATCHER,,,,,,,,,,,,
html-keyboard-response,895,1351126,null,"",null,,word,CATCHER,,,,,,,,,,,,
html-keyboard-response,896,1351328,null,"<div style=""font-size:42px;"">MONKEY</div><img id = ""stim"" ><div class = red_square id = bottomsquare></div>",null,encoding,word_square,,,1,bottomsquare,32,true,,,MONKEY,8,,,
html-keyboard-response,897,1351639,199.30000000447035,"<div style=""font-size:42px;"">MONKEY</div>",32,,word,MONKEY,,,,,,,,,,,,
html-keyboard-response,898,1353146,null,"",null,,word,MONKEY,,,,,,,,,,,,
html-keyboard-response,899,1353349,null,"<div style=""font-size:42px;"">ATHLETE</div><img id = ""stim"" ><div class = red_square id = topsquare></div>",null,encoding,word_square,,,1,topsquare,32,true,,,ATHLETE,8,,,
html-keyboard-response,900,1353658,186.89999999850988,"<div style=""font-size:42px;"">ATHLETE</div>",32,,word,ATHLETE,,,,,,,,,,,,
html-keyboard-response,901,1355168,null,"",null,,word,ATHLETE,,,,,,,,,,,,
html-keyboard-response,902,1355371,null,"<div style=""font-size:42px;"">MEAT</div><img id = ""stim"" ><div class = green_square id = bottomsquare></div>",null,encoding,word_square,,,0,bottomsquare,none,true,,,MEAT,8,,,
html-keyboard-response,903,1355684,null,"<div style=""font-size:42px;"">MEAT</div>",null,,word,MEAT,,,,,,,,,,,,
html-keyboard-response,904,1357195,null,"",null,,word,MEAT,,,,,,,,,,,,
html-keyboard-response,905,1357397,null,"<div style=""font-size:42px;"">CUSTARD</div><img id = ""stim"" ><div class = red_square id = bottomsquare></div>",null,encoding,word_square,,,1,bottomsquare,32,true,,,CUSTARD,8,,,
html-keyboard-response,906,1357708,211.09999999403954,"<div style=""font-size:42px;"">CUSTARD</div>",32,,word,CUSTARD,,,,,,,,,,,,
html-keyboard-response,907,1359219,null,"",null,,word,CUSTARD,,,,,,,,,,,,
