trial_type,trial_index,time_elapsed,rt,stimulus,key_press,exp_phase,test_part,word,task,targ_cond,sq_pos,correctKeyCode,correct,value,response,Word,List,RecResp,serial_pos,colorChosen
pavlovia,0,2809,,"",,,,,,,,,,,,,,,,
external-html,1,1414549,1411571.1999999285,"",,,,,,,,,,,,,,,,
html-keyboard-response,2,1416157,1599.1000000238419,"Welcome to the experiment. Press any key to begin.",32,,,,,,,,,,,,,,,
html-keyboard-response,3,1489229,73069.5,"<p>You will see a list of words and colored squares in the following task.<p><p>Press the spacebar whenever you see a red square.<p><p>Do not press a key if the square is green.<p><p>Press the spacebar to continue.</p>",32,,,,,,,,,,,,,,,
html-keyboard-response,4,1496560,6817.700000047684,"<p>Please try to remember as many of the words as you can, and try to think about the meaning of each word as it appears.<p><p>After the detection and encoding task you will be asked to solve some math problems for 24 seconds.<p> Please solve as many problems as you can in the time given. <p><p><p>Press the spacebar to continue.</p>",32,,,,,,,,,,,,,,,
html-keyboard-response,5,1550043,52967.199999928474,"After solving the math problems, you will be asked to type in as many words <p>from the previous list as you can remember for 75 seconds.<p> If you finish recalling before the 75 seconds are up,<p> just sit tight and try to think of any more words you could have missed. <p><p><p>Press the spacebar to continue.</p>",32,,,,,,,,,,,,,,,
html-keyboard-response,6,1554762,4202.700000047684,"There will be 16 lists of words and recall, followed  by<p><p> a recognition phase. The experiment is expected to take up to 90 minutes.<p>We will begin with a brief practice session.<p>Press the spacebar to begin the practice.</p>",32,,,,,,,,,,,,,,,
html-keyboard-response,7,1557273,null,"<div style=""font-size:60px;"">+</div>",null,,,,,,,,,,,,,,,
html-keyboard-response,8,1557493,null,"<div style=""font-size:42px;"">HAPPY</div><img id = ""stim"" ><div class = green_square id = ""bottomsquare"" ></div>",null,practice,word_square,HAPPY,prac_response,0,Bottom,none,true,,,,,,,
html-keyboard-response,9,1557796,null,"<div style=""font-size:42px;"">HAPPY</div>",null,,word,HAPPY,,,,,,,,,,,,
html-keyboard-response,10,1559301,null,"",null,,word,HAPPY,,,,,,,,,,,,
html-keyboard-response,11,1559519,null,"<div style=""font-size:42px;"">COLD</div><img id = ""stim"" ><div class = red_square id = ""bottomsquare"" ></div>",null,practice,word_square,COLD,prac_response,1,Bottom,32,true,,,,,,,
html-keyboard-response,12,1559827,167.5,"<div style=""font-size:42px;"">COLD</div>",32,,word,COLD,,,,,,,,,,,,
html-keyboard-response,13,1561330,null,"",null,,word,COLD,,,,,,,,,,,,
html-keyboard-response,14,1561547,null,"<div style=""font-size:42px;"">HEAVY</div><img id = ""stim"" ><div class = red_square id = ""topsquare"" ></div>",null,practice,word_square,HEAVY,prac_response,1,Top,32,true,,,,,,,
html-keyboard-response,15,1561858,125.90000009536743,"<div style=""font-size:42px;"">HEAVY</div>",32,,word,HEAVY,,,,,,,,,,,,
html-keyboard-response,16,1563373,null,"",null,,word,HEAVY,,,,,,,,,,,,
html-keyboard-response,17,1563579,null,"<div style=""font-size:42px;"">FUNNY</div><img id = ""stim"" ><div class = green_square id = ""topsquare"" ></div>",null,practice,word_square,FUNNY,prac_response,0,Top,none,false,,,,,,,
html-keyboard-response,18,1563889,91.5,"<div style=""font-size:42px;"">FUNNY</div>",32,,word,FUNNY,,,,,,,,,,,,
html-keyboard-response,19,1565399,null,"",null,,word,FUNNY,,,,,,,,,,,,
html-keyboard-response,20,1565612,null,"<div style=""font-size:42px;"">SCARY</div><img id = ""stim"" ><div class = red_square id = ""bottomsquare"" ></div>",null,practice,word_square,SCARY,prac_response,1,Bottom,32,true,,,,,,,
html-keyboard-response,21,1565918,212,"<div style=""font-size:42px;"">SCARY</div>",32,,word,SCARY,,,,,,,,,,,,
html-keyboard-response,22,1567437,null,"",null,,word,SCARY,,,,,,,,,,,,
html-keyboard-response,23,1567642,null,"<div style=""font-size:42px;"">PEACEFUL</div><img id = ""stim"" ><div class = red_square id = ""topsquare"" ></div>",null,practice,word_square,PEACEFUL,prac_response,1,Top,32,true,,,,,,,
html-keyboard-response,24,1567951,59.799999952316284,"<div style=""font-size:42px;"">PEACEFUL</div>",32,,word,PEACEFUL,,,,,,,,,,,,
html-keyboard-response,25,1569456,null,"",null,,word,PEACEFUL,,,,,,,,,,,,
html-keyboard-response,26,1569671,null,"<div style=""font-size:42px;"">LITTLE</div><img id = ""stim"" ><div class = green_square id = ""bottomsquare"" ></div>",null,practice,word_square,LITTLE,prac_response,0,Bottom,none,false,,,,,,,
html-keyboard-response,27,1569983,150.60000002384186,"<div style=""font-size:42px;"">LITTLE</div>",32,,word,LITTLE,,,,,,,,,,,,
html-keyboard-response,28,1571495,null,"",null,,word,LITTLE,,,,,,,,,,,,
html-keyboard-response,29,1571704,null,"<div style=""font-size:42px;"">TIRED</div><img id = ""stim"" ><div class = green_square id = ""topsquare"" ></div>",null,practice,word_square,TIRED,prac_response,0,Top,none,true,,,,,,,
html-keyboard-response,30,1572014,null,"<div style=""font-size:42px;"">TIRED</div>",null,,word,TIRED,,,,,,,,,,,,
html-keyboard-response,31,1573524,null,"",null,,word,TIRED,,,,,,,,,,,,
html-keyboard-response,32,1573735,null,"<div style=""font-size:42px;"">ENTERTAINING</div><img id = ""stim"" ><div class = green_square id = ""bottomsquare"" ></div>",null,practice,word_square,ENTERTAINING,prac_response,0,Bottom,none,true,,,,,,,
html-keyboard-response,33,1574045,null,"<div style=""font-size:42px;"">ENTERTAINING</div>",null,,word,ENTERTAINING,,,,,,,,,,,,
html-keyboard-response,34,1575556,null,"",null,,word,ENTERTAINING,,,,,,,,,,,,
html-keyboard-response,35,1575768,null,"<div style=""font-size:42px;"">GRATEFUL</div><img id = ""stim"" ><div class = red_square id = ""bottomsquare"" ></div>",null,practice,word_square,GRATEFUL,prac_response,1,Bottom,32,true,,,,,,,
html-keyboard-response,36,1576076,125.89999997615814,"<div style=""font-size:42px;"">GRATEFUL</div>",32,,word,GRATEFUL,,,,,,,,,,,,
html-keyboard-response,37,1577587,null,"",null,,word,GRATEFUL,,,,,,,,,,,,
html-keyboard-response,38,1577799,null,"<div style=""font-size:42px;"">LOUD</div><img id = ""stim"" ><div class = green_square id = ""topsquare"" ></div>",null,practice,word_square,LOUD,prac_response,0,Top,none,true,,,,,,,
html-keyboard-response,39,1578107,null,"<div style=""font-size:42px;"">LOUD</div>",null,,word,LOUD,,,,,,,,,,,,
html-keyboard-response,40,1579613,null,"",null,,word,LOUD,,,,,,,,,,,,
html-keyboard-response,41,1579828,null,"<div style=""font-size:42px;"">SMART</div><img id = ""stim"" ><div class = red_square id = ""topsquare"" ></div>",null,practice,word_square,SMART,prac_response,1,Top,32,true,,,,,,,
html-keyboard-response,42,1580138,148.5,"<div style=""font-size:42px;"">SMART</div>",32,,word,SMART,,,,,,,,,,,,
html-keyboard-response,43,1581650,null,"",null,,word,SMART,,,,,,,,,,,,
html-keyboard-response,44,1581862,null,"<div style=""font-size:42px;"">SMOOTH</div><img id = ""stim"" ><div class = red_square id = ""bottomsquare"" ></div>",null,practice,word_square,SMOOTH,prac_response,1,Bottom,32,true,,,,,,,
html-keyboard-response,45,1582170,128.39999997615814,"<div style=""font-size:42px;"">SMOOTH</div>",32,,word,SMOOTH,,,,,,,,,,,,
html-keyboard-response,46,1583684,null,"",null,,word,SMOOTH,,,,,,,,,,,,
html-keyboard-response,47,1583893,null,"<div style=""font-size:42px;"">DISHONEST</div><img id = ""stim"" ><div class = green_square id = ""bottomsquare"" ></div>",null,practice,word_square,DISHONEST,prac_response,0,Bottom,none,false,,,,,,,
html-keyboard-response,48,1584202,97.5,"<div style=""font-size:42px;"">DISHONEST</div>",32,,word,DISHONEST,,,,,,,,,,,,
html-keyboard-response,49,1585716,null,"",null,,word,DISHONEST,,,,,,,,,,,,
html-keyboard-response,50,1585925,null,"<div style=""font-size:42px;"">WEALTHY</div><img id = ""stim"" ><div class = red_square id = ""topsquare"" ></div>",null,practice,word_square,WEALTHY,prac_response,1,Top,32,true,,,,,,,
html-keyboard-response,51,1586233,81.79999995231628,"<div style=""font-size:42px;"">WEALTHY</div>",32,,word,WEALTHY,,,,,,,,,,,,
html-keyboard-response,52,1587745,null,"",null,,word,WEALTHY,,,,,,,,,,,,
html-keyboard-response,53,1587955,null,"<div style=""font-size:42px;"">BEAUTIFUL</div><img id = ""stim"" ><div class = green_square id = ""topsquare"" ></div>",null,practice,word_square,BEAUTIFUL,prac_response,0,Top,none,false,,,,,,,
html-keyboard-response,54,1588263,116.90000009536743,"<div style=""font-size:42px;"">BEAUTIFUL</div>",32,,word,BEAUTIFUL,,,,,,,,,,,,
html-keyboard-response,55,1589774,null,"",null,,word,BEAUTIFUL,,,,,,,,,,,,
html-keyboard-response,56,1617862,28085.5,"<p> Uh oh. You responded correctly to only 75% of the trials. </p>
                  <p>Be sure to only press the spacebar if you see a red square, and please keep your accuracy above 80%.</p>
                  <p>We're going to try once more to make sure you understand the task. press any key to continue.</p>",32,,,,,,,,,,,,,,,
html-keyboard-response,57,1625156,7290.5,"<p>You will see a list of words and colored squares in the following task.<p><p>Press the spacebar whenever you see a red square.<p><p>Do not press a key if the square is green<p><p>Press the spacebar to continue.</p>",32,,,,,,,,,,,,,,,
html-keyboard-response,58,1627677,null,"<div style=""font-size:60px;"">+</div>",null,,,,,,,,,,,,,,,
html-keyboard-response,59,1627892,null,"<div style=""font-size:42px;"">HAPPY</div><img id = ""stim"" ><div class = green_square id = ""bottomsquare"" ></div>",null,practice2,word_square,HAPPY,prac_response,0,Bottom,none,true,,,,,,,
html-keyboard-response,60,1628215,null,"<div style=""font-size:42px;"">HAPPY</div>",null,,word,HAPPY,,,,,,,,,,,,
html-keyboard-response,61,1629737,null,"",null,,word,HAPPY,,,,,,,,,,,,
html-keyboard-response,62,1629953,null,"<div style=""font-size:42px;"">COLD</div><img id = ""stim"" ><div class = red_square id = ""bottomsquare"" ></div>",null,practice2,word_square,,prac_response,1,Bottom,32,true,,,,,,,
html-keyboard-response,63,1630269,139.40000009536743,"<div style=""font-size:42px;"">COLD</div>",32,,word,COLD,,,,,,,,,,,,
html-keyboard-response,64,1631776,null,"",null,,word,COLD,,,,,,,,,,,,
html-keyboard-response,65,1631992,null,"<div style=""font-size:42px;"">HEAVY</div><img id = ""stim"" ><div class = red_square id = ""topsquare"" ></div>",null,practice2,word_square,,prac_response,1,Top,32,true,,,,,,,
html-keyboard-response,66,1632309,191,"<div style=""font-size:42px;"">HEAVY</div>",32,,word,HEAVY,,,,,,,,,,,,
html-keyboard-response,67,1633814,null,"",null,,word,HEAVY,,,,,,,,,,,,
html-keyboard-response,68,1634037,null,"<div style=""font-size:42px;"">FUNNY</div><img id = ""stim"" ><div class = green_square id = ""topsquare"" ></div>",null,practice2,word_square,,prac_response,0,Top,none,true,,,,,,,
html-keyboard-response,69,1634353,null,"<div style=""font-size:42px;"">FUNNY</div>",null,,word,FUNNY,,,,,,,,,,,,
html-keyboard-response,70,1635857,null,"",null,,word,FUNNY,,,,,,,,,,,,
html-keyboard-response,71,1636073,null,"<div style=""font-size:42px;"">SCARY</div><img id = ""stim"" ><div class = red_square id = ""bottomsquare"" ></div>",null,practice2,word_square,,prac_response,1,Bottom,32,true,,,,,,,
html-keyboard-response,72,1636378,102.10000002384186,"<div style=""font-size:42px;"">SCARY</div>",32,,word,SCARY,,,,,,,,,,,,
html-keyboard-response,73,1637894,null,"",null,,word,SCARY,,,,,,,,,,,,
html-keyboard-response,74,1638111,null,"<div style=""font-size:42px;"">PEACEFUL</div><img id = ""stim"" ><div class = red_square id = ""topsquare"" ></div>",null,practice2,word_square,,prac_response,1,Top,32,true,,,,,,,
html-keyboard-response,75,1638414,107.89999997615814,"<div style=""font-size:42px;"">PEACEFUL</div>",32,,word,PEACEFUL,,,,,,,,,,,,
html-keyboard-response,76,1639934,null,"",null,,word,PEACEFUL,,,,,,,,,,,,
html-keyboard-response,77,1640145,null,"<div style=""font-size:42px;"">LITTLE</div><img id = ""stim"" ><div class = green_square id = ""bottomsquare"" ></div>",null,practice2,word_square,LITTLE,prac_response,0,Bottom,none,true,,,,,,,
html-keyboard-response,78,1640452,null,"<div style=""font-size:42px;"">LITTLE</div>",null,,word,LITTLE,,,,,,,,,,,,
html-keyboard-response,79,1641968,null,"",null,,word,LITTLE,,,,,,,,,,,,
html-keyboard-response,80,1642180,null,"<div style=""font-size:42px;"">TIRED</div><img id = ""stim"" ><div class = green_square id = ""topsquare"" ></div>",null,practice2,word_square,,prac_response,0,Top,none,true,,,,,,,
html-keyboard-response,81,1642492,null,"<div style=""font-size:42px;"">TIRED</div>",null,,word,TIRED,,,,,,,,,,,,
html-keyboard-response,82,1644012,null,"",null,,word,TIRED,,,,,,,,,,,,
html-keyboard-response,83,1644227,null,"<div style=""font-size:42px;"">ENTERTAINING</div><img id = ""stim"" ><div class = green_square id = ""bottomsquare"" ></div>",null,practice2,word_square,ENTERTAINING,prac_response,0,Bottom,none,true,,,,,,,
html-keyboard-response,84,1644544,null,"<div style=""font-size:42px;"">ENTERTAINING</div>",null,,word,ENTERTAINING,,,,,,,,,,,,
html-keyboard-response,85,1646049,null,"",null,,word,ENTERTAINING,,,,,,,,,,,,
html-keyboard-response,86,1646266,null,"<div style=""font-size:42px;"">GRATEFUL</div><img id = ""stim"" ><div class = red_square id = ""bottomsquare"" ></div>",null,practice2,word_square,,prac_response,1,Bottom,32,true,,,,,,,
html-keyboard-response,87,1646582,34.89999997615814,"<div style=""font-size:42px;"">GRATEFUL</div>",32,,word,GRATEFUL,,,,,,,,,,,,
html-keyboard-response,88,1648088,null,"",null,,word,GRATEFUL,,,,,,,,,,,,
html-keyboard-response,89,1648302,null,"<div style=""font-size:42px;"">LOUD</div><img id = ""stim"" ><div class = green_square id = ""topsquare"" ></div>",null,practice2,word_square,,prac_response,0,Top,none,true,,,,,,,
html-keyboard-response,90,1648626,null,"<div style=""font-size:42px;"">LOUD</div>",null,,word,LOUD,,,,,,,,,,,,
html-keyboard-response,91,1650131,null,"",null,,word,LOUD,,,,,,,,,,,,
html-keyboard-response,92,1650346,null,"<div style=""font-size:42px;"">SMART</div><img id = ""stim"" ><div class = red_square id = ""topsquare"" ></div>",null,practice2,word_square,,prac_response,1,Top,32,true,,,,,,,
html-keyboard-response,93,1650663,86.79999995231628,"<div style=""font-size:42px;"">SMART</div>",32,,word,SMART,,,,,,,,,,,,
html-keyboard-response,94,1652168,null,"",null,,word,SMART,,,,,,,,,,,,
html-keyboard-response,95,1652386,null,"<div style=""font-size:42px;"">SMOOTH</div><img id = ""stim"" ><div class = red_square id = ""bottomsquare"" ></div>",null,practice2,word_square,,prac_response,1,Bottom,32,true,,,,,,,
html-keyboard-response,96,1652699,117.19999992847443,"<div style=""font-size:42px;"">SMOOTH</div>",32,,word,SMOOTH,,,,,,,,,,,,
html-keyboard-response,97,1654206,null,"",null,,word,SMOOTH,,,,,,,,,,,,
html-keyboard-response,98,1654421,null,"<div style=""font-size:42px;"">DISHONEST</div><img id = ""stim"" ><div class = green_square id = ""bottomsquare"" ></div>",null,practice2,word_square,DISHONEST,prac_response,0,Bottom,none,true,,,,,,,
html-keyboard-response,99,1654745,null,"<div style=""font-size:42px;"">DISHONEST</div>",null,,word,DISHONEST,,,,,,,,,,,,
html-keyboard-response,100,1656251,null,"",null,,word,DISHONEST,,,,,,,,,,,,
html-keyboard-response,101,1656467,null,"<div style=""font-size:42px;"">WEALTHY</div><img id = ""stim"" ><div class = red_square id = ""topsquare"" ></div>",null,practice2,word_square,,prac_response,1,Top,32,true,,,,,,,
html-keyboard-response,102,1656783,59.39999997615814,"<div style=""font-size:42px;"">WEALTHY</div>",32,,word,WEALTHY,,,,,,,,,,,,
html-keyboard-response,103,1658301,null,"",null,,word,WEALTHY,,,,,,,,,,,,
html-keyboard-response,104,1658520,null,"<div style=""font-size:42px;"">BEAUTIFUL</div><img id = ""stim"" ><div class = green_square id = ""topsquare"" ></div>",null,practice2,word_square,,prac_response,0,Top,none,false,,,,,,,
html-keyboard-response,105,1658835,null,"<div style=""font-size:42px;"">BEAUTIFUL</div>",null,,word,BEAUTIFUL,,,,,,,,,,,,
html-keyboard-response,106,1660377,null,"",null,,word,BEAUTIFUL,,,,,,,,,,,,
html-keyboard-response,107,1660780,400,"<p> Good job! You responded correctly to 100% of the trials. </p>
                    <p>Be sure to only press the spacebar if you see a red square, and please keep your accuracy above 80%.</p>
                    <p>Press any key to begin the math and recall sections. Thank you! </p>",32,,,,,,,,,,,,,,,
call-function,108,1660783,,"",,,,,,,,,,,,,,,,
html-keyboard-response,109,1660896,null,"",null,,,,,,,,,,,,,,,
math-period,110,1670977,17609.5,"",,,,,,,,,,,3numpad,,,,,
html-keyboard-response,111,1671082,null,"",null,,,,,,,,,,,,,,,
math-period,112,1677614,11386.00000011921,"",,,,,,,,,,,4,,,,,
html-keyboard-response,113,1677716,null,"",null,,,,,,,,,,,,,,,
math-period,114,1679865,4137.799999952316,"",,,,,,,,,,,4,,,,,
html-keyboard-response,115,1679971,null,"",null,,,,,,,,,,,,,,,
math-period,116,1684787,null,"",,,,,,,,,,,,,,,,
html-keyboard-response,117,1685805,null,"Recall Period!",null,,,,,,,,,,,,,,,
call-function,118,1685807,,"",,,,,,,,,,,,,,,,
html-keyboard-response,119,1685916,null,"",null,,,,,,,,,,,,,,,
recall-period,120,1690512,38216.20000016689,"",,,,,,,,,,, beautiful,,,,,
html-keyboard-response,121,1690629,null,"",null,,,,,,,,,,,,,,,
recall-period,122,1692697,10260.699999809265,"",,,,,,,,,,,tired,,,,,
html-keyboard-response,123,1692809,null,"",null,,,,,,,,,,,,,,,
recall-period,124,1695108,13396.299999833107,"",,,,,,,,,,,wealthy,,,,,
html-keyboard-response,125,1695225,null,"",null,,,,,,,,,,,,,,,
recall-period,126,1698817,16414.799999833107,"",,,,,,,,,,,home,,,,,
html-keyboard-response,127,1698921,null,"",null,,,,,,,,,,,,,,,
recall-period,128,1706407,55600.50000023842,"",,,,,,,,,,,healthy,,,,,
html-keyboard-response,129,1706517,null,"",null,,,,,,,,,,,,,,,
recall-period,130,1713994,45811.00000035763,"",,,,,,,,,,,little,,,,,
html-keyboard-response,131,1714116,null,"",null,,,,,,,,,,,,,,,
recall-period,132,1760825,null,"",,,,,,,,,,,,,,,,
html-keyboard-response,133,1761348,null,"Time's Up!",null,,,,,,,,,,,,,,,
html-keyboard-response,134,1788390,27039.200000047684,"<p>We will now begin the experiment!<p><p>Please try to remember all words from each list.<p><p>Press the spacebar whenever you see a red square.<p><p><p><p>Press the spacebar to begin.</p>",32,,,,,,,,,,,,,,,
html-keyboard-response,135,1791587,2683.8000000715256,"<div style=""font-size:48px;"">Press any key to begin list 1 of 16 </div>",32,,,,,,,,,,,,,,,
html-keyboard-response,136,1794104,null,"<div style=""font-size:60px;"">+</div>",null,,,,,,,,,,,,,,,
html-keyboard-response,137,1794320,null,"<div style=""font-size:42px;"">BRACELET</div><img id = ""stim"" ><div class = red_square id = topsquare></div>",null,encoding,word_square,,,1,topsquare,32,true,,,BRACELET,0,,,
html-keyboard-response,138,1794635,218.30000007152557,"<div style=""font-size:42px;"">BRACELET</div>",32,,word,BRACELET,,,,,,,,,,,,
html-keyboard-response,139,1796141,null,"",null,,word,BRACELET,,,,,,,,,,,,
html-keyboard-response,140,1796364,null,"<div style=""font-size:42px;"">PORTRAIT</div><img id = ""stim"" ><div class = green_square id = bottomsquare></div>",null,encoding,word_square,,,0,bottomsquare,none,true,,,PORTRAIT,0,,,
html-keyboard-response,141,1796679,null,"<div style=""font-size:42px;"">PORTRAIT</div>",null,,word,PORTRAIT,,,,,,,,,,,,
html-keyboard-response,142,1798184,null,"",null,,word,PORTRAIT,,,,,,,,,,,,
html-keyboard-response,143,1798400,null,"<div style=""font-size:42px;"">LUMBER</div><img id = ""stim"" ><div class = red_square id = bottomsquare></div>",null,encoding,word_square,,,1,bottomsquare,32,true,,,LUMBER,0,,,
html-keyboard-response,144,1798716,142.5,"<div style=""font-size:42px;"">LUMBER</div>",32,,word,LUMBER,,,,,,,,,,,,
html-keyboard-response,145,1800223,null,"",null,,word,LUMBER,,,,,,,,,,,,
html-keyboard-response,146,1800439,null,"<div style=""font-size:42px;"">RODENT</div><img id = ""stim"" ><div class = red_square id = topsquare></div>",null,encoding,word_square,,,1,topsquare,32,true,,,RODENT,0,,,
html-keyboard-response,147,1800754,118.5,"<div style=""font-size:42px;"">RODENT</div>",32,,word,RODENT,,,,,,,,,,,,
html-keyboard-response,148,1802260,null,"",null,,word,RODENT,,,,,,,,,,,,
html-keyboard-response,149,1802483,null,"<div style=""font-size:42px;"">POSSUM</div><img id = ""stim"" ><div class = red_square id = bottomsquare></div>",null,encoding,word_square,,,1,bottomsquare,32,true,,,POSSUM,0,,,
html-keyboard-response,150,1802797,116.40000009536743,"<div style=""font-size:42px;"">POSSUM</div>",32,,word,POSSUM,,,,,,,,,,,,
html-keyboard-response,151,1804303,null,"",null,,word,POSSUM,,,,,,,,,,,,
html-keyboard-response,152,1804547,null,"<div style=""font-size:42px;"">MOTHER</div><img id = ""stim"" ><div class = green_square id = topsquare></div>",null,encoding,word_square,,,0,topsquare,none,true,,,MOTHER,0,,,
html-keyboard-response,153,1804851,null,"<div style=""font-size:42px;"">MOTHER</div>",null,,word,MOTHER,,,,,,,,,,,,
html-keyboard-response,154,1806356,null,"",null,,word,MOTHER,,,,,,,,,,,,
html-keyboard-response,155,1806572,null,"<div style=""font-size:42px;"">SPONGE</div><img id = ""stim"" ><div class = red_square id = topsquare></div>",null,encoding,word_square,,,1,topsquare,32,true,,,SPONGE,0,,,
html-keyboard-response,156,1806893,78.89999997615814,"<div style=""font-size:42px;"">SPONGE</div>",32,,word,SPONGE,,,,,,,,,,,,
html-keyboard-response,157,1808416,null,"",null,,word,SPONGE,,,,,,,,,,,,
html-keyboard-response,158,1808631,null,"<div style=""font-size:42px;"">RIVER</div><img id = ""stim"" ><div class = green_square id = bottomsquare></div>",null,encoding,word_square,,,0,bottomsquare,none,true,,,RIVER,0,,,
html-keyboard-response,159,1808948,237.5,"<div style=""font-size:42px;"">RIVER</div>",32,,word,RIVER,,,,,,,,,,,,
html-keyboard-response,160,1810460,null,"",null,,word,RIVER,,,,,,,,,,,,
html-keyboard-response,161,1810667,null,"<div style=""font-size:42px;"">DRAWING</div><img id = ""stim"" ><div class = green_square id = topsquare></div>",null,encoding,word_square,,,0,topsquare,none,true,,,DRAWING,0,,,
html-keyboard-response,162,1810984,null,"<div style=""font-size:42px;"">DRAWING</div>",null,,word,DRAWING,,,,,,,,,,,,
html-keyboard-response,163,1812490,null,"",null,,word,DRAWING,,,,,,,,,,,,
html-keyboard-response,164,1812712,null,"<div style=""font-size:42px;"">COMPASS</div><img id = ""stim"" ><div class = red_square id = bottomsquare></div>",null,encoding,word_square,,,1,bottomsquare,32,true,,,COMPASS,0,,,
html-keyboard-response,165,1813028,162.10000002384186,"<div style=""font-size:42px;"">COMPASS</div>",32,,word,COMPASS,,,,,,,,,,,,
html-keyboard-response,166,1814548,null,"",null,,word,COMPASS,,,,,,,,,,,,
html-keyboard-response,167,1814764,null,"<div style=""font-size:42px;"">THICKET</div><img id = ""stim"" ><div class = green_square id = bottomsquare></div>",null,encoding,word_square,,,0,bottomsquare,none,true,,,THICKET,0,,,
html-keyboard-response,168,1815081,138.89999997615814,"<div style=""font-size:42px;"">THICKET</div>",32,,word,THICKET,,,,,,,,,,,,
html-keyboard-response,169,1816601,null,"",null,,word,THICKET,,,,,,,,,,,,
html-keyboard-response,170,1816824,null,"<div style=""font-size:42px;"">PANTS</div><img id = ""stim"" ><div class = green_square id = topsquare></div>",null,encoding,word_square,,,0,topsquare,none,true,,,PANTS,0,,,
html-keyboard-response,171,1817140,null,"<div style=""font-size:42px;"">PANTS</div>",null,,word,PANTS,,,,,,,,,,,,
html-keyboard-response,172,1818644,null,"",null,,word,PANTS,,,,,,,,,,,,
html-keyboard-response,173,1818861,null,"<div style=""font-size:42px;"">LACE</div><img id = ""stim"" ><div class = red_square id = topsquare></div>",null,encoding,word_square,,,1,topsquare,32,true,,,LACE,0,,,
html-keyboard-response,174,1819178,null,"<div style=""font-size:42px;"">LACE</div>",null,,word,LACE,,,,,,,,,,,,
html-keyboard-response,175,1820683,5.699999928474426,"",32,,word,LACE,,,,,,,,,,,,
html-keyboard-response,176,1820897,null,"<div style=""font-size:42px;"">FLASK</div><img id = ""stim"" ><div class = green_square id = bottomsquare></div>",null,encoding,word_square,,,0,bottomsquare,none,true,,,FLASK,0,,,
html-keyboard-response,177,1821206,null,"<div style=""font-size:42px;"">FLASK</div>",null,,word,FLASK,,,,,,,,,,,,
html-keyboard-response,178,1822719,null,"",null,,word,FLASK,,,,,,,,,,,,
html-keyboard-response,179,1822942,null,"<div style=""font-size:42px;"">PIGEON</div><img id = ""stim"" ><div class = green_square id = topsquare></div>",null,encoding,word_square,,,0,topsquare,none,true,,,PIGEON,0,,,
html-keyboard-response,180,1823259,null,"<div style=""font-size:42px;"">PIGEON</div>",null,,word,PIGEON,,,,,,,,,,,,
html-keyboard-response,181,1824779,null,"",null,,word,PIGEON,,,,,,,,,,,,
html-keyboard-response,182,1824995,null,"<div style=""font-size:42px;"">PERCH</div><img id = ""stim"" ><div class = red_square id = bottomsquare></div>",null,encoding,word_square,,,1,bottomsquare,32,true,,,PERCH,0,,,
html-keyboard-response,183,1825301,76,"<div style=""font-size:42px;"">PERCH</div>",32,,word,PERCH,,,,,,,,,,,,
html-keyboard-response,184,1826817,null,"",null,,word,PERCH,,,,,,,,,,,,
call-function,185,1826819,,"",,,,,,,,,,,,,,,,
html-keyboard-response,186,1826926,null,"",null,,,,,,,,,,,,,,,
math-period,187,1839614,191471.80000007153,"",,,,,,,,,,,0,,,,,
html-keyboard-response,188,1839724,null,"",null,,,,,,,,,,,,,,,
math-period,189,1843641,7278,"",,,,,,,,,,,2,,,,,
html-keyboard-response,190,1843753,null,"",null,,,,,,,,,,,,,,,
math-period,191,1846399,4723.399999856949,"",,,,,,,,,,,3,,,,,
html-keyboard-response,192,1846515,null,"",null,,,,,,,,,,,,,,,
math-period,193,1848621,3789.4000000953674,"",,,,,,,,,,,6,,,,,
html-keyboard-response,194,1848737,null,"",null,,,,,,,,,,,,,,,
math-period,195,1850830,null,"",,,,,,,,,,,,,,,,
html-keyboard-response,196,1851833,null,"Recall Period!",null,,,,,,,,,,,,,,,
call-function,197,1851836,,"",,,,,,,,,,,,,,,,
html-keyboard-response,198,1851950,null,"",null,,,,,,,,,,,,,,,
recall-period,199,1859414,63635.99999952316,"",,,,,,,,,,,strider,,,,,
html-keyboard-response,200,1859528,null,"",null,,,,,,,,,,,,,,,
recall-period,201,1863799,36085.50000047684,"",,,,,,,,,,,pigeon,,,,,
html-keyboard-response,202,1863912,null,"",null,,,,,,,,,,,,,,,
recall-period,203,1866588,11587.89999973774,"",,,,,,,,,,,home,,,,,
html-keyboard-response,204,1866703,null,"",null,,,,,,,,,,,,,,,
recall-period,205,1922682,771024.7000004053,"",,,,,,,,,,,weather,,,,,
html-keyboard-response,206,1922788,null,"",null,,,,,,,,,,,,,,,
recall-period,207,1926852,null,"",,,,,,,,,,,,,,,,
html-keyboard-response,208,1927370,null,"Time's Up!",null,,,,,,,,,,,,,,,
html-keyboard-response,209,1934977,7602.700000047684,"<p> Good job! You have responded correctly to 100% of the trials. </p>
                      <p>Be sure to only press the spacebar if you see a red square, and please keep your accuracy above 80%.</p>
                      <p> Press any key to continue the experiment. </p>",32,,,,,,,,,,,,,,,
html-keyboard-response,210,1936400,1420,"<div style=""font-size:48px;"">Press any key to begin list 2 of 16 </div>",32,,,,,,,,,,,,,,,
html-keyboard-response,211,1938909,null,"<div style=""font-size:60px;"">+</div>",null,,,,,,,,,,,,,,,
html-keyboard-response,212,1939127,null,"<div style=""font-size:42px;"">BALLOON</div><img id = ""stim"" ><div class = red_square id = bottomsquare></div>",null,encoding,word_square,,,1,bottomsquare,32,true,,,BALLOON,1,,,
html-keyboard-response,213,1939442,176.79999995231628,"<div style=""font-size:42px;"">BALLOON</div>",32,,word,BALLOON,,,,,,,,,,,,
html-keyboard-response,214,1940948,null,"",null,,word,BALLOON,,,,,,,,,,,,
html-keyboard-response,215,1941164,null,"<div style=""font-size:42px;"">ROD</div><img id = ""stim"" ><div class = green_square id = topsquare></div>",null,encoding,word_square,,,0,topsquare,none,true,,,ROD,1,,,
html-keyboard-response,216,1941480,null,"<div style=""font-size:42px;"">ROD</div>",null,,word,ROD,,,,,,,,,,,,
html-keyboard-response,217,1942986,null,"",null,,word,ROD,,,,,,,,,,,,
html-keyboard-response,218,1943204,null,"<div style=""font-size:42px;"">HAND</div><img id = ""stim"" ><div class = green_square id = bottomsquare></div>",null,encoding,word_square,,,0,bottomsquare,none,true,,,HAND,1,,,
html-keyboard-response,219,1943510,null,"<div style=""font-size:42px;"">HAND</div>",null,,word,HAND,,,,,,,,,,,,
html-keyboard-response,220,1945015,null,"",null,,word,HAND,,,,,,,,,,,,
html-keyboard-response,221,1945230,null,"<div style=""font-size:42px;"">JUNGLE</div><img id = ""stim"" ><div class = red_square id = topsquare></div>",null,encoding,word_square,,,1,topsquare,32,true,,,JUNGLE,1,,,
html-keyboard-response,222,1945545,141,"<div style=""font-size:42px;"">JUNGLE</div>",32,,word,JUNGLE,,,,,,,,,,,,
html-keyboard-response,223,1947049,null,"",null,,word,JUNGLE,,,,,,,,,,,,
html-keyboard-response,224,1947255,null,"<div style=""font-size:42px;"">PRIMATE</div><img id = ""stim"" ><div class = green_square id = topsquare></div>",null,encoding,word_square,,,0,topsquare,none,true,,,PRIMATE,1,,,
html-keyboard-response,225,1947568,null,"<div style=""font-size:42px;"">PRIMATE</div>",null,,word,PRIMATE,,,,,,,,,,,,
html-keyboard-response,226,1949073,null,"",null,,word,PRIMATE,,,,,,,,,,,,
html-keyboard-response,227,1949289,null,"<div style=""font-size:42px;"">SODA</div><img id = ""stim"" ><div class = green_square id = bottomsquare></div>",null,encoding,word_square,,,0,bottomsquare,none,true,,,SODA,1,,,
html-keyboard-response,228,1949604,null,"<div style=""font-size:42px;"">SODA</div>",null,,word,SODA,,,,,,,,,,,,
html-keyboard-response,229,1951111,null,"",null,,word,SODA,,,,,,,,,,,,
html-keyboard-response,230,1951333,null,"<div style=""font-size:42px;"">SIRLOIN</div><img id = ""stim"" ><div class = red_square id = bottomsquare></div>",null,encoding,word_square,,,1,bottomsquare,32,true,,,SIRLOIN,1,,,
html-keyboard-response,231,1951648,52,"<div style=""font-size:42px;"">SIRLOIN</div>",32,,word,SIRLOIN,,,,,,,,,,,,
html-keyboard-response,232,1953156,null,"",null,,word,SIRLOIN,,,,,,,,,,,,
html-keyboard-response,233,1953371,null,"<div style=""font-size:42px;"">GLASSES</div><img id = ""stim"" ><div class = green_square id = topsquare></div>",null,encoding,word_square,,,0,topsquare,none,true,,,GLASSES,1,,,
html-keyboard-response,234,1953688,null,"<div style=""font-size:42px;"">GLASSES</div>",null,,word,GLASSES,,,,,,,,,,,,
html-keyboard-response,235,1955208,null,"",null,,word,GLASSES,,,,,,,,,,,,
html-keyboard-response,236,1955421,null,"<div style=""font-size:42px;"">ADULT</div><img id = ""stim"" ><div class = green_square id = bottomsquare></div>",null,encoding,word_square,,,0,bottomsquare,none,true,,,ADULT,1,,,
html-keyboard-response,237,1955746,null,"<div style=""font-size:42px;"">ADULT</div>",null,,word,ADULT,,,,,,,,,,,,
html-keyboard-response,238,1957252,null,"",null,,word,ADULT,,,,,,,,,,,,
html-keyboard-response,239,1957468,null,"<div style=""font-size:42px;"">SWATTER</div><img id = ""stim"" ><div class = red_square id = topsquare></div>",null,encoding,word_square,,,1,topsquare,32,true,,,SWATTER,1,,,
html-keyboard-response,240,1957783,158.20000004768372,"<div style=""font-size:42px;"">SWATTER</div>",32,,word,SWATTER,,,,,,,,,,,,
html-keyboard-response,241,1959289,null,"",null,,word,SWATTER,,,,,,,,,,,,
html-keyboard-response,242,1959505,null,"<div style=""font-size:42px;"">ARM</div><img id = ""stim"" ><div class = green_square id = topsquare></div>",null,encoding,word_square,,,0,topsquare,none,true,,,ARM,1,,,
html-keyboard-response,243,1959821,null,"<div style=""font-size:42px;"">ARM</div>",null,,word,ARM,,,,,,,,,,,,
html-keyboard-response,244,1961325,null,"",null,,word,ARM,,,,,,,,,,,,
html-keyboard-response,245,1961541,null,"<div style=""font-size:42px;"">COUCH</div><img id = ""stim"" ><div class = red_square id = bottomsquare></div>",null,encoding,word_square,,,1,bottomsquare,32,true,,,COUCH,1,,,
html-keyboard-response,246,1961865,99.60000002384186,"<div style=""font-size:42px;"">COUCH</div>",32,,word,COUCH,,,,,,,,,,,,
html-keyboard-response,247,1963371,null,"",null,,word,COUCH,,,,,,,,,,,,
html-keyboard-response,248,1963586,null,"<div style=""font-size:42px;"">GODDESS</div><img id = ""stim"" ><div class = red_square id = topsquare></div>",null,encoding,word_square,,,1,topsquare,32,true,,,GODDESS,1,,,
html-keyboard-response,249,1963898,128.79999995231628,"<div style=""font-size:42px;"">GODDESS</div>",32,,word,GODDESS,,,,,,,,,,,,
html-keyboard-response,250,1965409,null,"",null,,word,GODDESS,,,,,,,,,,,,
html-keyboard-response,251,1965624,null,"<div style=""font-size:42px;"">CREATURE</div><img id = ""stim"" ><div class = red_square id = bottomsquare></div>",null,encoding,word_square,,,1,bottomsquare,32,true,,,CREATURE,1,,,
html-keyboard-response,252,1965942,92.29999995231628,"<div style=""font-size:42px;"">CREATURE</div>",32,,word,CREATURE,,,,,,,,,,,,
html-keyboard-response,253,1967446,null,"",null,,word,CREATURE,,,,,,,,,,,,
html-keyboard-response,254,1967663,null,"<div style=""font-size:42px;"">PUDDLE</div><img id = ""stim"" ><div class = green_square id = bottomsquare></div>",null,encoding,word_square,,,0,bottomsquare,none,true,,,PUDDLE,1,,,
html-keyboard-response,255,1967979,132.5,"<div style=""font-size:42px;"">PUDDLE</div>",32,,word,PUDDLE,,,,,,,,,,,,
html-keyboard-response,256,1969490,null,"",null,,word,PUDDLE,,,,,,,,,,,,
html-keyboard-response,257,1969706,null,"<div style=""font-size:42px;"">SLIDE</div><img id = ""stim"" ><div class = red_square id = topsquare></div>",null,encoding,word_square,,,1,topsquare,32,true,,,SLIDE,1,,,
html-keyboard-response,258,1970023,129.09999990463257,"<div style=""font-size:42px;"">SLIDE</div>",32,,word,SLIDE,,,,,,,,,,,,
html-keyboard-response,259,1971528,null,"",null,,word,SLIDE,,,,,,,,,,,,
call-function,260,1971530,,"",,,,,,,,,,,,,,,,
html-keyboard-response,261,1971643,null,"",null,,,,,,,,,,,,,,,
math-period,262,1975802,7390.200000047684,"",,,,,,,,,,,3,,,,,
html-keyboard-response,263,1975910,null,"",null,,,,,,,,,,,,,,,
math-period,264,1978630,4970.700000047684,"",,,,,,,,,,,5,,,,,
html-keyboard-response,265,1978734,null,"",null,,,,,,,,,,,,,,,
math-period,266,1983191,8341.200000047684,"",,,,,,,,,,,1,,,,,
html-keyboard-response,267,1983308,null,"",null,,,,,,,,,,,,,,,
math-period,268,1990093,12805.100000023842,"",,,,,,,,,,,1,,,,,
html-keyboard-response,269,1990200,null,"",null,,,,,,,,,,,,,,,
math-period,270,1993240,5567.200000047684,"",,,,,,,,,,,2,,,,,
html-keyboard-response,271,1993348,null,"",null,,,,,,,,,,,,,,,
math-period,272,1995401,3651.4000000953674,"",,,,,,,,,,,4,,,,,
html-keyboard-response,273,1995505,null,"",null,,,,,,,,,,,,,,,
math-period,274,1995533,null,"",,,,,,,,,,,,,,,,
html-keyboard-response,275,1996540,null,"Recall Period!",null,,,,,,,,,,,,,,,
call-function,276,1996542,,"",,,,,,,,,,,,,,,,
html-keyboard-response,277,1996660,null,"",null,,,,,,,,,,,,,,,
recall-period,278,2000619,25333.900000333786,"",,,,,,,,,,,goddess,,,,,
html-keyboard-response,279,2000735,null,"",null,,,,,,,,,,,,,,,
recall-period,280,2002590,8582.900000333786,"",,,,,,,,,,,balloon,,,,,
html-keyboard-response,281,2002695,null,"",null,,,,,,,,,,,,,,,
recall-period,282,2003312,1313.1000000238419,"",,,,,,,,,,,rod,,,,,
html-keyboard-response,283,2003428,null,"",null,,,,,,,,,,,,,,,
recall-period,284,2015596,93346.90000009537,"",,,,,,,,,,,primate,,,,,
html-keyboard-response,285,2015709,null,"",null,,,,,,,,,,,,,,,
recall-period,286,2071549,null,"",,,,,,,,,,,,,,,,
html-keyboard-response,287,2072066,null,"Time's Up!",null,,,,,,,,,,,,,,,
html-keyboard-response,288,2084145,12074.800000071526,"<p> Good job! You have responded correctly to 100% of the trials. </p>
                      <p>Be sure to only press the spacebar if you see a red square, and please keep your accuracy above 80%.</p>
                      <p> Press any key to continue the experiment. </p>",32,,,,,,,,,,,,,,,
html-keyboard-response,289,2086752,2604.6999999284744,"<div style=""font-size:48px;"">Press any key to begin list 3 of 16 </div>",32,,,,,,,,,,,,,,,
html-keyboard-response,290,2089275,null,"<div style=""font-size:60px;"">+</div>",null,,,,,,,,,,,,,,,
html-keyboard-response,291,2089490,null,"<div style=""font-size:42px;"">PUPPY</div><img id = ""stim"" ><div class = green_square id = bottomsquare></div>",null,encoding,word_square,,,0,bottomsquare,none,true,,,PUPPY,2,,,
html-keyboard-response,292,2089800,null,"<div style=""font-size:42px;"">PUPPY</div>",null,,word,PUPPY,,,,,,,,,,,,
html-keyboard-response,293,2091320,null,"",null,,word,PUPPY,,,,,,,,,,,,
html-keyboard-response,294,2091540,null,"<div style=""font-size:42px;"">CATCHER</div><img id = ""stim"" ><div class = red_square id = topsquare></div>",null,encoding,word_square,,,1,topsquare,32,true,,,CATCHER,2,,,
html-keyboard-response,295,2091844,235.39999997615814,"<div style=""font-size:42px;"">CATCHER</div>",32,,word,CATCHER,,,,,,,,,,,,
html-keyboard-response,296,2093358,null,"",null,,word,CATCHER,,,,,,,,,,,,
html-keyboard-response,297,2093572,null,"<div style=""font-size:42px;"">KNUCKLE</div><img id = ""stim"" ><div class = green_square id = topsquare></div>",null,encoding,word_square,,,0,topsquare,none,true,,,KNUCKLE,2,,,
html-keyboard-response,298,2093889,null,"<div style=""font-size:42px;"">KNUCKLE</div>",null,,word,KNUCKLE,,,,,,,,,,,,
html-keyboard-response,299,2095407,null,"",null,,word,KNUCKLE,,,,,,,,,,,,
html-keyboard-response,300,2095631,null,"<div style=""font-size:42px;"">SENATE</div><img id = ""stim"" ><div class = green_square id = bottomsquare></div>",null,encoding,word_square,,,0,bottomsquare,none,true,,,SENATE,2,,,
html-keyboard-response,301,2095947,92.79999995231628,"<div style=""font-size:42px;"">SENATE</div>",32,,word,SENATE,,,,,,,,,,,,
html-keyboard-response,302,2097453,null,"",null,,word,SENATE,,,,,,,,,,,,
html-keyboard-response,303,2097668,null,"<div style=""font-size:42px;"">EYELASH</div><img id = ""stim"" ><div class = green_square id = topsquare></div>",null,encoding,word_square,,,0,topsquare,none,true,,,EYELASH,2,,,
html-keyboard-response,304,2097985,null,"<div style=""font-size:42px;"">EYELASH</div>",null,,word,EYELASH,,,,,,,,,,,,
html-keyboard-response,305,2099503,null,"",null,,word,EYELASH,,,,,,,,,,,,
html-keyboard-response,306,2099718,null,"<div style=""font-size:42px;"">SWAMP</div><img id = ""stim"" ><div class = red_square id = bottomsquare></div>",null,encoding,word_square,,,1,bottomsquare,32,true,,,SWAMP,2,,,
html-keyboard-response,307,2100041,98.89999997615814,"<div style=""font-size:42px;"">SWAMP</div>",32,,word,SWAMP,,,,,,,,,,,,
html-keyboard-response,308,2101546,null,"",null,,word,SWAMP,,,,,,,,,,,,
html-keyboard-response,309,2101763,null,"<div style=""font-size:42px;"">BLOCKADE</div><img id = ""stim"" ><div class = green_square id = bottomsquare></div>",null,encoding,word_square,,,0,bottomsquare,none,true,,,BLOCKADE,2,,,
html-keyboard-response,310,2102079,null,"<div style=""font-size:42px;"">BLOCKADE</div>",null,,word,BLOCKADE,,,,,,,,,,,,
html-keyboard-response,311,2103600,null,"",null,,word,BLOCKADE,,,,,,,,,,,,
html-keyboard-response,312,2103816,null,"<div style=""font-size:42px;"">CRICKET</div><img id = ""stim"" ><div class = red_square id = topsquare></div>",null,encoding,word_square,,,1,topsquare,32,true,,,CRICKET,2,,,
html-keyboard-response,313,2104133,180.20000004768372,"<div style=""font-size:42px;"">CRICKET</div>",32,,word,CRICKET,,,,,,,,,,,,
html-keyboard-response,314,2105659,null,"",null,,word,CRICKET,,,,,,,,,,,,
html-keyboard-response,315,2105875,null,"<div style=""font-size:42px;"">BUTLER</div><img id = ""stim"" ><div class = red_square id = bottomsquare></div>",null,encoding,word_square,,,1,bottomsquare,32,true,,,BUTLER,2,,,
html-keyboard-response,316,2106182,90.79999995231628,"<div style=""font-size:42px;"">BUTLER</div>",32,,word,BUTLER,,,,,,,,,,,,
html-keyboard-response,317,2107698,null,"",null,,word,BUTLER,,,,,,,,,,,,
html-keyboard-response,318,2107915,null,"<div style=""font-size:42px;"">PROTON</div><img id = ""stim"" ><div class = green_square id = topsquare></div>",null,encoding,word_square,,,0,topsquare,none,true,,,PROTON,2,,,
html-keyboard-response,319,2108244,null,"<div style=""font-size:42px;"">PROTON</div>",null,,word,PROTON,,,,,,,,,,,,
html-keyboard-response,320,2109749,null,"",null,,word,PROTON,,,,,,,,,,,,
html-keyboard-response,321,2109971,null,"<div style=""font-size:42px;"">ACTOR</div><img id = ""stim"" ><div class = red_square id = topsquare></div>",null,encoding,word_square,,,1,topsquare,32,true,,,ACTOR,2,,,
html-keyboard-response,322,2110284,119.5,"<div style=""font-size:42px;"">ACTOR</div>",32,,word,ACTOR,,,,,,,,,,,,
html-keyboard-response,323,2111793,null,"",null,,word,ACTOR,,,,,,,,,,,,
html-keyboard-response,324,2112009,null,"<div style=""font-size:42px;"">SAPPHIRE</div><img id = ""stim"" ><div class = red_square id = bottomsquare></div>",null,encoding,word_square,,,1,bottomsquare,32,true,,,SAPPHIRE,2,,,
html-keyboard-response,325,2112326,166.5,"<div style=""font-size:42px;"">SAPPHIRE</div>",32,,word,SAPPHIRE,,,,,,,,,,,,
html-keyboard-response,326,2113831,null,"",null,,word,SAPPHIRE,,,,,,,,,,,,
html-keyboard-response,327,2114048,null,"<div style=""font-size:42px;"">STAR</div><img id = ""stim"" ><div class = green_square id = bottomsquare></div>",null,encoding,word_square,,,0,bottomsquare,none,true,,,STAR,2,,,
html-keyboard-response,328,2114364,null,"<div style=""font-size:42px;"">STAR</div>",null,,word,STAR,,,,,,,,,,,,
html-keyboard-response,329,2115868,null,"",null,,word,STAR,,,,,,,,,,,,
html-keyboard-response,330,2116092,null,"<div style=""font-size:42px;"">COMET</div><img id = ""stim"" ><div class = red_square id = topsquare></div>",null,encoding,word_square,,,1,topsquare,32,true,,,COMET,2,,,
html-keyboard-response,331,2116414,222.79999995231628,"<div style=""font-size:42px;"">COMET</div>",32,,word,COMET,,,,,,,,,,,,
html-keyboard-response,332,2117929,null,"",null,,word,COMET,,,,,,,,,,,,
html-keyboard-response,333,2118145,null,"<div style=""font-size:42px;"">BRAKE</div><img id = ""stim"" ><div class = red_square id = bottomsquare></div>",null,encoding,word_square,,,1,bottomsquare,32,true,,,BRAKE,2,,,
html-keyboard-response,334,2118459,113.5,"<div style=""font-size:42px;"">BRAKE</div>",32,,word,BRAKE,,,,,,,,,,,,
html-keyboard-response,335,2119969,null,"",null,,word,BRAKE,,,,,,,,,,,,
html-keyboard-response,336,2120183,null,"<div style=""font-size:42px;"">TURNIP</div><img id = ""stim"" ><div class = green_square id = topsquare></div>",null,encoding,word_square,,,0,topsquare,none,true,,,TURNIP,2,,,
html-keyboard-response,337,2120488,null,"<div style=""font-size:42px;"">TURNIP</div>",null,,word,TURNIP,,,,,,,,,,,,
html-keyboard-response,338,2122012,null,"",null,,word,TURNIP,,,,,,,,,,,,
call-function,339,2122015,,"",,,,,,,,,,,,,,,,
html-keyboard-response,340,2122129,null,"",null,,,,,,,,,,,,,,,
math-period,341,2124589,4619.200000047684,"",,,,,,,,,,,4,,,,,
html-keyboard-response,342,2124701,null,"",null,,,,,,,,,,,,,,,
math-period,343,2126345,3083.899999976158,"",,,,,,,,,,,4,,,,,
html-keyboard-response,344,2126458,null,"",null,,,,,,,,,,,,,,,
math-period,345,2128173,3289.100000023842,"",,,,,,,,,,,3,,,,,
html-keyboard-response,346,2128283,null,"",null,,,,,,,,,,,,,,,
math-period,347,2129701,2698,"",,,,,,,,,,,4,,,,,
html-keyboard-response,348,2129814,null,"",null,,,,,,,,,,,,,,,
math-period,349,2131059,2324.5000001192093,"",,,,,,,,,,,4,,,,,
html-keyboard-response,350,2131171,null,"",null,,,,,,,,,,,,,,,
math-period,351,2132549,2575.600000143051,"",,,,,,,,,,,4,,,,,
html-keyboard-response,352,2132659,null,"",null,,,,,,,,,,,,,,,
math-period,353,2135675,5901.899999976158,"",,,,,,,,,,,3,,,,,
html-keyboard-response,354,2135783,null,"",null,,,,,,,,,,,,,,,
math-period,355,2137152,2608.600000023842,"",,,,,,,,,,,3,,,,,
html-keyboard-response,356,2137256,null,"",null,,,,,,,,,,,,,,,
math-period,357,2138901,3079.5,"",,,,,,,,,,,5,,,,,
html-keyboard-response,358,2139007,null,"",null,,,,,,,,,,,,,,,
math-period,359,2140569,2926.200000166893,"",,,,,,,,,,,6,,,,,
html-keyboard-response,360,2140681,null,"",null,,,,,,,,,,,,,,,
math-period,361,2142127,2749.600000023842,"",,,,,,,,,,,4,,,,,
html-keyboard-response,362,2142235,null,"",null,,,,,,,,,,,,,,,
math-period,363,2143770,2869.2999999523163,"",,,,,,,,,,,3,,,,,
html-keyboard-response,364,2143874,null,"",null,,,,,,,,,,,,,,,
math-period,365,2144995,2055.399999976158,"",,,,,,,,,,,3,,,,,
html-keyboard-response,366,2145108,null,"",null,,,,,,,,,,,,,,,
math-period,367,2146026,790.2999999523163,"",,,,,,,,,,,3,,,,,
html-keyboard-response,368,2147045,null,"Recall Period!",null,,,,,,,,,,,,,,,
call-function,369,2147047,,"",,,,,,,,,,,,,,,,
html-keyboard-response,370,2147164,null,"",null,,,,,,,,,,,,,,,
recall-period,371,2168874,189524.89999997616,"",,,,,,,,,,,sapphire,,,,,
html-keyboard-response,372,2168977,null,"",null,,,,,,,,,,,,,,,
recall-period,373,2169956,3478.5,"",,,,,,,,,,,actor,,,,,
html-keyboard-response,374,2170060,null,"",null,,,,,,,,,,,,,,,
recall-period,375,2174648,27689.400000333786,"",,,,,,,,,,,branch,,,,,
html-keyboard-response,376,2174761,null,"",null,,,,,,,,,,,,,,,
recall-period,377,2222053,null,"",,,,,,,,,,,,,,,,
html-keyboard-response,378,2222570,null,"Time's Up!",null,,,,,,,,,,,,,,,
html-keyboard-response,379,2226502,3929.2000000476837,"<p> Good job! You have responded correctly to 100% of the trials. </p>
                      <p>Be sure to only press the spacebar if you see a red square, and please keep your accuracy above 80%.</p>
                      <p> Press any key to continue the experiment. </p>",32,,,,,,,,,,,,,,,
html-keyboard-response,380,2229255,2749.5,"<div style=""font-size:48px;"">Press any key to begin list 4 of 16 </div>",32,,,,,,,,,,,,,,,
html-keyboard-response,381,2231786,null,"<div style=""font-size:60px;"">+</div>",null,,,,,,,,,,,,,,,
html-keyboard-response,382,2232002,null,"<div style=""font-size:42px;"">JEANS</div><img id = ""stim"" ><div class = green_square id = topsquare></div>",null,encoding,word_square,,,0,topsquare,none,true,,,JEANS,3,,,
html-keyboard-response,383,2232319,null,"<div style=""font-size:42px;"">JEANS</div>",null,,word,JEANS,,,,,,,,,,,,
html-keyboard-response,384,2233824,null,"",null,,word,JEANS,,,,,,,,,,,,
html-keyboard-response,385,2234037,null,"<div style=""font-size:42px;"">COOKBOOK</div><img id = ""stim"" ><div class = red_square id = bottomsquare></div>",null,encoding,word_square,,,1,bottomsquare,32,true,,,COOKBOOK,3,,,
html-keyboard-response,386,2234344,null,"<div style=""font-size:42px;"">COOKBOOK</div>",null,,word,COOKBOOK,,,,,,,,,,,,
html-keyboard-response,387,2235859,14.799999952316284,"",32,,word,COOKBOOK,,,,,,,,,,,,
html-keyboard-response,388,2236078,null,"<div style=""font-size:42px;"">SCULPTURE</div><img id = ""stim"" ><div class = red_square id = topsquare></div>",null,encoding,word_square,,,1,topsquare,32,true,,,SCULPTURE,3,,,
html-keyboard-response,389,2236385,119,"<div style=""font-size:42px;"">SCULPTURE</div>",32,,word,SCULPTURE,,,,,,,,,,,,
html-keyboard-response,390,2237891,null,"",null,,word,SCULPTURE,,,,,,,,,,,,
html-keyboard-response,391,2238096,null,"<div style=""font-size:42px;"">PITCHFORK</div><img id = ""stim"" ><div class = green_square id = bottomsquare></div>",null,encoding,word_square,,,0,bottomsquare,none,true,,,PITCHFORK,3,,,
html-keyboard-response,392,2238407,null,"<div style=""font-size:42px;"">PITCHFORK</div>",null,,word,PITCHFORK,,,,,,,,,,,,
html-keyboard-response,393,2239914,null,"",null,,word,PITCHFORK,,,,,,,,,,,,
html-keyboard-response,394,2240131,null,"<div style=""font-size:42px;"">HAWK</div><img id = ""stim"" ><div class = red_square id = bottomsquare></div>",null,encoding,word_square,,,1,bottomsquare,32,true,,,HAWK,3,,,
html-keyboard-response,395,2240442,176.20000004768372,"<div style=""font-size:42px;"">HAWK</div>",32,,word,HAWK,,,,,,,,,,,,
html-keyboard-response,396,2241951,null,"",null,,word,HAWK,,,,,,,,,,,,
html-keyboard-response,397,2242173,null,"<div style=""font-size:42px;"">SOFTBALL</div><img id = ""stim"" ><div class = red_square id = topsquare></div>",null,encoding,word_square,,,1,topsquare,32,true,,,SOFTBALL,3,,,
html-keyboard-response,398,2242490,252.29999995231628,"<div style=""font-size:42px;"">SOFTBALL</div>",32,,word,SOFTBALL,,,,,,,,,,,,
html-keyboard-response,399,2243995,null,"",null,,word,SOFTBALL,,,,,,,,,,,,
html-keyboard-response,400,2244211,null,"<div style=""font-size:42px;"">KLEENEX</div><img id = ""stim"" ><div class = green_square id = topsquare></div>",null,encoding,word_square,,,0,topsquare,none,true,,,KLEENEX,3,,,
html-keyboard-response,401,2244527,null,"<div style=""font-size:42px;"">KLEENEX</div>",null,,word,KLEENEX,,,,,,,,,,,,
html-keyboard-response,402,2246047,null,"",null,,word,KLEENEX,,,,,,,,,,,,
html-keyboard-response,403,2246263,null,"<div style=""font-size:42px;"">POISON</div><img id = ""stim"" ><div class = red_square id = bottomsquare></div>",null,encoding,word_square,,,1,bottomsquare,32,true,,,POISON,3,,,
html-keyboard-response,404,2246586,143.19999992847443,"<div style=""font-size:42px;"">POISON</div>",32,,word,POISON,,,,,,,,,,,,
html-keyboard-response,405,2248092,null,"",null,,word,POISON,,,,,,,,,,,,
html-keyboard-response,406,2248307,null,"<div style=""font-size:42px;"">RATTLE</div><img id = ""stim"" ><div class = red_square id = topsquare></div>",null,encoding,word_square,,,1,topsquare,32,true,,,RATTLE,3,,,
html-keyboard-response,407,2248624,null,"<div style=""font-size:42px;"">RATTLE</div>",null,,word,RATTLE,,,,,,,,,,,,
html-keyboard-response,408,2250131,30.899999976158142,"",32,,word,RATTLE,,,,,,,,,,,,
html-keyboard-response,409,2250346,null,"<div style=""font-size:42px;"">CARTON</div><img id = ""stim"" ><div class = green_square id = bottomsquare></div>",null,encoding,word_square,,,0,bottomsquare,none,true,,,CARTON,3,,,
html-keyboard-response,410,2250662,null,"<div style=""font-size:42px;"">CARTON</div>",null,,word,CARTON,,,,,,,,,,,,
html-keyboard-response,411,2252167,null,"",null,,word,CARTON,,,,,,,,,,,,
html-keyboard-response,412,2252383,null,"<div style=""font-size:42px;"">HAYSTACK</div><img id = ""stim"" ><div class = red_square id = bottomsquare></div>",null,encoding,word_square,,,1,bottomsquare,32,true,,,HAYSTACK,3,,,
html-keyboard-response,413,2252707,142.89999997615814,"<div style=""font-size:42px;"">HAYSTACK</div>",32,,word,HAYSTACK,,,,,,,,,,,,
html-keyboard-response,414,2254211,null,"",null,,word,HAYSTACK,,,,,,,,,,,,
html-keyboard-response,415,2254428,null,"<div style=""font-size:42px;"">TEACHER</div><img id = ""stim"" ><div class = green_square id = topsquare></div>",null,encoding,word_square,,,0,topsquare,none,true,,,TEACHER,3,,,
html-keyboard-response,416,2254745,null,"<div style=""font-size:42px;"">TEACHER</div>",null,,word,TEACHER,,,,,,,,,,,,
html-keyboard-response,417,2256249,null,"",null,,word,TEACHER,,,,,,,,,,,,
html-keyboard-response,418,2256465,null,"<div style=""font-size:42px;"">STUDENT</div><img id = ""stim"" ><div class = green_square id = bottomsquare></div>",null,encoding,word_square,,,0,bottomsquare,none,true,,,STUDENT,3,,,
html-keyboard-response,419,2256781,null,"<div style=""font-size:42px;"">STUDENT</div>",null,,word,STUDENT,,,,,,,,,,,,
html-keyboard-response,420,2258286,null,"",null,,word,STUDENT,,,,,,,,,,,,
html-keyboard-response,421,2258502,null,"<div style=""font-size:42px;"">SERVER</div><img id = ""stim"" ><div class = green_square id = topsquare></div>",null,encoding,word_square,,,0,topsquare,none,true,,,SERVER,3,,,
html-keyboard-response,422,2258826,164.40000009536743,"<div style=""font-size:42px;"">SERVER</div>",32,,word,SERVER,,,,,,,,,,,,
html-keyboard-response,423,2260330,null,"",null,,word,SERVER,,,,,,,,,,,,
html-keyboard-response,424,2260546,null,"<div style=""font-size:42px;"">MAJOR</div><img id = ""stim"" ><div class = red_square id = topsquare></div>",null,encoding,word_square,,,1,topsquare,32,true,,,MAJOR,3,,,
html-keyboard-response,425,2260863,226.70000004768372,"<div style=""font-size:42px;"">MAJOR</div>",32,,word,MAJOR,,,,,,,,,,,,
html-keyboard-response,426,2262370,null,"",null,,word,MAJOR,,,,,,,,,,,,
html-keyboard-response,427,2262585,null,"<div style=""font-size:42px;"">SAND</div><img id = ""stim"" ><div class = green_square id = bottomsquare></div>",null,encoding,word_square,,,0,bottomsquare,none,true,,,SAND,3,,,
html-keyboard-response,428,2262900,130,"<div style=""font-size:42px;"">SAND</div>",32,,word,SAND,,,,,,,,,,,,
html-keyboard-response,429,2264425,null,"",null,,word,SAND,,,,,,,,,,,,
call-function,430,2264428,,"",,,,,,,,,,,,,,,,
html-keyboard-response,431,2264543,null,"",null,,,,,,,,,,,,,,,
math-period,432,2266481,3462.4000000953674,"",,,,,,,,,,,3,,,,,
html-keyboard-response,433,2266597,null,"",null,,,,,,,,,,,,,,,
math-period,434,2269624,5862.999999880791,"",,,,,,,,,,,0,,,,,
html-keyboard-response,435,2269741,null,"",null,,,,,,,,,,,,,,,
math-period,436,2272500,5356.400000095367,"",,,,,,,,,,,0,,,,,
html-keyboard-response,437,2272615,null,"",null,,,,,,,,,,,,,,,
math-period,438,2275266,5149.200000047684,"",,,,,,,,,,,3,,,,,
html-keyboard-response,439,2275378,null,"",null,,,,,,,,,,,,,,,
math-period,440,2278405,5899.300000071526,"",,,,,,,,,,,3,,,,,
html-keyboard-response,441,2278519,null,"",null,,,,,,,,,,,,,,,
math-period,442,2279900,2572.0000001192093,"",,,,,,,,,,,2,,,,,
html-keyboard-response,443,2280007,null,"",null,,,,,,,,,,,,,,,
math-period,444,2284264,8320.5,"",,,,,,,,,,,1,,,,,
html-keyboard-response,445,2284381,null,"",null,,,,,,,,,,,,,,,
math-period,446,2287173,5358.399999976158,"",,,,,,,,,,,0,,,,,
html-keyboard-response,447,2287287,null,"",null,,,,,,,,,,,,,,,
math-period,448,2288431,null,"",,,,,,,,,,,,,,,,
html-keyboard-response,449,2289443,null,"Recall Period!",null,,,,,,,,,,,,,,,
call-function,450,2289444,,"",,,,,,,,,,,,,,,,
html-keyboard-response,451,2289559,null,"",null,,,,,,,,,,,,,,,
recall-period,452,2310084,158924.5,"",,,,,,,,,,,teacher,,,,,
html-keyboard-response,453,2310198,null,"",null,,,,,,,,,,,,,,,
recall-period,454,2311798,8470.800000071526,"",,,,,,,,,,,student,,,,,
html-keyboard-response,455,2311912,null,"",null,,,,,,,,,,,,,,,
recall-period,456,2314486,16137.499999761581,"",,,,,,,,,,,softball,,,,,
html-keyboard-response,457,2314593,null,"",null,,,,,,,,,,,,,,,
recall-period,458,2316165,7763.899999499321,"",,,,,,,,,,,haystack,,,,,
html-keyboard-response,459,2316280,null,"",null,,,,,,,,,,,,,,,
recall-period,460,2320984,39646.49999988079,"",,,,,,,,,,,pitchfork,,,,,
html-keyboard-response,461,2321093,null,"",null,,,,,,,,,,,,,,,
recall-period,462,2358635,258987.4000003338,"",,,,,,,,,,,carton,,,,,
html-keyboard-response,463,2358739,null,"",null,,,,,,,,,,,,,,,
recall-period,464,2364453,null,"",,,,,,,,,,,,,,,,
html-keyboard-response,465,2364968,null,"Time's Up!",null,,,,,,,,,,,,,,,
html-keyboard-response,466,2372130,7156.800000071526,"<p> Good job! You have responded correctly to 100% of the trials. </p>
                      <p>Be sure to only press the spacebar if you see a red square, and please keep your accuracy above 80%.</p>
                      <p> Press any key to continue the experiment. </p>",32,,,,,,,,,,,,,,,
html-keyboard-response,467,2373682,1548.5999999046326,"<div style=""font-size:48px;"">Press any key to begin list 5 of 16 </div>",32,,,,,,,,,,,,,,,
html-keyboard-response,468,2376201,null,"<div style=""font-size:60px;"">+</div>",null,,,,,,,,,,,,,,,
html-keyboard-response,469,2376404,null,"<div style=""font-size:42px;"">BLUEJAY</div><img id = ""stim"" ><div class = red_square id = topsquare></div>",null,encoding,word_square,,,1,topsquare,32,true,,,BLUEJAY,4,,,
html-keyboard-response,470,2376717,310.2999999523163,"<div style=""font-size:42px;"">BLUEJAY</div>",32,,word,BLUEJAY,,,,,,,,,,,,
html-keyboard-response,471,2378230,null,"",null,,word,BLUEJAY,,,,,,,,,,,,
html-keyboard-response,472,2378447,null,"<div style=""font-size:42px;"">LODGE</div><img id = ""stim"" ><div class = red_square id = bottomsquare></div>",null,encoding,word_square,,,1,bottomsquare,32,true,,,LODGE,4,,,
html-keyboard-response,473,2378762,201.80000007152557,"<div style=""font-size:42px;"">LODGE</div>",32,,word,LODGE,,,,,,,,,,,,
html-keyboard-response,474,2380268,null,"",null,,word,LODGE,,,,,,,,,,,,
html-keyboard-response,475,2380485,null,"<div style=""font-size:42px;"">CABIN</div><img id = ""stim"" ><div class = green_square id = bottomsquare></div>",null,encoding,word_square,,,0,bottomsquare,none,true,,,CABIN,4,,,
html-keyboard-response,476,2380800,null,"<div style=""font-size:42px;"">CABIN</div>",null,,word,CABIN,,,,,,,,,,,,
html-keyboard-response,477,2382305,null,"",null,,word,CABIN,,,,,,,,,,,,
html-keyboard-response,478,2382520,null,"<div style=""font-size:42px;"">TOASTER</div><img id = ""stim"" ><div class = green_square id = topsquare></div>",null,encoding,word_square,,,0,topsquare,none,true,,,TOASTER,4,,,
html-keyboard-response,479,2382837,null,"<div style=""font-size:42px;"">TOASTER</div>",null,,word,TOASTER,,,,,,,,,,,,
html-keyboard-response,480,2384344,null,"",null,,word,TOASTER,,,,,,,,,,,,
html-keyboard-response,481,2384566,null,"<div style=""font-size:42px;"">GARLIC</div><img id = ""stim"" ><div class = red_square id = topsquare></div>",null,encoding,word_square,,,1,topsquare,32,true,,,GARLIC,4,,,
html-keyboard-response,482,2384883,138,"<div style=""font-size:42px;"">GARLIC</div>",32,,word,GARLIC,,,,,,,,,,,,
html-keyboard-response,483,2386403,null,"",null,,word,GARLIC,,,,,,,,,,,,
html-keyboard-response,484,2386619,null,"<div style=""font-size:42px;"">FLIPPER</div><img id = ""stim"" ><div class = red_square id = bottomsquare></div>",null,encoding,word_square,,,1,bottomsquare,32,true,,,FLIPPER,4,,,
html-keyboard-response,485,2386934,null,"<div style=""font-size:42px;"">FLIPPER</div>",null,,word,FLIPPER,,,,,,,,,,,,
html-keyboard-response,486,2388440,77.39999997615814,"",32,,word,FLIPPER,,,,,,,,,,,,
html-keyboard-response,487,2388655,null,"<div style=""font-size:42px;"">MAMMAL</div><img id = ""stim"" ><div class = red_square id = topsquare></div>",null,encoding,word_square,,,1,topsquare,32,true,,,MAMMAL,4,,,
html-keyboard-response,488,2388978,158.29999995231628,"<div style=""font-size:42px;"">MAMMAL</div>",32,,word,MAMMAL,,,,,,,,,,,,
html-keyboard-response,489,2390497,null,"",null,,word,MAMMAL,,,,,,,,,,,,
html-keyboard-response,490,2390714,null,"<div style=""font-size:42px;"">FLUTE</div><img id = ""stim"" ><div class = green_square id = bottomsquare></div>",null,encoding,word_square,,,0,bottomsquare,none,true,,,FLUTE,4,,,
html-keyboard-response,491,2391030,null,"<div style=""font-size:42px;"">FLUTE</div>",null,,word,FLUTE,,,,,,,,,,,,
html-keyboard-response,492,2392549,null,"",null,,word,FLUTE,,,,,,,,,,,,
html-keyboard-response,493,2392766,null,"<div style=""font-size:42px;"">SCARECROW</div><img id = ""stim"" ><div class = green_square id = topsquare></div>",null,encoding,word_square,,,0,topsquare,none,true,,,SCARECROW,4,,,
html-keyboard-response,494,2393089,null,"<div style=""font-size:42px;"">SCARECROW</div>",null,,word,SCARECROW,,,,,,,,,,,,
html-keyboard-response,495,2394594,null,"",null,,word,SCARECROW,,,,,,,,,,,,
html-keyboard-response,496,2394809,null,"<div style=""font-size:42px;"">SQUID</div><img id = ""stim"" ><div class = red_square id = bottomsquare></div>",null,encoding,word_square,,,1,bottomsquare,32,true,,,SQUID,4,,,
html-keyboard-response,497,2395128,193.10000002384186,"<div style=""font-size:42px;"">SQUID</div>",32,,word,SQUID,,,,,,,,,,,,
html-keyboard-response,498,2396646,null,"",null,,word,SQUID,,,,,,,,,,,,
html-keyboard-response,499,2396863,null,"<div style=""font-size:42px;"">CLERK</div><img id = ""stim"" ><div class = green_square id = bottomsquare></div>",null,encoding,word_square,,,0,bottomsquare,none,true,,,CLERK,4,,,
html-keyboard-response,500,2397179,131.70000004768372,"<div style=""font-size:42px;"">CLERK</div>",32,,word,CLERK,,,,,,,,,,,,
html-keyboard-response,501,2398706,null,"",null,,word,CLERK,,,,,,,,,,,,
html-keyboard-response,502,2398921,null,"<div style=""font-size:42px;"">SHAMPOO</div><img id = ""stim"" ><div class = red_square id = topsquare></div>",null,encoding,word_square,,,1,topsquare,32,true,,,SHAMPOO,4,,,
html-keyboard-response,503,2399238,108.39999997615814,"<div style=""font-size:42px;"">SHAMPOO</div>",32,,word,SHAMPOO,,,,,,,,,,,,
html-keyboard-response,504,2400742,null,"",null,,word,SHAMPOO,,,,,,,,,,,,
html-keyboard-response,505,2400959,null,"<div style=""font-size:42px;"">YOLK</div><img id = ""stim"" ><div class = green_square id = topsquare></div>",null,encoding,word_square,,,0,topsquare,none,true,,,YOLK,4,,,
html-keyboard-response,506,2401275,130.30000007152557,"<div style=""font-size:42px;"">YOLK</div>",32,,word,YOLK,,,,,,,,,,,,
html-keyboard-response,507,2402794,null,"",null,,word,YOLK,,,,,,,,,,,,
html-keyboard-response,508,2403018,null,"<div style=""font-size:42px;"">CUPBOARD</div><img id = ""stim"" ><div class = red_square id = bottomsquare></div>",null,encoding,word_square,,,1,bottomsquare,32,true,,,CUPBOARD,4,,,
html-keyboard-response,509,2403336,149.29999995231628,"<div style=""font-size:42px;"">CUPBOARD</div>",32,,word,CUPBOARD,,,,,,,,,,,,
html-keyboard-response,510,2404854,null,"",null,,word,CUPBOARD,,,,,,,,,,,,
html-keyboard-response,511,2405072,null,"<div style=""font-size:42px;"">SHIRT</div><img id = ""stim"" ><div class = green_square id = bottomsquare></div>",null,encoding,word_square,,,0,bottomsquare,none,true,,,SHIRT,4,,,
html-keyboard-response,512,2405388,null,"<div style=""font-size:42px;"">SHIRT</div>",null,,word,SHIRT,,,,,,,,,,,,
html-keyboard-response,513,2406893,null,"",null,,word,SHIRT,,,,,,,,,,,,
html-keyboard-response,514,2407110,null,"<div style=""font-size:42px;"">YACHT</div><img id = ""stim"" ><div class = green_square id = topsquare></div>",null,encoding,word_square,,,0,topsquare,none,true,,,YACHT,4,,,
html-keyboard-response,515,2407433,null,"<div style=""font-size:42px;"">YACHT</div>",null,,word,YACHT,,,,,,,,,,,,
html-keyboard-response,516,2408940,null,"",null,,word,YACHT,,,,,,,,,,,,
call-function,517,2408944,,"",,,,,,,,,,,,,,,,
html-keyboard-response,518,2409056,null,"",null,,,,,,,,,,,,,,,
math-period,519,2411200,3769.600000023842,"",,,,,,,,,,,3,,,,,
html-keyboard-response,520,2411312,null,"",null,,,,,,,,,,,,,,,
math-period,521,2414874,6948.099999904633,"",,,,,,,,,,,1,,,,,
html-keyboard-response,522,2414977,null,"",null,,,,,,,,,,,,,,,
math-period,523,2416728,3317.0000001192093,"",,,,,,,,,,,5,,,,,
html-keyboard-response,524,2416833,null,"",null,,,,,,,,,,,,,,,
math-period,525,2419468,5048.399999976158,"",,,,,,,,,,,1,,,,,
html-keyboard-response,526,2419572,null,"",null,,,,,,,,,,,,,,,
math-period,527,2421832,4366.699999928474,"",,,,,,,,,,,0,,,,,
html-keyboard-response,528,2421944,null,"",null,,,,,,,,,,,,,,,
math-period,529,2423545,3033.8000000715256,"",,,,,,,,,,,5,,,,,
html-keyboard-response,530,2423660,null,"",null,,,,,,,,,,,,,,,
math-period,531,2425357,3232.1999999284744,"",,,,,,,,,,,4,,,,,
html-keyboard-response,532,2425474,null,"",null,,,,,,,,,,,,,,,
math-period,533,2427728,4310,"",,,,,,,,,,,1,,,,,
html-keyboard-response,534,2427845,null,"",null,,,,,,,,,,,,,,,
math-period,535,2429385,2891.399999976158,"",,,,,,,,,,,5,,,,,
html-keyboard-response,536,2429503,null,"",null,,,,,,,,,,,,,,,
math-period,537,2431548,3897.2000000476837,"",,,,,,,,,,,5,,,,,
html-keyboard-response,538,2431657,null,"",null,,,,,,,,,,,,,,,
math-period,539,2432961,null,"",,,,,,,,,,,,,,,,
html-keyboard-response,540,2433979,null,"Recall Period!",null,,,,,,,,,,,,,,,
call-function,541,2433980,,"",,,,,,,,,,,,,,,,
html-keyboard-response,542,2434082,null,"",null,,,,,,,,,,,,,,,
recall-period,543,2437437,19109.39999973774,"",,,,,,,,,,,mammal,,,,,
html-keyboard-response,544,2437555,null,"",null,,,,,,,,,,,,,,,
recall-period,545,2439073,6952.799999952316,"",,,,,,,,,,,flipper,,,,,
html-keyboard-response,546,2439177,null,"",null,,,,,,,,,,,,,,,
recall-period,547,2459221,112982.90000009537,"",,,,,,,,,,,squid,,,,,
html-keyboard-response,548,2459333,null,"",null,,,,,,,,,,,,,,,
recall-period,549,2508996,null,"",,,,,,,,,,,,,,,,
html-keyboard-response,550,2509512,null,"Time's Up!",null,,,,,,,,,,,,,,,
html-keyboard-response,551,2511413,1898.5,"<p> Good job! You have responded correctly to 100% of the trials. </p>
                      <p>Be sure to only press the spacebar if you see a red square, and please keep your accuracy above 80%.</p>
                      <p> Press any key to continue the experiment. </p>",32,,,,,,,,,,,,,,,
html-keyboard-response,552,2536686,25268.899999976158,"<div style=""font-size:48px;"">Press any key to begin list 6 of 16 </div>",32,,,,,,,,,,,,,,,
html-keyboard-response,553,2539199,null,"<div style=""font-size:60px;"">+</div>",null,,,,,,,,,,,,,,,
html-keyboard-response,554,2539418,null,"<div style=""font-size:42px;"">TOILET</div><img id = ""stim"" ><div class = green_square id = topsquare></div>",null,encoding,word_square,,,0,topsquare,none,true,,,TOILET,5,,,
html-keyboard-response,555,2539722,209.10000002384186,"<div style=""font-size:42px;"">TOILET</div>",32,,word,TOILET,,,,,,,,,,,,
html-keyboard-response,556,2541243,null,"",null,,word,TOILET,,,,,,,,,,,,
html-keyboard-response,557,2541459,null,"<div style=""font-size:42px;"">SPOOL</div><img id = ""stim"" ><div class = green_square id = bottomsquare></div>",null,encoding,word_square,,,0,bottomsquare,none,true,,,SPOOL,5,,,
html-keyboard-response,558,2541775,null,"<div style=""font-size:42px;"">SPOOL</div>",null,,word,SPOOL,,,,,,,,,,,,
html-keyboard-response,559,2543281,null,"",null,,word,SPOOL,,,,,,,,,,,,
html-keyboard-response,560,2543527,null,"<div style=""font-size:42px;"">MARKER</div><img id = ""stim"" ><div class = red_square id = bottomsquare></div>",null,encoding,word_square,,,1,bottomsquare,32,true,,,MARKER,5,,,
html-keyboard-response,561,2543851,181.60000002384186,"<div style=""font-size:42px;"">MARKER</div>",32,,word,MARKER,,,,,,,,,,,,
html-keyboard-response,562,2545356,null,"",null,,word,MARKER,,,,,,,,,,,,
html-keyboard-response,563,2545571,null,"<div style=""font-size:42px;"">CATTLE</div><img id = ""stim"" ><div class = green_square id = topsquare></div>",null,encoding,word_square,,,0,topsquare,none,true,,,CATTLE,5,,,
html-keyboard-response,564,2545888,136.89999997615814,"<div style=""font-size:42px;"">CATTLE</div>",32,,word,CATTLE,,,,,,,,,,,,
html-keyboard-response,565,2547412,null,"",null,,word,CATTLE,,,,,,,,,,,,
html-keyboard-response,566,2547624,null,"<div style=""font-size:42px;"">SPOON</div><img id = ""stim"" ><div class = red_square id = topsquare></div>",null,encoding,word_square,,,1,topsquare,32,true,,,SPOON,5,,,
html-keyboard-response,567,2547940,167.89999997615814,"<div style=""font-size:42px;"">SPOON</div>",32,,word,SPOON,,,,,,,,,,,,
html-keyboard-response,568,2549445,null,"",null,,word,SPOON,,,,,,,,,,,,
html-keyboard-response,569,2549667,null,"<div style=""font-size:42px;"">LASER</div><img id = ""stim"" ><div class = green_square id = bottomsquare></div>",null,encoding,word_square,,,0,bottomsquare,none,true,,,LASER,5,,,
html-keyboard-response,570,2549983,null,"<div style=""font-size:42px;"">LASER</div>",null,,word,LASER,,,,,,,,,,,,
html-keyboard-response,571,2551489,null,"",null,,word,LASER,,,,,,,,,,,,
html-keyboard-response,572,2551705,null,"<div style=""font-size:42px;"">ICEBERG</div><img id = ""stim"" ><div class = red_square id = bottomsquare></div>",null,encoding,word_square,,,1,bottomsquare,32,true,,,ICEBERG,5,,,
html-keyboard-response,573,2552021,77.40000009536743,"<div style=""font-size:42px;"">ICEBERG</div>",32,,word,ICEBERG,,,,,,,,,,,,
html-keyboard-response,574,2553525,null,"",null,,word,ICEBERG,,,,,,,,,,,,
html-keyboard-response,575,2553742,null,"<div style=""font-size:42px;"">SCARF</div><img id = ""stim"" ><div class = green_square id = topsquare></div>",null,encoding,word_square,,,0,topsquare,none,true,,,SCARF,5,,,
html-keyboard-response,576,2554058,null,"<div style=""font-size:42px;"">SCARF</div>",null,,word,SCARF,,,,,,,,,,,,
html-keyboard-response,577,2555585,null,"",null,,word,SCARF,,,,,,,,,,,,
html-keyboard-response,578,2555800,null,"<div style=""font-size:42px;"">JAR</div><img id = ""stim"" ><div class = green_square id = bottomsquare></div>",null,encoding,word_square,,,0,bottomsquare,none,true,,,JAR,5,,,
html-keyboard-response,579,2556118,null,"<div style=""font-size:42px;"">JAR</div>",null,,word,JAR,,,,,,,,,,,,
html-keyboard-response,580,2557638,null,"",null,,word,JAR,,,,,,,,,,,,
html-keyboard-response,581,2557854,null,"<div style=""font-size:42px;"">BRIDE</div><img id = ""stim"" ><div class = red_square id = topsquare></div>",null,encoding,word_square,,,1,topsquare,32,true,,,BRIDE,5,,,
html-keyboard-response,582,2558160,303.7000000476837,"<div style=""font-size:42px;"">BRIDE</div>",32,,word,BRIDE,,,,,,,,,,,,
html-keyboard-response,583,2559674,null,"",null,,word,BRIDE,,,,,,,,,,,,
html-keyboard-response,584,2559896,null,"<div style=""font-size:42px;"">PIRATE</div><img id = ""stim"" ><div class = red_square id = bottomsquare></div>",null,encoding,word_square,,,1,bottomsquare,32,true,,,PIRATE,5,,,
html-keyboard-response,585,2560213,279.89999997615814,"<div style=""font-size:42px;"">PIRATE</div>",32,,word,PIRATE,,,,,,,,,,,,
html-keyboard-response,586,2561732,null,"",null,,word,PIRATE,,,,,,,,,,,,
html-keyboard-response,587,2561948,null,"<div style=""font-size:42px;"">WASHER</div><img id = ""stim"" ><div class = red_square id = topsquare></div>",null,encoding,word_square,,,1,topsquare,32,true,,,WASHER,5,,,
html-keyboard-response,588,2562265,97.89999997615814,"<div style=""font-size:42px;"">WASHER</div>",32,,word,WASHER,,,,,,,,,,,,
html-keyboard-response,589,2563784,null,"",null,,word,WASHER,,,,,,,,,,,,
html-keyboard-response,590,2564008,null,"<div style=""font-size:42px;"">CANDY</div><img id = ""stim"" ><div class = green_square id = topsquare></div>",null,encoding,word_square,,,0,topsquare,none,true,,,CANDY,5,,,
html-keyboard-response,591,2564325,null,"<div style=""font-size:42px;"">CANDY</div>",null,,word,CANDY,,,,,,,,,,,,
html-keyboard-response,592,2565830,null,"",null,,word,CANDY,,,,,,,,,,,,
html-keyboard-response,593,2566046,null,"<div style=""font-size:42px;"">MATCH</div><img id = ""stim"" ><div class = green_square id = bottomsquare></div>",null,encoding,word_square,,,0,bottomsquare,none,true,,,MATCH,5,,,
html-keyboard-response,594,2566364,null,"<div style=""font-size:42px;"">MATCH</div>",null,,word,MATCH,,,,,,,,,,,,
html-keyboard-response,595,2567883,null,"",null,,word,MATCH,,,,,,,,,,,,
html-keyboard-response,596,2568099,null,"<div style=""font-size:42px;"">SPRINKLE</div><img id = ""stim"" ><div class = red_square id = bottomsquare></div>",null,encoding,word_square,,,1,bottomsquare,32,true,,,SPRINKLE,5,,,
html-keyboard-response,597,2568423,222.30000007152557,"<div style=""font-size:42px;"">SPRINKLE</div>",32,,word,SPRINKLE,,,,,,,,,,,,
html-keyboard-response,598,2569943,null,"",null,,word,SPRINKLE,,,,,,,,,,,,
html-keyboard-response,599,2570159,null,"<div style=""font-size:42px;"">APRON</div><img id = ""stim"" ><div class = red_square id = topsquare></div>",null,encoding,word_square,,,1,topsquare,32,true,,,APRON,5,,,
html-keyboard-response,600,2570487,158.39999997615814,"<div style=""font-size:42px;"">APRON</div>",32,,word,APRON,,,,,,,,,,,,
html-keyboard-response,601,2572002,null,"",null,,word,APRON,,,,,,,,,,,,
call-function,602,2572005,,"",,,,,,,,,,,,,,,,
html-keyboard-response,603,2572126,null,"",null,,,,,,,,,,,,,,,
math-period,604,2574003,3430.5999999046326,"",,,,,,,,,,,4,,,,,
html-keyboard-response,605,2574113,null,"",null,,,,,,,,,,,,,,,
math-period,606,2575413,2373.2999999523163,"",,,,,,,,,,,2,,,,,
html-keyboard-response,607,2575536,null,"",null,,,,,,,,,,,,,,,
math-period,608,2577207,3134.8000000715256,"",,,,,,,,,,,1,,,,,
html-keyboard-response,609,2577323,null,"",null,,,,,,,,,,,,,,,
math-period,610,2579363,3804.600000143051,"",,,,,,,,,,,5,,,,,
html-keyboard-response,611,2579478,null,"",null,,,,,,,,,,,,,,,
math-period,612,2580988,2807.5,"",,,,,,,,,,,1,,,,,
html-keyboard-response,613,2581107,null,"",null,,,,,,,,,,,,,,,
math-period,614,2582307,2221.9999998807907,"",,,,,,,,,,,2,,,,,
html-keyboard-response,615,2582424,null,"",null,,,,,,,,,,,,,,,
math-period,616,2583926,2739.399999976158,"",,,,,,,,,,,6,,,,,
html-keyboard-response,617,2584030,null,"",null,,,,,,,,,,,,,,,
math-period,618,2585626,2992.8000000715256,"",,,,,,,,,,,5,,,,,
html-keyboard-response,619,2585732,null,"",null,,,,,,,,,,,,,,,
math-period,620,2587740,3830.600000023842,"",,,,,,,,,,,1,,,,,
html-keyboard-response,621,2587847,null,"",null,,,,,,,,,,,,,,,
math-period,622,2589897,3934.8000000715256,"",,,,,,,,,,,0,,,,,
html-keyboard-response,623,2590008,null,"",null,,,,,,,,,,,,,,,
math-period,624,2592099,3968.3000000715256,"",,,,,,,,,,,1,,,,,
html-keyboard-response,625,2592214,null,"",null,,,,,,,,,,,,,,,
math-period,626,2594452,4314.899999856949,"",,,,,,,,,,,2,,,,,
html-keyboard-response,627,2594558,null,"",null,,,,,,,,,,,,,,,
math-period,628,2595941,2551.600000143051,"",,,,,,,,,,,4,,,,,
html-keyboard-response,629,2596045,null,"",null,,,,,,,,,,,,,,,
math-period,630,2596050,null,"",,,,,,,,,,,,,,,,
html-keyboard-response,631,2597062,null,"Recall Period!",null,,,,,,,,,,,,,,,
call-function,632,2597064,,"",,,,,,,,,,,,,,,,
html-keyboard-response,633,2597174,null,"",null,,,,,,,,,,,,,,,
recall-period,634,2599003,8285.599999666214,"",,,,,,,,,,,bride,,,,,
html-keyboard-response,635,2599107,null,"",null,,,,,,,,,,,,,,,
recall-period,636,2600753,8299.200000405312,"",,,,,,,,,,,sprinkle,,,,,
html-keyboard-response,637,2600869,null,"",null,,,,,,,,,,,,,,,
recall-period,638,2622063,164920.39999961853,"",,,,,,,,,,,cupcake,,,,,
html-keyboard-response,639,2622171,null,"",null,,,,,,,,,,,,,,,
recall-period,640,2672071,null,"",,,,,,,,,,,,,,,,
html-keyboard-response,641,2672587,null,"Time's Up!",null,,,,,,,,,,,,,,,
html-keyboard-response,642,2706930,34339.699999928474,"<p> Good job! You have responded correctly to 100% of the trials. </p>
                      <p>Be sure to only press the spacebar if you see a red square, and please keep your accuracy above 80%.</p>
                      <p> Press any key to continue the experiment. </p>",32,,,,,,,,,,,,,,,
html-keyboard-response,643,2717525,10590.599999904633,"<div style=""font-size:48px;"">Press any key to begin list 7 of 16 </div>",32,,,,,,,,,,,,,,,
html-keyboard-response,644,2720048,null,"<div style=""font-size:60px;"">+</div>",null,,,,,,,,,,,,,,,
html-keyboard-response,645,2720264,null,"<div style=""font-size:42px;"">COIN</div><img id = ""stim"" ><div class = green_square id = bottomsquare></div>",null,encoding,word_square,,,0,bottomsquare,none,true,,,COIN,6,,,
html-keyboard-response,646,2720585,246.19999992847443,"<div style=""font-size:42px;"">COIN</div>",32,,word,COIN,,,,,,,,,,,,
html-keyboard-response,647,2722092,null,"",null,,word,COIN,,,,,,,,,,,,
html-keyboard-response,648,2722308,null,"<div style=""font-size:42px;"">CORAL</div><img id = ""stim"" ><div class = green_square id = topsquare></div>",null,encoding,word_square,,,0,topsquare,none,true,,,CORAL,6,,,
html-keyboard-response,649,2722625,null,"<div style=""font-size:42px;"">CORAL</div>",null,,word,CORAL,,,,,,,,,,,,
html-keyboard-response,650,2724131,null,"",null,,word,CORAL,,,,,,,,,,,,
html-keyboard-response,651,2724346,null,"<div style=""font-size:42px;"">CHISEL</div><img id = ""stim"" ><div class = red_square id = topsquare></div>",null,encoding,word_square,,,1,topsquare,32,true,,,CHISEL,6,,,
html-keyboard-response,652,2724656,121.60000002384186,"<div style=""font-size:42px;"">CHISEL</div>",32,,word,CHISEL,,,,,,,,,,,,
html-keyboard-response,653,2726167,null,"",null,,word,CHISEL,,,,,,,,,,,,
html-keyboard-response,654,2726383,null,"<div style=""font-size:42px;"">EUROPE</div><img id = ""stim"" ><div class = red_square id = bottomsquare></div>",null,encoding,word_square,,,1,bottomsquare,32,true,,,EUROPE,6,,,
html-keyboard-response,655,2726698,131.10000002384186,"<div style=""font-size:42px;"">EUROPE</div>",32,,word,EUROPE,,,,,,,,,,,,
html-keyboard-response,656,2728211,null,"",null,,word,EUROPE,,,,,,,,,,,,
html-keyboard-response,657,2728432,null,"<div style=""font-size:42px;"">ARTIST</div><img id = ""stim"" ><div class = green_square id = bottomsquare></div>",null,encoding,word_square,,,0,bottomsquare,none,true,,,ARTIST,6,,,
html-keyboard-response,658,2728744,191.20000004768372,"<div style=""font-size:42px;"">ARTIST</div>",32,,word,ARTIST,,,,,,,,,,,,
html-keyboard-response,659,2730265,null,"",null,,word,ARTIST,,,,,,,,,,,,
html-keyboard-response,660,2730481,null,"<div style=""font-size:42px;"">CRYSTAL</div><img id = ""stim"" ><div class = green_square id = topsquare></div>",null,encoding,word_square,,,0,topsquare,none,true,,,CRYSTAL,6,,,
html-keyboard-response,661,2730797,null,"<div style=""font-size:42px;"">CRYSTAL</div>",null,,word,CRYSTAL,,,,,,,,,,,,
html-keyboard-response,662,2732302,null,"",null,,word,CRYSTAL,,,,,,,,,,,,
html-keyboard-response,663,2732525,null,"<div style=""font-size:42px;"">FRIES</div><img id = ""stim"" ><div class = green_square id = bottomsquare></div>",null,encoding,word_square,,,0,bottomsquare,none,true,,,FRIES,6,,,
html-keyboard-response,664,2732840,null,"<div style=""font-size:42px;"">FRIES</div>",null,,word,FRIES,,,,,,,,,,,,
html-keyboard-response,665,2734347,null,"",null,,word,FRIES,,,,,,,,,,,,
html-keyboard-response,666,2734562,null,"<div style=""font-size:42px;"">TWIG</div><img id = ""stim"" ><div class = red_square id = topsquare></div>",null,encoding,word_square,,,1,topsquare,32,true,,,TWIG,6,,,
html-keyboard-response,667,2734878,163.79999995231628,"<div style=""font-size:42px;"">TWIG</div>",32,,word,TWIG,,,,,,,,,,,,
html-keyboard-response,668,2736384,null,"",null,,word,TWIG,,,,,,,,,,,,
html-keyboard-response,669,2736600,null,"<div style=""font-size:42px;"">NOTEBOOK</div><img id = ""stim"" ><div class = red_square id = bottomsquare></div>",null,encoding,word_square,,,1,bottomsquare,32,true,,,NOTEBOOK,6,,,
html-keyboard-response,670,2736916,250,"<div style=""font-size:42px;"">NOTEBOOK</div>",32,,word,NOTEBOOK,,,,,,,,,,,,
html-keyboard-response,671,2738443,null,"",null,,word,NOTEBOOK,,,,,,,,,,,,
html-keyboard-response,672,2738659,null,"<div style=""font-size:42px;"">COBBLER</div><img id = ""stim"" ><div class = green_square id = topsquare></div>",null,encoding,word_square,,,0,topsquare,none,true,,,COBBLER,6,,,
html-keyboard-response,673,2738976,null,"<div style=""font-size:42px;"">COBBLER</div>",null,,word,COBBLER,,,,,,,,,,,,
html-keyboard-response,674,2740507,null,"",null,,word,COBBLER,,,,,,,,,,,,
html-keyboard-response,675,2740727,null,"<div style=""font-size:42px;"">LILY</div><img id = ""stim"" ><div class = red_square id = topsquare></div>",null,encoding,word_square,,,1,topsquare,32,true,,,LILY,6,,,
html-keyboard-response,676,2741051,53.60000002384186,"<div style=""font-size:42px;"">LILY</div>",32,,word,LILY,,,,,,,,,,,,
html-keyboard-response,677,2742569,null,"",null,,word,LILY,,,,,,,,,,,,
html-keyboard-response,678,2742786,null,"<div style=""font-size:42px;"">SLOPE</div><img id = ""stim"" ><div class = green_square id = bottomsquare></div>",null,encoding,word_square,,,0,bottomsquare,none,true,,,SLOPE,6,,,
html-keyboard-response,679,2743102,138.70000004768372,"<div style=""font-size:42px;"">SLOPE</div>",32,,word,SLOPE,,,,,,,,,,,,
html-keyboard-response,680,2744607,null,"",null,,word,SLOPE,,,,,,,,,,,,
html-keyboard-response,681,2744823,null,"<div style=""font-size:42px;"">CASHIER</div><img id = ""stim"" ><div class = red_square id = bottomsquare></div>",null,encoding,word_square,,,1,bottomsquare,32,true,,,CASHIER,6,,,
html-keyboard-response,682,2745140,148.5,"<div style=""font-size:42px;"">CASHIER</div>",32,,word,CASHIER,,,,,,,,,,,,
html-keyboard-response,683,2746645,null,"",null,,word,CASHIER,,,,,,,,,,,,
html-keyboard-response,684,2746868,null,"<div style=""font-size:42px;"">FATHER</div><img id = ""stim"" ><div class = green_square id = topsquare></div>",null,encoding,word_square,,,0,topsquare,none,true,,,FATHER,6,,,
html-keyboard-response,685,2747185,195.69999992847443,"<div style=""font-size:42px;"">FATHER</div>",32,,word,FATHER,,,,,,,,,,,,
html-keyboard-response,686,2748705,null,"",null,,word,FATHER,,,,,,,,,,,,
html-keyboard-response,687,2748922,null,"<div style=""font-size:42px;"">CHIPMUNK</div><img id = ""stim"" ><div class = red_square id = topsquare></div>",null,encoding,word_square,,,1,topsquare,32,true,,,CHIPMUNK,6,,,
html-keyboard-response,688,2749231,196.60000002384186,"<div style=""font-size:42px;"">CHIPMUNK</div>",32,,word,CHIPMUNK,,,,,,,,,,,,
html-keyboard-response,689,2750743,null,"",null,,word,CHIPMUNK,,,,,,,,,,,,
html-keyboard-response,690,2750959,null,"<div style=""font-size:42px;"">PISTOL</div><img id = ""stim"" ><div class = red_square id = bottomsquare></div>",null,encoding,word_square,,,1,bottomsquare,32,true,,,PISTOL,6,,,
html-keyboard-response,691,2751276,311.89999997615814,"<div style=""font-size:42px;"">PISTOL</div>",32,,word,PISTOL,,,,,,,,,,,,
html-keyboard-response,692,2752787,null,"",null,,word,PISTOL,,,,,,,,,,,,
call-function,693,2752790,,"",,,,,,,,,,,,,,,,
html-keyboard-response,694,2752903,null,"",null,,,,,,,,,,,,,,,
math-period,695,2754824,3457.1999999284744,"",,,,,,,,,,,3,,,,,
html-keyboard-response,696,2754934,null,"",null,,,,,,,,,,,,,,,
math-period,697,2756497,2940.5999999046326,"",,,,,,,,,,,5,,,,,
html-keyboard-response,698,2756614,null,"",null,,,,,,,,,,,,,,,
math-period,699,2758888,4320.5,"",,,,,,,,,,,1,,,,,
html-keyboard-response,700,2759006,null,"",null,,,,,,,,,,,,,,,
math-period,701,2761099,3830,"",,,,,,,,,,,4,,,,,
html-keyboard-response,702,2761221,null,"",null,,,,,,,,,,,,,,,
math-period,703,2762893,3149.9000000953674,"",,,,,,,,,,,4,,,,,
html-keyboard-response,704,2763017,null,"",null,,,,,,,,,,,,,,,
math-period,705,2763965,1677.6000000238419,"",,,,,,,,,,,4,,,,,
html-keyboard-response,706,2764075,null,"",null,,,,,,,,,,,,,,,
math-period,707,2766709,5098.900000095367,"",,,,,,,,,,,2,,,,,
html-keyboard-response,708,2766812,null,"",null,,,,,,,,,,,,,,,
math-period,709,2768939,4030.399999976158,"",,,,,,,,,,,1,,,,,
html-keyboard-response,710,2769049,null,"",null,,,,,,,,,,,,,,,
math-period,711,2770621,2957.100000023842,"",,,,,,,,,,,3,,,,,
html-keyboard-response,712,2770739,null,"",null,,,,,,,,,,,,,,,
math-period,713,2774251,6677.199999928474,"",,,,,,,,,,,1,,,,,
html-keyboard-response,714,2774364,null,"",null,,,,,,,,,,,,,,,
math-period,715,2776326,3703.399999856949,"",,,,,,,,,,,5,,,,,
html-keyboard-response,716,2776432,null,"",null,,,,,,,,,,,,,,,
math-period,717,2776801,null,"",,,,,,,,,,,,,,,,
html-keyboard-response,718,2777820,null,"Recall Period!",null,,,,,,,,,,,,,,,
call-function,719,2777823,,"",,,,,,,,,,,,,,,,
html-keyboard-response,720,2777928,null,"",null,,,,,,,,,,,,,,,
recall-period,721,2781276,19124.099999785423,"",,,,,,,,,,,europe,,,,,
html-keyboard-response,722,2781383,null,"",null,,,,,,,,,,,,,,,
recall-period,723,2782653,5161.299999833107,"",,,,,,,,,,,artist,,,,,
html-keyboard-response,724,2782770,null,"",null,,,,,,,,,,,,,,,
recall-period,725,2804228,146410.2000002861,"",,,,,,,,,,,chisel,,,,,
html-keyboard-response,726,2804339,null,"",null,,,,,,,,,,,,,,,
recall-period,727,2807950,25484.20000052452,"",,,,,,,,,,,chipmunk,,,,,
html-keyboard-response,728,2808066,null,"",null,,,,,,,,,,,,,,,
recall-period,729,2811942,24465.39999985695,"",,,,,,,,,,,father,,,,,
html-keyboard-response,730,2812057,null,"",null,,,,,,,,,,,,,,,
recall-period,731,2813961,11382.199999809265,"",,,,,,,,,,,cashier,,,,,
html-keyboard-response,732,2814079,null,"",null,,,,,,,,,,,,,,,
recall-period,733,2852829,null,"",,,,,,,,,,,,,,,,
html-keyboard-response,734,2853354,null,"Time's Up!",null,,,,,,,,,,,,,,,
html-keyboard-response,735,2896051,42692.300000071526,"<p> Good job! You have responded correctly to 100% of the trials. </p>
                      <p>Be sure to only press the spacebar if you see a red square, and please keep your accuracy above 80%.</p>
                      <p> Press any key to continue the experiment. </p>",32,,,,,,,,,,,,,,,
html-keyboard-response,736,2897126,1071,"<div style=""font-size:48px;"">Press any key to begin list 8 of 16 </div>",32,,,,,,,,,,,,,,,
html-keyboard-response,737,2899640,null,"<div style=""font-size:60px;"">+</div>",null,,,,,,,,,,,,,,,
html-keyboard-response,738,2899856,null,"<div style=""font-size:42px;"">ROCKET</div><img id = ""stim"" ><div class = red_square id = bottomsquare></div>",null,encoding,word_square,,,1,bottomsquare,32,true,,,ROCKET,7,,,
html-keyboard-response,739,2900173,177,"<div style=""font-size:42px;"">ROCKET</div>",32,,word,ROCKET,,,,,,,,,,,,
html-keyboard-response,740,2901692,null,"",null,,word,ROCKET,,,,,,,,,,,,
html-keyboard-response,741,2901914,null,"<div style=""font-size:42px;"">LAKE</div><img id = ""stim"" ><div class = red_square id = topsquare></div>",null,encoding,word_square,,,1,topsquare,32,true,,,LAKE,7,,,
html-keyboard-response,742,2902231,148.10000002384186,"<div style=""font-size:42px;"">LAKE</div>",32,,word,LAKE,,,,,,,,,,,,
html-keyboard-response,743,2903737,null,"",null,,word,LAKE,,,,,,,,,,,,
html-keyboard-response,744,2903953,null,"<div style=""font-size:42px;"">CABLE</div><img id = ""stim"" ><div class = green_square id = topsquare></div>",null,encoding,word_square,,,0,topsquare,none,true,,,CABLE,7,,,
html-keyboard-response,745,2904269,152.60000002384186,"<div style=""font-size:42px;"">CABLE</div>",32,,word,CABLE,,,,,,,,,,,,
html-keyboard-response,746,2905789,null,"",null,,word,CABLE,,,,,,,,,,,,
html-keyboard-response,747,2906006,null,"<div style=""font-size:42px;"">STOCKING</div><img id = ""stim"" ><div class = red_square id = bottomsquare></div>",null,encoding,word_square,,,1,bottomsquare,32,true,,,STOCKING,7,,,
html-keyboard-response,748,2906326,128.20000004768372,"<div style=""font-size:42px;"">STOCKING</div>",32,,word,STOCKING,,,,,,,,,,,,
html-keyboard-response,749,2907835,null,"",null,,word,STOCKING,,,,,,,,,,,,
html-keyboard-response,750,2908051,null,"<div style=""font-size:42px;"">BRUNETTE</div><img id = ""stim"" ><div class = green_square id = bottomsquare></div>",null,encoding,word_square,,,0,bottomsquare,none,true,,,BRUNETTE,7,,,
html-keyboard-response,751,2908367,null,"<div style=""font-size:42px;"">BRUNETTE</div>",null,,word,BRUNETTE,,,,,,,,,,,,
html-keyboard-response,752,2909886,null,"",null,,word,BRUNETTE,,,,,,,,,,,,
html-keyboard-response,753,2910103,null,"<div style=""font-size:42px;"">GALLON</div><img id = ""stim"" ><div class = red_square id = topsquare></div>",null,encoding,word_square,,,1,topsquare,32,true,,,GALLON,7,,,
html-keyboard-response,754,2910435,136.20000004768372,"<div style=""font-size:42px;"">GALLON</div>",32,,word,GALLON,,,,,,,,,,,,
html-keyboard-response,755,2911946,null,"",null,,word,GALLON,,,,,,,,,,,,
html-keyboard-response,756,2912162,null,"<div style=""font-size:42px;"">MILK</div><img id = ""stim"" ><div class = green_square id = topsquare></div>",null,encoding,word_square,,,0,topsquare,none,true,,,MILK,7,,,
html-keyboard-response,757,2912479,null,"<div style=""font-size:42px;"">MILK</div>",null,,word,MILK,,,,,,,,,,,,
html-keyboard-response,758,2913983,null,"",null,,word,MILK,,,,,,,,,,,,
html-keyboard-response,759,2914200,null,"<div style=""font-size:42px;"">DONKEY</div><img id = ""stim"" ><div class = red_square id = bottomsquare></div>",null,encoding,word_square,,,1,bottomsquare,32,true,,,DONKEY,7,,,
html-keyboard-response,760,2914517,162,"<div style=""font-size:42px;"">DONKEY</div>",32,,word,DONKEY,,,,,,,,,,,,
html-keyboard-response,761,2916022,null,"",null,,word,DONKEY,,,,,,,,,,,,
html-keyboard-response,762,2916238,null,"<div style=""font-size:42px;"">CRATER</div><img id = ""stim"" ><div class = red_square id = topsquare></div>",null,encoding,word_square,,,1,topsquare,32,true,,,CRATER,7,,,
html-keyboard-response,763,2916560,139.79999995231628,"<div style=""font-size:42px;"">CRATER</div>",32,,word,CRATER,,,,,,,,,,,,
html-keyboard-response,764,2918066,null,"",null,,word,CRATER,,,,,,,,,,,,
html-keyboard-response,765,2918282,null,"<div style=""font-size:42px;"">FOX</div><img id = ""stim"" ><div class = green_square id = bottomsquare></div>",null,encoding,word_square,,,0,bottomsquare,none,true,,,FOX,7,,,
html-keyboard-response,766,2918598,null,"<div style=""font-size:42px;"">FOX</div>",null,,word,FOX,,,,,,,,,,,,
html-keyboard-response,767,2920103,null,"",null,,word,FOX,,,,,,,,,,,,
html-keyboard-response,768,2920319,null,"<div style=""font-size:42px;"">RELISH</div><img id = ""stim"" ><div class = green_square id = topsquare></div>",null,encoding,word_square,,,0,topsquare,none,false,,,RELISH,7,,,
html-keyboard-response,769,2920635,null,"<div style=""font-size:42px;"">RELISH</div>",null,,word,RELISH,,,,,,,,,,,,
html-keyboard-response,770,2922154,25.300000071525574,"",32,,word,RELISH,,,,,,,,,,,,
html-keyboard-response,771,2922377,null,"<div style=""font-size:42px;"">FEMALE</div><img id = ""stim"" ><div class = green_square id = bottomsquare></div>",null,encoding,word_square,,,0,bottomsquare,none,true,,,FEMALE,7,,,
html-keyboard-response,772,2922693,null,"<div style=""font-size:42px;"">FEMALE</div>",null,,word,FEMALE,,,,,,,,,,,,
html-keyboard-response,773,2924198,null,"",null,,word,FEMALE,,,,,,,,,,,,
html-keyboard-response,774,2924414,null,"<div style=""font-size:42px;"">KETCHUP</div><img id = ""stim"" ><div class = red_square id = bottomsquare></div>",null,encoding,word_square,,,1,bottomsquare,32,true,,,KETCHUP,7,,,
html-keyboard-response,775,2924731,94.30000007152557,"<div style=""font-size:42px;"">KETCHUP</div>",32,,word,KETCHUP,,,,,,,,,,,,
html-keyboard-response,776,2926237,null,"",null,,word,KETCHUP,,,,,,,,,,,,
html-keyboard-response,777,2926454,null,"<div style=""font-size:42px;"">MISSILE</div><img id = ""stim"" ><div class = red_square id = topsquare></div>",null,encoding,word_square,,,1,topsquare,32,true,,,MISSILE,7,,,
html-keyboard-response,778,2926763,209.10000002384186,"<div style=""font-size:42px;"">MISSILE</div>",32,,word,MISSILE,,,,,,,,,,,,
html-keyboard-response,779,2928290,null,"",null,,word,MISSILE,,,,,,,,,,,,
html-keyboard-response,780,2928503,null,"<div style=""font-size:42px;"">SATURN</div><img id = ""stim"" ><div class = green_square id = topsquare></div>",null,encoding,word_square,,,0,topsquare,none,true,,,SATURN,7,,,
html-keyboard-response,781,2928819,null,"<div style=""font-size:42px;"">SATURN</div>",null,,word,SATURN,,,,,,,,,,,,
html-keyboard-response,782,2930326,null,"",null,,word,SATURN,,,,,,,,,,,,
html-keyboard-response,783,2930542,null,"<div style=""font-size:42px;"">ELBOW</div><img id = ""stim"" ><div class = green_square id = bottomsquare></div>",null,encoding,word_square,,,0,bottomsquare,none,true,,,ELBOW,7,,,
html-keyboard-response,784,2930859,null,"<div style=""font-size:42px;"">ELBOW</div>",null,,word,ELBOW,,,,,,,,,,,,
html-keyboard-response,785,2932381,null,"",null,,word,ELBOW,,,,,,,,,,,,
call-function,786,2932385,,"",,,,,,,,,,,,,,,,
html-keyboard-response,787,2932501,null,"",null,,,,,,,,,,,,,,,
math-period,788,2934814,4214.600000023842,"",,,,,,,,,,,6,,,,,
html-keyboard-response,789,2934925,null,"",null,,,,,,,,,,,,,,,
math-period,790,2936254,2485.2999999523163,"",,,,,,,,,,,3,,,,,
html-keyboard-response,791,2936358,null,"",null,,,,,,,,,,,,,,,
math-period,792,2938309,3739.100000023842,"",,,,,,,,,,,2,,,,,
html-keyboard-response,793,2938421,null,"",null,,,,,,,,,,,,,,,
math-period,794,2940691,4394.199999928474,"",,,,,,,,,,,3,,,,,
html-keyboard-response,795,2940802,null,"",null,,,,,,,,,,,,,,,
math-period,796,2943023,4256.399999856949,"",,,,,,,,,,,3,,,,,
html-keyboard-response,797,2943136,null,"",null,,,,,,,,,,,,,,,
math-period,798,2946660,6848.999999880791,"",,,,,,,,,,,2,,,,,
html-keyboard-response,799,2946777,null,"",null,,,,,,,,,,,,,,,
math-period,800,2947977,2247.8000000715256,"",,,,,,,,,,,3,,,,,
html-keyboard-response,801,2948081,null,"",null,,,,,,,,,,,,,,,
math-period,802,2949809,3223.799999833107,"",,,,,,,,,,,1,,,,,
html-keyboard-response,803,2949927,null,"",null,,,,,,,,,,,,,,,
math-period,804,2951776,3329.3000000715256,"",,,,,,,,,,,5,,,,,
html-keyboard-response,805,2951892,null,"",null,,,,,,,,,,,,,,,
math-period,806,2953930,3937.300000190735,"",,,,,,,,,,,3,,,,,
html-keyboard-response,807,2954039,null,"",null,,,,,,,,,,,,,,,
math-period,808,2955223,2217.9999998807907,"",,,,,,,,,,,3,,,,,
html-keyboard-response,809,2955340,null,"",null,,,,,,,,,,,,,,,
math-period,810,2956389,null,"",,,,,,,,,,,,,,,,
html-keyboard-response,811,2957408,null,"Recall Period!",null,,,,,,,,,,,,,,,
call-function,812,2957411,,"",,,,,,,,,,,,,,,,
html-keyboard-response,813,2957525,null,"",null,,,,,,,,,,,,,,,
recall-period,814,2965175,43183.49999976158,"",,,,,,,,,,,elbow,,,,,
html-keyboard-response,815,2965302,null,"",null,,,,,,,,,,,,,,,
recall-period,816,2966227,2105,"",,,,,,,,,,,fox,,,,,
html-keyboard-response,817,2966333,null,"",null,,,,,,,,,,,,,,,
recall-period,818,3027771,365900.5000001192,"",,,,,,,,,,,mouse,,,,,
html-keyboard-response,819,3027883,null,"",null,,,,,,,,,,,,,,,
recall-period,820,3032433,null,"",,,,,,,,,,,,,,,,
html-keyboard-response,821,3032944,null,"Time's Up!",null,,,,,,,,,,,,,,,
html-keyboard-response,822,3036623,3673.7000000476837,"<p> Good job! You have responded correctly to 99% of the trials. </p>
                      <p>Be sure to only press the spacebar if you see a red square, and please keep your accuracy above 80%.</p>
                      <p> Press any key to continue the experiment. </p>",32,,,,,,,,,,,,,,,
html-keyboard-response,823,3037554,928,"<div style=""font-size:48px;"">Press any key to begin list 9 of 16 </div>",32,,,,,,,,,,,,,,,
html-keyboard-response,824,3040069,null,"<div style=""font-size:60px;"">+</div>",null,,,,,,,,,,,,,,,
html-keyboard-response,825,3040292,null,"<div style=""font-size:42px;"">GYMNAST</div><img id = ""stim"" ><div class = red_square id = topsquare></div>",null,encoding,word_square,,,1,topsquare,32,true,,,GYMNAST,8,,,
html-keyboard-response,826,3040638,236.80000007152557,"<div style=""font-size:42px;"">GYMNAST</div>",32,,word,GYMNAST,,,,,,,,,,,,
html-keyboard-response,827,3042145,null,"",null,,word,GYMNAST,,,,,,,,,,,,
html-keyboard-response,828,3042361,null,"<div style=""font-size:42px;"">BIBLE</div><img id = ""stim"" ><div class = red_square id = bottomsquare></div>",null,encoding,word_square,,,1,bottomsquare,32,true,,,BIBLE,8,,,
html-keyboard-response,829,3042678,140.10000002384186,"<div style=""font-size:42px;"">BIBLE</div>",32,,word,BIBLE,,,,,,,,,,,,
html-keyboard-response,830,3044197,null,"",null,,word,BIBLE,,,,,,,,,,,,
html-keyboard-response,831,3044404,null,"<div style=""font-size:42px;"">TRUCK</div><img id = ""stim"" ><div class = green_square id = bottomsquare></div>",null,encoding,word_square,,,0,bottomsquare,none,true,,,TRUCK,8,,,
html-keyboard-response,832,3044720,null,"<div style=""font-size:42px;"">TRUCK</div>",null,,word,TRUCK,,,,,,,,,,,,
html-keyboard-response,833,3046226,null,"",null,,word,TRUCK,,,,,,,,,,,,
html-keyboard-response,834,3046434,null,"<div style=""font-size:42px;"">SEAL</div><img id = ""stim"" ><div class = red_square id = topsquare></div>",null,encoding,word_square,,,1,topsquare,32,true,,,SEAL,8,,,
html-keyboard-response,835,3046742,184.60000002384186,"<div style=""font-size:42px;"">SEAL</div>",32,,word,SEAL,,,,,,,,,,,,
html-keyboard-response,836,3048248,null,"",null,,word,SEAL,,,,,,,,,,,,
html-keyboard-response,837,3048466,null,"<div style=""font-size:42px;"">ZEBRA</div><img id = ""stim"" ><div class = red_square id = bottomsquare></div>",null,encoding,word_square,,,1,bottomsquare,32,true,,,ZEBRA,8,,,
html-keyboard-response,838,3048780,null,"<div style=""font-size:42px;"">ZEBRA</div>",null,,word,ZEBRA,,,,,,,,,,,,
html-keyboard-response,839,3050291,369.5,"",32,,word,ZEBRA,,,,,,,,,,,,
html-keyboard-response,840,3050522,null,"<div style=""font-size:42px;"">CABOOSE</div><img id = ""stim"" ><div class = green_square id = topsquare></div>",null,encoding,word_square,,,0,topsquare,none,true,,,CABOOSE,8,,,
html-keyboard-response,841,3050839,null,"<div style=""font-size:42px;"">CABOOSE</div>",null,,word,CABOOSE,,,,,,,,,,,,
html-keyboard-response,842,3052346,null,"",null,,word,CABOOSE,,,,,,,,,,,,
html-keyboard-response,843,3052561,null,"<div style=""font-size:42px;"">AUTHOR</div><img id = ""stim"" ><div class = green_square id = bottomsquare></div>",null,encoding,word_square,,,0,bottomsquare,none,true,,,AUTHOR,8,,,
html-keyboard-response,844,3052877,114.89999997615814,"<div style=""font-size:42px;"">AUTHOR</div>",32,,word,AUTHOR,,,,,,,,,,,,
html-keyboard-response,845,3054398,null,"",null,,word,AUTHOR,,,,,,,,,,,,
html-keyboard-response,846,3054614,null,"<div style=""font-size:42px;"">NOVEL</div><img id = ""stim"" ><div class = red_square id = topsquare></div>",null,encoding,word_square,,,1,topsquare,32,true,,,NOVEL,8,,,
html-keyboard-response,847,3054936,166.29999995231628,"<div style=""font-size:42px;"">NOVEL</div>",32,,word,NOVEL,,,,,,,,,,,,
html-keyboard-response,848,3056441,null,"",null,,word,NOVEL,,,,,,,,,,,,
html-keyboard-response,849,3056662,null,"<div style=""font-size:42px;"">MOTOR</div><img id = ""stim"" ><div class = green_square id = topsquare></div>",null,encoding,word_square,,,0,topsquare,none,true,,,MOTOR,8,,,
html-keyboard-response,850,3056978,115.89999997615814,"<div style=""font-size:42px;"">MOTOR</div>",32,,word,MOTOR,,,,,,,,,,,,
html-keyboard-response,851,3058499,null,"",null,,word,MOTOR,,,,,,,,,,,,
html-keyboard-response,852,3058720,null,"<div style=""font-size:42px;"">DOORBELL</div><img id = ""stim"" ><div class = red_square id = bottomsquare></div>",null,encoding,word_square,,,1,bottomsquare,32,true,,,DOORBELL,8,,,
html-keyboard-response,853,3059030,83,"<div style=""font-size:42px;"">DOORBELL</div>",32,,word,DOORBELL,,,,,,,,,,,,
html-keyboard-response,854,3060535,null,"",null,,word,DOORBELL,,,,,,,,,,,,
html-keyboard-response,855,3060752,null,"<div style=""font-size:42px;"">SCHOOL</div><img id = ""stim"" ><div class = green_square id = bottomsquare></div>",null,encoding,word_square,,,0,bottomsquare,none,true,,,SCHOOL,8,,,
html-keyboard-response,856,3061074,null,"<div style=""font-size:42px;"">SCHOOL</div>",null,,word,SCHOOL,,,,,,,,,,,,
html-keyboard-response,857,3062579,null,"",null,,word,SCHOOL,,,,,,,,,,,,
html-keyboard-response,858,3062796,null,"<div style=""font-size:42px;"">AGENT</div><img id = ""stim"" ><div class = green_square id = topsquare></div>",null,encoding,word_square,,,0,topsquare,none,true,,,AGENT,8,,,
html-keyboard-response,859,3063113,null,"<div style=""font-size:42px;"">AGENT</div>",null,,word,AGENT,,,,,,,,,,,,
html-keyboard-response,860,3064632,null,"",null,,word,AGENT,,,,,,,,,,,,
html-keyboard-response,861,3064849,null,"<div style=""font-size:42px;"">CLOTHES</div><img id = ""stim"" ><div class = red_square id = topsquare></div>",null,encoding,word_square,,,1,topsquare,32,true,,,CLOTHES,8,,,
html-keyboard-response,862,3065165,225.60000002384186,"<div style=""font-size:42px;"">CLOTHES</div>",32,,word,CLOTHES,,,,,,,,,,,,
html-keyboard-response,863,3066692,null,"",null,,word,CLOTHES,,,,,,,,,,,,
html-keyboard-response,864,3066907,null,"<div style=""font-size:42px;"">SPOUSE</div><img id = ""stim"" ><div class = red_square id = bottomsquare></div>",null,encoding,word_square,,,1,bottomsquare,32,true,,,SPOUSE,8,,,
html-keyboard-response,865,3067224,206.30000007152557,"<div style=""font-size:42px;"">SPOUSE</div>",32,,word,SPOUSE,,,,,,,,,,,,
html-keyboard-response,866,3068733,null,"",null,,word,SPOUSE,,,,,,,,,,,,
html-keyboard-response,867,3068944,null,"<div style=""font-size:42px;"">HELMET</div><img id = ""stim"" ><div class = green_square id = bottomsquare></div>",null,encoding,word_square,,,0,bottomsquare,none,true,,,HELMET,8,,,
html-keyboard-response,868,3069257,152.89999997615814,"<div style=""font-size:42px;"">HELMET</div>",32,,word,HELMET,,,,,,,,,,,,
html-keyboard-response,869,3070781,null,"",null,,word,HELMET,,,,,,,,,,,,
html-keyboard-response,870,3071007,null,"<div style=""font-size:42px;"">BARREL</div><img id = ""stim"" ><div class = green_square id = topsquare></div>",null,encoding,word_square,,,0,topsquare,none,true,,,BARREL,8,,,
html-keyboard-response,871,3071323,null,"<div style=""font-size:42px;"">BARREL</div>",null,,word,BARREL,,,,,,,,,,,,
