trial_type,trial_index,time_elapsed,rt,stimulus,key_press,exp_phase,test_part,word,task,targ_cond,sq_pos,correctKeyCode,correct,value,response,Word,List,RecResp,serial_pos,colorChosen
pavlovia,0,2414,,"",,,,,,,,,,,,,,,,
external-html,1,4825,2239.5,"",,,,,,,,,,,,,,,,
html-keyboard-response,2,6427,1598.300000011921,"Welcome to the experiment. Press any key to begin.",39,,,,,,,,,,,,,,,
html-keyboard-response,3,11511,5083,"<p>You will see a list of words and colored squares in the following task.<p><p>Press the spacebar whenever you see a GREEN square.<p><p>Do not press a key if the square is RED.<p><p>Press the spacebar to continue.</p>",32,,,,,,,,,,,,,,,
html-keyboard-response,4,20750,8729,"<p>Please try to remember as many of the words as you can, and try to think about the meaning of each word as it appears.<p><p>After the detection and encoding task you will be asked to solve some math problems for 24 seconds.<p> Please solve as many problems as you can in the time given. <p><p><p>Press the spacebar to continue.</p>",32,,,,,,,,,,,,,,,
html-keyboard-response,5,27289,6023.199999988079,"After solving the math problems, you will be asked to type in as many words <p>from the previous list as you can remember for 75 seconds.<p> If you finish recalling before the 75 seconds are up,<p> just sit tight and try to think of any more words you could have missed. <p><p><p>Press the spacebar to continue.</p>",32,,,,,,,,,,,,,,,
html-keyboard-response,6,32128,4322.600000023842,"There will be 16 lists of words and recall, followed  by<p><p> a recognition phase. The experiment is expected to take up to 90 minutes.<p>We will begin with a brief practice session.<p>Press the spacebar to begin the practice.</p>",32,,,,,,,,,,,,,,,
html-keyboard-response,7,34657,null,"<div style=""font-size:60px;"">+</div>",null,,,,,,,,,,,,,,,
html-keyboard-response,8,34869,null,"<div style=""font-size:42px;"">HAPPY</div><img id = ""stim"" ><div class = red_square id = ""bottomsquare"" ></div>",null,practice,word_square,HAPPY,prac_response,0,Bottom,none,true,,,,,,,
html-keyboard-response,9,35177,null,"<div style=""font-size:42px;"">HAPPY</div>",null,,word,HAPPY,,,,,,,,,,,,
html-keyboard-response,10,36692,null,"",null,,word,HAPPY,,,,,,,,,,,,
html-keyboard-response,11,36903,null,"<div style=""font-size:42px;"">COLD</div><img id = ""stim"" ><div class = green_square id = ""bottomsquare"" ></div>",null,practice,word_square,COLD,prac_response,1,Bottom,32,true,,,,,,,
html-keyboard-response,12,37219,270.19999998807907,"<div style=""font-size:42px;"">COLD</div>",32,,word,COLD,,,,,,,,,,,,
html-keyboard-response,13,38736,null,"",null,,word,COLD,,,,,,,,,,,,
html-keyboard-response,14,38941,null,"<div style=""font-size:42px;"">HEAVY</div><img id = ""stim"" ><div class = green_square id = ""topsquare"" ></div>",null,practice,word_square,HEAVY,prac_response,1,Top,32,true,,,,,,,
html-keyboard-response,15,39245,null,"<div style=""font-size:42px;"">HEAVY</div>",null,,word,HEAVY,,,,,,,,,,,,
html-keyboard-response,16,40762,43.69999998807907,"",32,,word,HEAVY,,,,,,,,,,,,
html-keyboard-response,17,40973,null,"<div style=""font-size:42px;"">FUNNY</div><img id = ""stim"" ><div class = red_square id = ""topsquare"" ></div>",null,practice,word_square,FUNNY,prac_response,0,Top,none,true,,,,,,,
html-keyboard-response,18,41282,null,"<div style=""font-size:42px;"">FUNNY</div>",null,,word,FUNNY,,,,,,,,,,,,
html-keyboard-response,19,42789,null,"",null,,word,FUNNY,,,,,,,,,,,,
html-keyboard-response,20,42991,null,"<div style=""font-size:42px;"">SCARY</div><img id = ""stim"" ><div class = green_square id = ""bottomsquare"" ></div>",null,practice,word_square,SCARY,prac_response,1,Bottom,32,true,,,,,,,
html-keyboard-response,21,43301,195.09999999403954,"<div style=""font-size:42px;"">SCARY</div>",32,,word,SCARY,,,,,,,,,,,,
html-keyboard-response,22,44804,null,"",null,,word,SCARY,,,,,,,,,,,,
html-keyboard-response,23,45012,null,"<div style=""font-size:42px;"">PEACEFUL</div><img id = ""stim"" ><div class = green_square id = ""topsquare"" ></div>",null,practice,word_square,PEACEFUL,prac_response,1,Top,32,true,,,,,,,
html-keyboard-response,24,45336,null,"<div style=""font-size:42px;"">PEACEFUL</div>",null,,word,PEACEFUL,,,,,,,,,,,,
html-keyboard-response,25,46851,70.19999998807907,"",32,,word,PEACEFUL,,,,,,,,,,,,
html-keyboard-response,26,47056,null,"<div style=""font-size:42px;"">LITTLE</div><img id = ""stim"" ><div class = red_square id = ""bottomsquare"" ></div>",null,practice,word_square,LITTLE,prac_response,0,Bottom,none,true,,,,,,,
html-keyboard-response,27,47360,null,"<div style=""font-size:42px;"">LITTLE</div>",null,,word,LITTLE,,,,,,,,,,,,
html-keyboard-response,28,48870,null,"",null,,word,LITTLE,,,,,,,,,,,,
html-keyboard-response,29,49079,null,"<div style=""font-size:42px;"">TIRED</div><img id = ""stim"" ><div class = red_square id = ""topsquare"" ></div>",null,practice,word_square,TIRED,prac_response,0,Top,none,true,,,,,,,
html-keyboard-response,30,49402,null,"<div style=""font-size:42px;"">TIRED</div>",null,,word,TIRED,,,,,,,,,,,,
html-keyboard-response,31,50919,null,"",null,,word,TIRED,,,,,,,,,,,,
html-keyboard-response,32,51125,null,"<div style=""font-size:42px;"">ENTERTAINING</div><img id = ""stim"" ><div class = red_square id = ""bottomsquare"" ></div>",null,practice,word_square,ENTERTAINING,prac_response,0,Bottom,none,true,,,,,,,
html-keyboard-response,33,51440,null,"<div style=""font-size:42px;"">ENTERTAINING</div>",null,,word,ENTERTAINING,,,,,,,,,,,,
html-keyboard-response,34,52941,null,"",null,,word,ENTERTAINING,,,,,,,,,,,,
html-keyboard-response,35,53153,null,"<div style=""font-size:42px;"">GRATEFUL</div><img id = ""stim"" ><div class = green_square id = ""bottomsquare"" ></div>",null,practice,word_square,GRATEFUL,prac_response,1,Bottom,32,true,,,,,,,
html-keyboard-response,36,53464,183,"<div style=""font-size:42px;"">GRATEFUL</div>",32,,word,GRATEFUL,,,,,,,,,,,,
html-keyboard-response,37,54966,null,"",null,,word,GRATEFUL,,,,,,,,,,,,
html-keyboard-response,38,55182,null,"<div style=""font-size:42px;"">LOUD</div><img id = ""stim"" ><div class = red_square id = ""topsquare"" ></div>",null,practice,word_square,LOUD,prac_response,0,Top,none,true,,,,,,,
html-keyboard-response,39,55488,null,"<div style=""font-size:42px;"">LOUD</div>",null,,word,LOUD,,,,,,,,,,,,
html-keyboard-response,40,57004,null,"",null,,word,LOUD,,,,,,,,,,,,
html-keyboard-response,41,57219,null,"<div style=""font-size:42px;"">SMART</div><img id = ""stim"" ><div class = green_square id = ""topsquare"" ></div>",null,practice,word_square,SMART,prac_response,1,Top,32,true,,,,,,,
html-keyboard-response,42,57532,221.09999999403954,"<div style=""font-size:42px;"">SMART</div>",32,,word,SMART,,,,,,,,,,,,
html-keyboard-response,43,59043,null,"",null,,word,SMART,,,,,,,,,,,,
html-keyboard-response,44,59254,null,"<div style=""font-size:42px;"">SMOOTH</div><img id = ""stim"" ><div class = green_square id = ""bottomsquare"" ></div>",null,practice,word_square,SMOOTH,prac_response,1,Bottom,32,true,,,,,,,
html-keyboard-response,45,59557,163.2999999821186,"<div style=""font-size:42px;"">SMOOTH</div>",32,,word,SMOOTH,,,,,,,,,,,,
html-keyboard-response,46,61061,null,"",null,,word,SMOOTH,,,,,,,,,,,,
html-keyboard-response,47,61263,null,"<div style=""font-size:42px;"">DISHONEST</div><img id = ""stim"" ><div class = red_square id = ""bottomsquare"" ></div>",null,practice,word_square,DISHONEST,prac_response,0,Bottom,none,true,,,,,,,
html-keyboard-response,48,61576,null,"<div style=""font-size:42px;"">DISHONEST</div>",null,,word,DISHONEST,,,,,,,,,,,,
html-keyboard-response,49,63087,null,"",null,,word,DISHONEST,,,,,,,,,,,,
html-keyboard-response,50,63292,null,"<div style=""font-size:42px;"">WEALTHY</div><img id = ""stim"" ><div class = green_square id = ""topsquare"" ></div>",null,practice,word_square,WEALTHY,prac_response,1,Top,32,true,,,,,,,
html-keyboard-response,51,63599,151.80000001192093,"<div style=""font-size:42px;"">WEALTHY</div>",32,,word,WEALTHY,,,,,,,,,,,,
html-keyboard-response,52,65101,null,"",null,,word,WEALTHY,,,,,,,,,,,,
html-keyboard-response,53,65308,null,"<div style=""font-size:42px;"">BEAUTIFUL</div><img id = ""stim"" ><div class = red_square id = ""topsquare"" ></div>",null,practice,word_square,BEAUTIFUL,prac_response,0,Top,none,true,,,,,,,
html-keyboard-response,54,65615,null,"<div style=""font-size:42px;"">BEAUTIFUL</div>",null,,word,BEAUTIFUL,,,,,,,,,,,,
html-keyboard-response,55,67121,null,"",null,,word,BEAUTIFUL,,,,,,,,,,,,
html-keyboard-response,56,70649,3525.300000011921,"<p> Good job! You responded correctly to 100% of the trials. </p>
                  <p>Be sure to only press the spacebar if you see a GREEN square, and please keep your accuracy above 80%.</p>
                  <p>We're going to try once more to make sure you understand the task. press any key to continue. </p>",32,,,,,,,,,,,,,,,
html-keyboard-response,57,72127,1476.4000000059605,"<p>You will see a list of words and colored squares in the following task.<p><p>Press the spacebar whenever you see a GREEN square.<p><p>Do not press a key if the square is RED<p><p>Press the spacebar to continue.</p>",32,,,,,,,,,,,,,,,
html-keyboard-response,58,74647,null,"<div style=""font-size:60px;"">+</div>",null,,,,,,,,,,,,,,,
html-keyboard-response,59,74855,null,"<div style=""font-size:42px;"">HAPPY</div><img id = ""stim"" ><div class = red_square id = ""bottomsquare"" ></div>",null,practice2,word_square,HAPPY,prac_response,0,Bottom,none,true,,,,,,,
html-keyboard-response,60,75169,null,"<div style=""font-size:42px;"">HAPPY</div>",null,,word,HAPPY,,,,,,,,,,,,
html-keyboard-response,61,76682,null,"",null,,word,HAPPY,,,,,,,,,,,,
html-keyboard-response,62,76894,null,"<div style=""font-size:42px;"">COLD</div><img id = ""stim"" ><div class = green_square id = ""bottomsquare"" ></div>",null,practice2,word_square,,prac_response,1,Bottom,32,true,,,,,,,
html-keyboard-response,63,77201,94.30000001192093,"<div style=""font-size:42px;"">COLD</div>",32,,word,COLD,,,,,,,,,,,,
html-keyboard-response,64,78717,null,"",null,,word,COLD,,,,,,,,,,,,
html-keyboard-response,65,78928,null,"<div style=""font-size:42px;"">HEAVY</div><img id = ""stim"" ><div class = green_square id = ""topsquare"" ></div>",null,practice2,word_square,,prac_response,1,Top,32,true,,,,,,,
html-keyboard-response,66,79235,110.09999999403954,"<div style=""font-size:42px;"">HEAVY</div>",32,,word,HEAVY,,,,,,,,,,,,
html-keyboard-response,67,80740,null,"",null,,word,HEAVY,,,,,,,,,,,,
html-keyboard-response,68,80950,null,"<div style=""font-size:42px;"">FUNNY</div><img id = ""stim"" ><div class = red_square id = ""topsquare"" ></div>",null,practice2,word_square,,prac_response,0,Top,none,true,,,,,,,
html-keyboard-response,69,81261,null,"<div style=""font-size:42px;"">FUNNY</div>",null,,word,FUNNY,,,,,,,,,,,,
html-keyboard-response,70,82781,null,"",null,,word,FUNNY,,,,,,,,,,,,
html-keyboard-response,71,83001,null,"<div style=""font-size:42px;"">SCARY</div><img id = ""stim"" ><div class = green_square id = ""bottomsquare"" ></div>",null,practice2,word_square,,prac_response,1,Bottom,32,true,,,,,,,
html-keyboard-response,72,83309,52.39999997615814,"<div style=""font-size:42px;"">SCARY</div>",32,,word,SCARY,,,,,,,,,,,,
html-keyboard-response,73,84824,null,"",null,,word,SCARY,,,,,,,,,,,,
html-keyboard-response,74,85041,null,"<div style=""font-size:42px;"">PEACEFUL</div><img id = ""stim"" ><div class = green_square id = ""topsquare"" ></div>",null,practice2,word_square,,prac_response,1,Top,32,true,,,,,,,
html-keyboard-response,75,85343,177.09999999403954,"<div style=""font-size:42px;"">PEACEFUL</div>",32,,word,PEACEFUL,,,,,,,,,,,,
html-keyboard-response,76,86851,null,"",null,,word,PEACEFUL,,,,,,,,,,,,
html-keyboard-response,77,87062,null,"<div style=""font-size:42px;"">LITTLE</div><img id = ""stim"" ><div class = red_square id = ""bottomsquare"" ></div>",null,practice2,word_square,LITTLE,prac_response,0,Bottom,none,true,,,,,,,
html-keyboard-response,78,87366,null,"<div style=""font-size:42px;"">LITTLE</div>",null,,word,LITTLE,,,,,,,,,,,,
html-keyboard-response,79,88873,null,"",null,,word,LITTLE,,,,,,,,,,,,
html-keyboard-response,80,89083,null,"<div style=""font-size:42px;"">TIRED</div><img id = ""stim"" ><div class = red_square id = ""topsquare"" ></div>",null,practice2,word_square,,prac_response,0,Top,none,true,,,,,,,
html-keyboard-response,81,89398,null,"<div style=""font-size:42px;"">TIRED</div>",null,,word,TIRED,,,,,,,,,,,,
html-keyboard-response,82,90908,null,"",null,,word,TIRED,,,,,,,,,,,,
html-keyboard-response,83,91119,null,"<div style=""font-size:42px;"">ENTERTAINING</div><img id = ""stim"" ><div class = red_square id = ""bottomsquare"" ></div>",null,practice2,word_square,ENTERTAINING,prac_response,0,Bottom,none,true,,,,,,,
html-keyboard-response,84,91437,null,"<div style=""font-size:42px;"">ENTERTAINING</div>",null,,word,ENTERTAINING,,,,,,,,,,,,
html-keyboard-response,85,92951,null,"",null,,word,ENTERTAINING,,,,,,,,,,,,
html-keyboard-response,86,93166,null,"<div style=""font-size:42px;"">GRATEFUL</div><img id = ""stim"" ><div class = green_square id = ""bottomsquare"" ></div>",null,practice2,word_square,,prac_response,1,Bottom,32,true,,,,,,,
html-keyboard-response,87,93468,184.59999999403954,"<div style=""font-size:42px;"">GRATEFUL</div>",32,,word,GRATEFUL,,,,,,,,,,,,
html-keyboard-response,88,94982,null,"",null,,word,GRATEFUL,,,,,,,,,,,,
html-keyboard-response,89,95191,null,"<div style=""font-size:42px;"">LOUD</div><img id = ""stim"" ><div class = red_square id = ""topsquare"" ></div>",null,practice2,word_square,,prac_response,0,Top,none,true,,,,,,,
html-keyboard-response,90,95504,null,"<div style=""font-size:42px;"">LOUD</div>",null,,word,LOUD,,,,,,,,,,,,
html-keyboard-response,91,97011,null,"",null,,word,LOUD,,,,,,,,,,,,
html-keyboard-response,92,97223,null,"<div style=""font-size:42px;"">SMART</div><img id = ""stim"" ><div class = green_square id = ""topsquare"" ></div>",null,practice2,word_square,,prac_response,1,Top,32,true,,,,,,,
html-keyboard-response,93,97528,133.19999998807907,"<div style=""font-size:42px;"">SMART</div>",32,,word,SMART,,,,,,,,,,,,
html-keyboard-response,94,99041,null,"",null,,word,SMART,,,,,,,,,,,,
html-keyboard-response,95,99252,null,"<div style=""font-size:42px;"">SMOOTH</div><img id = ""stim"" ><div class = green_square id = ""bottomsquare"" ></div>",null,practice2,word_square,,prac_response,1,Bottom,32,true,,,,,,,
html-keyboard-response,96,99559,170.89999997615814,"<div style=""font-size:42px;"">SMOOTH</div>",32,,word,SMOOTH,,,,,,,,,,,,
html-keyboard-response,97,101068,null,"",null,,word,SMOOTH,,,,,,,,,,,,
html-keyboard-response,98,101287,null,"<div style=""font-size:42px;"">DISHONEST</div><img id = ""stim"" ><div class = red_square id = ""bottomsquare"" ></div>",null,practice2,word_square,DISHONEST,prac_response,0,Bottom,none,true,,,,,,,
html-keyboard-response,99,101603,null,"<div style=""font-size:42px;"">DISHONEST</div>",null,,word,DISHONEST,,,,,,,,,,,,
html-keyboard-response,100,103116,null,"",null,,word,DISHONEST,,,,,,,,,,,,
html-keyboard-response,101,103321,null,"<div style=""font-size:42px;"">WEALTHY</div><img id = ""stim"" ><div class = green_square id = ""topsquare"" ></div>",null,practice2,word_square,,prac_response,1,Top,32,true,,,,,,,
html-keyboard-response,102,103625,119.90000000596046,"<div style=""font-size:42px;"">WEALTHY</div>",32,,word,WEALTHY,,,,,,,,,,,,
html-keyboard-response,103,105134,null,"",null,,word,WEALTHY,,,,,,,,,,,,
html-keyboard-response,104,105346,null,"<div style=""font-size:42px;"">BEAUTIFUL</div><img id = ""stim"" ><div class = red_square id = ""topsquare"" ></div>",null,practice2,word_square,,prac_response,0,Top,none,false,,,,,,,
html-keyboard-response,105,105658,null,"<div style=""font-size:42px;"">BEAUTIFUL</div>",null,,word,BEAUTIFUL,,,,,,,,,,,,
html-keyboard-response,106,107161,null,"",null,,word,BEAUTIFUL,,,,,,,,,,,,
html-keyboard-response,107,109199,2035.699999988079,"<p> Good job! You responded correctly to 100% of the trials. </p>
                    <p>Be sure to only press the spacebar if you see a GREEN square, and please keep your accuracy above 80%.</p>
                    <p>Press any key to begin the math and recall sections. Thank you! </p>",32,,,,,,,,,,,,,,,
call-function,108,109200,,"",,,,,,,,,,,,,,,,
html-keyboard-response,109,109301,null,"",null,,,,,,,,,,,,,,,
math-period,110,112680,5687.800000011921,"",,,,,,,,,,,3,,,,,
html-keyboard-response,111,112791,null,"",null,,,,,,,,,,,,,,,
math-period,112,114662,3649.100000023842,"",,,,,,,,,,,5,,,,,
html-keyboard-response,113,114775,null,"",null,,,,,,,,,,,,,,,
math-period,114,115933,2232.5999999940395,"",,,,,,,,,,,3,,,,,
html-keyboard-response,115,116050,null,"",null,,,,,,,,,,,,,,,
math-period,116,117001,1821.2000000178814,"",,,,,,,,,,,5,,,,,
html-keyboard-response,117,117114,null,"",null,,,,,,,,,,,,,,,
math-period,118,118139,1950.0000000298023,"",,,,,,,,,,,4,,,,,
html-keyboard-response,119,118240,null,"",null,,,,,,,,,,,,,,,
math-period,120,119113,1626.6000000238419,"",,,,,,,,,,,4,,,,,
html-keyboard-response,121,119225,null,"",null,,,,,,,,,,,,,,,
math-period,122,121293,4041.9000000059605,"",,,,,,,,,,,1,,,,,
html-keyboard-response,123,121408,null,"",null,,,,,,,,,,,,,,,
math-period,124,122975,2991.5999999940395,"",,,,,,,,,,,2,,,,,
html-keyboard-response,125,123077,null,"",null,,,,,,,,,,,,,,,
math-period,126,124203,2104.7000000178814,"",,,,,,,,,,,5,,,,,
html-keyboard-response,127,124306,null,"",null,,,,,,,,,,,,,,,
math-period,128,125534,2395.5000000298023,"",,,,,,,,,,,3,,,,,
html-keyboard-response,129,125645,null,"",null,,,,,,,,,,,,,,,
math-period,130,127100,2775.7000000178814,"",,,,,,,,,,,1,,,,,
html-keyboard-response,131,127202,null,"",null,,,,,,,,,,,,,,,
math-period,132,128656,2611.5999999940395,"",,,,,,,,,,,5,,,,,
html-keyboard-response,133,128768,null,"",null,,,,,,,,,,,,,,,
math-period,134,130508,3396,"",,,,,,,,,,,4,,,,,
html-keyboard-response,135,130613,null,"",null,,,,,,,,,,,,,,,
math-period,136,132149,2880.899999976158,"",,,,,,,,,,,1,,,,,
html-keyboard-response,137,132262,null,"",null,,,,,,,,,,,,,,,
math-period,138,133210,null,"",,,,,,,,,,,,,,,,
html-keyboard-response,139,134223,null,"Recall Period!",null,,,,,,,,,,,,,,,
call-function,140,134224,,"",,,,,,,,,,,,,,,,
html-keyboard-response,141,134337,null,"",null,,,,,,,,,,,,,,,
recall-period,142,137880,18493.100000083447,"",,,,,,,,,,,funny,,,,,
html-keyboard-response,143,137996,null,"",null,,,,,,,,,,,,,,,
recall-period,144,139623,7503.399999946356,"",,,,,,,,,,,smooth,,,,,
html-keyboard-response,145,139739,null,"",null,,,,,,,,,,,,,,,
recall-period,146,142157,12024.900000065565,"",,,,,,,,,,,tired,,,,,
html-keyboard-response,147,142259,null,"",null,,,,,,,,,,,,,,,
recall-period,148,147590,42223.60000008345,"",,,,,,,,,,,heavy,,,,,
html-keyboard-response,149,147702,null,"",null,,,,,,,,,,,,,,,
recall-period,150,209236,null,"",,,,,,,,,,,,,,,,
html-keyboard-response,151,209741,null,"Time's Up!",null,,,,,,,,,,,,,,,
html-keyboard-response,152,214613,4870.699999988079,"<p>We will now begin the experiment!<p><p>Please try to remember all words from each list.<p><p>Press the spacebar whenever you see a GREEN square.<p><p><p><p>Press the spacebar to begin.</p>",32,,,,,,,,,,,,,,,
html-keyboard-response,153,217225,2100.800000011921,"<div style=""font-size:48px;"">Press any key to begin list 1 of 16 </div>",32,,,,,,,,,,,,,,,
html-keyboard-response,154,219749,null,"<div style=""font-size:60px;"">+</div>",null,,,,,,,,,,,,,,,
html-keyboard-response,155,219965,null,"<div style=""font-size:42px;"">BELLY</div><img id = ""stim"" ><div class = green_square id = topsquare></div>",null,encoding,word_square,,,1,topsquare,32,true,,,BELLY,0,,,
html-keyboard-response,156,220270,211.2999999821186,"<div style=""font-size:42px;"">BELLY</div>",32,,word,BELLY,,,,,,,,,,,,
html-keyboard-response,157,221786,null,"",null,,word,BELLY,,,,,,,,,,,,
html-keyboard-response,158,222002,null,"<div style=""font-size:42px;"">SAUSAGE</div><img id = ""stim"" ><div class = green_square id = bottomsquare></div>",null,encoding,word_square,,,1,bottomsquare,32,true,,,SAUSAGE,0,,,
html-keyboard-response,159,222307,117,"<div style=""font-size:42px;"">SAUSAGE</div>",32,,word,SAUSAGE,,,,,,,,,,,,
html-keyboard-response,160,223808,null,"",null,,word,SAUSAGE,,,,,,,,,,,,
html-keyboard-response,161,224024,null,"<div style=""font-size:42px;"">MILDEW</div><img id = ""stim"" ><div class = green_square id = topsquare></div>",null,encoding,word_square,,,1,topsquare,32,true,,,MILDEW,0,,,
html-keyboard-response,162,224338,108.09999999403954,"<div style=""font-size:42px;"">MILDEW</div>",32,,word,MILDEW,,,,,,,,,,,,
html-keyboard-response,163,225853,null,"",null,,word,MILDEW,,,,,,,,,,,,
html-keyboard-response,164,226062,null,"<div style=""font-size:42px;"">SHRIMP</div><img id = ""stim"" ><div class = red_square id = bottomsquare></div>",null,encoding,word_square,,,0,bottomsquare,none,true,,,SHRIMP,0,,,
html-keyboard-response,165,226374,null,"<div style=""font-size:42px;"">SHRIMP</div>",null,,word,SHRIMP,,,,,,,,,,,,
html-keyboard-response,166,227879,null,"",null,,word,SHRIMP,,,,,,,,,,,,
html-keyboard-response,167,228087,null,"<div style=""font-size:42px;"">MASK</div><img id = ""stim"" ><div class = red_square id = topsquare></div>",null,encoding,word_square,,,0,topsquare,none,true,,,MASK,0,,,
html-keyboard-response,168,228391,null,"<div style=""font-size:42px;"">MASK</div>",null,,word,MASK,,,,,,,,,,,,
html-keyboard-response,169,229921,null,"",null,,word,MASK,,,,,,,,,,,,
html-keyboard-response,170,230134,null,"<div style=""font-size:42px;"">VAMPIRE</div><img id = ""stim"" ><div class = green_square id = bottomsquare></div>",null,encoding,word_square,,,1,bottomsquare,32,true,,,VAMPIRE,0,,,
html-keyboard-response,171,230438,138.90000000596046,"<div style=""font-size:42px;"">VAMPIRE</div>",32,,word,VAMPIRE,,,,,,,,,,,,
html-keyboard-response,172,231944,null,"",null,,word,VAMPIRE,,,,,,,,,,,,
html-keyboard-response,173,232155,null,"<div style=""font-size:42px;"">GRAVE</div><img id = ""stim"" ><div class = red_square id = bottomsquare></div>",null,encoding,word_square,,,0,bottomsquare,none,true,,,GRAVE,0,,,
html-keyboard-response,174,232470,null,"<div style=""font-size:42px;"">GRAVE</div>",null,,word,GRAVE,,,,,,,,,,,,
html-keyboard-response,175,233983,null,"",null,,word,GRAVE,,,,,,,,,,,,
html-keyboard-response,176,234191,null,"<div style=""font-size:42px;"">VALLEY</div><img id = ""stim"" ><div class = red_square id = topsquare></div>",null,encoding,word_square,,,0,topsquare,none,true,,,VALLEY,0,,,
html-keyboard-response,177,234497,null,"<div style=""font-size:42px;"">VALLEY</div>",null,,word,VALLEY,,,,,,,,,,,,
html-keyboard-response,178,236010,null,"",null,,word,VALLEY,,,,,,,,,,,,
html-keyboard-response,179,236222,null,"<div style=""font-size:42px;"">CARRIAGE</div><img id = ""stim"" ><div class = green_square id = topsquare></div>",null,encoding,word_square,,,1,topsquare,32,true,,,CARRIAGE,0,,,
html-keyboard-response,180,236535,145,"<div style=""font-size:42px;"">CARRIAGE</div>",32,,word,CARRIAGE,,,,,,,,,,,,
html-keyboard-response,181,238046,null,"",null,,word,CARRIAGE,,,,,,,,,,,,
html-keyboard-response,182,238249,null,"<div style=""font-size:42px;"">CRIB</div><img id = ""stim"" ><div class = red_square id = bottomsquare></div>",null,encoding,word_square,,,0,bottomsquare,none,true,,,CRIB,0,,,
html-keyboard-response,183,238552,null,"<div style=""font-size:42px;"">CRIB</div>",null,,word,CRIB,,,,,,,,,,,,
html-keyboard-response,184,240059,null,"",null,,word,CRIB,,,,,,,,,,,,
html-keyboard-response,185,240268,null,"<div style=""font-size:42px;"">SLOPE</div><img id = ""stim"" ><div class = green_square id = bottomsquare></div>",null,encoding,word_square,,,1,bottomsquare,32,true,,,SLOPE,0,,,
html-keyboard-response,186,240573,96.7999999821186,"<div style=""font-size:42px;"">SLOPE</div>",32,,word,SLOPE,,,,,,,,,,,,
html-keyboard-response,187,242081,null,"",null,,word,SLOPE,,,,,,,,,,,,
html-keyboard-response,188,242291,null,"<div style=""font-size:42px;"">FRECKLE</div><img id = ""stim"" ><div class = red_square id = topsquare></div>",null,encoding,word_square,,,0,topsquare,none,true,,,FRECKLE,0,,,
html-keyboard-response,189,242607,null,"<div style=""font-size:42px;"">FRECKLE</div>",null,,word,FRECKLE,,,,,,,,,,,,
html-keyboard-response,190,244109,null,"",null,,word,FRECKLE,,,,,,,,,,,,
html-keyboard-response,191,244331,null,"<div style=""font-size:42px;"">PERFUME</div><img id = ""stim"" ><div class = red_square id = bottomsquare></div>",null,encoding,word_square,,,0,bottomsquare,none,true,,,PERFUME,0,,,
html-keyboard-response,192,244638,null,"<div style=""font-size:42px;"">PERFUME</div>",null,,word,PERFUME,,,,,,,,,,,,
html-keyboard-response,193,246142,null,"",null,,word,PERFUME,,,,,,,,,,,,
html-keyboard-response,194,246348,null,"<div style=""font-size:42px;"">CRACKER</div><img id = ""stim"" ><div class = green_square id = topsquare></div>",null,encoding,word_square,,,1,topsquare,32,true,,,CRACKER,0,,,
html-keyboard-response,195,246655,177.5,"<div style=""font-size:42px;"">CRACKER</div>",32,,word,CRACKER,,,,,,,,,,,,
html-keyboard-response,196,248167,null,"",null,,word,CRACKER,,,,,,,,,,,,
html-keyboard-response,197,248372,null,"<div style=""font-size:42px;"">COWBOY</div><img id = ""stim"" ><div class = green_square id = bottomsquare></div>",null,encoding,word_square,,,1,bottomsquare,32,true,,,COWBOY,0,,,
html-keyboard-response,198,248679,150.09999999403954,"<div style=""font-size:42px;"">COWBOY</div>",32,,word,COWBOY,,,,,,,,,,,,
html-keyboard-response,199,250192,null,"",null,,word,COWBOY,,,,,,,,,,,,
html-keyboard-response,200,250396,null,"<div style=""font-size:42px;"">PIMPLE</div><img id = ""stim"" ><div class = red_square id = topsquare></div>",null,encoding,word_square,,,0,topsquare,none,true,,,PIMPLE,0,,,
html-keyboard-response,201,250703,null,"<div style=""font-size:42px;"">PIMPLE</div>",null,,word,PIMPLE,,,,,,,,,,,,
html-keyboard-response,202,252212,null,"",null,,word,PIMPLE,,,,,,,,,,,,
call-function,203,252214,,"",,,,,,,,,,,,,,,,
html-keyboard-response,204,252321,null,"",null,,,,,,,,,,,,,,,
math-period,205,254611,4326.800000011921,"",,,,,,,,,,,1,,,,,
html-keyboard-response,206,254727,null,"",null,,,,,,,,,,,,,,,
math-period,207,255801,2047,"",,,,,,,,,,,3,,,,,
html-keyboard-response,208,255911,null,"",null,,,,,,,,,,,,,,,
math-period,209,258854,9224.499999970198,"",,,,,,,,,,,4,,,,,
html-keyboard-response,210,258966,null,"",null,,,,,,,,,,,,,,,
math-period,211,260973,3945.0999999940395,"",,,,,,,,,,,2,,,,,
html-keyboard-response,212,261076,null,"",null,,,,,,,,,,,,,,,
math-period,213,263339,4185.5999999940395,"",,,,,,,,,,,0,,,,,
html-keyboard-response,214,263448,null,"",null,,,,,,,,,,,,,,,
math-period,215,264770,2512.6999999582767,"",,,,,,,,,,,5,,,,,
html-keyboard-response,216,264880,null,"",null,,,,,,,,,,,,,,,
math-period,217,265809,1759.7000000178814,"",,,,,,,,,,,2,,,,,
html-keyboard-response,218,265921,null,"",null,,,,,,,,,,,,,,,
math-period,219,266998,2047.8999999761581,"",,,,,,,,,,,3,,,,,
html-keyboard-response,220,267109,null,"",null,,,,,,,,,,,,,,,
math-period,221,268370,2452.399999976158,"",,,,,,,,,,,2,,,,,
html-keyboard-response,222,268477,null,"",null,,,,,,,,,,,,,,,
math-period,223,269529,2009.6000000238419,"",,,,,,,,,,,3,,,,,
html-keyboard-response,224,269648,null,"",null,,,,,,,,,,,,,,,
math-period,225,270769,2104.9000000059605,"",,,,,,,,,,,5,,,,,
html-keyboard-response,226,270873,null,"",null,,,,,,,,,,,,,,,
math-period,227,271999,2067.699999988079,"",,,,,,,,,,,4,,,,,
html-keyboard-response,228,272101,null,"",null,,,,,,,,,,,,,,,
math-period,229,273879,3507.900000035763,"",,,,,,,,,,,2,,,,,
html-keyboard-response,230,273996,null,"",null,,,,,,,,,,,,,,,
math-period,231,275022,1953.300000011921,"",,,,,,,,,,,3,,,,,
html-keyboard-response,232,275128,null,"",null,,,,,,,,,,,,,,,
math-period,233,276225,null,"",,,,,,,,,,,,,,,,
html-keyboard-response,234,277239,null,"Recall Period!",null,,,,,,,,,,,,,,,
call-function,235,277240,,"",,,,,,,,,,,,,,,,
html-keyboard-response,236,277354,null,"",null,,,,,,,,,,,,,,,
recall-period,237,280380,13464.799999982119,"",,,,,,,,,,,cowboy,,,,,
html-keyboard-response,238,280482,null,"",null,,,,,,,,,,,,,,,
recall-period,239,283426,17667.300000071526,"",,,,,,,,,,,pimple,,,,,
html-keyboard-response,240,283530,null,"",null,,,,,,,,,,,,,,,
recall-period,241,352243,null,"",,,,,,,,,,,,,,,,
html-keyboard-response,242,352758,null,"Time's Up!",null,,,,,,,,,,,,,,,
html-keyboard-response,243,355113,2352.699999988079,"<p> Good job! You have responded correctly to 100% of the trials. </p>
                      <p>Be sure to only press the spacebar if you see a GREEN square, and please keep your accuracy above 80%.</p>
                      <p> Press any key to continue the experiment. </p>",32,,,,,,,,,,,,,,,
html-keyboard-response,244,356158,1044.0999999940395,"<div style=""font-size:48px;"">Press any key to begin list 2 of 16 </div>",32,,,,,,,,,,,,,,,
html-keyboard-response,245,358674,null,"<div style=""font-size:60px;"">+</div>",null,,,,,,,,,,,,,,,
html-keyboard-response,246,358890,null,"<div style=""font-size:42px;"">DOORBELL</div><img id = ""stim"" ><div class = red_square id = topsquare></div>",null,encoding,word_square,,,0,topsquare,none,true,,,DOORBELL,1,,,
html-keyboard-response,247,359195,null,"<div style=""font-size:42px;"">DOORBELL</div>",null,,word,DOORBELL,,,,,,,,,,,,
html-keyboard-response,248,360699,null,"",null,,word,DOORBELL,,,,,,,,,,,,
html-keyboard-response,249,360912,null,"<div style=""font-size:42px;"">ULCER</div><img id = ""stim"" ><div class = green_square id = bottomsquare></div>",null,encoding,word_square,,,1,bottomsquare,32,true,,,ULCER,1,,,
html-keyboard-response,250,361218,187.90000000596046,"<div style=""font-size:42px;"">ULCER</div>",32,,word,ULCER,,,,,,,,,,,,
html-keyboard-response,251,362721,null,"",null,,word,ULCER,,,,,,,,,,,,
html-keyboard-response,252,362937,null,"<div style=""font-size:42px;"">STOMACH</div><img id = ""stim"" ><div class = green_square id = topsquare></div>",null,encoding,word_square,,,1,topsquare,32,true,,,STOMACH,1,,,
html-keyboard-response,253,363241,126.10000002384186,"<div style=""font-size:42px;"">STOMACH</div>",32,,word,STOMACH,,,,,,,,,,,,
html-keyboard-response,254,364749,null,"",null,,word,STOMACH,,,,,,,,,,,,
html-keyboard-response,255,364967,null,"<div style=""font-size:42px;"">RESORT</div><img id = ""stim"" ><div class = red_square id = bottomsquare></div>",null,encoding,word_square,,,0,bottomsquare,none,true,,,RESORT,1,,,
html-keyboard-response,256,365272,null,"<div style=""font-size:42px;"">RESORT</div>",null,,word,RESORT,,,,,,,,,,,,
html-keyboard-response,257,366785,null,"",null,,word,RESORT,,,,,,,,,,,,
html-keyboard-response,258,367001,null,"<div style=""font-size:42px;"">KEEPER</div><img id = ""stim"" ><div class = red_square id = topsquare></div>",null,encoding,word_square,,,0,topsquare,none,true,,,KEEPER,1,,,
html-keyboard-response,259,367305,null,"<div style=""font-size:42px;"">KEEPER</div>",null,,word,KEEPER,,,,,,,,,,,,
html-keyboard-response,260,368817,null,"",null,,word,KEEPER,,,,,,,,,,,,
html-keyboard-response,261,369024,null,"<div style=""font-size:42px;"">ACTOR</div><img id = ""stim"" ><div class = green_square id = bottomsquare></div>",null,encoding,word_square,,,1,bottomsquare,32,true,,,ACTOR,1,,,
html-keyboard-response,262,369335,135.2999999821186,"<div style=""font-size:42px;"">ACTOR</div>",32,,word,ACTOR,,,,,,,,,,,,
html-keyboard-response,263,370848,null,"",null,,word,ACTOR,,,,,,,,,,,,
html-keyboard-response,264,371060,null,"<div style=""font-size:42px;"">GYMNAST</div><img id = ""stim"" ><div class = red_square id = bottomsquare></div>",null,encoding,word_square,,,0,bottomsquare,none,true,,,GYMNAST,1,,,
html-keyboard-response,265,371387,null,"<div style=""font-size:42px;"">GYMNAST</div>",null,,word,GYMNAST,,,,,,,,,,,,
html-keyboard-response,266,372900,null,"",null,,word,GYMNAST,,,,,,,,,,,,
html-keyboard-response,267,373112,null,"<div style=""font-size:42px;"">BUILDER</div><img id = ""stim"" ><div class = green_square id = topsquare></div>",null,encoding,word_square,,,1,topsquare,32,true,,,BUILDER,1,,,
html-keyboard-response,268,373417,116.80000001192093,"<div style=""font-size:42px;"">BUILDER</div>",32,,word,BUILDER,,,,,,,,,,,,
html-keyboard-response,269,374934,null,"",null,,word,BUILDER,,,,,,,,,,,,
html-keyboard-response,270,375148,null,"<div style=""font-size:42px;"">POPCORN</div><img id = ""stim"" ><div class = red_square id = topsquare></div>",null,encoding,word_square,,,0,topsquare,none,true,,,POPCORN,1,,,
html-keyboard-response,271,375463,null,"<div style=""font-size:42px;"">POPCORN</div>",null,,word,POPCORN,,,,,,,,,,,,
html-keyboard-response,272,376969,null,"",null,,word,POPCORN,,,,,,,,,,,,
html-keyboard-response,273,377183,null,"<div style=""font-size:42px;"">SEAFOOD</div><img id = ""stim"" ><div class = red_square id = bottomsquare></div>",null,encoding,word_square,,,0,bottomsquare,none,true,,,SEAFOOD,1,,,
html-keyboard-response,274,377489,null,"<div style=""font-size:42px;"">SEAFOOD</div>",null,,word,SEAFOOD,,,,,,,,,,,,
html-keyboard-response,275,378998,null,"",null,,word,SEAFOOD,,,,,,,,,,,,
html-keyboard-response,276,379209,null,"<div style=""font-size:42px;"">CANVAS</div><img id = ""stim"" ><div class = green_square id = bottomsquare></div>",null,encoding,word_square,,,1,bottomsquare,32,true,,,CANVAS,1,,,
html-keyboard-response,277,379518,136.5,"<div style=""font-size:42px;"">CANVAS</div>",32,,word,CANVAS,,,,,,,,,,,,
html-keyboard-response,278,381029,null,"",null,,word,CANVAS,,,,,,,,,,,,
html-keyboard-response,279,381231,null,"<div style=""font-size:42px;"">TUTU</div><img id = ""stim"" ><div class = red_square id = topsquare></div>",null,encoding,word_square,,,0,topsquare,none,true,,,TUTU,1,,,
html-keyboard-response,280,381561,null,"<div style=""font-size:42px;"">TUTU</div>",null,,word,TUTU,,,,,,,,,,,,
html-keyboard-response,281,383072,null,"",null,,word,TUTU,,,,,,,,,,,,
html-keyboard-response,282,383279,null,"<div style=""font-size:42px;"">DRESS</div><img id = ""stim"" ><div class = red_square id = bottomsquare></div>",null,encoding,word_square,,,0,bottomsquare,none,true,,,DRESS,1,,,
html-keyboard-response,283,383590,null,"<div style=""font-size:42px;"">DRESS</div>",null,,word,DRESS,,,,,,,,,,,,
html-keyboard-response,284,385102,null,"",null,,word,DRESS,,,,,,,,,,,,
html-keyboard-response,285,385320,null,"<div style=""font-size:42px;"">BISCUIT</div><img id = ""stim"" ><div class = green_square id = topsquare></div>",null,encoding,word_square,,,1,topsquare,32,true,,,BISCUIT,1,,,
html-keyboard-response,286,385634,114.80000001192093,"<div style=""font-size:42px;"">BISCUIT</div>",32,,word,BISCUIT,,,,,,,,,,,,
html-keyboard-response,287,387152,null,"",null,,word,BISCUIT,,,,,,,,,,,,
html-keyboard-response,288,387364,null,"<div style=""font-size:42px;"">CRAB</div><img id = ""stim"" ><div class = green_square id = bottomsquare></div>",null,encoding,word_square,,,1,bottomsquare,32,true,,,CRAB,1,,,
html-keyboard-response,289,387670,233.7999999821186,"<div style=""font-size:42px;"">CRAB</div>",32,,word,CRAB,,,,,,,,,,,,
html-keyboard-response,290,389185,null,"",null,,word,CRAB,,,,,,,,,,,,
html-keyboard-response,291,389389,null,"<div style=""font-size:42px;"">PAPER</div><img id = ""stim"" ><div class = green_square id = topsquare></div>",null,encoding,word_square,,,1,topsquare,32,true,,,PAPER,1,,,
html-keyboard-response,292,389691,202.7999999821186,"<div style=""font-size:42px;"">PAPER</div>",32,,word,PAPER,,,,,,,,,,,,
html-keyboard-response,293,391194,null,"",null,,word,PAPER,,,,,,,,,,,,
call-function,294,391195,,"",,,,,,,,,,,,,,,,
html-keyboard-response,295,391314,null,"",null,,,,,,,,,,,,,,,
math-period,296,394300,5017.9000000059605,"",,,,,,,,,,,4,,,,,
html-keyboard-response,297,394406,null,"",null,,,,,,,,,,,,,,,
math-period,298,395406,1902.8999999761581,"",,,,,,,,,,,5,,,,,
html-keyboard-response,299,395518,null,"",null,,,,,,,,,,,,,,,
math-period,300,398394,5639.199999988079,"",,,,,,,,,,,3,,,,,
html-keyboard-response,301,398501,null,"",null,,,,,,,,,,,,,,,
math-period,302,399721,2351.7999999523163,"",,,,,,,,,,,5,,,,,
html-keyboard-response,303,399837,null,"",null,,,,,,,,,,,,,,,
math-period,304,400894,1979.0999999642372,"",,,,,,,,,,,5,,,,,
html-keyboard-response,305,401008,null,"",null,,,,,,,,,,,,,,,
math-period,306,401774,1414.5999999940395,"",,,,,,,,,,,5,,,,,
html-keyboard-response,307,401886,null,"",null,,,,,,,,,,,,,,,
math-period,308,403577,3101.100000023842,"",,,,,,,,,,,1,,,,,
html-keyboard-response,309,403680,null,"",null,,,,,,,,,,,,,,,
math-period,310,404753,2038.8999999761581,"",,,,,,,,,,,3,,,,,
html-keyboard-response,311,404860,null,"",null,,,,,,,,,,,,,,,
math-period,312,405699,1573.5,"",,,,,,,,,,,5,,,,,
html-keyboard-response,313,405808,null,"",null,,,,,,,,,,,,,,,
math-period,314,406700,1720.0999999940395,"",,,,,,,,,,,3,,,,,
html-keyboard-response,315,406803,null,"",null,,,,,,,,,,,,,,,
math-period,316,407762,1841.6999999582767,"",,,,,,,,,,,5,,,,,
html-keyboard-response,317,407877,null,"",null,,,,,,,,,,,,,,,
math-period,318,408753,1676.4000000059605,"",,,,,,,,,,,3,,,,,
html-keyboard-response,319,408870,null,"",null,,,,,,,,,,,,,,,
math-period,320,409905,2022,"",,,,,,,,,,,6,,,,,
html-keyboard-response,321,410012,null,"",null,,,,,,,,,,,,,,,
math-period,322,411104,2096.199999988079,"",,,,,,,,,,,5,,,,,
html-keyboard-response,323,411214,null,"",null,,,,,,,,,,,,,,,
math-period,324,412397,2294.2000000178814,"",,,,,,,,,,,1,,,,,
html-keyboard-response,325,412498,null,"",null,,,,,,,,,,,,,,,
math-period,326,414019,2941.899999976158,"",,,,,,,,,,,4,,,,,
html-keyboard-response,327,414133,null,"",null,,,,,,,,,,,,,,,
math-period,328,415076,1810.4000000059605,"",,,,,,,,,,,3,,,,,
html-keyboard-response,329,415179,null,"",null,,,,,,,,,,,,,,,
math-period,330,415196,null,"",,,,,,,,,,,,,,,,
html-keyboard-response,331,416200,null,"Recall Period!",null,,,,,,,,,,,,,,,
call-function,332,416201,,"",,,,,,,,,,,,,,,,
html-keyboard-response,333,416316,null,"",null,,,,,,,,,,,,,,,
recall-period,334,421249,30946.699999898672,"",,,,,,,,,,,biscuit,,,,,
html-keyboard-response,335,421363,null,"",null,,,,,,,,,,,,,,,
recall-period,336,491203,null,"",,,,,,,,,,,,,,,,
html-keyboard-response,337,491706,null,"Time's Up!",null,,,,,,,,,,,,,,,
html-keyboard-response,338,493006,1297.5999999940395,"<p> Good job! You have responded correctly to 100% of the trials. </p>
                      <p>Be sure to only press the spacebar if you see a GREEN square, and please keep your accuracy above 80%.</p>
                      <p> Press any key to continue the experiment. </p>",32,,,,,,,,,,,,,,,
html-keyboard-response,339,493911,903.7000000178814,"<div style=""font-size:48px;"">Press any key to begin list 3 of 16 </div>",32,,,,,,,,,,,,,,,
html-keyboard-response,340,496444,null,"<div style=""font-size:60px;"">+</div>",null,,,,,,,,,,,,,,,
html-keyboard-response,341,496651,null,"<div style=""font-size:42px;"">FREEWAY</div><img id = ""stim"" ><div class = red_square id = bottomsquare></div>",null,encoding,word_square,,,0,bottomsquare,none,true,,,FREEWAY,2,,,
html-keyboard-response,342,496957,null,"<div style=""font-size:42px;"">FREEWAY</div>",null,,word,FREEWAY,,,,,,,,,,,,
html-keyboard-response,343,498467,null,"",null,,word,FREEWAY,,,,,,,,,,,,
html-keyboard-response,344,498677,null,"<div style=""font-size:42px;"">CATCHER</div><img id = ""stim"" ><div class = red_square id = topsquare></div>",null,encoding,word_square,,,0,topsquare,none,true,,,CATCHER,2,,,
html-keyboard-response,345,498988,null,"<div style=""font-size:42px;"">CATCHER</div>",null,,word,CATCHER,,,,,,,,,,,,
html-keyboard-response,346,500503,null,"",null,,word,CATCHER,,,,,,,,,,,,
html-keyboard-response,347,500719,null,"<div style=""font-size:42px;"">EUROPE</div><img id = ""stim"" ><div class = red_square id = bottomsquare></div>",null,encoding,word_square,,,0,bottomsquare,none,true,,,EUROPE,2,,,
html-keyboard-response,348,501028,null,"<div style=""font-size:42px;"">EUROPE</div>",null,,word,EUROPE,,,,,,,,,,,,
html-keyboard-response,349,502541,null,"",null,,word,EUROPE,,,,,,,,,,,,
html-keyboard-response,350,502755,null,"<div style=""font-size:42px;"">JAPAN</div><img id = ""stim"" ><div class = green_square id = topsquare></div>",null,encoding,word_square,,,1,topsquare,32,true,,,JAPAN,2,,,
html-keyboard-response,351,503061,214.90000000596046,"<div style=""font-size:42px;"">JAPAN</div>",32,,word,JAPAN,,,,,,,,,,,,
html-keyboard-response,352,504571,null,"",null,,word,JAPAN,,,,,,,,,,,,
html-keyboard-response,353,504776,null,"<div style=""font-size:42px;"">TWEEZERS</div><img id = ""stim"" ><div class = green_square id = bottomsquare></div>",null,encoding,word_square,,,1,bottomsquare,32,true,,,TWEEZERS,2,,,
html-keyboard-response,354,505098,180.2999999821186,"<div style=""font-size:42px;"">TWEEZERS</div>",32,,word,TWEEZERS,,,,,,,,,,,,
html-keyboard-response,355,506609,null,"",null,,word,TWEEZERS,,,,,,,,,,,,
html-keyboard-response,356,506824,null,"<div style=""font-size:42px;"">POND</div><img id = ""stim"" ><div class = red_square id = topsquare></div>",null,encoding,word_square,,,0,topsquare,none,true,,,POND,2,,,
html-keyboard-response,357,507134,null,"<div style=""font-size:42px;"">POND</div>",null,,word,POND,,,,,,,,,,,,
html-keyboard-response,358,508653,null,"",null,,word,POND,,,,,,,,,,,,
html-keyboard-response,359,508867,null,"<div style=""font-size:42px;"">TORCH</div><img id = ""stim"" ><div class = green_square id = topsquare></div>",null,encoding,word_square,,,1,topsquare,32,true,,,TORCH,2,,,
html-keyboard-response,360,509187,141,"<div style=""font-size:42px;"">TORCH</div>",32,,word,TORCH,,,,,,,,,,,,
html-keyboard-response,361,510697,null,"",null,,word,TORCH,,,,,,,,,,,,
html-keyboard-response,362,510905,null,"<div style=""font-size:42px;"">SKETCH</div><img id = ""stim"" ><div class = green_square id = bottomsquare></div>",null,encoding,word_square,,,1,bottomsquare,32,true,,,SKETCH,2,,,
html-keyboard-response,363,511219,145.7999999821186,"<div style=""font-size:42px;"">SKETCH</div>",32,,word,SKETCH,,,,,,,,,,,,
html-keyboard-response,364,512721,null,"",null,,word,SKETCH,,,,,,,,,,,,
html-keyboard-response,365,512932,null,"<div style=""font-size:42px;"">CHISEL</div><img id = ""stim"" ><div class = red_square id = bottomsquare></div>",null,encoding,word_square,,,0,bottomsquare,none,true,,,CHISEL,2,,,
html-keyboard-response,366,513238,null,"<div style=""font-size:42px;"">CHISEL</div>",null,,word,CHISEL,,,,,,,,,,,,
html-keyboard-response,367,514743,null,"",null,,word,CHISEL,,,,,,,,,,,,
html-keyboard-response,368,514955,null,"<div style=""font-size:42px;"">FRUIT</div><img id = ""stim"" ><div class = green_square id = topsquare></div>",null,encoding,word_square,,,1,topsquare,32,true,,,FRUIT,2,,,
html-keyboard-response,369,515283,113.2000000178814,"<div style=""font-size:42px;"">FRUIT</div>",32,,word,FRUIT,,,,,,,,,,,,
html-keyboard-response,370,516790,null,"",null,,word,FRUIT,,,,,,,,,,,,
html-keyboard-response,371,517000,null,"<div style=""font-size:42px;"">TART</div><img id = ""stim"" ><div class = red_square id = topsquare></div>",null,encoding,word_square,,,0,topsquare,none,true,,,TART,2,,,
html-keyboard-response,372,517307,null,"<div style=""font-size:42px;"">TART</div>",null,,word,TART,,,,,,,,,,,,
html-keyboard-response,373,518809,null,"",null,,word,TART,,,,,,,,,,,,
html-keyboard-response,374,519015,null,"<div style=""font-size:42px;"">TRACTOR</div><img id = ""stim"" ><div class = green_square id = bottomsquare></div>",null,encoding,word_square,,,1,bottomsquare,32,true,,,TRACTOR,2,,,
html-keyboard-response,375,519324,132.2000000178814,"<div style=""font-size:42px;"">TRACTOR</div>",32,,word,TRACTOR,,,,,,,,,,,,
html-keyboard-response,376,520840,null,"",null,,word,TRACTOR,,,,,,,,,,,,
html-keyboard-response,377,521049,null,"<div style=""font-size:42px;"">LONDON</div><img id = ""stim"" ><div class = green_square id = topsquare></div>",null,encoding,word_square,,,1,topsquare,32,true,,,LONDON,2,,,
html-keyboard-response,378,521361,154.7000000178814,"<div style=""font-size:42px;"">LONDON</div>",32,,word,LONDON,,,,,,,,,,,,
html-keyboard-response,379,522866,null,"",null,,word,LONDON,,,,,,,,,,,,
html-keyboard-response,380,523077,null,"<div style=""font-size:42px;"">RULER</div><img id = ""stim"" ><div class = red_square id = bottomsquare></div>",null,encoding,word_square,,,0,bottomsquare,none,true,,,RULER,2,,,
html-keyboard-response,381,523384,null,"<div style=""font-size:42px;"">RULER</div>",null,,word,RULER,,,,,,,,,,,,
html-keyboard-response,382,524918,null,"",null,,word,RULER,,,,,,,,,,,,
html-keyboard-response,383,525130,null,"<div style=""font-size:42px;"">CARROT</div><img id = ""stim"" ><div class = red_square id = topsquare></div>",null,encoding,word_square,,,0,topsquare,none,true,,,CARROT,2,,,
html-keyboard-response,384,525441,null,"<div style=""font-size:42px;"">CARROT</div>",null,,word,CARROT,,,,,,,,,,,,
html-keyboard-response,385,526958,null,"",null,,word,CARROT,,,,,,,,,,,,
html-keyboard-response,386,527168,null,"<div style=""font-size:42px;"">RABBIT</div><img id = ""stim"" ><div class = green_square id = bottomsquare></div>",null,encoding,word_square,,,1,bottomsquare,32,true,,,RABBIT,2,,,
html-keyboard-response,387,527483,166.90000000596046,"<div style=""font-size:42px;"">RABBIT</div>",32,,word,RABBIT,,,,,,,,,,,,
html-keyboard-response,388,528997,null,"",null,,word,RABBIT,,,,,,,,,,,,
call-function,389,528998,,"",,,,,,,,,,,,,,,,
html-keyboard-response,390,529115,null,"",null,,,,,,,,,,,,,,,
math-period,391,532177,4977.200000017881,"",,,,,,,,,,,4,,,,,
html-keyboard-response,392,532286,null,"",null,,,,,,,,,,,,,,,
math-period,393,533962,3187.5999999940395,"",,,,,,,,,,,3,,,,,
html-keyboard-response,394,534070,null,"",null,,,,,,,,,,,,,,,
math-period,395,535812,3372.4999999701977,"",,,,,,,,,,,1,,,,,
html-keyboard-response,396,535925,null,"",null,,,,,,,,,,,,,,,
math-period,397,537888,3766.300000011921,"",,,,,,,,,,,4,,,,,
html-keyboard-response,398,538000,null,"",null,,,,,,,,,,,,,,,
math-period,399,539333,2589.800000011921,"",,,,,,,,,,,2,,,,,
html-keyboard-response,400,539438,null,"",null,,,,,,,,,,,,,,,
math-period,401,540549,2104.7000000178814,"",,,,,,,,,,,4,,,,,
html-keyboard-response,402,540667,null,"",null,,,,,,,,,,,,,,,
math-period,403,541839,2203.099999964237,"",,,,,,,,,,,3,,,,,
html-keyboard-response,404,541956,null,"",null,,,,,,,,,,,,,,,
math-period,405,543073,2199,"",,,,,,,,,,,4,,,,,
html-keyboard-response,406,543187,null,"",null,,,,,,,,,,,,,,,
math-period,407,544572,2683.300000011921,"",,,,,,,,,,,1,,,,,
html-keyboard-response,408,544691,null,"",null,,,,,,,,,,,,,,,
math-period,409,546758,6741.499999940395,"",,,,,,,,,,,5,,,,,
html-keyboard-response,410,546874,null,"",null,,,,,,,,,,,,,,,
math-period,411,548416,2917.2000000178814,"",,,,,,,,,,,1,,,,,
html-keyboard-response,412,548521,null,"",null,,,,,,,,,,,,,,,
math-period,413,550458,3730.7999999523163,"",,,,,,,,,,,2,,,,,
html-keyboard-response,414,550575,null,"",null,,,,,,,,,,,,,,,
math-period,415,550673,96,"",,,,,,,,,,,,,,,,
html-keyboard-response,416,550775,null,"",null,,,,,,,,,,,,,,,
math-period,417,552040,2430.5,"",,,,,,,,,,,4,,,,,
html-keyboard-response,418,552143,null,"",null,,,,,,,,,,,,,,,
math-period,419,553008,null,"",,,,,,,,,,,,,,,,
html-keyboard-response,420,554015,null,"Recall Period!",null,,,,,,,,,,,,,,,
call-function,421,554017,,"",,,,,,,,,,,,,,,,
html-keyboard-response,422,554119,null,"",null,,,,,,,,,,,,,,,
recall-period,423,629019,null,"",,,,,,,,,,,,,,,,
html-keyboard-response,424,629521,null,"Time's Up!",null,,,,,,,,,,,,,,,
html-keyboard-response,425,630869,1346,"<p> Good job! You have responded correctly to 100% of the trials. </p>
                      <p>Be sure to only press the spacebar if you see a GREEN square, and please keep your accuracy above 80%.</p>
                      <p> Press any key to continue the experiment. </p>",32,,,,,,,,,,,,,,,
html-keyboard-response,426,632884,2013.9000000059605,"<div style=""font-size:48px;"">Press any key to begin list 4 of 16 </div>",32,,,,,,,,,,,,,,,
html-keyboard-response,427,635401,null,"<div style=""font-size:60px;"">+</div>",null,,,,,,,,,,,,,,,
html-keyboard-response,428,635610,null,"<div style=""font-size:42px;"">SUPPER</div><img id = ""stim"" ><div class = green_square id = bottomsquare></div>",null,encoding,word_square,,,1,bottomsquare,32,true,,,SUPPER,3,,,
html-keyboard-response,429,635924,232.60000002384186,"<div style=""font-size:42px;"">SUPPER</div>",32,,word,SUPPER,,,,,,,,,,,,
html-keyboard-response,430,637437,null,"",null,,word,SUPPER,,,,,,,,,,,,
html-keyboard-response,431,637645,null,"<div style=""font-size:42px;"">SERVER</div><img id = ""stim"" ><div class = red_square id = topsquare></div>",null,encoding,word_square,,,0,topsquare,none,true,,,SERVER,3,,,
html-keyboard-response,432,637950,null,"<div style=""font-size:42px;"">SERVER</div>",null,,word,SERVER,,,,,,,,,,,,
html-keyboard-response,433,639459,null,"",null,,word,SERVER,,,,,,,,,,,,
html-keyboard-response,434,639671,null,"<div style=""font-size:42px;"">MILK</div><img id = ""stim"" ><div class = red_square id = bottomsquare></div>",null,encoding,word_square,,,0,bottomsquare,none,true,,,MILK,3,,,
html-keyboard-response,435,639981,null,"<div style=""font-size:42px;"">MILK</div>",null,,word,MILK,,,,,,,,,,,,
html-keyboard-response,436,641495,null,"",null,,word,MILK,,,,,,,,,,,,
html-keyboard-response,437,641712,null,"<div style=""font-size:42px;"">GALLON</div><img id = ""stim"" ><div class = green_square id = topsquare></div>",null,encoding,word_square,,,1,topsquare,32,true,,,GALLON,3,,,
html-keyboard-response,438,642017,86.19999998807907,"<div style=""font-size:42px;"">GALLON</div>",32,,word,GALLON,,,,,,,,,,,,
html-keyboard-response,439,643526,null,"",null,,word,GALLON,,,,,,,,,,,,
html-keyboard-response,440,643739,null,"<div style=""font-size:42px;"">SANDWICH</div><img id = ""stim"" ><div class = green_square id = bottomsquare></div>",null,encoding,word_square,,,1,bottomsquare,32,false,,,SANDWICH,3,,,
html-keyboard-response,441,644050,null,"<div style=""font-size:42px;"">SANDWICH</div>",null,,word,SANDWICH,,,,,,,,,,,,
html-keyboard-response,442,645568,null,"",null,,word,SANDWICH,,,,,,,,,,,,
html-keyboard-response,443,645781,null,"<div style=""font-size:42px;"">TROUT</div><img id = ""stim"" ><div class = red_square id = topsquare></div>",null,encoding,word_square,,,0,topsquare,none,true,,,TROUT,3,,,
html-keyboard-response,444,646094,null,"<div style=""font-size:42px;"">TROUT</div>",null,,word,TROUT,,,,,,,,,,,,
html-keyboard-response,445,647597,null,"",null,,word,TROUT,,,,,,,,,,,,
html-keyboard-response,446,647806,null,"<div style=""font-size:42px;"">FEATHER</div><img id = ""stim"" ><div class = green_square id = topsquare></div>",null,encoding,word_square,,,1,topsquare,32,true,,,FEATHER,3,,,
html-keyboard-response,447,648113,144.90000000596046,"<div style=""font-size:42px;"">FEATHER</div>",32,,word,FEATHER,,,,,,,,,,,,
html-keyboard-response,448,649622,null,"",null,,word,FEATHER,,,,,,,,,,,,
html-keyboard-response,449,649834,null,"<div style=""font-size:42px;"">RECORD</div><img id = ""stim"" ><div class = red_square id = bottomsquare></div>",null,encoding,word_square,,,0,bottomsquare,none,true,,,RECORD,3,,,
html-keyboard-response,450,650138,null,"<div style=""font-size:42px;"">RECORD</div>",null,,word,RECORD,,,,,,,,,,,,
html-keyboard-response,451,651647,null,"",null,,word,RECORD,,,,,,,,,,,,
html-keyboard-response,452,651868,null,"<div style=""font-size:42px;"">CASHEW</div><img id = ""stim"" ><div class = green_square id = bottomsquare></div>",null,encoding,word_square,,,1,bottomsquare,32,true,,,CASHEW,3,,,
html-keyboard-response,453,652182,119.2999999821186,"<div style=""font-size:42px;"">CASHEW</div>",32,,word,CASHEW,,,,,,,,,,,,
html-keyboard-response,454,653697,null,"",null,,word,CASHEW,,,,,,,,,,,,
html-keyboard-response,455,653909,null,"<div style=""font-size:42px;"">CACTUS</div><img id = ""stim"" ><div class = green_square id = topsquare></div>",null,encoding,word_square,,,1,topsquare,32,true,,,CACTUS,3,,,
html-keyboard-response,456,654216,153.09999999403954,"<div style=""font-size:42px;"">CACTUS</div>",32,,word,CACTUS,,,,,,,,,,,,
html-keyboard-response,457,655729,null,"",null,,word,CACTUS,,,,,,,,,,,,
html-keyboard-response,458,655947,null,"<div style=""font-size:42px;"">COURSE</div><img id = ""stim"" ><div class = red_square id = topsquare></div>",null,encoding,word_square,,,0,topsquare,none,true,,,COURSE,3,,,
html-keyboard-response,459,656256,null,"<div style=""font-size:42px;"">COURSE</div>",null,,word,COURSE,,,,,,,,,,,,
html-keyboard-response,460,657763,null,"",null,,word,COURSE,,,,,,,,,,,,
html-keyboard-response,461,657976,null,"<div style=""font-size:42px;"">PEANUT</div><img id = ""stim"" ><div class = green_square id = bottomsquare></div>",null,encoding,word_square,,,1,bottomsquare,32,true,,,PEANUT,3,,,
html-keyboard-response,462,658285,196.59999999403954,"<div style=""font-size:42px;"">PEANUT</div>",32,,word,PEANUT,,,,,,,,,,,,
html-keyboard-response,463,659801,null,"",null,,word,PEANUT,,,,,,,,,,,,
html-keyboard-response,464,660029,null,"<div style=""font-size:42px;"">PISTON</div><img id = ""stim"" ><div class = green_square id = topsquare></div>",null,encoding,word_square,,,1,topsquare,32,true,,,PISTON,3,,,
html-keyboard-response,465,660334,null,"<div style=""font-size:42px;"">PISTON</div>",null,,word,PISTON,,,,,,,,,,,,
html-keyboard-response,466,661838,0,"",32,,word,PISTON,,,,,,,,,,,,
html-keyboard-response,467,662061,null,"<div style=""font-size:42px;"">CRADLE</div><img id = ""stim"" ><div class = red_square id = bottomsquare></div>",null,encoding,word_square,,,0,bottomsquare,none,true,,,CRADLE,3,,,
html-keyboard-response,468,662366,null,"<div style=""font-size:42px;"">CRADLE</div>",null,,word,CRADLE,,,,,,,,,,,,
html-keyboard-response,469,663869,null,"",null,,word,CRADLE,,,,,,,,,,,,
html-keyboard-response,470,664085,null,"<div style=""font-size:42px;"">PONY</div><img id = ""stim"" ><div class = red_square id = topsquare></div>",null,encoding,word_square,,,0,topsquare,none,true,,,PONY,3,,,
html-keyboard-response,471,664398,null,"<div style=""font-size:42px;"">PONY</div>",null,,word,PONY,,,,,,,,,,,,
html-keyboard-response,472,665914,null,"",null,,word,PONY,,,,,,,,,,,,
html-keyboard-response,473,666132,null,"<div style=""font-size:42px;"">GLASS</div><img id = ""stim"" ><div class = red_square id = bottomsquare></div>",null,encoding,word_square,,,0,bottomsquare,none,true,,,GLASS,3,,,
html-keyboard-response,474,666435,null,"<div style=""font-size:42px;"">GLASS</div>",null,,word,GLASS,,,,,,,,,,,,
html-keyboard-response,475,667937,null,"",null,,word,GLASS,,,,,,,,,,,,
call-function,476,667938,,"",,,,,,,,,,,,,,,,
html-keyboard-response,477,668053,null,"",null,,,,,,,,,,,,,,,
math-period,478,669663,3096.600000023842,"",,,,,,,,,,,4,,,,,
html-keyboard-response,479,669774,null,"",null,,,,,,,,,,,,,,,
math-period,480,671250,2838.9000000059605,"",,,,,,,,,,,1,,,,,
html-keyboard-response,481,671354,null,"",null,,,,,,,,,,,,,,,
math-period,482,672311,1827.3000000417233,"",,,,,,,,,,,3,,,,,
html-keyboard-response,483,672418,null,"",null,,,,,,,,,,,,,,,
math-period,484,673461,1973.699999988079,"",,,,,,,,,,,4,,,,,
html-keyboard-response,485,673569,null,"",null,,,,,,,,,,,,,,,
math-period,486,674622,1960.3000000417233,"",,,,,,,,,,,3,,,,,
html-keyboard-response,487,674724,null,"",null,,,,,,,,,,,,,,,
math-period,488,676024,2298.399999976158,"",,,,,,,,,,,3,,,,,
html-keyboard-response,489,676128,null,"",null,,,,,,,,,,,,,,,
math-period,490,677362,2376.0999999940395,"",,,,,,,,,,,1,,,,,
html-keyboard-response,491,677465,null,"",null,,,,,,,,,,,,,,,
math-period,492,680761,6172.200000017881,"",,,,,,,,,,,0,,,,,
html-keyboard-response,493,680877,null,"",null,,,,,,,,,,,,,,,
math-period,494,682134,2442.400000035763,"",,,,,,,,,,,6,,,,,
html-keyboard-response,495,682237,null,"",null,,,,,,,,,,,,,,,
math-period,496,683542,2512,"",,,,,,,,,,,2,,,,,
html-keyboard-response,497,683644,null,"",null,,,,,,,,,,,,,,,
math-period,498,684828,2251.9000000059605,"",,,,,,,,,,,5,,,,,
html-keyboard-response,499,684933,null,"",null,,,,,,,,,,,,,,,
math-period,500,686129,2243,"",,,,,,,,,,,1,,,,,
html-keyboard-response,501,686239,null,"",null,,,,,,,,,,,,,,,
math-period,502,687342,2075.399999976158,"",,,,,,,,,,,6,,,,,
html-keyboard-response,503,687450,null,"",null,,,,,,,,,,,,,,,
math-period,504,688752,2495.2000000178814,"",,,,,,,,,,,1,,,,,
html-keyboard-response,505,688859,null,"",null,,,,,,,,,,,,,,,
math-period,506,689933,2029.4000000059605,"",,,,,,,,,,,4,,,,,
html-keyboard-response,507,690035,null,"",null,,,,,,,,,,,,,,,
math-period,508,691065,1969.0999999940395,"",,,,,,,,,,,4,,,,,
html-keyboard-response,509,691170,null,"",null,,,,,,,,,,,,,,,
math-period,510,691946,null,"",,,,,,,,,,,,,,,,
html-keyboard-response,511,692960,null,"Recall Period!",null,,,,,,,,,,,,,,,
call-function,512,692961,,"",,,,,,,,,,,,,,,,
html-keyboard-response,513,693077,null,"",null,,,,,,,,,,,,,,,
recall-period,514,699063,32297.09999999404,"",,,,,,,,,,,cashew,,,,,
html-keyboard-response,515,699171,null,"",null,,,,,,,,,,,,,,,
recall-period,516,700628,6446.199999928474,"",,,,,,,,,,,peanut,,,,,
html-keyboard-response,517,700740,null,"",null,,,,,,,,,,,,,,,
recall-period,518,702404,7217.699999988079,"",,,,,,,,,,,piston,,,,,
html-keyboard-response,519,702523,null,"",null,,,,,,,,,,,,,,,
recall-period,520,767970,null,"",,,,,,,,,,,,,,,,
html-keyboard-response,521,768478,null,"Time's Up!",null,,,,,,,,,,,,,,,
html-keyboard-response,522,818789,50307.09999999404,"<p> Good job! You have responded correctly to 98% of the trials. </p>
                      <p>Be sure to only press the spacebar if you see a GREEN square, and please keep your accuracy above 80%.</p>
                      <p> Press any key to continue the experiment. </p>",32,,,,,,,,,,,,,,,
html-keyboard-response,523,819673,883,"<div style=""font-size:48px;"">Press any key to begin list 5 of 16 </div>",32,,,,,,,,,,,,,,,
html-keyboard-response,524,822200,null,"<div style=""font-size:60px;"">+</div>",null,,,,,,,,,,,,,,,
html-keyboard-response,525,822414,null,"<div style=""font-size:42px;"">PIRATE</div><img id = ""stim"" ><div class = green_square id = topsquare></div>",null,encoding,word_square,,,1,topsquare,32,true,,,PIRATE,4,,,
html-keyboard-response,526,822722,null,"<div style=""font-size:42px;"">PIRATE</div>",null,,word,PIRATE,,,,,,,,,,,,
html-keyboard-response,527,824227,198.40000000596046,"",32,,word,PIRATE,,,,,,,,,,,,
html-keyboard-response,528,824433,null,"<div style=""font-size:42px;"">MARKET</div><img id = ""stim"" ><div class = red_square id = bottomsquare></div>",null,encoding,word_square,,,0,bottomsquare,none,true,,,MARKET,4,,,
html-keyboard-response,529,824748,null,"<div style=""font-size:42px;"">MARKET</div>",null,,word,MARKET,,,,,,,,,,,,
html-keyboard-response,530,826255,null,"",null,,word,MARKET,,,,,,,,,,,,
html-keyboard-response,531,826468,null,"<div style=""font-size:42px;"">DINER</div><img id = ""stim"" ><div class = red_square id = topsquare></div>",null,encoding,word_square,,,0,topsquare,none,true,,,DINER,4,,,
html-keyboard-response,532,826776,null,"<div style=""font-size:42px;"">DINER</div>",null,,word,DINER,,,,,,,,,,,,
html-keyboard-response,533,828287,null,"",null,,word,DINER,,,,,,,,,,,,
html-keyboard-response,534,828497,null,"<div style=""font-size:42px;"">GUARD</div><img id = ""stim"" ><div class = green_square id = bottomsquare></div>",null,encoding,word_square,,,1,bottomsquare,32,true,,,GUARD,4,,,
html-keyboard-response,535,828804,158.59999999403954,"<div style=""font-size:42px;"">GUARD</div>",32,,word,GUARD,,,,,,,,,,,,
html-keyboard-response,536,830313,null,"",null,,word,GUARD,,,,,,,,,,,,
html-keyboard-response,537,830520,null,"<div style=""font-size:42px;"">STAIRS</div><img id = ""stim"" ><div class = red_square id = bottomsquare></div>",null,encoding,word_square,,,0,bottomsquare,none,true,,,STAIRS,4,,,
html-keyboard-response,538,830825,null,"<div style=""font-size:42px;"">STAIRS</div>",null,,word,STAIRS,,,,,,,,,,,,
html-keyboard-response,539,832333,null,"",null,,word,STAIRS,,,,,,,,,,,,
html-keyboard-response,540,832549,null,"<div style=""font-size:42px;"">PRIEST</div><img id = ""stim"" ><div class = red_square id = topsquare></div>",null,encoding,word_square,,,0,topsquare,none,true,,,PRIEST,4,,,
html-keyboard-response,541,832854,null,"<div style=""font-size:42px;"">PRIEST</div>",null,,word,PRIEST,,,,,,,,,,,,
html-keyboard-response,542,834359,null,"",null,,word,PRIEST,,,,,,,,,,,,
html-keyboard-response,543,834571,null,"<div style=""font-size:42px;"">RACKET</div><img id = ""stim"" ><div class = green_square id = topsquare></div>",null,encoding,word_square,,,1,topsquare,32,true,,,RACKET,4,,,
html-keyboard-response,544,834883,168.2000000178814,"<div style=""font-size:42px;"">RACKET</div>",32,,word,RACKET,,,,,,,,,,,,
html-keyboard-response,545,836396,null,"",null,,word,RACKET,,,,,,,,,,,,
html-keyboard-response,546,836608,null,"<div style=""font-size:42px;"">COCKTAIL</div><img id = ""stim"" ><div class = red_square id = bottomsquare></div>",null,encoding,word_square,,,0,bottomsquare,none,true,,,COCKTAIL,4,,,
html-keyboard-response,547,836917,null,"<div style=""font-size:42px;"">COCKTAIL</div>",null,,word,COCKTAIL,,,,,,,,,,,,
html-keyboard-response,548,838427,null,"",null,,word,COCKTAIL,,,,,,,,,,,,
html-keyboard-response,549,838636,null,"<div style=""font-size:42px;"">DONKEY</div><img id = ""stim"" ><div class = red_square id = topsquare></div>",null,encoding,word_square,,,0,topsquare,none,true,,,DONKEY,4,,,
html-keyboard-response,550,838950,null,"<div style=""font-size:42px;"">DONKEY</div>",null,,word,DONKEY,,,,,,,,,,,,
html-keyboard-response,551,840453,null,"",null,,word,DONKEY,,,,,,,,,,,,
html-keyboard-response,552,840663,null,"<div style=""font-size:42px;"">PATROL</div><img id = ""stim"" ><div class = green_square id = bottomsquare></div>",null,encoding,word_square,,,1,bottomsquare,32,true,,,PATROL,4,,,
html-keyboard-response,553,840980,173.09999999403954,"<div style=""font-size:42px;"">PATROL</div>",32,,word,PATROL,,,,,,,,,,,,
html-keyboard-response,554,842490,null,"",null,,word,PATROL,,,,,,,,,,,,
html-keyboard-response,555,842701,null,"<div style=""font-size:42px;"">CANYON</div><img id = ""stim"" ><div class = green_square id = topsquare></div>",null,encoding,word_square,,,1,topsquare,32,true,,,CANYON,4,,,
html-keyboard-response,556,843009,199.5,"<div style=""font-size:42px;"">CANYON</div>",32,,word,CANYON,,,,,,,,,,,,
html-keyboard-response,557,844515,null,"",null,,word,CANYON,,,,,,,,,,,,
html-keyboard-response,558,844724,null,"<div style=""font-size:42px;"">LADY</div><img id = ""stim"" ><div class = green_square id = bottomsquare></div>",null,encoding,word_square,,,1,bottomsquare,32,true,,,LADY,4,,,
html-keyboard-response,559,845038,150.90000000596046,"<div style=""font-size:42px;"">LADY</div>",32,,word,LADY,,,,,,,,,,,,
html-keyboard-response,560,846554,null,"",null,,word,LADY,,,,,,,,,,,,
html-keyboard-response,561,846765,null,"<div style=""font-size:42px;"">REBEL</div><img id = ""stim"" ><div class = red_square id = bottomsquare></div>",null,encoding,word_square,,,0,bottomsquare,none,true,,,REBEL,4,,,
html-keyboard-response,562,847075,null,"<div style=""font-size:42px;"">REBEL</div>",null,,word,REBEL,,,,,,,,,,,,
html-keyboard-response,563,848590,null,"",null,,word,REBEL,,,,,,,,,,,,
html-keyboard-response,564,848805,null,"<div style=""font-size:42px;"">BRANCH</div><img id = ""stim"" ><div class = green_square id = topsquare></div>",null,encoding,word_square,,,1,topsquare,32,true,,,BRANCH,4,,,
html-keyboard-response,565,849119,102.80000001192093,"<div style=""font-size:42px;"">BRANCH</div>",32,,word,BRANCH,,,,,,,,,,,,
html-keyboard-response,566,850633,null,"",null,,word,BRANCH,,,,,,,,,,,,
html-keyboard-response,567,850854,null,"<div style=""font-size:42px;"">TWIG</div><img id = ""stim"" ><div class = red_square id = topsquare></div>",null,encoding,word_square,,,0,topsquare,none,true,,,TWIG,4,,,
html-keyboard-response,568,851171,null,"<div style=""font-size:42px;"">TWIG</div>",null,,word,TWIG,,,,,,,,,,,,
html-keyboard-response,569,852683,null,"",null,,word,TWIG,,,,,,,,,,,,
html-keyboard-response,570,852893,null,"<div style=""font-size:42px;"">PORPOISE</div><img id = ""stim"" ><div class = green_square id = bottomsquare></div>",null,encoding,word_square,,,1,bottomsquare,32,true,,,PORPOISE,4,,,
html-keyboard-response,571,853216,105.69999998807907,"<div style=""font-size:42px;"">PORPOISE</div>",32,,word,PORPOISE,,,,,,,,,,,,
html-keyboard-response,572,854723,null,"",null,,word,PORPOISE,,,,,,,,,,,,
call-function,573,854725,,"",,,,,,,,,,,,,,,,
html-keyboard-response,574,854829,null,"",null,,,,,,,,,,,,,,,
math-period,575,856583,3327,"",,,,,,,,,,,3,,,,,
html-keyboard-response,576,856698,null,"",null,,,,,,,,,,,,,,,
math-period,577,857439,1369.7000000178814,"",,,,,,,,,,,3,,,,,
html-keyboard-response,578,857548,null,"",null,,,,,,,,,,,,,,,
math-period,579,858363,1546,"",,,,,,,,,,,4,,,,,
html-keyboard-response,580,858467,null,"",null,,,,,,,,,,,,,,,
math-period,581,859159,1282.3999999761581,"",,,,,,,,,,,4,,,,,
html-keyboard-response,582,859262,null,"",null,,,,,,,,,,,,,,,
math-period,583,860389,2164.7999999821186,"",,,,,,,,,,,4,,,,,
html-keyboard-response,584,860492,null,"",null,,,,,,,,,,,,,,,
math-period,585,861823,2564.2999999821186,"",,,,,,,,,,,1,,,,,
html-keyboard-response,586,861939,null,"",null,,,,,,,,,,,,,,,
math-period,587,863560,3129.199999988079,"",,,,,,,,,,,4,,,,,
html-keyboard-response,588,863668,null,"",null,,,,,,,,,,,,,,,
math-period,589,864434,1427.9000000059605,"",,,,,,,,,,,4,,,,,
html-keyboard-response,590,864550,null,"",null,,,,,,,,,,,,,,,
math-period,591,867669,5847.100000023842,"",,,,,,,,,,,0,,,,,
html-keyboard-response,592,867772,null,"",null,,,,,,,,,,,,,,,
math-period,593,870480,5322.9000000059605,"",,,,,,,,,,,4,,,,,
html-keyboard-response,594,870583,null,"",null,,,,,,,,,,,,,,,
math-period,595,871488,1720.5999999940395,"",,,,,,,,,,,4,,,,,
html-keyboard-response,596,871597,null,"",null,,,,,,,,,,,,,,,
math-period,597,871651,52.19999998807907,"",,,,,,,,,,,,,,,,
html-keyboard-response,598,871766,null,"",null,,,,,,,,,,,,,,,
math-period,599,873168,2689.5,"",,,,,,,,,,,5,,,,,
html-keyboard-response,600,873278,null,"",null,,,,,,,,,,,,,,,
math-period,601,874229,1817.199999988079,"",,,,,,,,,,,2,,,,,
html-keyboard-response,602,874337,null,"",null,,,,,,,,,,,,,,,
math-period,603,876290,3558.9999999701977,"",,,,,,,,,,,0,,,,,
html-keyboard-response,604,876407,null,"",null,,,,,,,,,,,,,,,
math-period,605,877804,2701.300000011921,"",,,,,,,,,,,2,,,,,
html-keyboard-response,606,877919,null,"",null,,,,,,,,,,,,,,,
math-period,607,878727,null,"",,,,,,,,,,,,,,,,
html-keyboard-response,608,879731,null,"Recall Period!",null,,,,,,,,,,,,,,,
call-function,609,879732,,"",,,,,,,,,,,,,,,,
html-keyboard-response,610,879838,null,"",null,,,,,,,,,,,,,,,
recall-period,611,882941,24333.799999922514,"",,,,,,,,,,,branch,,,,,
html-keyboard-response,612,883058,null,"",null,,,,,,,,,,,,,,,
recall-period,613,886250,17838.299999952316,"",,,,,,,,,,,pirate,,,,,
html-keyboard-response,614,886352,null,"",null,,,,,,,,,,,,,,,
recall-period,615,954753,null,"",,,,,,,,,,,,,,,,
html-keyboard-response,616,955260,null,"Time's Up!",null,,,,,,,,,,,,,,,
html-keyboard-response,617,965317,10055.09999999404,"<p> Good job! You have responded correctly to 99% of the trials. </p>
                      <p>Be sure to only press the spacebar if you see a GREEN square, and please keep your accuracy above 80%.</p>
                      <p> Press any key to continue the experiment. </p>",32,,,,,,,,,,,,,,,
html-keyboard-response,618,966232,913.0999999940395,"<div style=""font-size:48px;"">Press any key to begin list 6 of 16 </div>",32,,,,,,,,,,,,,,,
html-keyboard-response,619,968749,null,"<div style=""font-size:60px;"">+</div>",null,,,,,,,,,,,,,,,
html-keyboard-response,620,968967,null,"<div style=""font-size:42px;"">ASIA</div><img id = ""stim"" ><div class = green_square id = bottomsquare></div>",null,encoding,word_square,,,1,bottomsquare,32,true,,,ASIA,5,,,
html-keyboard-response,621,969297,112.09999999403954,"<div style=""font-size:42px;"">ASIA</div>",32,,word,ASIA,,,,,,,,,,,,
html-keyboard-response,622,970808,null,"",null,,word,ASIA,,,,,,,,,,,,
html-keyboard-response,623,971015,null,"<div style=""font-size:42px;"">COUNTRY</div><img id = ""stim"" ><div class = red_square id = topsquare></div>",null,encoding,word_square,,,0,topsquare,none,true,,,COUNTRY,5,,,
html-keyboard-response,624,971337,null,"<div style=""font-size:42px;"">COUNTRY</div>",null,,word,COUNTRY,,,,,,,,,,,,
html-keyboard-response,625,972847,null,"",null,,word,COUNTRY,,,,,,,,,,,,
html-keyboard-response,626,973053,null,"<div style=""font-size:42px;"">FROST</div><img id = ""stim"" ><div class = green_square id = topsquare></div>",null,encoding,word_square,,,1,topsquare,32,true,,,FROST,5,,,
html-keyboard-response,627,973389,149.89999997615814,"<div style=""font-size:42px;"">FROST</div>",32,,word,FROST,,,,,,,,,,,,
html-keyboard-response,628,974902,null,"",null,,word,FROST,,,,,,,,,,,,
html-keyboard-response,629,975122,null,"<div style=""font-size:42px;"">BLOSSOM</div><img id = ""stim"" ><div class = red_square id = bottomsquare></div>",null,encoding,word_square,,,0,bottomsquare,none,true,,,BLOSSOM,5,,,
html-keyboard-response,630,975436,null,"<div style=""font-size:42px;"">BLOSSOM</div>",null,,word,BLOSSOM,,,,,,,,,,,,
html-keyboard-response,631,976951,null,"",null,,word,BLOSSOM,,,,,,,,,,,,
html-keyboard-response,632,977157,null,"<div style=""font-size:42px;"">COLESLAW</div><img id = ""stim"" ><div class = green_square id = bottomsquare></div>",null,encoding,word_square,,,1,bottomsquare,32,true,,,COLESLAW,5,,,
html-keyboard-response,633,977464,157.7999999821186,"<div style=""font-size:42px;"">COLESLAW</div>",32,,word,COLESLAW,,,,,,,,,,,,
html-keyboard-response,634,978967,null,"",null,,word,COLESLAW,,,,,,,,,,,,
html-keyboard-response,635,979170,null,"<div style=""font-size:42px;"">KITTEN</div><img id = ""stim"" ><div class = green_square id = topsquare></div>",null,encoding,word_square,,,1,topsquare,32,true,,,KITTEN,5,,,
html-keyboard-response,636,979487,137.7999999821186,"<div style=""font-size:42px;"">KITTEN</div>",32,,word,KITTEN,,,,,,,,,,,,
html-keyboard-response,637,981002,null,"",null,,word,KITTEN,,,,,,,,,,,,
html-keyboard-response,638,981216,null,"<div style=""font-size:42px;"">PORTRAIT</div><img id = ""stim"" ><div class = green_square id = bottomsquare></div>",null,encoding,word_square,,,1,bottomsquare,32,true,,,PORTRAIT,5,,,
html-keyboard-response,639,981523,132.90000000596046,"<div style=""font-size:42px;"">PORTRAIT</div>",32,,word,PORTRAIT,,,,,,,,,,,,
html-keyboard-response,640,983047,null,"",null,,word,PORTRAIT,,,,,,,,,,,,
html-keyboard-response,641,983259,null,"<div style=""font-size:42px;"">MOTOR</div><img id = ""stim"" ><div class = red_square id = topsquare></div>",null,encoding,word_square,,,0,topsquare,none,true,,,MOTOR,5,,,
html-keyboard-response,642,983572,null,"<div style=""font-size:42px;"">MOTOR</div>",null,,word,MOTOR,,,,,,,,,,,,
html-keyboard-response,643,985077,null,"",null,,word,MOTOR,,,,,,,,,,,,
html-keyboard-response,644,985284,null,"<div style=""font-size:42px;"">GRILL</div><img id = ""stim"" ><div class = red_square id = bottomsquare></div>",null,encoding,word_square,,,0,bottomsquare,none,true,,,GRILL,5,,,
html-keyboard-response,645,985595,null,"<div style=""font-size:42px;"">GRILL</div>",null,,word,GRILL,,,,,,,,,,,,
html-keyboard-response,646,987127,null,"",null,,word,GRILL,,,,,,,,,,,,
html-keyboard-response,647,987339,null,"<div style=""font-size:42px;"">PAINTING</div><img id = ""stim"" ><div class = green_square id = topsquare></div>",null,encoding,word_square,,,1,topsquare,32,true,,,PAINTING,5,,,
html-keyboard-response,648,987643,180.2999999821186,"<div style=""font-size:42px;"">PAINTING</div>",32,,word,PAINTING,,,,,,,,,,,,
html-keyboard-response,649,989147,null,"",null,,word,PAINTING,,,,,,,,,,,,
html-keyboard-response,650,989350,null,"<div style=""font-size:42px;"">LIVER</div><img id = ""stim"" ><div class = red_square id = topsquare></div>",null,encoding,word_square,,,0,topsquare,none,true,,,LIVER,5,,,
html-keyboard-response,651,989661,null,"<div style=""font-size:42px;"">LIVER</div>",null,,word,LIVER,,,,,,,,,,,,
html-keyboard-response,652,991184,null,"",null,,word,LIVER,,,,,,,,,,,,
html-keyboard-response,653,991395,null,"<div style=""font-size:42px;"">BLACKBOARD</div><img id = ""stim"" ><div class = red_square id = bottomsquare></div>",null,encoding,word_square,,,0,bottomsquare,none,true,,,BLACKBOARD,5,,,
html-keyboard-response,654,991704,null,"<div style=""font-size:42px;"">BLACKBOARD</div>",null,,word,BLACKBOARD,,,,,,,,,,,,
html-keyboard-response,655,993214,null,"",null,,word,BLACKBOARD,,,,,,,,,,,,
html-keyboard-response,656,993429,null,"<div style=""font-size:42px;"">RECEIPT</div><img id = ""stim"" ><div class = green_square id = bottomsquare></div>",null,encoding,word_square,,,1,bottomsquare,32,true,,,RECEIPT,5,,,
html-keyboard-response,657,993740,135.59999999403954,"<div style=""font-size:42px;"">RECEIPT</div>",32,,word,RECEIPT,,,,,,,,,,,,
html-keyboard-response,658,995245,null,"",null,,word,RECEIPT,,,,,,,,,,,,
html-keyboard-response,659,995456,null,"<div style=""font-size:42px;"">CASTLE</div><img id = ""stim"" ><div class = red_square id = topsquare></div>",null,encoding,word_square,,,0,topsquare,none,true,,,CASTLE,5,,,
html-keyboard-response,660,995767,null,"<div style=""font-size:42px;"">CASTLE</div>",null,,word,CASTLE,,,,,,,,,,,,
html-keyboard-response,661,997270,null,"",null,,word,CASTLE,,,,,,,,,,,,
html-keyboard-response,662,997481,null,"<div style=""font-size:42px;"">PEDAL</div><img id = ""stim"" ><div class = red_square id = bottomsquare></div>",null,encoding,word_square,,,0,bottomsquare,none,true,,,PEDAL,5,,,
html-keyboard-response,663,997794,null,"<div style=""font-size:42px;"">PEDAL</div>",null,,word,PEDAL,,,,,,,,,,,,
html-keyboard-response,664,999305,null,"",null,,word,PEDAL,,,,,,,,,,,,
html-keyboard-response,665,999515,null,"<div style=""font-size:42px;"">TURNIP</div><img id = ""stim"" ><div class = green_square id = topsquare></div>",null,encoding,word_square,,,1,topsquare,32,true,,,TURNIP,5,,,
html-keyboard-response,666,999829,111.5,"<div style=""font-size:42px;"">TURNIP</div>",32,,word,TURNIP,,,,,,,,,,,,
html-keyboard-response,667,1001341,null,"",null,,word,TURNIP,,,,,,,,,,,,
call-function,668,1001343,,"",,,,,,,,,,,,,,,,
html-keyboard-response,669,1001444,null,"",null,,,,,,,,,,,,,,,
math-period,670,1003792,4551.499999970198,"",,,,,,,,,,,1,,,,,
html-keyboard-response,671,1003898,null,"",null,,,,,,,,,,,,,,,
math-period,672,1004923,1951.7000000178814,"",,,,,,,,,,,1,,,,,
html-keyboard-response,673,1005030,null,"",null,,,,,,,,,,,,,,,
math-period,674,1006278,2361.199999988079,"",,,,,,,,,,,2,,,,,
html-keyboard-response,675,1006379,null,"",null,,,,,,,,,,,,,,,
math-period,676,1007349,1832.199999988079,"",,,,,,,,,,,3,,,,,
html-keyboard-response,677,1007454,null,"",null,,,,,,,,,,,,,,,
math-period,678,1009065,3121.599999964237,"",,,,,,,,,,,1,,,,,
html-keyboard-response,679,1009167,null,"",null,,,,,,,,,,,,,,,
math-period,680,1010310,2165.600000023842,"",,,,,,,,,,,1,,,,,
html-keyboard-response,681,1010421,null,"",null,,,,,,,,,,,,,,,
math-period,682,1012483,4038.099999964237,"",,,,,,,,,,,6,,,,,
html-keyboard-response,683,1012601,null,"",null,,,,,,,,,,,,,,,
math-period,684,1013805,2251.9999999701977,"",,,,,,,,,,,1,,,,,
html-keyboard-response,685,1013919,null,"",null,,,,,,,,,,,,,,,
math-period,686,1015891,3490.5000000298023,"",,,,,,,,,,,0,,,,,
html-keyboard-response,687,1016007,null,"",null,,,,,,,,,,,,,,,
math-period,688,1017094,2049.2999999821186,"",,,,,,,,,,,4,,,,,
html-keyboard-response,689,1017209,null,"",null,,,,,,,,,,,,,,,
math-period,690,1019061,3321.7999999821186,"",,,,,,,,,,,0,,,,,
html-keyboard-response,691,1019163,null,"",null,,,,,,,,,,,,,,,
math-period,692,1020418,1252.800000011921,"",,,,,,,,,,,,,,,,
html-keyboard-response,693,1020531,null,"",null,,,,,,,,,,,,,,,
math-period,694,1022299,5292.400000065565,"",,,,,,,,,,,4,,,,,
html-keyboard-response,695,1022425,null,"",null,,,,,,,,,,,,,,,
math-period,696,1023811,2566.100000023842,"",,,,,,,,,,,1,,,,,
html-keyboard-response,697,1023924,null,"",null,,,,,,,,,,,,,,,
math-period,698,1025351,1338.0999999940395,"",,,,,,,,,,,2,,,,,
html-keyboard-response,699,1026364,null,"Recall Period!",null,,,,,,,,,,,,,,,
call-function,700,1026365,,"",,,,,,,,,,,,,,,,
html-keyboard-response,701,1026479,null,"",null,,,,,,,,,,,,,,,
recall-period,702,1031907,57013.800000190735,"",,,,,,,,,,,painting,,,,,
html-keyboard-response,703,1032024,null,"",null,,,,,,,,,,,,,,,
recall-period,704,1033642,7883.999999940395,"",,,,,,,,,,,castle,,,,,
html-keyboard-response,705,1033759,null,"",null,,,,,,,,,,,,,,,
recall-period,706,1034923,4700.299999952316,"",,,,,,,,,,,liver,,,,,
html-keyboard-response,707,1035040,null,"",null,,,,,,,,,,,,,,,
recall-period,708,1037263,10985.699999958277,"",,,,,,,,,,,receipt,,,,,
html-keyboard-response,709,1037373,null,"",null,,,,,,,,,,,,,,,
recall-period,710,1101379,null,"",,,,,,,,,,,,,,,,
html-keyboard-response,711,1101898,null,"Time's Up!",null,,,,,,,,,,,,,,,
html-keyboard-response,712,1175470,73569.40000000596,"<p> Good job! You have responded correctly to 99% of the trials. </p>
                      <p>Be sure to only press the spacebar if you see a GREEN square, and please keep your accuracy above 80%.</p>
                      <p> Press any key to continue the experiment. </p>",32,,,,,,,,,,,,,,,
html-keyboard-response,713,1176190,718.0999999940395,"<div style=""font-size:48px;"">Press any key to begin list 7 of 16 </div>",32,,,,,,,,,,,,,,,
html-keyboard-response,714,1178712,null,"<div style=""font-size:60px;"">+</div>",null,,,,,,,,,,,,,,,
html-keyboard-response,715,1178931,null,"<div style=""font-size:42px;"">HEART</div><img id = ""stim"" ><div class = red_square id = bottomsquare></div>",null,encoding,word_square,,,0,bottomsquare,none,true,,,HEART,6,,,
html-keyboard-response,716,1179242,null,"<div style=""font-size:42px;"">HEART</div>",null,,word,HEART,,,,,,,,,,,,
html-keyboard-response,717,1180751,null,"",null,,word,HEART,,,,,,,,,,,,
html-keyboard-response,718,1180956,null,"<div style=""font-size:42px;"">TRANSPLANT</div><img id = ""stim"" ><div class = green_square id = topsquare></div>",null,encoding,word_square,,,1,topsquare,32,true,,,TRANSPLANT,6,,,
html-keyboard-response,719,1181261,null,"<div style=""font-size:42px;"">TRANSPLANT</div>",null,,word,TRANSPLANT,,,,,,,,,,,,
html-keyboard-response,720,1182770,1.800000011920929,"",32,,word,TRANSPLANT,,,,,,,,,,,,
html-keyboard-response,721,1182980,null,"<div style=""font-size:42px;"">SLUG</div><img id = ""stim"" ><div class = green_square id = bottomsquare></div>",null,encoding,word_square,,,1,bottomsquare,32,true,,,SLUG,6,,,
html-keyboard-response,722,1183292,98.2999999821186,"<div style=""font-size:42px;"">SLUG</div>",32,,word,SLUG,,,,,,,,,,,,
html-keyboard-response,723,1184801,null,"",null,,word,SLUG,,,,,,,,,,,,
html-keyboard-response,724,1185013,null,"<div style=""font-size:42px;"">LION</div><img id = ""stim"" ><div class = red_square id = topsquare></div>",null,encoding,word_square,,,0,topsquare,none,true,,,LION,6,,,
html-keyboard-response,725,1185323,null,"<div style=""font-size:42px;"">LION</div>",null,,word,LION,,,,,,,,,,,,
html-keyboard-response,726,1186830,null,"",null,,word,LION,,,,,,,,,,,,
html-keyboard-response,727,1187037,null,"<div style=""font-size:42px;"">GLASSES</div><img id = ""stim"" ><div class = green_square id = topsquare></div>",null,encoding,word_square,,,1,topsquare,32,true,,,GLASSES,6,,,
html-keyboard-response,728,1187347,102.59999999403954,"<div style=""font-size:42px;"">GLASSES</div>",32,,word,GLASSES,,,,,,,,,,,,
html-keyboard-response,729,1188857,null,"",null,,word,GLASSES,,,,,,,,,,,,
html-keyboard-response,730,1189071,null,"<div style=""font-size:42px;"">SUITCASE</div><img id = ""stim"" ><div class = green_square id = bottomsquare></div>",null,encoding,word_square,,,1,bottomsquare,32,true,,,SUITCASE,6,,,
html-keyboard-response,731,1189379,181.7000000178814,"<div style=""font-size:42px;"">SUITCASE</div>",32,,word,SUITCASE,,,,,,,,,,,,
html-keyboard-response,732,1190905,null,"",null,,word,SUITCASE,,,,,,,,,,,,
html-keyboard-response,733,1191122,null,"<div style=""font-size:42px;"">PANTHER</div><img id = ""stim"" ><div class = red_square id = bottomsquare></div>",null,encoding,word_square,,,0,bottomsquare,none,true,,,PANTHER,6,,,
html-keyboard-response,734,1191454,null,"<div style=""font-size:42px;"">PANTHER</div>",null,,word,PANTHER,,,,,,,,,,,,
html-keyboard-response,735,1192966,null,"",null,,word,PANTHER,,,,,,,,,,,,
html-keyboard-response,736,1193179,null,"<div style=""font-size:42px;"">MAPLE</div><img id = ""stim"" ><div class = green_square id = topsquare></div>",null,encoding,word_square,,,1,topsquare,32,true,,,MAPLE,6,,,
html-keyboard-response,737,1193488,141.90000000596046,"<div style=""font-size:42px;"">MAPLE</div>",32,,word,MAPLE,,,,,,,,,,,,
html-keyboard-response,738,1194998,null,"",null,,word,MAPLE,,,,,,,,,,,,
html-keyboard-response,739,1195202,null,"<div style=""font-size:42px;"">PATIENT</div><img id = ""stim"" ><div class = green_square id = bottomsquare></div>",null,encoding,word_square,,,1,bottomsquare,32,true,,,PATIENT,6,,,
html-keyboard-response,740,1195507,140.80000001192093,"<div style=""font-size:42px;"">PATIENT</div>",32,,word,PATIENT,,,,,,,,,,,,
html-keyboard-response,741,1197025,null,"",null,,word,PATIENT,,,,,,,,,,,,
html-keyboard-response,742,1197236,null,"<div style=""font-size:42px;"">VIRUS</div><img id = ""stim"" ><div class = red_square id = topsquare></div>",null,encoding,word_square,,,0,topsquare,none,true,,,VIRUS,6,,,
html-keyboard-response,743,1197540,null,"<div style=""font-size:42px;"">VIRUS</div>",null,,word,VIRUS,,,,,,,,,,,,
html-keyboard-response,744,1199047,null,"",null,,word,VIRUS,,,,,,,,,,,,
html-keyboard-response,745,1199251,null,"<div style=""font-size:42px;"">BEDROOM</div><img id = ""stim"" ><div class = red_square id = bottomsquare></div>",null,encoding,word_square,,,0,bottomsquare,none,true,,,BEDROOM,6,,,
html-keyboard-response,746,1199564,null,"<div style=""font-size:42px;"">BEDROOM</div>",null,,word,BEDROOM,,,,,,,,,,,,
html-keyboard-response,747,1201075,null,"",null,,word,BEDROOM,,,,,,,,,,,,
html-keyboard-response,748,1201281,null,"<div style=""font-size:42px;"">LUGGAGE</div><img id = ""stim"" ><div class = red_square id = topsquare></div>",null,encoding,word_square,,,0,topsquare,none,true,,,LUGGAGE,6,,,
html-keyboard-response,749,1201594,null,"<div style=""font-size:42px;"">LUGGAGE</div>",null,,word,LUGGAGE,,,,,,,,,,,,
html-keyboard-response,750,1203105,null,"",null,,word,LUGGAGE,,,,,,,,,,,,
html-keyboard-response,751,1203315,null,"<div style=""font-size:42px;"">BRUNETTE</div><img id = ""stim"" ><div class = green_square id = topsquare></div>",null,encoding,word_square,,,1,topsquare,32,true,,,BRUNETTE,6,,,
html-keyboard-response,752,1203626,212.7999999821186,"<div style=""font-size:42px;"">BRUNETTE</div>",32,,word,BRUNETTE,,,,,,,,,,,,
html-keyboard-response,753,1205133,null,"",null,,word,BRUNETTE,,,,,,,,,,,,
html-keyboard-response,754,1205338,null,"<div style=""font-size:42px;"">SNOB</div><img id = ""stim"" ><div class = red_square id = bottomsquare></div>",null,encoding,word_square,,,0,bottomsquare,none,true,,,SNOB,6,,,
html-keyboard-response,755,1205645,null,"<div style=""font-size:42px;"">SNOB</div>",null,,word,SNOB,,,,,,,,,,,,
html-keyboard-response,756,1207157,null,"",null,,word,SNOB,,,,,,,,,,,,
html-keyboard-response,757,1207362,null,"<div style=""font-size:42px;"">VICTIM</div><img id = ""stim"" ><div class = green_square id = bottomsquare></div>",null,encoding,word_square,,,1,bottomsquare,32,false,,,VICTIM,6,,,
html-keyboard-response,758,1207668,null,"<div style=""font-size:42px;"">VICTIM</div>",null,,word,VICTIM,,,,,,,,,,,,
html-keyboard-response,759,1209179,null,"",null,,word,VICTIM,,,,,,,,,,,,
html-keyboard-response,760,1209387,null,"<div style=""font-size:42px;"">SWORD</div><img id = ""stim"" ><div class = red_square id = topsquare></div>",null,encoding,word_square,,,0,topsquare,none,true,,,SWORD,6,,,
html-keyboard-response,761,1209695,null,"<div style=""font-size:42px;"">SWORD</div>",null,,word,SWORD,,,,,,,,,,,,
html-keyboard-response,762,1211208,null,"",null,,word,SWORD,,,,,,,,,,,,
call-function,763,1211210,,"",,,,,,,,,,,,,,,,
html-keyboard-response,764,1211318,null,"",null,,,,,,,,,,,,,,,
math-period,765,1213259,3653.7999999821186,"",,,,,,,,,,,4,,,,,
html-keyboard-response,766,1213370,null,"",null,,,,,,,,,,,,,,,
math-period,767,1214136,1417.7999999821186,"",,,,,,,,,,,4,,,,,
html-keyboard-response,768,1214244,null,"",null,,,,,,,,,,,,,,,
math-period,769,1216232,3598.599999964237,"",,,,,,,,,,,0,,,,,
html-keyboard-response,770,1216344,null,"",null,,,,,,,,,,,,,,,
math-period,771,1217900,3007.0999999940395,"",,,,,,,,,,,1,,,,,
html-keyboard-response,772,1218016,null,"",null,,,,,,,,,,,,,,,
math-period,773,1219306,2480.800000011921,"",,,,,,,,,,,2,,,,,
html-keyboard-response,774,1219414,null,"",null,,,,,,,,,,,,,,,
math-period,775,1220323,1732.4000000059605,"",,,,,,,,,,,3,,,,,
html-keyboard-response,776,1220438,null,"",null,,,,,,,,,,,,,,,
math-period,777,1222235,3188.5,"",,,,,,,,,,,0,,,,,
html-keyboard-response,778,1222347,null,"",null,,,,,,,,,,,,,,,
math-period,779,1223354,1928.8999999761581,"",,,,,,,,,,,4,,,,,
html-keyboard-response,780,1223464,null,"",null,,,,,,,,,,,,,,,
math-period,781,1224319,1617.9999999701977,"",,,,,,,,,,,3,,,,,
html-keyboard-response,782,1224424,null,"",null,,,,,,,,,,,,,,,
math-period,783,1225797,2462.100000023842,"",,,,,,,,,,,2,,,,,
html-keyboard-response,784,1225913,null,"",null,,,,,,,,,,,,,,,
math-period,785,1227028,2141.4999999701977,"",,,,,,,,,,,1,,,,,
html-keyboard-response,786,1227143,null,"",null,,,,,,,,,,,,,,,
math-period,787,1228298,2110.0999999940395,"",,,,,,,,,,,1,,,,,
html-keyboard-response,788,1228411,null,"",null,,,,,,,,,,,,,,,
math-period,789,1229770,2630.0000000298023,"",,,,,,,,,,,2,,,,,
html-keyboard-response,790,1229887,null,"",null,,,,,,,,,,,,,,,
math-period,791,1231107,2275.699999988079,"",,,,,,,,,,,1,,,,,
html-keyboard-response,792,1231211,null,"",null,,,,,,,,,,,,,,,
math-period,793,1232144,1786,"",,,,,,,,,,,3,,,,,
html-keyboard-response,794,1232247,null,"",null,,,,,,,,,,,,,,,
math-period,795,1233206,1770.300000011921,"",,,,,,,,,,,4,,,,,
html-keyboard-response,796,1233319,null,"",null,,,,,,,,,,,,,,,
math-period,797,1234367,2012.800000011921,"",,,,,,,,,,,5,,,,,
html-keyboard-response,798,1234474,null,"",null,,,,,,,,,,,,,,,
math-period,799,1235211,null,"",,,,,,,,,,,,,,,,
html-keyboard-response,800,1236217,null,"Recall Period!",null,,,,,,,,,,,,,,,
call-function,801,1236218,,"",,,,,,,,,,,,,,,,
html-keyboard-response,802,1236332,null,"",null,,,,,,,,,,,,,,,
recall-period,803,1240943,33995.29999983311,"",,,,,,,,,,,victim,,,,,
html-keyboard-response,804,1241060,null,"",null,,,,,,,,,,,,,,,
recall-period,805,1243164,5562.200000017881,"",,,,,,,,,,,sword,,,,,
html-keyboard-response,806,1243280,null,"",null,,,,,,,,,,,,,,,
recall-period,807,1280889,37606.19999998808,"",,,,,,,,,,,,,,,,
html-keyboard-response,808,1281004,null,"",null,,,,,,,,,,,,,,,
recall-period,809,1312153,null,"",,,,,,,,,,,,,,,,
html-keyboard-response,810,1313147,null,"Time's Up!",null,,,,,,,,,,,,,,,
html-keyboard-response,811,1323742,10593,"<p> Good job! You have responded correctly to 98% of the trials. </p>
                      <p>Be sure to only press the spacebar if you see a GREEN square, and please keep your accuracy above 80%.</p>
                      <p> Press any key to continue the experiment. </p>",32,,,,,,,,,,,,,,,
html-keyboard-response,812,1324364,621.2000000178814,"<div style=""font-size:48px;"">Press any key to begin list 8 of 16 </div>",32,,,,,,,,,,,,,,,
html-keyboard-response,813,1326875,null,"<div style=""font-size:60px;"">+</div>",null,,,,,,,,,,,,,,,
html-keyboard-response,814,1327086,null,"<div style=""font-size:42px;"">RODENT</div><img id = ""stim"" ><div class = red_square id = topsquare></div>",null,encoding,word_square,,,0,topsquare,none,true,,,RODENT,7,,,
html-keyboard-response,815,1327389,null,"<div style=""font-size:42px;"">RODENT</div>",null,,word,RODENT,,,,,,,,,,,,
html-keyboard-response,816,1328902,null,"",null,,word,RODENT,,,,,,,,,,,,
html-keyboard-response,817,1329116,null,"<div style=""font-size:42px;"">PENCIL</div><img id = ""stim"" ><div class = green_square id = bottomsquare></div>",null,encoding,word_square,,,1,bottomsquare,32,true,,,PENCIL,7,,,
html-keyboard-response,818,1329429,197.2000000178814,"<div style=""font-size:42px;"">PENCIL</div>",32,,word,PENCIL,,,,,,,,,,,,
html-keyboard-response,819,1330953,null,"",null,,word,PENCIL,,,,,,,,,,,,
html-keyboard-response,820,1331167,null,"<div style=""font-size:42px;"">LABEL</div><img id = ""stim"" ><div class = red_square id = bottomsquare></div>",null,encoding,word_square,,,0,bottomsquare,none,true,,,LABEL,7,,,
html-keyboard-response,821,1331476,null,"<div style=""font-size:42px;"">LABEL</div>",null,,word,LABEL,,,,,,,,,,,,
html-keyboard-response,822,1333000,null,"",null,,word,LABEL,,,,,,,,,,,,
html-keyboard-response,823,1333212,null,"<div style=""font-size:42px;"">HUMAN</div><img id = ""stim"" ><div class = green_square id = topsquare></div>",null,encoding,word_square,,,1,topsquare,32,true,,,HUMAN,7,,,
html-keyboard-response,824,1333524,115.30000001192093,"<div style=""font-size:42px;"">HUMAN</div>",32,,word,HUMAN,,,,,,,,,,,,
html-keyboard-response,825,1335031,null,"",null,,word,HUMAN,,,,,,,,,,,,
html-keyboard-response,826,1335244,null,"<div style=""font-size:42px;"">SCISSORS</div><img id = ""stim"" ><div class = red_square id = topsquare></div>",null,encoding,word_square,,,0,topsquare,none,true,,,SCISSORS,7,,,
html-keyboard-response,827,1335555,null,"<div style=""font-size:42px;"">SCISSORS</div>",null,,word,SCISSORS,,,,,,,,,,,,
html-keyboard-response,828,1337063,null,"",null,,word,SCISSORS,,,,,,,,,,,,
html-keyboard-response,829,1337274,null,"<div style=""font-size:42px;"">BASEBALL</div><img id = ""stim"" ><div class = red_square id = bottomsquare></div>",null,encoding,word_square,,,0,bottomsquare,none,true,,,BASEBALL,7,,,
html-keyboard-response,830,1337583,null,"<div style=""font-size:42px;"">BASEBALL</div>",null,,word,BASEBALL,,,,,,,,,,,,
html-keyboard-response,831,1339108,null,"",null,,word,BASEBALL,,,,,,,,,,,,
html-keyboard-response,832,1339320,null,"<div style=""font-size:42px;"">RIVER</div><img id = ""stim"" ><div class = red_square id = topsquare></div>",null,encoding,word_square,,,0,topsquare,none,true,,,RIVER,7,,,
html-keyboard-response,833,1339629,null,"<div style=""font-size:42px;"">RIVER</div>",null,,word,RIVER,,,,,,,,,,,,
html-keyboard-response,834,1341132,null,"",null,,word,RIVER,,,,,,,,,,,,
html-keyboard-response,835,1341344,null,"<div style=""font-size:42px;"">BROOK</div><img id = ""stim"" ><div class = green_square id = bottomsquare></div>",null,encoding,word_square,,,1,bottomsquare,32,true,,,BROOK,7,,,
html-keyboard-response,836,1341655,125,"<div style=""font-size:42px;"">BROOK</div>",32,,word,BROOK,,,,,,,,,,,,
html-keyboard-response,837,1343170,null,"",null,,word,BROOK,,,,,,,,,,,,
html-keyboard-response,838,1343381,null,"<div style=""font-size:42px;"">ISLAND</div><img id = ""stim"" ><div class = green_square id = topsquare></div>",null,encoding,word_square,,,1,topsquare,32,true,,,ISLAND,7,,,
html-keyboard-response,839,1343698,315.5,"<div style=""font-size:42px;"">ISLAND</div>",32,,word,ISLAND,,,,,,,,,,,,
html-keyboard-response,840,1345209,null,"",null,,word,ISLAND,,,,,,,,,,,,
html-keyboard-response,841,1345429,null,"<div style=""font-size:42px;"">ROBBER</div><img id = ""stim"" ><div class = red_square id = bottomsquare></div>",null,encoding,word_square,,,0,bottomsquare,none,true,,,ROBBER,7,,,
html-keyboard-response,842,1345731,null,"<div style=""font-size:42px;"">ROBBER</div>",null,,word,ROBBER,,,,,,,,,,,,
html-keyboard-response,843,1347243,null,"",null,,word,ROBBER,,,,,,,,,,,,
html-keyboard-response,844,1347446,null,"<div style=""font-size:42px;"">PALACE</div><img id = ""stim"" ><div class = green_square id = bottomsquare></div>",null,encoding,word_square,,,1,bottomsquare,32,true,,,PALACE,7,,,
html-keyboard-response,845,1347752,130.10000002384186,"<div style=""font-size:42px;"">PALACE</div>",32,,word,PALACE,,,,,,,,,,,,
html-keyboard-response,846,1349265,null,"",null,,word,PALACE,,,,,,,,,,,,
html-keyboard-response,847,1349478,null,"<div style=""font-size:42px;"">FIDDLE</div><img id = ""stim"" ><div class = green_square id = topsquare></div>",null,encoding,word_square,,,1,topsquare,32,true,,,FIDDLE,7,,,
html-keyboard-response,848,1349785,99.5,"<div style=""font-size:42px;"">FIDDLE</div>",32,,word,FIDDLE,,,,,,,,,,,,
html-keyboard-response,849,1351296,null,"",null,,word,FIDDLE,,,,,,,,,,,,
html-keyboard-response,850,1351508,null,"<div style=""font-size:42px;"">OUTLAW</div><img id = ""stim"" ><div class = red_square id = topsquare></div>",null,encoding,word_square,,,0,topsquare,none,true,,,OUTLAW,7,,,
html-keyboard-response,851,1351818,null,"<div style=""font-size:42px;"">OUTLAW</div>",null,,word,OUTLAW,,,,,,,,,,,,
html-keyboard-response,852,1353335,null,"",null,,word,OUTLAW,,,,,,,,,,,,
html-keyboard-response,853,1353548,null,"<div style=""font-size:42px;"">SHACK</div><img id = ""stim"" ><div class = green_square id = bottomsquare></div>",null,encoding,word_square,,,1,bottomsquare,32,true,,,SHACK,7,,,
html-keyboard-response,854,1353858,112.80000001192093,"<div style=""font-size:42px;"">SHACK</div>",32,,word,SHACK,,,,,,,,,,,,
html-keyboard-response,855,1355365,null,"",null,,word,SHACK,,,,,,,,,,,,
html-keyboard-response,856,1355582,null,"<div style=""font-size:42px;"">PECAN</div><img id = ""stim"" ><div class = green_square id = topsquare></div>",null,encoding,word_square,,,1,topsquare,32,true,,,PECAN,7,,,
html-keyboard-response,857,1355899,142.59999999403954,"<div style=""font-size:42px;"">PECAN</div>",32,,word,PECAN,,,,,,,,,,,,
html-keyboard-response,858,1357404,null,"",null,,word,PECAN,,,,,,,,,,,,
html-keyboard-response,859,1357614,null,"<div style=""font-size:42px;"">LILY</div><img id = ""stim"" ><div class = red_square id = bottomsquare></div>",null,encoding,word_square,,,0,bottomsquare,none,true,,,LILY,7,,,
html-keyboard-response,860,1357918,null,"<div style=""font-size:42px;"">LILY</div>",null,,word,LILY,,,,,,,,,,,,
html-keyboard-response,861,1359433,null,"",null,,word,LILY,,,,,,,,,,,,
call-function,862,1359435,,"",,,,,,,,,,,,,,,,
html-keyboard-response,863,1359549,null,"",null,,,,,,,,,,,,,,,
math-period,864,1361825,4131.699999958277,"",,,,,,,,,,,0,,,,,
html-keyboard-response,865,1361941,null,"",null,,,,,,,,,,,,,,,
math-period,866,1362961,1857.699999988079,"",,,,,,,,,,,3,,,,,
html-keyboard-response,867,1363063,null,"",null,,,,,,,,,,,,,,,
math-period,868,1364232,2255.899999976158,"",,,,,,,,,,,1,,,,,
html-keyboard-response,869,1364337,null,"",null,,,,,,,,,,,,,,,
math-period,870,1365550,2340.2000000178814,"",,,,,,,,,,,2,,,,,
html-keyboard-response,871,1365664,null,"",null,,,,,,,,,,,,,,,
math-period,872,1366964,2499.7999999821186,"",,,,,,,,,,,2,,,,,
html-keyboard-response,873,1367071,null,"",null,,,,,,,,,,,,,,,
math-period,874,1368173,2104.5999999940395,"",,,,,,,,,,,3,,,,,
html-keyboard-response,875,1368275,null,"",null,,,,,,,,,,,,,,,
math-period,876,1369217,1792.9000000059605,"",,,,,,,,,,,3,,,,,
html-keyboard-response,877,1369330,null,"",null,,,,,,,,,,,,,,,
math-period,878,1370460,2158.7999999821186,"",,,,,,,,,,,5,,,,,
html-keyboard-response,879,1370564,null,"",null,,,,,,,,,,,,,,,
math-period,880,1371788,2350.099999964237,"",,,,,,,,,,,1,,,,,
html-keyboard-response,881,1371891,null,"",null,,,,,,,,,,,,,,,
math-period,882,1372829,1785.4999999701977,"",,,,,,,,,,,3,,,,,
html-keyboard-response,883,1372941,null,"",null,,,,,,,,,,,,,,,
math-period,884,1373973,1937.4000000059605,"",,,,,,,,,,,5,,,,,
html-keyboard-response,885,1374075,null,"",null,,,,,,,,,,,,,,,
math-period,886,1374987,1736.800000011921,"",,,,,,,,,,,4,,,,,
html-keyboard-response,887,1375089,null,"",null,,,,,,,,,,,,,,,
math-period,888,1376200,2156.4000000059605,"",,,,,,,,,,,1,,,,,
html-keyboard-response,889,1376311,null,"",null,,,,,,,,,,,,,,,
math-period,890,1377211,1678.5,"",,,,,,,,,,,2,,,,,
html-keyboard-response,891,1377319,null,"",null,,,,,,,,,,,,,,,
math-period,892,1378547,2310.899999976158,"",,,,,,,,,,,1,,,,,
html-keyboard-response,893,1378650,null,"",null,,,,,,,,,,,,,,,
math-period,894,1379577,1739.199999988079,"",,,,,,,,,,,3,,,,,
html-keyboard-response,895,1379682,null,"",null,,,,,,,,,,,,,,,
math-period,896,1381114,2673.4999999701977,"",,,,,,,,,,,1,,,,,
html-keyboard-response,897,1381227,null,"",null,,,,,,,,,,,,,,,
math-period,898,1382421,2239.899999976158,"",,,,,,,,,,,5,,,,,
html-keyboard-response,899,1382528,null,"",null,,,,,,,,,,,,,,,
math-period,900,1383459,871.8000000119209,"",,,,,,,,,,,3,,,,,
html-keyboard-response,901,1384468,null,"Recall Period!",null,,,,,,,,,,,,,,,
call-function,902,1384469,,"",,,,,,,,,,,,,,,,
html-keyboard-response,903,1384585,null,"",null,,,,,,,,,,,,,,,
recall-period,904,1386310,6037.800000071526,"",,,,,,,,,,,pencil,,,,,
html-keyboard-response,905,1386413,null,"",null,,,,,,,,,,,,,,,
recall-period,906,1387724,4445.5999999940395,"",,,,,,,,,,,island,,,,,
html-keyboard-response,907,1387835,null,"",null,,,,,,,,,,,,,,,
recall-period,908,1459488,null,"",,,,,,,,,,,,,,,,
html-keyboard-response,909,1460002,null,"Time's Up!",null,,,,,,,,,,,,,,,
html-keyboard-response,910,1472017,12020,"<p> Good job! You have responded correctly to 98% of the trials. </p>
                      <p>Be sure to only press the spacebar if you see a GREEN square, and please keep your accuracy above 80%.</p>
                      <p> Press any key to continue the experiment. </p>",32,,,,,,,,,,,,,,,
html-keyboard-response,911,1472649,630.8000000119209,"<div style=""font-size:48px;"">Press any key to begin list 9 of 16 </div>",32,,,,,,,,,,,,,,,
html-keyboard-response,912,1475160,null,"<div style=""font-size:60px;"">+</div>",null,,,,,,,,,,,,,,,
html-keyboard-response,913,1475373,null,"<div style=""font-size:42px;"">SUBURB</div><img id = ""stim"" ><div class = green_square id = topsquare></div>",null,encoding,word_square,,,1,topsquare,32,true,,,SUBURB,8,,,
html-keyboard-response,914,1475682,129.5,"<div style=""font-size:42px;"">SUBURB</div>",32,,word,SUBURB,,,,,,,,,,,,
html-keyboard-response,915,1477190,null,"",null,,word,SUBURB,,,,,,,,,,,,
html-keyboard-response,916,1477402,null,"<div style=""font-size:42px;"">COLONEL</div><img id = ""stim"" ><div class = red_square id = bottomsquare></div>",null,encoding,word_square,,,0,bottomsquare,none,true,,,COLONEL,8,,,
html-keyboard-response,917,1477715,null,"<div style=""font-size:42px;"">COLONEL</div>",null,,word,COLONEL,,,,,,,,,,,,
html-keyboard-response,918,1479222,null,"",null,,word,COLONEL,,,,,,,,,,,,
html-keyboard-response,919,1479437,null,"<div style=""font-size:42px;"">ROOSTER</div><img id = ""stim"" ><div class = red_square id = topsquare></div>",null,encoding,word_square,,,0,topsquare,none,true,,,ROOSTER,8,,,
html-keyboard-response,920,1479757,null,"<div style=""font-size:42px;"">ROOSTER</div>",null,,word,ROOSTER,,,,,,,,,,,,
html-keyboard-response,921,1481260,null,"",null,,word,ROOSTER,,,,,,,,,,,,
html-keyboard-response,922,1481478,null,"<div style=""font-size:42px;"">CHARCOAL</div><img id = ""stim"" ><div class = green_square id = bottomsquare></div>",null,encoding,word_square,,,1,bottomsquare,32,true,,,CHARCOAL,8,,,
html-keyboard-response,923,1481781,291.5,"<div style=""font-size:42px;"">CHARCOAL</div>",32,,word,CHARCOAL,,,,,,,,,,,,
html-keyboard-response,924,1483295,null,"",null,,word,CHARCOAL,,,,,,,,,,,,
html-keyboard-response,925,1483503,null,"<div style=""font-size:42px;"">KNUCKLE</div><img id = ""stim"" ><div class = green_square id = topsquare></div>",null,encoding,word_square,,,1,topsquare,32,true,,,KNUCKLE,8,,,
html-keyboard-response,926,1483810,228.90000000596046,"<div style=""font-size:42px;"">KNUCKLE</div>",32,,word,KNUCKLE,,,,,,,,,,,,
