trial_type,trial_index,time_elapsed,rt,stimulus,key_press,exp_phase,test_part,word,task,targ_cond,sq_pos,correctKeyCode,correct,value,response,Word,List,RecResp,serial_pos,colorChosen
pavlovia,0,2300,,"",,,,,,,,,,,,,,,,
external-html,1,6496,4053,"",,,,,,,,,,,,,,,,
html-keyboard-response,2,8258,1756.2000000029802,"Welcome to the experiment. Press any key to begin.",32,,,,,,,,,,,,,,,
html-keyboard-response,3,776752,768481.299999997,"<p>You will see a list of words and colored squares in the following task.<p><p>Press the spacebar whenever you see a GREEN square.<p><p>Do not press a key if the square is RED.<p><p>Press the spacebar to continue.</p>",175,,,,,,,,,,,,,,,
html-keyboard-response,4,783522,6268.899999991059,"<p>Please try to remember as many of the words as you can, and try to think about the meaning of each word as it appears.<p><p>After the detection and encoding task you will be asked to solve some math problems for 24 seconds.<p> Please solve as many problems as you can in the time given. <p><p><p>Press the spacebar to continue.</p>",32,,,,,,,,,,,,,,,
html-keyboard-response,5,790354,6329.79999999702,"After solving the math problems, you will be asked to type in as many words <p>from the previous list as you can remember for 75 seconds.<p> If you finish recalling before the 75 seconds are up,<p> just sit tight and try to think of any more words you could have missed. <p><p><p>Press the spacebar to continue.</p>",32,,,,,,,,,,,,,,,
html-keyboard-response,6,795698,4843,"There will be 16 lists of words and recall, followed  by<p><p> a recognition phase. The experiment is expected to take up to 90 minutes.<p>We will begin with a brief practice session.<p>Press the spacebar to begin the practice.</p>",32,,,,,,,,,,,,,,,
html-keyboard-response,7,798200,null,"<div style=""font-size:60px;"">+</div>",null,,,,,,,,,,,,,,,
html-keyboard-response,8,798402,null,"<div style=""font-size:42px;"">HAPPY</div><img id = ""stim"" ><div class = red_square id = ""bottomsquare"" ></div>",null,practice,word_square,HAPPY,prac_response,0,Bottom,none,true,,,,,,,
html-keyboard-response,9,798704,null,"<div style=""font-size:42px;"">HAPPY</div>",null,,word,HAPPY,,,,,,,,,,,,
html-keyboard-response,10,800206,null,"",null,,word,HAPPY,,,,,,,,,,,,
html-keyboard-response,11,800408,null,"<div style=""font-size:42px;"">COLD</div><img id = ""stim"" ><div class = green_square id = ""bottomsquare"" ></div>",null,practice,word_square,COLD,prac_response,1,Bottom,32,true,,,,,,,
html-keyboard-response,12,800710,201.90000000596046,"<div style=""font-size:42px;"">COLD</div>",32,,word,COLD,,,,,,,,,,,,
html-keyboard-response,13,802212,null,"",null,,word,COLD,,,,,,,,,,,,
html-keyboard-response,14,802413,null,"<div style=""font-size:42px;"">HEAVY</div><img id = ""stim"" ><div class = green_square id = ""topsquare"" ></div>",null,practice,word_square,HEAVY,prac_response,1,Top,32,true,,,,,,,
html-keyboard-response,15,802714,297,"<div style=""font-size:42px;"">HEAVY</div>",32,,word,HEAVY,,,,,,,,,,,,
html-keyboard-response,16,804216,null,"",null,,word,HEAVY,,,,,,,,,,,,
html-keyboard-response,17,804417,null,"<div style=""font-size:42px;"">FUNNY</div><img id = ""stim"" ><div class = red_square id = ""topsquare"" ></div>",null,practice,word_square,FUNNY,prac_response,0,Top,none,true,,,,,,,
html-keyboard-response,18,804718,null,"<div style=""font-size:42px;"">FUNNY</div>",null,,word,FUNNY,,,,,,,,,,,,
html-keyboard-response,19,806219,null,"",null,,word,FUNNY,,,,,,,,,,,,
html-keyboard-response,20,806421,null,"<div style=""font-size:42px;"">SCARY</div><img id = ""stim"" ><div class = green_square id = ""bottomsquare"" ></div>",null,practice,word_square,SCARY,prac_response,1,Bottom,32,true,,,,,,,
html-keyboard-response,21,806723,141.29999999701977,"<div style=""font-size:42px;"">SCARY</div>",32,,word,SCARY,,,,,,,,,,,,
html-keyboard-response,22,808224,null,"",null,,word,SCARY,,,,,,,,,,,,
html-keyboard-response,23,808426,null,"<div style=""font-size:42px;"">PEACEFUL</div><img id = ""stim"" ><div class = green_square id = ""topsquare"" ></div>",null,practice,word_square,PEACEFUL,prac_response,1,Top,32,true,,,,,,,
html-keyboard-response,24,808727,131.59999999403954,"<div style=""font-size:42px;"">PEACEFUL</div>",32,,word,PEACEFUL,,,,,,,,,,,,
html-keyboard-response,25,810229,null,"",null,,word,PEACEFUL,,,,,,,,,,,,
html-keyboard-response,26,810432,null,"<div style=""font-size:42px;"">LITTLE</div><img id = ""stim"" ><div class = red_square id = ""bottomsquare"" ></div>",null,practice,word_square,LITTLE,prac_response,0,Bottom,none,true,,,,,,,
html-keyboard-response,27,810733,null,"<div style=""font-size:42px;"">LITTLE</div>",null,,word,LITTLE,,,,,,,,,,,,
html-keyboard-response,28,812235,null,"",null,,word,LITTLE,,,,,,,,,,,,
html-keyboard-response,29,812437,null,"<div style=""font-size:42px;"">TIRED</div><img id = ""stim"" ><div class = red_square id = ""topsquare"" ></div>",null,practice,word_square,TIRED,prac_response,0,Top,none,true,,,,,,,
html-keyboard-response,30,812737,null,"<div style=""font-size:42px;"">TIRED</div>",null,,word,TIRED,,,,,,,,,,,,
html-keyboard-response,31,814238,null,"",null,,word,TIRED,,,,,,,,,,,,
html-keyboard-response,32,814440,null,"<div style=""font-size:42px;"">ENTERTAINING</div><img id = ""stim"" ><div class = red_square id = ""bottomsquare"" ></div>",null,practice,word_square,ENTERTAINING,prac_response,0,Bottom,none,true,,,,,,,
html-keyboard-response,33,814741,null,"<div style=""font-size:42px;"">ENTERTAINING</div>",null,,word,ENTERTAINING,,,,,,,,,,,,
html-keyboard-response,34,816243,null,"",null,,word,ENTERTAINING,,,,,,,,,,,,
html-keyboard-response,35,816445,null,"<div style=""font-size:42px;"">GRATEFUL</div><img id = ""stim"" ><div class = green_square id = ""bottomsquare"" ></div>",null,practice,word_square,GRATEFUL,prac_response,1,Bottom,32,true,,,,,,,
html-keyboard-response,36,816747,103.09999999403954,"<div style=""font-size:42px;"">GRATEFUL</div>",32,,word,GRATEFUL,,,,,,,,,,,,
html-keyboard-response,37,818248,null,"",null,,word,GRATEFUL,,,,,,,,,,,,
html-keyboard-response,38,818449,null,"<div style=""font-size:42px;"">LOUD</div><img id = ""stim"" ><div class = red_square id = ""topsquare"" ></div>",null,practice,word_square,LOUD,prac_response,0,Top,none,true,,,,,,,
html-keyboard-response,39,818751,null,"<div style=""font-size:42px;"">LOUD</div>",null,,word,LOUD,,,,,,,,,,,,
html-keyboard-response,40,820252,null,"",null,,word,LOUD,,,,,,,,,,,,
html-keyboard-response,41,820454,null,"<div style=""font-size:42px;"">SMART</div><img id = ""stim"" ><div class = green_square id = ""topsquare"" ></div>",null,practice,word_square,SMART,prac_response,1,Top,32,true,,,,,,,
html-keyboard-response,42,820756,138.3999999910593,"<div style=""font-size:42px;"">SMART</div>",32,,word,SMART,,,,,,,,,,,,
html-keyboard-response,43,822257,null,"",null,,word,SMART,,,,,,,,,,,,
html-keyboard-response,44,822459,null,"<div style=""font-size:42px;"">SMOOTH</div><img id = ""stim"" ><div class = green_square id = ""bottomsquare"" ></div>",null,practice,word_square,SMOOTH,prac_response,1,Bottom,32,true,,,,,,,
html-keyboard-response,45,822761,124.3999999910593,"<div style=""font-size:42px;"">SMOOTH</div>",32,,word,SMOOTH,,,,,,,,,,,,
html-keyboard-response,46,824263,null,"",null,,word,SMOOTH,,,,,,,,,,,,
html-keyboard-response,47,824464,null,"<div style=""font-size:42px;"">DISHONEST</div><img id = ""stim"" ><div class = red_square id = ""bottomsquare"" ></div>",null,practice,word_square,DISHONEST,prac_response,0,Bottom,none,true,,,,,,,
html-keyboard-response,48,824765,null,"<div style=""font-size:42px;"">DISHONEST</div>",null,,word,DISHONEST,,,,,,,,,,,,
html-keyboard-response,49,826266,null,"",null,,word,DISHONEST,,,,,,,,,,,,
html-keyboard-response,50,826467,null,"<div style=""font-size:42px;"">WEALTHY</div><img id = ""stim"" ><div class = green_square id = ""topsquare"" ></div>",null,practice,word_square,WEALTHY,prac_response,1,Top,32,true,,,,,,,
html-keyboard-response,51,826768,106.5,"<div style=""font-size:42px;"">WEALTHY</div>",32,,word,WEALTHY,,,,,,,,,,,,
html-keyboard-response,52,828269,null,"",null,,word,WEALTHY,,,,,,,,,,,,
html-keyboard-response,53,828470,null,"<div style=""font-size:42px;"">BEAUTIFUL</div><img id = ""stim"" ><div class = red_square id = ""topsquare"" ></div>",null,practice,word_square,BEAUTIFUL,prac_response,0,Top,none,true,,,,,,,
html-keyboard-response,54,828772,null,"<div style=""font-size:42px;"">BEAUTIFUL</div>",null,,word,BEAUTIFUL,,,,,,,,,,,,
html-keyboard-response,55,830273,null,"",null,,word,BEAUTIFUL,,,,,,,,,,,,
html-keyboard-response,56,890218,59943.10000000894,"<p> Good job! You responded correctly to 100% of the trials. </p>
                  <p>Be sure to only press the spacebar if you see a GREEN square, and please keep your accuracy above 80%.</p>
                  <p>We're going to try once more to make sure you understand the task. press any key to continue. </p>",32,,,,,,,,,,,,,,,
html-keyboard-response,57,891706,1487.2000000029802,"<p>You will see a list of words and colored squares in the following task.<p><p>Press the spacebar whenever you see a GREEN square.<p><p>Do not press a key if the square is RED<p><p>Press the spacebar to continue.</p>",32,,,,,,,,,,,,,,,
html-keyboard-response,58,894209,null,"<div style=""font-size:60px;"">+</div>",null,,,,,,,,,,,,,,,
html-keyboard-response,59,894411,null,"<div style=""font-size:42px;"">HAPPY</div><img id = ""stim"" ><div class = red_square id = ""bottomsquare"" ></div>",null,practice2,word_square,HAPPY,prac_response,0,Bottom,none,true,,,,,,,
html-keyboard-response,60,894713,null,"<div style=""font-size:42px;"">HAPPY</div>",null,,word,HAPPY,,,,,,,,,,,,
html-keyboard-response,61,896215,null,"",null,,word,HAPPY,,,,,,,,,,,,
html-keyboard-response,62,896417,null,"<div style=""font-size:42px;"">COLD</div><img id = ""stim"" ><div class = green_square id = ""bottomsquare"" ></div>",null,practice2,word_square,,prac_response,1,Bottom,32,true,,,,,,,
html-keyboard-response,63,896718,146.40000000596046,"<div style=""font-size:42px;"">COLD</div>",32,,word,COLD,,,,,,,,,,,,
html-keyboard-response,64,898219,null,"",null,,word,COLD,,,,,,,,,,,,
html-keyboard-response,65,898420,null,"<div style=""font-size:42px;"">HEAVY</div><img id = ""stim"" ><div class = green_square id = ""topsquare"" ></div>",null,practice2,word_square,,prac_response,1,Top,32,true,,,,,,,
html-keyboard-response,66,898721,174.70000000298023,"<div style=""font-size:42px;"">HEAVY</div>",32,,word,HEAVY,,,,,,,,,,,,
html-keyboard-response,67,900222,null,"",null,,word,HEAVY,,,,,,,,,,,,
html-keyboard-response,68,900423,null,"<div style=""font-size:42px;"">FUNNY</div><img id = ""stim"" ><div class = red_square id = ""topsquare"" ></div>",null,practice2,word_square,,prac_response,0,Top,none,true,,,,,,,
html-keyboard-response,69,900725,null,"<div style=""font-size:42px;"">FUNNY</div>",null,,word,FUNNY,,,,,,,,,,,,
html-keyboard-response,70,902227,null,"",null,,word,FUNNY,,,,,,,,,,,,
html-keyboard-response,71,902428,null,"<div style=""font-size:42px;"">SCARY</div><img id = ""stim"" ><div class = green_square id = ""bottomsquare"" ></div>",null,practice2,word_square,,prac_response,1,Bottom,32,true,,,,,,,
html-keyboard-response,72,902730,80.09999999403954,"<div style=""font-size:42px;"">SCARY</div>",32,,word,SCARY,,,,,,,,,,,,
html-keyboard-response,73,904232,null,"",null,,word,SCARY,,,,,,,,,,,,
html-keyboard-response,74,904434,null,"<div style=""font-size:42px;"">PEACEFUL</div><img id = ""stim"" ><div class = green_square id = ""topsquare"" ></div>",null,practice2,word_square,,prac_response,1,Top,32,true,,,,,,,
html-keyboard-response,75,904735,94.29999999701977,"<div style=""font-size:42px;"">PEACEFUL</div>",32,,word,PEACEFUL,,,,,,,,,,,,
html-keyboard-response,76,906237,null,"",null,,word,PEACEFUL,,,,,,,,,,,,
html-keyboard-response,77,906438,null,"<div style=""font-size:42px;"">LITTLE</div><img id = ""stim"" ><div class = red_square id = ""bottomsquare"" ></div>",null,practice2,word_square,LITTLE,prac_response,0,Bottom,none,true,,,,,,,
html-keyboard-response,78,906741,null,"<div style=""font-size:42px;"">LITTLE</div>",null,,word,LITTLE,,,,,,,,,,,,
html-keyboard-response,79,908242,null,"",null,,word,LITTLE,,,,,,,,,,,,
html-keyboard-response,80,908443,null,"<div style=""font-size:42px;"">TIRED</div><img id = ""stim"" ><div class = red_square id = ""topsquare"" ></div>",null,practice2,word_square,,prac_response,0,Top,none,true,,,,,,,
html-keyboard-response,81,908745,null,"<div style=""font-size:42px;"">TIRED</div>",null,,word,TIRED,,,,,,,,,,,,
html-keyboard-response,82,910246,null,"",null,,word,TIRED,,,,,,,,,,,,
html-keyboard-response,83,910448,null,"<div style=""font-size:42px;"">ENTERTAINING</div><img id = ""stim"" ><div class = red_square id = ""bottomsquare"" ></div>",null,practice2,word_square,ENTERTAINING,prac_response,0,Bottom,none,true,,,,,,,
html-keyboard-response,84,910750,null,"<div style=""font-size:42px;"">ENTERTAINING</div>",null,,word,ENTERTAINING,,,,,,,,,,,,
html-keyboard-response,85,912250,null,"",null,,word,ENTERTAINING,,,,,,,,,,,,
html-keyboard-response,86,912451,null,"<div style=""font-size:42px;"">GRATEFUL</div><img id = ""stim"" ><div class = green_square id = ""bottomsquare"" ></div>",null,practice2,word_square,,prac_response,1,Bottom,32,true,,,,,,,
html-keyboard-response,87,912752,83.3999999910593,"<div style=""font-size:42px;"">GRATEFUL</div>",32,,word,GRATEFUL,,,,,,,,,,,,
html-keyboard-response,88,914254,null,"",null,,word,GRATEFUL,,,,,,,,,,,,
html-keyboard-response,89,914456,null,"<div style=""font-size:42px;"">LOUD</div><img id = ""stim"" ><div class = red_square id = ""topsquare"" ></div>",null,practice2,word_square,,prac_response,0,Top,none,true,,,,,,,
html-keyboard-response,90,914758,null,"<div style=""font-size:42px;"">LOUD</div>",null,,word,LOUD,,,,,,,,,,,,
html-keyboard-response,91,916259,null,"",null,,word,LOUD,,,,,,,,,,,,
html-keyboard-response,92,916461,null,"<div style=""font-size:42px;"">SMART</div><img id = ""stim"" ><div class = green_square id = ""topsquare"" ></div>",null,practice2,word_square,,prac_response,1,Top,32,true,,,,,,,
html-keyboard-response,93,916763,81.1000000089407,"<div style=""font-size:42px;"">SMART</div>",32,,word,SMART,,,,,,,,,,,,
html-keyboard-response,94,918264,null,"",null,,word,SMART,,,,,,,,,,,,
html-keyboard-response,95,918465,null,"<div style=""font-size:42px;"">SMOOTH</div><img id = ""stim"" ><div class = green_square id = ""bottomsquare"" ></div>",null,practice2,word_square,,prac_response,1,Bottom,32,true,,,,,,,
html-keyboard-response,96,918767,171.20000000298023,"<div style=""font-size:42px;"">SMOOTH</div>",32,,word,SMOOTH,,,,,,,,,,,,
html-keyboard-response,97,920268,null,"",null,,word,SMOOTH,,,,,,,,,,,,
html-keyboard-response,98,920469,null,"<div style=""font-size:42px;"">DISHONEST</div><img id = ""stim"" ><div class = red_square id = ""bottomsquare"" ></div>",null,practice2,word_square,DISHONEST,prac_response,0,Bottom,none,true,,,,,,,
html-keyboard-response,99,920770,null,"<div style=""font-size:42px;"">DISHONEST</div>",null,,word,DISHONEST,,,,,,,,,,,,
html-keyboard-response,100,922271,null,"",null,,word,DISHONEST,,,,,,,,,,,,
html-keyboard-response,101,922473,null,"<div style=""font-size:42px;"">WEALTHY</div><img id = ""stim"" ><div class = green_square id = ""topsquare"" ></div>",null,practice2,word_square,,prac_response,1,Top,32,true,,,,,,,
html-keyboard-response,102,922775,158,"<div style=""font-size:42px;"">WEALTHY</div>",32,,word,WEALTHY,,,,,,,,,,,,
html-keyboard-response,103,924277,null,"",null,,word,WEALTHY,,,,,,,,,,,,
html-keyboard-response,104,924478,null,"<div style=""font-size:42px;"">BEAUTIFUL</div><img id = ""stim"" ><div class = red_square id = ""topsquare"" ></div>",null,practice2,word_square,,prac_response,0,Top,none,false,,,,,,,
html-keyboard-response,105,924779,null,"<div style=""font-size:42px;"">BEAUTIFUL</div>",null,,word,BEAUTIFUL,,,,,,,,,,,,
html-keyboard-response,106,926280,null,"",null,,word,BEAUTIFUL,,,,,,,,,,,,
html-keyboard-response,107,959979,33696.79999999702,"<p> Good job! You responded correctly to 100% of the trials. </p>
                    <p>Be sure to only press the spacebar if you see a GREEN square, and please keep your accuracy above 80%.</p>
                    <p>Press any key to begin the math and recall sections. Thank you! </p>",32,,,,,,,,,,,,,,,
call-function,108,959980,,"",,,,,,,,,,,,,,,,
html-keyboard-response,109,960081,null,"",null,,,,,,,,,,,,,,,
math-period,110,964118,7040.100000023842,"",,,,,,,,,,,4numpad,,,,,
html-keyboard-response,111,964219,null,"",null,,,,,,,,,,,,,,,
math-period,112,966063,3113.5,"",,,,,,,,,,,2,,,,,
html-keyboard-response,113,966164,null,"",null,,,,,,,,,,,,,,,
math-period,114,967565,2337.2999999970198,"",,,,,,,,,,,3,,,,,
html-keyboard-response,115,967667,null,"",null,,,,,,,,,,,,,,,
math-period,116,969951,7064.400000035763,"",,,,,,,,,,,5,,,,,
html-keyboard-response,117,970053,null,"",null,,,,,,,,,,,,,,,
math-period,118,972147,6467.500000014901,"",,,,,,,,,,,4,,,,,
html-keyboard-response,119,972249,null,"",null,,,,,,,,,,,,,,,
math-period,120,973141,1505,"",,,,,,,,,,,4,,,,,
html-keyboard-response,121,973243,null,"",null,,,,,,,,,,,,,,,
math-period,122,974130,1547.2000000029802,"",,,,,,,,,,,4,,,,,
html-keyboard-response,123,974232,null,"",null,,,,,,,,,,,,,,,
math-period,124,976351,4035.7000000029802,"",,,,,,,,,,,3,,,,,
html-keyboard-response,125,976453,null,"",null,,,,,,,,,,,,,,,
math-period,126,979179,5112.699999988079,"",,,,,,,,,,,0,,,,,
html-keyboard-response,127,979281,null,"",null,,,,,,,,,,,,,,,
math-period,128,981594,7485.999999970198,"",,,,,,,,,,,2,,,,,
html-keyboard-response,129,981695,null,"",null,,,,,,,,,,,,,,,
math-period,130,982691,1795.199999988079,"",,,,,,,,,,,3,,,,,
html-keyboard-response,131,982792,null,"",null,,,,,,,,,,,,,,,
math-period,132,983913,2085.5,"",,,,,,,,,,,4,,,,,
html-keyboard-response,133,984014,null,"",null,,,,,,,,,,,,,,,
math-period,134,984016,null,"",,,,,,,,,,,,,,,,
html-keyboard-response,135,985018,null,"Recall Period!",null,,,,,,,,,,,,,,,
call-function,136,985018,,"",,,,,,,,,,,,,,,,
html-keyboard-response,137,985120,null,"",null,,,,,,,,,,,,,,,
recall-period,138,989691,23542.20000000298,"",,,,,,,,,,,scary,,,,,
html-keyboard-response,139,989793,null,"",null,,,,,,,,,,,,,,,
recall-period,140,992267,13051.400000035763,"",,,,,,,,,,,smart,,,,,
html-keyboard-response,141,992369,null,"",null,,,,,,,,,,,,,,,
recall-period,142,993863,7590.400000035763,"",,,,,,,,,,,wealthy,,,,,
html-keyboard-response,143,993964,null,"",null,,,,,,,,,,,,,,,
recall-period,144,1000831,39351.400000050664,"",,,,,,,,,,,heavy,,,,,
html-keyboard-response,145,1000932,null,"",null,,,,,,,,,,,,,,,
recall-period,146,1004419,35754.400000065565,"",,,,,,,,,,,considerate,,,,,
html-keyboard-response,147,1004521,null,"",null,,,,,,,,,,,,,,,
recall-period,148,1011468,6945.20000000298,"",,,,,,,,,,,,,,,,
html-keyboard-response,149,1011569,null,"",null,,,,,,,,,,,,,,,
recall-period,150,1025016,141251.0000000894,"",,,,,,,,,,,moderation,,,,,
html-keyboard-response,151,1025117,null,"",null,,,,,,,,,,,,,,,
recall-period,152,1060020,null,"",,,,,,,,,,,,,,,,
html-keyboard-response,153,1060521,null,"Time's Up!",null,,,,,,,,,,,,,,,
html-keyboard-response,154,1063075,2553.2000000029802,"<p>We will now begin the experiment!<p><p>Please try to remember all words from each list.<p><p>Press the spacebar whenever you see a GREEN square.<p><p><p><p>Press the spacebar to begin.</p>",32,,,,,,,,,,,,,,,
html-keyboard-response,155,1064929,1351.8999999910593,"<div style=""font-size:48px;"">Press any key to begin list 1 of 16 </div>",32,,,,,,,,,,,,,,,
html-keyboard-response,156,1067431,null,"<div style=""font-size:60px;"">+</div>",null,,,,,,,,,,,,,,,
html-keyboard-response,157,1067633,null,"<div style=""font-size:42px;"">ALMOND</div><img id = ""stim"" ><div class = green_square id = topsquare></div>",null,encoding,word_square,,,1,topsquare,32,true,,,ALMOND,0,,,
html-keyboard-response,158,1067935,182.70000000298023,"<div style=""font-size:42px;"">ALMOND</div>",32,,word,ALMOND,,,,,,,,,,,,
html-keyboard-response,159,1069437,null,"",null,,word,ALMOND,,,,,,,,,,,,
html-keyboard-response,160,1069639,null,"<div style=""font-size:42px;"">RIFLE</div><img id = ""stim"" ><div class = green_square id = bottomsquare></div>",null,encoding,word_square,,,1,bottomsquare,32,true,,,RIFLE,0,,,
html-keyboard-response,161,1069940,141.30000001192093,"<div style=""font-size:42px;"">RIFLE</div>",32,,word,RIFLE,,,,,,,,,,,,
html-keyboard-response,162,1071442,null,"",null,,word,RIFLE,,,,,,,,,,,,
html-keyboard-response,163,1071644,null,"<div style=""font-size:42px;"">JOKER</div><img id = ""stim"" ><div class = red_square id = bottomsquare></div>",null,encoding,word_square,,,0,bottomsquare,none,true,,,JOKER,0,,,
html-keyboard-response,164,1071945,null,"<div style=""font-size:42px;"">JOKER</div>",null,,word,JOKER,,,,,,,,,,,,
html-keyboard-response,165,1073447,null,"",null,,word,JOKER,,,,,,,,,,,,
html-keyboard-response,166,1073649,null,"<div style=""font-size:42px;"">TUBA</div><img id = ""stim"" ><div class = green_square id = topsquare></div>",null,encoding,word_square,,,1,topsquare,32,true,,,TUBA,0,,,
html-keyboard-response,167,1073951,193.40000000596046,"<div style=""font-size:42px;"">TUBA</div>",32,,word,TUBA,,,,,,,,,,,,
html-keyboard-response,168,1075453,null,"",null,,word,TUBA,,,,,,,,,,,,
html-keyboard-response,169,1075654,null,"<div style=""font-size:42px;"">RECORD</div><img id = ""stim"" ><div class = red_square id = topsquare></div>",null,encoding,word_square,,,0,topsquare,none,true,,,RECORD,0,,,
html-keyboard-response,170,1075955,null,"<div style=""font-size:42px;"">RECORD</div>",null,,word,RECORD,,,,,,,,,,,,
html-keyboard-response,171,1077456,null,"",null,,word,RECORD,,,,,,,,,,,,
html-keyboard-response,172,1077658,null,"<div style=""font-size:42px;"">GRAVEL</div><img id = ""stim"" ><div class = red_square id = bottomsquare></div>",null,encoding,word_square,,,0,bottomsquare,none,true,,,GRAVEL,0,,,
html-keyboard-response,173,1077961,null,"<div style=""font-size:42px;"">GRAVEL</div>",null,,word,GRAVEL,,,,,,,,,,,,
html-keyboard-response,174,1079463,null,"",null,,word,GRAVEL,,,,,,,,,,,,
html-keyboard-response,175,1079664,null,"<div style=""font-size:42px;"">BELT</div><img id = ""stim"" ><div class = green_square id = bottomsquare></div>",null,encoding,word_square,,,1,bottomsquare,32,true,,,BELT,0,,,
html-keyboard-response,176,1079965,72.5,"<div style=""font-size:42px;"">BELT</div>",32,,word,BELT,,,,,,,,,,,,
html-keyboard-response,177,1081467,null,"",null,,word,BELT,,,,,,,,,,,,
html-keyboard-response,178,1081669,null,"<div style=""font-size:42px;"">MAGNET</div><img id = ""stim"" ><div class = red_square id = topsquare></div>",null,encoding,word_square,,,0,topsquare,none,true,,,MAGNET,0,,,
html-keyboard-response,179,1081971,null,"<div style=""font-size:42px;"">MAGNET</div>",null,,word,MAGNET,,,,,,,,,,,,
html-keyboard-response,180,1083473,null,"",null,,word,MAGNET,,,,,,,,,,,,
html-keyboard-response,181,1083674,null,"<div style=""font-size:42px;"">EXPERT</div><img id = ""stim"" ><div class = green_square id = topsquare></div>",null,encoding,word_square,,,1,topsquare,32,true,,,EXPERT,0,,,
html-keyboard-response,182,1083975,109.20000000298023,"<div style=""font-size:42px;"">EXPERT</div>",32,,word,EXPERT,,,,,,,,,,,,
html-keyboard-response,183,1085476,null,"",null,,word,EXPERT,,,,,,,,,,,,
html-keyboard-response,184,1085677,null,"<div style=""font-size:42px;"">TEACHER</div><img id = ""stim"" ><div class = green_square id = bottomsquare></div>",null,encoding,word_square,,,1,bottomsquare,32,true,,,TEACHER,0,,,
html-keyboard-response,185,1085979,192.5,"<div style=""font-size:42px;"">TEACHER</div>",32,,word,TEACHER,,,,,,,,,,,,
html-keyboard-response,186,1087481,null,"",null,,word,TEACHER,,,,,,,,,,,,
html-keyboard-response,187,1087683,null,"<div style=""font-size:42px;"">INMATE</div><img id = ""stim"" ><div class = red_square id = bottomsquare></div>",null,encoding,word_square,,,0,bottomsquare,none,true,,,INMATE,0,,,
html-keyboard-response,188,1087984,null,"<div style=""font-size:42px;"">INMATE</div>",null,,word,INMATE,,,,,,,,,,,,
html-keyboard-response,189,1089485,null,"",null,,word,INMATE,,,,,,,,,,,,
html-keyboard-response,190,1089687,null,"<div style=""font-size:42px;"">FRIES</div><img id = ""stim"" ><div class = red_square id = topsquare></div>",null,encoding,word_square,,,0,topsquare,none,true,,,FRIES,0,,,
html-keyboard-response,191,1089989,null,"<div style=""font-size:42px;"">FRIES</div>",null,,word,FRIES,,,,,,,,,,,,
html-keyboard-response,192,1091491,null,"",null,,word,FRIES,,,,,,,,,,,,
html-keyboard-response,193,1091693,null,"<div style=""font-size:42px;"">CLOTHES</div><img id = ""stim"" ><div class = green_square id = topsquare></div>",null,encoding,word_square,,,1,topsquare,32,true,,,CLOTHES,0,,,
html-keyboard-response,194,1091994,149.70000000298023,"<div style=""font-size:42px;"">CLOTHES</div>",32,,word,CLOTHES,,,,,,,,,,,,
html-keyboard-response,195,1093495,null,"",null,,word,CLOTHES,,,,,,,,,,,,
html-keyboard-response,196,1093696,null,"<div style=""font-size:42px;"">PISTOL</div><img id = ""stim"" ><div class = green_square id = bottomsquare></div>",null,encoding,word_square,,,1,bottomsquare,32,true,,,PISTOL,0,,,
html-keyboard-response,197,1093997,230.70000000298023,"<div style=""font-size:42px;"">PISTOL</div>",32,,word,PISTOL,,,,,,,,,,,,
html-keyboard-response,198,1095498,null,"",null,,word,PISTOL,,,,,,,,,,,,
html-keyboard-response,199,1095699,null,"<div style=""font-size:42px;"">DIAMOND</div><img id = ""stim"" ><div class = red_square id = bottomsquare></div>",null,encoding,word_square,,,0,bottomsquare,none,true,,,DIAMOND,0,,,
html-keyboard-response,200,1096000,null,"<div style=""font-size:42px;"">DIAMOND</div>",null,,word,DIAMOND,,,,,,,,,,,,
html-keyboard-response,201,1097502,null,"",null,,word,DIAMOND,,,,,,,,,,,,
html-keyboard-response,202,1097703,null,"<div style=""font-size:42px;"">AIRPORT</div><img id = ""stim"" ><div class = red_square id = topsquare></div>",null,encoding,word_square,,,0,topsquare,none,true,,,AIRPORT,0,,,
html-keyboard-response,203,1098004,null,"<div style=""font-size:42px;"">AIRPORT</div>",null,,word,AIRPORT,,,,,,,,,,,,
html-keyboard-response,204,1099505,null,"",null,,word,AIRPORT,,,,,,,,,,,,
call-function,205,1099506,,"",,,,,,,,,,,,,,,,
html-keyboard-response,206,1099607,null,"",null,,,,,,,,,,,,,,,
math-period,207,1102063,4483.4000000059605,"",,,,,,,,,,,6,,,,,
html-keyboard-response,208,1102165,null,"",null,,,,,,,,,,,,,,,
math-period,209,1104634,7264.200000017881,"",,,,,,,,,,,0,,,,,
html-keyboard-response,210,1104736,null,"",null,,,,,,,,,,,,,,,
math-period,211,1107457,5083.29999999702,"",,,,,,,,,,,1,,,,,
html-keyboard-response,212,1107559,null,"",null,,,,,,,,,,,,,,,
math-period,213,1109470,3625.9000000059605,"",,,,,,,,,,,1,,,,,
html-keyboard-response,214,1109571,null,"",null,,,,,,,,,,,,,,,
math-period,215,1112561,5383.899999991059,"",,,,,,,,,,,2,,,,,
html-keyboard-response,216,1112663,null,"",null,,,,,,,,,,,,,,,
math-period,217,1116009,5751.0999999940395,"",,,,,,,,,,,2,,,,,
html-keyboard-response,218,1116111,null,"",null,,,,,,,,,,,,,,,
math-period,219,1118613,4626.5999999940395,"",,,,,,,,,,,0,,,,,
html-keyboard-response,220,1118715,null,"",null,,,,,,,,,,,,,,,
math-period,221,1121123,4364,"",,,,,,,,,,,3,,,,,
html-keyboard-response,222,1121225,null,"",null,,,,,,,,,,,,,,,
math-period,223,1123415,4180.000000014901,"",,,,,,,,,,,2,,,,,
html-keyboard-response,224,1123516,null,"",null,,,,,,,,,,,,,,,
math-period,225,1123518,null,"",,,,,,,,,,,,,,,,
html-keyboard-response,226,1124520,null,"Recall Period!",null,,,,,,,,,,,,,,,
call-function,227,1124521,,"",,,,,,,,,,,,,,,,
html-keyboard-response,228,1124621,null,"",null,,,,,,,,,,,,,,,
recall-period,229,1127009,13145.800000026822,"",,,,,,,,,,,almond,,,,,
html-keyboard-response,230,1127111,null,"",null,,,,,,,,,,,,,,,
recall-period,231,1127685,1781.2999999970198,"",,,,,,,,,,,rifle,,,,,
html-keyboard-response,232,1127786,null,"",null,,,,,,,,,,,,,,,
recall-period,233,1128477,1971.6000000089407,"",,,,,,,,,,,tuna,,,,,
html-keyboard-response,234,1128578,null,"",null,,,,,,,,,,,,,,,
recall-period,235,1199523,null,"",,,,,,,,,,,,,,,,
html-keyboard-response,236,1200025,null,"Time's Up!",null,,,,,,,,,,,,,,,
html-keyboard-response,237,1214778,14752.09999999404,"<p> Good job! You have responded correctly to 100% of the trials. </p>
                      <p>Be sure to only press the spacebar if you see a GREEN square, and please keep your accuracy above 80%.</p>
                      <p> Press any key to continue the experiment. </p>",32,,,,,,,,,,,,,,,
html-keyboard-response,238,1216025,1246.2000000029802,"<div style=""font-size:48px;"">Press any key to begin list 2 of 16 </div>",32,,,,,,,,,,,,,,,
html-keyboard-response,239,1218528,null,"<div style=""font-size:60px;"">+</div>",null,,,,,,,,,,,,,,,
html-keyboard-response,240,1218730,null,"<div style=""font-size:42px;"">RAILROAD</div><img id = ""stim"" ><div class = red_square id = topsquare></div>",null,encoding,word_square,,,0,topsquare,none,true,,,RAILROAD,1,,,
html-keyboard-response,241,1219032,null,"<div style=""font-size:42px;"">RAILROAD</div>",null,,word,RAILROAD,,,,,,,,,,,,
html-keyboard-response,242,1220533,null,"",null,,word,RAILROAD,,,,,,,,,,,,
html-keyboard-response,243,1220735,null,"<div style=""font-size:42px;"">TUTU</div><img id = ""stim"" ><div class = red_square id = bottomsquare></div>",null,encoding,word_square,,,0,bottomsquare,none,true,,,TUTU,1,,,
html-keyboard-response,244,1221036,null,"<div style=""font-size:42px;"">TUTU</div>",null,,word,TUTU,,,,,,,,,,,,
html-keyboard-response,245,1222537,null,"",null,,word,TUTU,,,,,,,,,,,,
html-keyboard-response,246,1222738,null,"<div style=""font-size:42px;"">DRESS</div><img id = ""stim"" ><div class = green_square id = bottomsquare></div>",null,encoding,word_square,,,1,bottomsquare,32,true,,,DRESS,1,,,
html-keyboard-response,247,1223039,134.30000001192093,"<div style=""font-size:42px;"">DRESS</div>",32,,word,DRESS,,,,,,,,,,,,
html-keyboard-response,248,1224540,null,"",null,,word,DRESS,,,,,,,,,,,,
html-keyboard-response,249,1224742,null,"<div style=""font-size:42px;"">PRIMATE</div><img id = ""stim"" ><div class = green_square id = topsquare></div>",null,encoding,word_square,,,1,topsquare,32,true,,,PRIMATE,1,,,
html-keyboard-response,250,1225044,139,"<div style=""font-size:42px;"">PRIMATE</div>",32,,word,PRIMATE,,,,,,,,,,,,
html-keyboard-response,251,1226545,null,"",null,,word,PRIMATE,,,,,,,,,,,,
html-keyboard-response,252,1226746,null,"<div style=""font-size:42px;"">RACKET</div><img id = ""stim"" ><div class = red_square id = topsquare></div>",null,encoding,word_square,,,0,topsquare,none,true,,,RACKET,1,,,
html-keyboard-response,253,1227047,null,"<div style=""font-size:42px;"">RACKET</div>",null,,word,RACKET,,,,,,,,,,,,
html-keyboard-response,254,1228548,null,"",null,,word,RACKET,,,,,,,,,,,,
html-keyboard-response,255,1228749,null,"<div style=""font-size:42px;"">STAIRS</div><img id = ""stim"" ><div class = red_square id = bottomsquare></div>",null,encoding,word_square,,,0,bottomsquare,none,true,,,STAIRS,1,,,
html-keyboard-response,256,1229051,null,"<div style=""font-size:42px;"">STAIRS</div>",null,,word,STAIRS,,,,,,,,,,,,
html-keyboard-response,257,1230552,null,"",null,,word,STAIRS,,,,,,,,,,,,
html-keyboard-response,258,1230754,null,"<div style=""font-size:42px;"">MONEY</div><img id = ""stim"" ><div class = green_square id = bottomsquare></div>",null,encoding,word_square,,,1,bottomsquare,32,true,,,MONEY,1,,,
html-keyboard-response,259,1231056,152.59999999403954,"<div style=""font-size:42px;"">MONEY</div>",32,,word,MONEY,,,,,,,,,,,,
html-keyboard-response,260,1232557,null,"",null,,word,MONEY,,,,,,,,,,,,
html-keyboard-response,261,1232759,null,"<div style=""font-size:42px;"">STALLION</div><img id = ""stim"" ><div class = green_square id = topsquare></div>",null,encoding,word_square,,,1,topsquare,32,true,,,STALLION,1,,,
html-keyboard-response,262,1233060,221.90000000596046,"<div style=""font-size:42px;"">STALLION</div>",32,,word,STALLION,,,,,,,,,,,,
html-keyboard-response,263,1234561,null,"",null,,word,STALLION,,,,,,,,,,,,
html-keyboard-response,264,1234763,null,"<div style=""font-size:42px;"">MARROW</div><img id = ""stim"" ><div class = red_square id = topsquare></div>",null,encoding,word_square,,,0,topsquare,none,true,,,MARROW,1,,,
html-keyboard-response,265,1235064,null,"<div style=""font-size:42px;"">MARROW</div>",null,,word,MARROW,,,,,,,,,,,,
html-keyboard-response,266,1236566,null,"",null,,word,MARROW,,,,,,,,,,,,
html-keyboard-response,267,1236767,null,"<div style=""font-size:42px;"">BACKBONE</div><img id = ""stim"" ><div class = green_square id = bottomsquare></div>",null,encoding,word_square,,,1,bottomsquare,32,true,,,BACKBONE,1,,,
html-keyboard-response,268,1237068,150.20000000298023,"<div style=""font-size:42px;"">BACKBONE</div>",32,,word,BACKBONE,,,,,,,,,,,,
html-keyboard-response,269,1238569,null,"",null,,word,BACKBONE,,,,,,,,,,,,
html-keyboard-response,270,1238771,null,"<div style=""font-size:42px;"">POND</div><img id = ""stim"" ><div class = red_square id = bottomsquare></div>",null,encoding,word_square,,,0,bottomsquare,none,true,,,POND,1,,,
html-keyboard-response,271,1239073,null,"<div style=""font-size:42px;"">POND</div>",null,,word,POND,,,,,,,,,,,,
html-keyboard-response,272,1240575,null,"",null,,word,POND,,,,,,,,,,,,
html-keyboard-response,273,1240776,null,"<div style=""font-size:42px;"">JUGGLER</div><img id = ""stim"" ><div class = red_square id = topsquare></div>",null,encoding,word_square,,,0,topsquare,none,true,,,JUGGLER,1,,,
html-keyboard-response,274,1241077,null,"<div style=""font-size:42px;"">JUGGLER</div>",null,,word,JUGGLER,,,,,,,,,,,,
html-keyboard-response,275,1242578,null,"",null,,word,JUGGLER,,,,,,,,,,,,
html-keyboard-response,276,1242780,null,"<div style=""font-size:42px;"">GYMNAST</div><img id = ""stim"" ><div class = green_square id = topsquare></div>",null,encoding,word_square,,,1,topsquare,32,true,,,GYMNAST,1,,,
html-keyboard-response,277,1243082,156.1000000089407,"<div style=""font-size:42px;"">GYMNAST</div>",32,,word,GYMNAST,,,,,,,,,,,,
html-keyboard-response,278,1244583,null,"",null,,word,GYMNAST,,,,,,,,,,,,
html-keyboard-response,279,1244785,null,"<div style=""font-size:42px;"">COMET</div><img id = ""stim"" ><div class = red_square id = bottomsquare></div>",null,encoding,word_square,,,0,bottomsquare,none,true,,,COMET,1,,,
html-keyboard-response,280,1245087,null,"<div style=""font-size:42px;"">COMET</div>",null,,word,COMET,,,,,,,,,,,,
html-keyboard-response,281,1246588,null,"",null,,word,COMET,,,,,,,,,,,,
html-keyboard-response,282,1246789,null,"<div style=""font-size:42px;"">GIRL</div><img id = ""stim"" ><div class = green_square id = bottomsquare></div>",null,encoding,word_square,,,1,bottomsquare,32,true,,,GIRL,1,,,
html-keyboard-response,283,1247090,195.6000000089407,"<div style=""font-size:42px;"">GIRL</div>",32,,word,GIRL,,,,,,,,,,,,
html-keyboard-response,284,1248591,null,"",null,,word,GIRL,,,,,,,,,,,,
html-keyboard-response,285,1248793,null,"<div style=""font-size:42px;"">MAPLE</div><img id = ""stim"" ><div class = green_square id = topsquare></div>",null,encoding,word_square,,,1,topsquare,32,true,,,MAPLE,1,,,
html-keyboard-response,286,1249094,172.79999999701977,"<div style=""font-size:42px;"">MAPLE</div>",32,,word,MAPLE,,,,,,,,,,,,
html-keyboard-response,287,1250595,null,"",null,,word,MAPLE,,,,,,,,,,,,
call-function,288,1250596,,"",,,,,,,,,,,,,,,,
html-keyboard-response,289,1250697,null,"",null,,,,,,,,,,,,,,,
math-period,290,1253283,4864.500000014901,"",,,,,,,,,,,1,,,,,
html-keyboard-response,291,1253384,null,"",null,,,,,,,,,,,,,,,
math-period,292,1254415,1806.699999988079,"",,,,,,,,,,,2,,,,,
html-keyboard-response,293,1254516,null,"",null,,,,,,,,,,,,,,,
math-period,294,1255795,2179.5999999791384,"",,,,,,,,,,,4,,,,,
html-keyboard-response,295,1255897,null,"",null,,,,,,,,,,,,,,,
math-period,296,1256745,1522.0999999940395,"",,,,,,,,,,,3,,,,,
html-keyboard-response,297,1256847,null,"",null,,,,,,,,,,,,,,,
math-period,298,1259241,4555.399999991059,"",,,,,,,,,,,2,,,,,
html-keyboard-response,299,1259343,null,"",null,,,,,,,,,,,,,,,
math-period,300,1260446,2030,"",,,,,,,,,,,1,,,,,
html-keyboard-response,301,1260548,null,"",null,,,,,,,,,,,,,,,
math-period,302,1263316,5341.5999999940395,"",,,,,,,,,,,2,,,,,
html-keyboard-response,303,1263417,null,"",null,,,,,,,,,,,,,,,
math-period,304,1264629,2161.9000000059605,"",,,,,,,,,,,4,,,,,
html-keyboard-response,305,1264731,null,"",null,,,,,,,,,,,,,,,
math-period,306,1266440,3103.4000000059605,"",,,,,,,,,,,2,,,,,
html-keyboard-response,307,1266541,null,"",null,,,,,,,,,,,,,,,
math-period,308,1267620,1925.4000000059605,"",,,,,,,,,,,4,,,,,
html-keyboard-response,309,1267721,null,"",null,,,,,,,,,,,,,,,
math-period,310,1269257,2838.9000000059605,"",,,,,,,,,,,1,,,,,
html-keyboard-response,311,1269359,null,"",null,,,,,,,,,,,,,,,
math-period,312,1270423,1930.9999999850988,"",,,,,,,,,,,4,,,,,
html-keyboard-response,313,1270525,null,"",null,,,,,,,,,,,,,,,
math-period,314,1271601,1838.5,"",,,,,,,,,,,4,,,,,
html-keyboard-response,315,1271703,null,"",null,,,,,,,,,,,,,,,
math-period,316,1272685,1771.0000000149012,"",,,,,,,,,,,4,,,,,
html-keyboard-response,317,1272787,null,"",null,,,,,,,,,,,,,,,
math-period,318,1273793,1850.3999999761581,"",,,,,,,,,,,2,,,,,
html-keyboard-response,319,1273895,null,"",null,,,,,,,,,,,,,,,
math-period,320,1274597,null,"",,,,,,,,,,,,,,,,
html-keyboard-response,321,1275599,null,"Recall Period!",null,,,,,,,,,,,,,,,
call-function,322,1275601,,"",,,,,,,,,,,,,,,,
html-keyboard-response,323,1275702,null,"",null,,,,,,,,,,,,,,,
recall-period,324,1278007,16736.300000026822,"",,,,,,,,,,,railroad,,,,,
html-keyboard-response,325,1278109,null,"",null,,,,,,,,,,,,,,,
recall-period,326,1278756,1860.600000038743,"",,,,,,,,,,,tutu,,,,,
html-keyboard-response,327,1278857,null,"",null,,,,,,,,,,,,,,,
recall-period,328,1280469,6988.399999991059,"",,,,,,,,,,,almond,,,,,
html-keyboard-response,329,1280571,null,"",null,,,,,,,,,,,,,,,
recall-period,330,1282255,7202.300000026822,"",,,,,,,,,,,girl,,,,,
html-keyboard-response,331,1282356,null,"",null,,,,,,,,,,,,,,,
recall-period,332,1286915,51350.900000050664,"",,,,,,,,,,,juggler,,,,,
html-keyboard-response,333,1287017,null,"",null,,,,,,,,,,,,,,,
recall-period,334,1350603,null,"",,,,,,,,,,,,,,,,
html-keyboard-response,335,1351104,null,"Time's Up!",null,,,,,,,,,,,,,,,
html-keyboard-response,336,1352716,1610.3999999910593,"<p> Good job! You have responded correctly to 100% of the trials. </p>
                      <p>Be sure to only press the spacebar if you see a GREEN square, and please keep your accuracy above 80%.</p>
                      <p> Press any key to continue the experiment. </p>",32,,,,,,,,,,,,,,,
html-keyboard-response,337,1354073,1356.2999999970198,"<div style=""font-size:48px;"">Press any key to begin list 3 of 16 </div>",32,,,,,,,,,,,,,,,
html-keyboard-response,338,1356576,null,"<div style=""font-size:60px;"">+</div>",null,,,,,,,,,,,,,,,
html-keyboard-response,339,1356778,null,"<div style=""font-size:42px;"">LAVA</div><img id = ""stim"" ><div class = red_square id = bottomsquare></div>",null,encoding,word_square,,,0,bottomsquare,none,true,,,LAVA,2,,,
html-keyboard-response,340,1357079,null,"<div style=""font-size:42px;"">LAVA</div>",null,,word,LAVA,,,,,,,,,,,,
html-keyboard-response,341,1358581,null,"",null,,word,LAVA,,,,,,,,,,,,
html-keyboard-response,342,1358783,null,"<div style=""font-size:42px;"">HOUND</div><img id = ""stim"" ><div class = red_square id = topsquare></div>",null,encoding,word_square,,,0,topsquare,none,true,,,HOUND,2,,,
html-keyboard-response,343,1359084,null,"<div style=""font-size:42px;"">HOUND</div>",null,,word,HOUND,,,,,,,,,,,,
html-keyboard-response,344,1360586,null,"",null,,word,HOUND,,,,,,,,,,,,
html-keyboard-response,345,1360788,null,"<div style=""font-size:42px;"">FOSSIL</div><img id = ""stim"" ><div class = green_square id = topsquare></div>",null,encoding,word_square,,,1,topsquare,32,true,,,FOSSIL,2,,,
html-keyboard-response,346,1361090,112.30000001192093,"<div style=""font-size:42px;"">FOSSIL</div>",32,,word,FOSSIL,,,,,,,,,,,,
html-keyboard-response,347,1362592,null,"",null,,word,FOSSIL,,,,,,,,,,,,
html-keyboard-response,348,1362794,null,"<div style=""font-size:42px;"">DUSTPAN</div><img id = ""stim"" ><div class = red_square id = bottomsquare></div>",null,encoding,word_square,,,0,bottomsquare,none,true,,,DUSTPAN,2,,,
html-keyboard-response,349,1363096,null,"<div style=""font-size:42px;"">DUSTPAN</div>",null,,word,DUSTPAN,,,,,,,,,,,,
html-keyboard-response,350,1364598,null,"",null,,word,DUSTPAN,,,,,,,,,,,,
html-keyboard-response,351,1364799,null,"<div style=""font-size:42px;"">RAISIN</div><img id = ""stim"" ><div class = green_square id = bottomsquare></div>",null,encoding,word_square,,,1,bottomsquare,32,true,,,RAISIN,2,,,
html-keyboard-response,352,1365101,149.40000000596046,"<div style=""font-size:42px;"">RAISIN</div>",32,,word,RAISIN,,,,,,,,,,,,
html-keyboard-response,353,1366603,null,"",null,,word,RAISIN,,,,,,,,,,,,
html-keyboard-response,354,1366805,null,"<div style=""font-size:42px;"">PLIERS</div><img id = ""stim"" ><div class = green_square id = topsquare></div>",null,encoding,word_square,,,1,topsquare,32,true,,,PLIERS,2,,,
html-keyboard-response,355,1367106,223.20000000298023,"<div style=""font-size:42px;"">PLIERS</div>",32,,word,PLIERS,,,,,,,,,,,,
html-keyboard-response,356,1368608,null,"",null,,word,PLIERS,,,,,,,,,,,,
html-keyboard-response,357,1368810,null,"<div style=""font-size:42px;"">CHAUFFEUR</div><img id = ""stim"" ><div class = red_square id = topsquare></div>",null,encoding,word_square,,,0,topsquare,none,true,,,CHAUFFEUR,2,,,
html-keyboard-response,358,1369112,null,"<div style=""font-size:42px;"">CHAUFFEUR</div>",null,,word,CHAUFFEUR,,,,,,,,,,,,
html-keyboard-response,359,1370614,null,"",null,,word,CHAUFFEUR,,,,,,,,,,,,
html-keyboard-response,360,1370816,null,"<div style=""font-size:42px;"">GIFT</div><img id = ""stim"" ><div class = green_square id = bottomsquare></div>",null,encoding,word_square,,,1,bottomsquare,32,true,,,GIFT,2,,,
html-keyboard-response,361,1371118,155.59999999403954,"<div style=""font-size:42px;"">GIFT</div>",32,,word,GIFT,,,,,,,,,,,,
html-keyboard-response,362,1372621,null,"",null,,word,GIFT,,,,,,,,,,,,
html-keyboard-response,363,1372822,null,"<div style=""font-size:42px;"">FRAME</div><img id = ""stim"" ><div class = red_square id = bottomsquare></div>",null,encoding,word_square,,,0,bottomsquare,none,true,,,FRAME,2,,,
html-keyboard-response,364,1373124,null,"<div style=""font-size:42px;"">FRAME</div>",null,,word,FRAME,,,,,,,,,,,,
html-keyboard-response,365,1374626,null,"",null,,word,FRAME,,,,,,,,,,,,
html-keyboard-response,366,1374828,null,"<div style=""font-size:42px;"">SOFTBALL</div><img id = ""stim"" ><div class = red_square id = topsquare></div>",null,encoding,word_square,,,0,topsquare,none,true,,,SOFTBALL,2,,,
html-keyboard-response,367,1375130,null,"<div style=""font-size:42px;"">SOFTBALL</div>",null,,word,SOFTBALL,,,,,,,,,,,,
html-keyboard-response,368,1376633,null,"",null,,word,SOFTBALL,,,,,,,,,,,,
html-keyboard-response,369,1376835,null,"<div style=""font-size:42px;"">LACE</div><img id = ""stim"" ><div class = green_square id = topsquare></div>",null,encoding,word_square,,,1,topsquare,32,true,,,LACE,2,,,
html-keyboard-response,370,1377136,90.20000000298023,"<div style=""font-size:42px;"">LACE</div>",32,,word,LACE,,,,,,,,,,,,
html-keyboard-response,371,1378639,null,"",null,,word,LACE,,,,,,,,,,,,
html-keyboard-response,372,1378841,null,"<div style=""font-size:42px;"">SNORKEL</div><img id = ""stim"" ><div class = green_square id = bottomsquare></div>",null,encoding,word_square,,,1,bottomsquare,32,true,,,SNORKEL,2,,,
html-keyboard-response,373,1379142,151.20000000298023,"<div style=""font-size:42px;"">SNORKEL</div>",32,,word,SNORKEL,,,,,,,,,,,,
html-keyboard-response,374,1380643,null,"",null,,word,SNORKEL,,,,,,,,,,,,
html-keyboard-response,375,1380846,null,"<div style=""font-size:42px;"">CRICKET</div><img id = ""stim"" ><div class = red_square id = bottomsquare></div>",null,encoding,word_square,,,0,bottomsquare,none,true,,,CRICKET,2,,,
html-keyboard-response,376,1381148,null,"<div style=""font-size:42px;"">CRICKET</div>",null,,word,CRICKET,,,,,,,,,,,,
html-keyboard-response,377,1382649,null,"",null,,word,CRICKET,,,,,,,,,,,,
html-keyboard-response,378,1382851,null,"<div style=""font-size:42px;"">HEART</div><img id = ""stim"" ><div class = red_square id = topsquare></div>",null,encoding,word_square,,,0,topsquare,none,true,,,HEART,2,,,
html-keyboard-response,379,1383152,null,"<div style=""font-size:42px;"">HEART</div>",null,,word,HEART,,,,,,,,,,,,
html-keyboard-response,380,1384654,null,"",null,,word,HEART,,,,,,,,,,,,
html-keyboard-response,381,1384856,null,"<div style=""font-size:42px;"">DONOR</div><img id = ""stim"" ><div class = green_square id = topsquare></div>",null,encoding,word_square,,,1,topsquare,32,true,,,DONOR,2,,,
html-keyboard-response,382,1385157,156,"<div style=""font-size:42px;"">DONOR</div>",32,,word,DONOR,,,,,,,,,,,,
html-keyboard-response,383,1386660,null,"",null,,word,DONOR,,,,,,,,,,,,
html-keyboard-response,384,1386862,null,"<div style=""font-size:42px;"">PORTRAIT</div><img id = ""stim"" ><div class = green_square id = bottomsquare></div>",null,encoding,word_square,,,1,bottomsquare,32,true,,,PORTRAIT,2,,,
html-keyboard-response,385,1387164,277.70000000298023,"<div style=""font-size:42px;"">PORTRAIT</div>",32,,word,PORTRAIT,,,,,,,,,,,,
html-keyboard-response,386,1388666,null,"",null,,word,PORTRAIT,,,,,,,,,,,,
call-function,387,1388667,,"",,,,,,,,,,,,,,,,
html-keyboard-response,388,1388768,null,"",null,,,,,,,,,,,,,,,
math-period,389,1391800,4925.799999982119,"",,,,,,,,,,,2,,,,,
html-keyboard-response,390,1391902,null,"",null,,,,,,,,,,,,,,,
math-period,391,1393462,2908.9000000059605,"",,,,,,,,,,,1,,,,,
html-keyboard-response,392,1393563,null,"",null,,,,,,,,,,,,,,,
math-period,393,1395566,6155.399999976158,"",,,,,,,,,,,5,,,,,
html-keyboard-response,394,1395667,null,"",null,,,,,,,,,,,,,,,
math-period,395,1396538,1612.800000011921,"",,,,,,,,,,,2,,,,,
html-keyboard-response,396,1396640,null,"",null,,,,,,,,,,,,,,,
math-period,397,1397588,1790.3999999910593,"",,,,,,,,,,,2,,,,,
html-keyboard-response,398,1397689,null,"",null,,,,,,,,,,,,,,,
math-period,399,1398814,2175,"",,,,,,,,,,,1,,,,,
html-keyboard-response,400,1398915,null,"",null,,,,,,,,,,,,,,,
math-period,401,1399702,1482.0999999940395,"",,,,,,,,,,,2,,,,,
html-keyboard-response,402,1399803,null,"",null,,,,,,,,,,,,,,,
math-period,403,1401768,3716.000000014901,"",,,,,,,,,,,1,,,,,
html-keyboard-response,404,1401869,null,"",null,,,,,,,,,,,,,,,
math-period,405,1403264,2642.1000000089407,"",,,,,,,,,,,2,,,,,
html-keyboard-response,406,1403365,null,"",null,,,,,,,,,,,,,,,
math-period,407,1404521,1963.7999999970198,"",,,,,,,,,,,2,,,,,
html-keyboard-response,408,1404623,null,"",null,,,,,,,,,,,,,,,
math-period,409,1406178,2797.2999999821186,"",,,,,,,,,,,4,,,,,
html-keyboard-response,410,1406280,null,"",null,,,,,,,,,,,,,,,
math-period,411,1408060,3233.7999999970198,"",,,,,,,,,,,2,,,,,
html-keyboard-response,412,1408162,null,"",null,,,,,,,,,,,,,,,
math-period,413,1409657,2589.5999999940395,"",,,,,,,,,,,5,,,,,
html-keyboard-response,414,1409759,null,"",null,,,,,,,,,,,,,,,
math-period,415,1410759,1789.199999988079,"",,,,,,,,,,,4,,,,,
html-keyboard-response,416,1410861,null,"",null,,,,,,,,,,,,,,,
math-period,417,1411998,2188.199999988079,"",,,,,,,,,,,2,,,,,
html-keyboard-response,418,1412099,null,"",null,,,,,,,,,,,,,,,
math-period,419,1412667,null,"",,,,,,,,,,,,,,,,
html-keyboard-response,420,1413669,null,"Recall Period!",null,,,,,,,,,,,,,,,
call-function,421,1413669,,"",,,,,,,,,,,,,,,,
html-keyboard-response,422,1413771,null,"",null,,,,,,,,,,,,,,,
recall-period,423,1415554,7483.400000050664,"",,,,,,,,,,,raisin,,,,,
html-keyboard-response,424,1415655,null,"",null,,,,,,,,,,,,,,,
recall-period,425,1417089,8275.09999999404,"",,,,,,,,,,,pliers,,,,,
html-keyboard-response,426,1417191,null,"",null,,,,,,,,,,,,,,,
recall-period,427,1417752,1921.2000000327826,"",,,,,,,,,,,heart,,,,,
html-keyboard-response,428,1417854,null,"",null,,,,,,,,,,,,,,,
recall-period,429,1418461,1692.5000000447035,"",,,,,,,,,,,gift,,,,,
html-keyboard-response,430,1418563,null,"",null,,,,,,,,,,,,,,,
recall-period,431,1422664,26675.599999964237,"",,,,,,,,,,,snorkel,,,,,
html-keyboard-response,432,1422765,null,"",null,,,,,,,,,,,,,,,
recall-period,433,1427125,33591.89999999106,"",,,,,,,,,,,lava,,,,,
html-keyboard-response,434,1427226,null,"",null,,,,,,,,,,,,,,,
recall-period,435,1430341,16943.79999998212,"",,,,,,,,,,,hound,,,,,
html-keyboard-response,436,1430443,null,"",null,,,,,,,,,,,,,,,
recall-period,437,1488672,null,"",,,,,,,,,,,,,,,,
html-keyboard-response,438,1489174,null,"Time's Up!",null,,,,,,,,,,,,,,,
html-keyboard-response,439,1490393,1217.4000000059605,"<p> Good job! You have responded correctly to 100% of the trials. </p>
                      <p>Be sure to only press the spacebar if you see a GREEN square, and please keep your accuracy above 80%.</p>
                      <p> Press any key to continue the experiment. </p>",32,,,,,,,,,,,,,,,
html-keyboard-response,440,1491168,774.1000000089407,"<div style=""font-size:48px;"">Press any key to begin list 4 of 16 </div>",32,,,,,,,,,,,,,,,
html-keyboard-response,441,1493670,null,"<div style=""font-size:60px;"">+</div>",null,,,,,,,,,,,,,,,
html-keyboard-response,442,1493872,null,"<div style=""font-size:42px;"">NICKEL</div><img id = ""stim"" ><div class = green_square id = bottomsquare></div>",null,encoding,word_square,,,1,bottomsquare,32,true,,,NICKEL,3,,,
html-keyboard-response,443,1494173,131,"<div style=""font-size:42px;"">NICKEL</div>",32,,word,NICKEL,,,,,,,,,,,,
html-keyboard-response,444,1495674,null,"",null,,word,NICKEL,,,,,,,,,,,,
html-keyboard-response,445,1495876,null,"<div style=""font-size:42px;"">FLEET</div><img id = ""stim"" ><div class = green_square id = topsquare></div>",null,encoding,word_square,,,1,topsquare,32,true,,,FLEET,3,,,
html-keyboard-response,446,1496177,132.79999999701977,"<div style=""font-size:42px;"">FLEET</div>",32,,word,FLEET,,,,,,,,,,,,
html-keyboard-response,447,1497679,null,"",null,,word,FLEET,,,,,,,,,,,,
html-keyboard-response,448,1497880,null,"<div style=""font-size:42px;"">CASTLE</div><img id = ""stim"" ><div class = red_square id = topsquare></div>",null,encoding,word_square,,,0,topsquare,none,true,,,CASTLE,3,,,
html-keyboard-response,449,1498182,null,"<div style=""font-size:42px;"">CASTLE</div>",null,,word,CASTLE,,,,,,,,,,,,
html-keyboard-response,450,1499684,null,"",null,,word,CASTLE,,,,,,,,,,,,
html-keyboard-response,451,1499887,null,"<div style=""font-size:42px;"">GAZELLE</div><img id = ""stim"" ><div class = red_square id = bottomsquare></div>",null,encoding,word_square,,,0,bottomsquare,none,true,,,GAZELLE,3,,,
html-keyboard-response,452,1500188,null,"<div style=""font-size:42px;"">GAZELLE</div>",null,,word,GAZELLE,,,,,,,,,,,,
html-keyboard-response,453,1501691,null,"",null,,word,GAZELLE,,,,,,,,,,,,
html-keyboard-response,454,1501892,null,"<div style=""font-size:42px;"">HONEY</div><img id = ""stim"" ><div class = green_square id = bottomsquare></div>",null,encoding,word_square,,,1,bottomsquare,32,true,,,HONEY,3,,,
html-keyboard-response,455,1502195,139.09999999403954,"<div style=""font-size:42px;"">HONEY</div>",32,,word,HONEY,,,,,,,,,,,,
html-keyboard-response,456,1503696,null,"",null,,word,HONEY,,,,,,,,,,,,
html-keyboard-response,457,1503897,null,"<div style=""font-size:42px;"">WAX</div><img id = ""stim"" ><div class = green_square id = topsquare></div>",null,encoding,word_square,,,1,topsquare,32,true,,,WAX,3,,,
html-keyboard-response,458,1504198,127.5,"<div style=""font-size:42px;"">WAX</div>",32,,word,WAX,,,,,,,,,,,,
html-keyboard-response,459,1505700,null,"",null,,word,WAX,,,,,,,,,,,,
html-keyboard-response,460,1505902,null,"<div style=""font-size:42px;"">DAUGHTER</div><img id = ""stim"" ><div class = red_square id = topsquare></div>",null,encoding,word_square,,,0,topsquare,none,true,,,DAUGHTER,3,,,
html-keyboard-response,461,1506204,null,"<div style=""font-size:42px;"">DAUGHTER</div>",null,,word,DAUGHTER,,,,,,,,,,,,
html-keyboard-response,462,1507706,null,"",null,,word,DAUGHTER,,,,,,,,,,,,
html-keyboard-response,463,1507908,null,"<div style=""font-size:42px;"">CREATURE</div><img id = ""stim"" ><div class = red_square id = bottomsquare></div>",null,encoding,word_square,,,0,bottomsquare,none,true,,,CREATURE,3,,,
html-keyboard-response,464,1508210,null,"<div style=""font-size:42px;"">CREATURE</div>",null,,word,CREATURE,,,,,,,,,,,,
html-keyboard-response,465,1509711,null,"",null,,word,CREATURE,,,,,,,,,,,,
html-keyboard-response,466,1509913,null,"<div style=""font-size:42px;"">ELK</div><img id = ""stim"" ><div class = green_square id = bottomsquare></div>",null,encoding,word_square,,,1,bottomsquare,32,true,,,ELK,3,,,
html-keyboard-response,467,1510214,90.09999999403954,"<div style=""font-size:42px;"">ELK</div>",32,,word,ELK,,,,,,,,,,,,
html-keyboard-response,468,1511715,null,"",null,,word,ELK,,,,,,,,,,,,
html-keyboard-response,469,1511917,null,"<div style=""font-size:42px;"">SLACKS</div><img id = ""stim"" ><div class = red_square id = topsquare></div>",null,encoding,word_square,,,0,topsquare,none,true,,,SLACKS,3,,,
html-keyboard-response,470,1512218,null,"<div style=""font-size:42px;"">SLACKS</div>",null,,word,SLACKS,,,,,,,,,,,,
html-keyboard-response,471,1513720,null,"",null,,word,SLACKS,,,,,,,,,,,,
html-keyboard-response,472,1513922,null,"<div style=""font-size:42px;"">WORKER</div><img id = ""stim"" ><div class = green_square id = topsquare></div>",null,encoding,word_square,,,1,topsquare,32,true,,,WORKER,3,,,
html-keyboard-response,473,1514224,139.70000000298023,"<div style=""font-size:42px;"">WORKER</div>",32,,word,WORKER,,,,,,,,,,,,
html-keyboard-response,474,1515726,null,"",null,,word,WORKER,,,,,,,,,,,,
html-keyboard-response,475,1515928,null,"<div style=""font-size:42px;"">BRIDE</div><img id = ""stim"" ><div class = green_square id = bottomsquare></div>",null,encoding,word_square,,,1,bottomsquare,32,true,,,BRIDE,3,,,
html-keyboard-response,476,1516229,148.70000000298023,"<div style=""font-size:42px;"">BRIDE</div>",32,,word,BRIDE,,,,,,,,,,,,
html-keyboard-response,477,1517731,null,"",null,,word,BRIDE,,,,,,,,,,,,
html-keyboard-response,478,1517933,null,"<div style=""font-size:42px;"">BANK</div><img id = ""stim"" ><div class = red_square id = bottomsquare></div>",null,encoding,word_square,,,0,bottomsquare,none,true,,,BANK,3,,,
html-keyboard-response,479,1518234,null,"<div style=""font-size:42px;"">BANK</div>",null,,word,BANK,,,,,,,,,,,,
html-keyboard-response,480,1519736,null,"",null,,word,BANK,,,,,,,,,,,,
html-keyboard-response,481,1519938,null,"<div style=""font-size:42px;"">ATLAS</div><img id = ""stim"" ><div class = green_square id = topsquare></div>",null,encoding,word_square,,,1,topsquare,32,true,,,ATLAS,3,,,
html-keyboard-response,482,1520239,104.59999999403954,"<div style=""font-size:42px;"">ATLAS</div>",32,,word,ATLAS,,,,,,,,,,,,
html-keyboard-response,483,1521741,null,"",null,,word,ATLAS,,,,,,,,,,,,
html-keyboard-response,484,1521942,null,"<div style=""font-size:42px;"">WORLD</div><img id = ""stim"" ><div class = red_square id = topsquare></div>",null,encoding,word_square,,,0,topsquare,none,true,,,WORLD,3,,,
html-keyboard-response,485,1522243,null,"<div style=""font-size:42px;"">WORLD</div>",null,,word,WORLD,,,,,,,,,,,,
html-keyboard-response,486,1523745,null,"",null,,word,WORLD,,,,,,,,,,,,
html-keyboard-response,487,1523947,null,"<div style=""font-size:42px;"">LAPEL</div><img id = ""stim"" ><div class = red_square id = bottomsquare></div>",null,encoding,word_square,,,0,bottomsquare,none,true,,,LAPEL,3,,,
html-keyboard-response,488,1524249,null,"<div style=""font-size:42px;"">LAPEL</div>",null,,word,LAPEL,,,,,,,,,,,,
html-keyboard-response,489,1525751,null,"",null,,word,LAPEL,,,,,,,,,,,,
call-function,490,1525752,,"",,,,,,,,,,,,,,,,
html-keyboard-response,491,1525853,null,"",null,,,,,,,,,,,,,,,
math-period,492,1527942,3813,"",,,,,,,,,,,4,,,,,
html-keyboard-response,493,1528044,null,"",null,,,,,,,,,,,,,,,
math-period,494,1529274,2127.8999999910593,"",,,,,,,,,,,3,,,,,
html-keyboard-response,495,1529375,null,"",null,,,,,,,,,,,,,,,
math-period,496,1530550,2157.9000000059605,"",,,,,,,,,,,1,,,,,
html-keyboard-response,497,1530652,null,"",null,,,,,,,,,,,,,,,
math-period,498,1531840,2094.7999999970198,"",,,,,,,,,,,5,,,,,
html-keyboard-response,499,1531941,null,"",null,,,,,,,,,,,,,,,
math-period,500,1532992,1814.7999999970198,"",,,,,,,,,,,4,,,,,
html-keyboard-response,501,1533093,null,"",null,,,,,,,,,,,,,,,
math-period,502,1534330,2366.8999999910593,"",,,,,,,,,,,2,,,,,
html-keyboard-response,503,1534431,null,"",null,,,,,,,,,,,,,,,
math-period,504,1535372,1756.699999988079,"",,,,,,,,,,,4,,,,,
html-keyboard-response,505,1535473,null,"",null,,,,,,,,,,,,,,,
math-period,506,1536262,1462.9999999850988,"",,,,,,,,,,,4,,,,,
html-keyboard-response,507,1536363,null,"",null,,,,,,,,,,,,,,,
math-period,508,1537200,1602.5999999940395,"",,,,,,,,,,,5,,,,,
html-keyboard-response,509,1537301,null,"",null,,,,,,,,,,,,,,,
math-period,510,1538238,1691.5,"",,,,,,,,,,,2,,,,,
html-keyboard-response,511,1538339,null,"",null,,,,,,,,,,,,,,,
math-period,512,1539280,1778.6000000089407,"",,,,,,,,,,,4,,,,,
html-keyboard-response,513,1539382,null,"",null,,,,,,,,,,,,,,,
math-period,514,1540394,1914.2999999970198,"",,,,,,,,,,,1,,,,,
html-keyboard-response,515,1540496,null,"",null,,,,,,,,,,,,,,,
math-period,516,1541544,1860.3999999761581,"",,,,,,,,,,,3,,,,,
html-keyboard-response,517,1541645,null,"",null,,,,,,,,,,,,,,,
math-period,518,1544344,5088.5999999940395,"",,,,,,,,,,,0,,,,,
html-keyboard-response,519,1544446,null,"",null,,,,,,,,,,,,,,,
math-period,520,1545484,1958,"",,,,,,,,,,,1,,,,,
html-keyboard-response,521,1545586,null,"",null,,,,,,,,,,,,,,,
math-period,522,1546570,1901.5999999940395,"",,,,,,,,,,,1,,,,,
html-keyboard-response,523,1546671,null,"",null,,,,,,,,,,,,,,,
math-period,524,1547482,1521.7000000178814,"",,,,,,,,,,,2,,,,,
html-keyboard-response,525,1547583,null,"",null,,,,,,,,,,,,,,,
math-period,526,1549178,2870.5,"",,,,,,,,,,,0,,,,,
html-keyboard-response,527,1549279,null,"",null,,,,,,,,,,,,,,,
math-period,528,1549753,null,"",,,,,,,,,,,,,,,,
html-keyboard-response,529,1550755,null,"Recall Period!",null,,,,,,,,,,,,,,,
call-function,530,1550756,,"",,,,,,,,,,,,,,,,
html-keyboard-response,531,1550857,null,"",null,,,,,,,,,,,,,,,
recall-period,532,1552512,7516.999999985099,"",,,,,,,,,,,nickel,,,,,
html-keyboard-response,533,1552613,null,"",null,,,,,,,,,,,,,,,
recall-period,534,1553424,2776.7999999821186,"",,,,,,,,,,,fleet,,,,,
html-keyboard-response,535,1553525,null,"",null,,,,,,,,,,,,,,,
recall-period,536,1555964,11538.099999934435,"",,,,,,,,,,,castle,,,,,
html-keyboard-response,537,1556065,null,"",null,,,,,,,,,,,,,,,
recall-period,538,1561636,37123.20000000298,"",,,,,,,,,,,worker,,,,,
html-keyboard-response,539,1561737,null,"",null,,,,,,,,,,,,,,,
recall-period,540,1572125,59269.89999999106,"",,,,,,,,,,,honey,,,,,
html-keyboard-response,541,1572227,null,"",null,,,,,,,,,,,,,,,
recall-period,542,1572779,1155.5999999791384,"",,,,,,,,,,,wax,,,,,
html-keyboard-response,543,1572881,null,"",null,,,,,,,,,,,,,,,
recall-period,544,1626406,null,"",,,,,,,,,,,,,,,,
html-keyboard-response,545,1627406,null,"Time's Up!",null,,,,,,,,,,,,,,,
html-keyboard-response,546,1950857,323442.90000000596,"<p> Good job! You have responded correctly to 100% of the trials. </p>
                      <p>Be sure to only press the spacebar if you see a GREEN square, and please keep your accuracy above 80%.</p>
                      <p> Press any key to continue the experiment. </p>",32,,,,,,,,,,,,,,,
html-keyboard-response,547,1951829,970.8999999910593,"<div style=""font-size:48px;"">Press any key to begin list 5 of 16 </div>",32,,,,,,,,,,,,,,,
html-keyboard-response,548,1954331,null,"<div style=""font-size:60px;"">+</div>",null,,,,,,,,,,,,,,,
html-keyboard-response,549,1954533,null,"<div style=""font-size:42px;"">BALLOON</div><img id = ""stim"" ><div class = green_square id = topsquare></div>",null,encoding,word_square,,,1,topsquare,32,true,,,BALLOON,4,,,
html-keyboard-response,550,1954834,165.79999999701977,"<div style=""font-size:42px;"">BALLOON</div>",32,,word,BALLOON,,,,,,,,,,,,
html-keyboard-response,551,1956336,null,"",null,,word,BALLOON,,,,,,,,,,,,
html-keyboard-response,552,1956538,null,"<div style=""font-size:42px;"">MARKET</div><img id = ""stim"" ><div class = red_square id = bottomsquare></div>",null,encoding,word_square,,,0,bottomsquare,none,true,,,MARKET,4,,,
html-keyboard-response,553,1956840,null,"<div style=""font-size:42px;"">MARKET</div>",null,,word,MARKET,,,,,,,,,,,,
html-keyboard-response,554,1958342,null,"",null,,word,MARKET,,,,,,,,,,,,
html-keyboard-response,555,1958544,null,"<div style=""font-size:42px;"">SCALPEL</div><img id = ""stim"" ><div class = green_square id = bottomsquare></div>",null,encoding,word_square,,,1,bottomsquare,32,true,,,SCALPEL,4,,,
html-keyboard-response,556,1958845,103.8999999910593,"<div style=""font-size:42px;"">SCALPEL</div>",32,,word,SCALPEL,,,,,,,,,,,,
html-keyboard-response,557,1960346,null,"",null,,word,SCALPEL,,,,,,,,,,,,
html-keyboard-response,558,1960548,null,"<div style=""font-size:42px;"">GLASSES</div><img id = ""stim"" ><div class = green_square id = topsquare></div>",null,encoding,word_square,,,1,topsquare,32,true,,,GLASSES,4,,,
html-keyboard-response,559,1960850,null,"<div style=""font-size:42px;"">GLASSES</div>",null,,word,GLASSES,,,,,,,,,,,,
html-keyboard-response,560,1962352,239.3999999910593,"",32,,word,GLASSES,,,,,,,,,,,,
html-keyboard-response,561,1962554,null,"<div style=""font-size:42px;"">COBRA</div><img id = ""stim"" ><div class = red_square id = topsquare></div>",null,encoding,word_square,,,0,topsquare,none,true,,,COBRA,4,,,
html-keyboard-response,562,1962856,null,"<div style=""font-size:42px;"">COBRA</div>",null,,word,COBRA,,,,,,,,,,,,
html-keyboard-response,563,1964358,null,"",null,,word,COBRA,,,,,,,,,,,,
html-keyboard-response,564,1964560,null,"<div style=""font-size:42px;"">SALT</div><img id = ""stim"" ><div class = green_square id = bottomsquare></div>",null,encoding,word_square,,,1,bottomsquare,32,true,,,SALT,4,,,
html-keyboard-response,565,1964863,49.29999999701977,"<div style=""font-size:42px;"">SALT</div>",32,,word,SALT,,,,,,,,,,,,
html-keyboard-response,566,1966365,null,"",null,,word,SALT,,,,,,,,,,,,
html-keyboard-response,567,1966566,null,"<div style=""font-size:42px;"">PARSLEY</div><img id = ""stim"" ><div class = green_square id = topsquare></div>",null,encoding,word_square,,,1,topsquare,32,true,,,PARSLEY,4,,,
html-keyboard-response,568,1966868,134,"<div style=""font-size:42px;"">PARSLEY</div>",32,,word,PARSLEY,,,,,,,,,,,,
html-keyboard-response,569,1968370,null,"",null,,word,PARSLEY,,,,,,,,,,,,
html-keyboard-response,570,1968571,null,"<div style=""font-size:42px;"">OZONE</div><img id = ""stim"" ><div class = red_square id = bottomsquare></div>",null,encoding,word_square,,,0,bottomsquare,none,true,,,OZONE,4,,,
html-keyboard-response,571,1968873,202.19999998807907,"<div style=""font-size:42px;"">OZONE</div>",32,,word,OZONE,,,,,,,,,,,,
html-keyboard-response,572,1970374,null,"",null,,word,OZONE,,,,,,,,,,,,
html-keyboard-response,573,1970576,null,"<div style=""font-size:42px;"">SIRLOIN</div><img id = ""stim"" ><div class = red_square id = topsquare></div>",null,encoding,word_square,,,0,topsquare,none,true,,,SIRLOIN,4,,,
html-keyboard-response,574,1970877,null,"<div style=""font-size:42px;"">SIRLOIN</div>",null,,word,SIRLOIN,,,,,,,,,,,,
html-keyboard-response,575,1972380,null,"",null,,word,SIRLOIN,,,,,,,,,,,,
html-keyboard-response,576,1972582,null,"<div style=""font-size:42px;"">PIANO</div><img id = ""stim"" ><div class = green_square id = bottomsquare></div>",null,encoding,word_square,,,1,bottomsquare,32,true,,,PIANO,4,,,
html-keyboard-response,577,1972883,105.40000000596046,"<div style=""font-size:42px;"">PIANO</div>",32,,word,PIANO,,,,,,,,,,,,
html-keyboard-response,578,1974386,null,"",null,,word,PIANO,,,,,,,,,,,,
html-keyboard-response,579,1974588,null,"<div style=""font-size:42px;"">KIDNEY</div><img id = ""stim"" ><div class = red_square id = bottomsquare></div>",null,encoding,word_square,,,0,bottomsquare,none,true,,,KIDNEY,4,,,
html-keyboard-response,580,1974889,null,"<div style=""font-size:42px;"">KIDNEY</div>",null,,word,KIDNEY,,,,,,,,,,,,
html-keyboard-response,581,1976391,null,"",null,,word,KIDNEY,,,,,,,,,,,,
html-keyboard-response,582,1976593,null,"<div style=""font-size:42px;"">ADULT</div><img id = ""stim"" ><div class = red_square id = topsquare></div>",null,encoding,word_square,,,0,topsquare,none,true,,,ADULT,4,,,
html-keyboard-response,583,1976894,null,"<div style=""font-size:42px;"">ADULT</div>",null,,word,ADULT,,,,,,,,,,,,
html-keyboard-response,584,1978396,null,"",null,,word,ADULT,,,,,,,,,,,,
html-keyboard-response,585,1978598,null,"<div style=""font-size:42px;"">BUTLER</div><img id = ""stim"" ><div class = green_square id = topsquare></div>",null,encoding,word_square,,,1,topsquare,32,true,,,BUTLER,4,,,
html-keyboard-response,586,1978900,225.90000000596046,"<div style=""font-size:42px;"">BUTLER</div>",32,,word,BUTLER,,,,,,,,,,,,
html-keyboard-response,587,1980402,null,"",null,,word,BUTLER,,,,,,,,,,,,
html-keyboard-response,588,1980604,null,"<div style=""font-size:42px;"">CANYON</div><img id = ""stim"" ><div class = green_square id = bottomsquare></div>",null,encoding,word_square,,,1,bottomsquare,32,true,,,CANYON,4,,,
html-keyboard-response,589,1980906,163.40000000596046,"<div style=""font-size:42px;"">CANYON</div>",32,,word,CANYON,,,,,,,,,,,,
html-keyboard-response,590,1982408,null,"",null,,word,CANYON,,,,,,,,,,,,
html-keyboard-response,591,1982610,null,"<div style=""font-size:42px;"">CIGAR</div><img id = ""stim"" ><div class = red_square id = bottomsquare></div>",null,encoding,word_square,,,0,bottomsquare,none,true,,,CIGAR,4,,,
html-keyboard-response,592,1982912,null,"<div style=""font-size:42px;"">CIGAR</div>",null,,word,CIGAR,,,,,,,,,,,,
html-keyboard-response,593,1984414,null,"",null,,word,CIGAR,,,,,,,,,,,,
html-keyboard-response,594,1984616,null,"<div style=""font-size:42px;"">SPICE</div><img id = ""stim"" ><div class = red_square id = topsquare></div>",null,encoding,word_square,,,0,topsquare,none,true,,,SPICE,4,,,
html-keyboard-response,595,1984917,null,"<div style=""font-size:42px;"">SPICE</div>",null,,word,SPICE,,,,,,,,,,,,
html-keyboard-response,596,1986419,null,"",null,,word,SPICE,,,,,,,,,,,,
call-function,597,1986420,,"",,,,,,,,,,,,,,,,
html-keyboard-response,598,1986522,null,"",null,,,,,,,,,,,,,,,
math-period,599,1989129,4786.20000000298,"",,,,,,,,,,,4,,,,,
html-keyboard-response,600,1989230,null,"",null,,,,,,,,,,,,,,,
math-period,601,1992214,5545.70000000298,"",,,,,,,,,,,0,,,,,
html-keyboard-response,602,1992315,null,"",null,,,,,,,,,,,,,,,
math-period,603,1994327,6754.699999988079,"",,,,,,,,,,,1,,,,,
html-keyboard-response,604,1994428,null,"",null,,,,,,,,,,,,,,,
math-period,605,1995552,2109,"",,,,,,,,,,,3,,,,,
html-keyboard-response,606,1995653,null,"",null,,,,,,,,,,,,,,,
math-period,607,1996486,1553.5,"",,,,,,,,,,,4,,,,,
html-keyboard-response,608,1996588,null,"",null,,,,,,,,,,,,,,,
math-period,609,1997420,1578.7000000029802,"",,,,,,,,,,,5,,,,,
html-keyboard-response,610,1997522,null,"",null,,,,,,,,,,,,,,,
math-period,611,2000014,4845.0999999940395,"",,,,,,,,,,,3,,,,,
html-keyboard-response,612,2000116,null,"",null,,,,,,,,,,,,,,,
math-period,613,2001086,1834.5999999791384,"",,,,,,,,,,,2,,,,,
html-keyboard-response,614,2001188,null,"",null,,,,,,,,,,,,,,,
math-period,615,2002050,1580.8999999910593,"",,,,,,,,,,,4,,,,,
html-keyboard-response,616,2002152,null,"",null,,,,,,,,,,,,,,,
math-period,617,2004594,4406.199999988079,"",,,,,,,,,,,3,,,,,
html-keyboard-response,618,2004696,null,"",null,,,,,,,,,,,,,,,
math-period,619,2007066,4337.5,"",,,,,,,,,,,2,,,,,
html-keyboard-response,620,2007168,null,"",null,,,,,,,,,,,,,,,
math-period,621,2008082,1669.2999999970198,"",,,,,,,,,,,3,,,,,
html-keyboard-response,622,2008184,null,"",null,,,,,,,,,,,,,,,
math-period,623,2008984,1509.800000011921,"",,,,,,,,,,,4,,,,,
html-keyboard-response,624,2009085,null,"",null,,,,,,,,,,,,,,,
math-period,625,2009850,1411.0999999940395,"",,,,,,,,,,,3,,,,,
html-keyboard-response,626,2009951,null,"",null,,,,,,,,,,,,,,,
math-period,627,2010421,null,"",,,,,,,,,,,,,,,,
html-keyboard-response,628,2011423,null,"Recall Period!",null,,,,,,,,,,,,,,,
call-function,629,2011424,,"",,,,,,,,,,,,,,,,
html-keyboard-response,630,2011525,null,"",null,,,,,,,,,,,,,,,
recall-period,631,2013844,12871.200000062585,"",,,,,,,,,,,balloon,,,,,
html-keyboard-response,632,2013945,null,"",null,,,,,,,,,,,,,,,
recall-period,633,2014554,2367.2000000476837,"",,,,,,,,,,,market,,,,,
html-keyboard-response,634,2014656,null,"",null,,,,,,,,,,,,,,,
recall-period,635,2015482,1819.1000000238419,"",,,,,,,,,,,salt,,,,,
html-keyboard-response,636,2015583,null,"",null,,,,,,,,,,,,,,,
recall-period,637,2016624,3381.899999961257,"",,,,,,,,,,,canyon,,,,,
html-keyboard-response,638,2016726,null,"",null,,,,,,,,,,,,,,,
recall-period,639,2027410,52097.59999997914,"",,,,,,,,,,,salt,,,,,
html-keyboard-response,640,2027512,null,"",null,,,,,,,,,,,,,,,
recall-period,641,2086427,null,"",,,,,,,,,,,,,,,,
html-keyboard-response,642,2086929,null,"Time's Up!",null,,,,,,,,,,,,,,,
html-keyboard-response,643,2155335,68403.90000000596,"<p> Good job! You have responded correctly to 100% of the trials. </p>
                      <p>Be sure to only press the spacebar if you see a GREEN square, and please keep your accuracy above 80%.</p>
                      <p> Press any key to continue the experiment. </p>",32,,,,,,,,,,,,,,,
html-keyboard-response,644,2155964,628.5,"<div style=""font-size:48px;"">Press any key to begin list 6 of 16 </div>",32,,,,,,,,,,,,,,,
html-keyboard-response,645,2158467,null,"<div style=""font-size:60px;"">+</div>",null,,,,,,,,,,,,,,,
html-keyboard-response,646,2158669,null,"<div style=""font-size:42px;"">BEAKER</div><img id = ""stim"" ><div class = red_square id = topsquare></div>",null,encoding,word_square,,,0,topsquare,none,true,,,BEAKER,5,,,
html-keyboard-response,647,2158971,null,"<div style=""font-size:42px;"">BEAKER</div>",null,,word,BEAKER,,,,,,,,,,,,
html-keyboard-response,648,2160473,null,"",null,,word,BEAKER,,,,,,,,,,,,
html-keyboard-response,649,2160675,null,"<div style=""font-size:42px;"">BOUQUET</div><img id = ""stim"" ><div class = red_square id = bottomsquare></div>",null,encoding,word_square,,,0,bottomsquare,none,true,,,BOUQUET,5,,,
html-keyboard-response,650,2160977,null,"<div style=""font-size:42px;"">BOUQUET</div>",null,,word,BOUQUET,,,,,,,,,,,,
html-keyboard-response,651,2162479,null,"",null,,word,BOUQUET,,,,,,,,,,,,
html-keyboard-response,652,2162682,null,"<div style=""font-size:42px;"">TWIG</div><img id = ""stim"" ><div class = green_square id = bottomsquare></div>",null,encoding,word_square,,,1,bottomsquare,32,true,,,TWIG,5,,,
html-keyboard-response,653,2162983,119.59999999403954,"<div style=""font-size:42px;"">TWIG</div>",32,,word,TWIG,,,,,,,,,,,,
html-keyboard-response,654,2164485,null,"",null,,word,TWIG,,,,,,,,,,,,
html-keyboard-response,655,2164687,null,"<div style=""font-size:42px;"">SHRUB</div><img id = ""stim"" ><div class = green_square id = topsquare></div>",null,encoding,word_square,,,1,topsquare,32,true,,,SHRUB,5,,,
html-keyboard-response,656,2164989,149.79999999701977,"<div style=""font-size:42px;"">SHRUB</div>",32,,word,SHRUB,,,,,,,,,,,,
html-keyboard-response,657,2166491,null,"",null,,word,SHRUB,,,,,,,,,,,,
html-keyboard-response,658,2166693,null,"<div style=""font-size:42px;"">BASKET</div><img id = ""stim"" ><div class = red_square id = topsquare></div>",null,encoding,word_square,,,0,topsquare,none,true,,,BASKET,5,,,
html-keyboard-response,659,2166995,null,"<div style=""font-size:42px;"">BASKET</div>",null,,word,BASKET,,,,,,,,,,,,
html-keyboard-response,660,2168497,null,"",null,,word,BASKET,,,,,,,,,,,,
html-keyboard-response,661,2168699,null,"<div style=""font-size:42px;"">FEMALE</div><img id = ""stim"" ><div class = red_square id = bottomsquare></div>",null,encoding,word_square,,,0,bottomsquare,none,true,,,FEMALE,5,,,
html-keyboard-response,662,2169002,null,"<div style=""font-size:42px;"">FEMALE</div>",null,,word,FEMALE,,,,,,,,,,,,
html-keyboard-response,663,2170503,null,"",null,,word,FEMALE,,,,,,,,,,,,
html-keyboard-response,664,2170706,null,"<div style=""font-size:42px;"">CABOOSE</div><img id = ""stim"" ><div class = green_square id = bottomsquare></div>",null,encoding,word_square,,,1,bottomsquare,32,true,,,CABOOSE,5,,,
html-keyboard-response,665,2171007,108.5,"<div style=""font-size:42px;"">CABOOSE</div>",32,,word,CABOOSE,,,,,,,,,,,,
html-keyboard-response,666,2172509,null,"",null,,word,CABOOSE,,,,,,,,,,,,
html-keyboard-response,667,2172712,null,"<div style=""font-size:42px;"">NEUTRON</div><img id = ""stim"" ><div class = red_square id = topsquare></div>",null,encoding,word_square,,,0,topsquare,none,true,,,NEUTRON,5,,,
html-keyboard-response,668,2173014,null,"<div style=""font-size:42px;"">NEUTRON</div>",null,,word,NEUTRON,,,,,,,,,,,,
html-keyboard-response,669,2174515,null,"",null,,word,NEUTRON,,,,,,,,,,,,
html-keyboard-response,670,2174718,null,"<div style=""font-size:42px;"">FIREMAN</div><img id = ""stim"" ><div class = red_square id = bottomsquare></div>",null,encoding,word_square,,,0,bottomsquare,none,true,,,FIREMAN,5,,,
html-keyboard-response,671,2175020,null,"<div style=""font-size:42px;"">FIREMAN</div>",null,,word,FIREMAN,,,,,,,,,,,,
html-keyboard-response,672,2176522,null,"",null,,word,FIREMAN,,,,,,,,,,,,
html-keyboard-response,673,2176724,null,"<div style=""font-size:42px;"">HAMMOCK</div><img id = ""stim"" ><div class = green_square id = topsquare></div>",null,encoding,word_square,,,1,topsquare,32,true,,,HAMMOCK,5,,,
html-keyboard-response,674,2177026,111.29999999701977,"<div style=""font-size:42px;"">HAMMOCK</div>",32,,word,HAMMOCK,,,,,,,,,,,,
html-keyboard-response,675,2178528,null,"",null,,word,HAMMOCK,,,,,,,,,,,,
html-keyboard-response,676,2178730,null,"<div style=""font-size:42px;"">CRAB</div><img id = ""stim"" ><div class = green_square id = bottomsquare></div>",null,encoding,word_square,,,1,bottomsquare,32,true,,,CRAB,5,,,
html-keyboard-response,677,2179032,199.29999999701977,"<div style=""font-size:42px;"">CRAB</div>",32,,word,CRAB,,,,,,,,,,,,
html-keyboard-response,678,2180534,null,"",null,,word,CRAB,,,,,,,,,,,,
html-keyboard-response,679,2180736,null,"<div style=""font-size:42px;"">CORAL</div><img id = ""stim"" ><div class = red_square id = topsquare></div>",null,encoding,word_square,,,0,topsquare,none,true,,,CORAL,5,,,
html-keyboard-response,680,2181038,null,"<div style=""font-size:42px;"">CORAL</div>",null,,word,CORAL,,,,,,,,,,,,
html-keyboard-response,681,2182540,null,"",null,,word,CORAL,,,,,,,,,,,,
html-keyboard-response,682,2182742,null,"<div style=""font-size:42px;"">LIPSTICK</div><img id = ""stim"" ><div class = green_square id = topsquare></div>",null,encoding,word_square,,,1,topsquare,32,true,,,LIPSTICK,5,,,
html-keyboard-response,683,2183044,207.70000000298023,"<div style=""font-size:42px;"">LIPSTICK</div>",32,,word,LIPSTICK,,,,,,,,,,,,
html-keyboard-response,684,2184546,null,"",null,,word,LIPSTICK,,,,,,,,,,,,
html-keyboard-response,685,2184748,null,"<div style=""font-size:42px;"">RADISH</div><img id = ""stim"" ><div class = green_square id = bottomsquare></div>",null,encoding,word_square,,,1,bottomsquare,32,true,,,RADISH,5,,,
html-keyboard-response,686,2185050,158.59999999403954,"<div style=""font-size:42px;"">RADISH</div>",32,,word,RADISH,,,,,,,,,,,,
html-keyboard-response,687,2186552,null,"",null,,word,RADISH,,,,,,,,,,,,
html-keyboard-response,688,2186754,null,"<div style=""font-size:42px;"">CIRCUS</div><img id = ""stim"" ><div class = red_square id = bottomsquare></div>",null,encoding,word_square,,,0,bottomsquare,none,true,,,CIRCUS,5,,,
html-keyboard-response,689,2187056,null,"<div style=""font-size:42px;"">CIRCUS</div>",null,,word,CIRCUS,,,,,,,,,,,,
html-keyboard-response,690,2188558,null,"",null,,word,CIRCUS,,,,,,,,,,,,
html-keyboard-response,691,2188760,null,"<div style=""font-size:42px;"">OATMEAL</div><img id = ""stim"" ><div class = green_square id = topsquare></div>",null,encoding,word_square,,,1,topsquare,32,true,,,OATMEAL,5,,,
html-keyboard-response,692,2189062,168.3999999910593,"<div style=""font-size:42px;"">OATMEAL</div>",32,,word,OATMEAL,,,,,,,,,,,,
html-keyboard-response,693,2190564,null,"",null,,word,OATMEAL,,,,,,,,,,,,
call-function,694,2190565,,"",,,,,,,,,,,,,,,,
html-keyboard-response,695,2190667,null,"",null,,,,,,,,,,,,,,,
math-period,696,2193061,4524,"",,,,,,,,,,,1,,,,,
html-keyboard-response,697,2193162,null,"",null,,,,,,,,,,,,,,,
math-period,698,2194292,1974.2999999970198,"",,,,,,,,,,,4,,,,,
html-keyboard-response,699,2194394,null,"",null,,,,,,,,,,,,,,,
math-period,700,2196772,4556,"",,,,,,,,,,,3,,,,,
html-keyboard-response,701,2196874,null,"",null,,,,,,,,,,,,,,,
math-period,702,2198106,2339.5999999791384,"",,,,,,,,,,,2,,,,,
html-keyboard-response,703,2198208,null,"",null,,,,,,,,,,,,,,,
math-period,704,2199086,1652.2000000029802,"",,,,,,,,,,,4,,,,,
html-keyboard-response,705,2199188,null,"",null,,,,,,,,,,,,,,,
math-period,706,2200012,1535.199999988079,"",,,,,,,,,,,3,,,,,
html-keyboard-response,707,2200114,null,"",null,,,,,,,,,,,,,,,
math-period,708,2201016,1710.199999988079,"",,,,,,,,,,,5,,,,,
html-keyboard-response,709,2201118,null,"",null,,,,,,,,,,,,,,,
math-period,710,2202130,1930.0999999940395,"",,,,,,,,,,,1,,,,,
html-keyboard-response,711,2202232,null,"",null,,,,,,,,,,,,,,,
math-period,712,2204172,3797.9000000059605,"",,,,,,,,,,,1,,,,,
html-keyboard-response,713,2204274,null,"",null,,,,,,,,,,,,,,,
math-period,714,2205006,1339.0999999940395,"",,,,,,,,,,,3,,,,,
html-keyboard-response,715,2205108,null,"",null,,,,,,,,,,,,,,,
math-period,716,2206152,1829,"",,,,,,,,,,,5,,,,,
html-keyboard-response,717,2206254,null,"",null,,,,,,,,,,,,,,,
math-period,718,2207072,1498.9000000059605,"",,,,,,,,,,,2,,,,,
html-keyboard-response,719,2207174,null,"",null,,,,,,,,,,,,,,,
math-period,720,2209350,7223.300000041723,"",,,,,,,,,,,2,,,,,
html-keyboard-response,721,2209451,null,"",null,,,,,,,,,,,,,,,
math-period,722,2210160,1284.300000011921,"",,,,,,,,,,,3,,,,,
html-keyboard-response,723,2210262,null,"",null,,,,,,,,,,,,,,,
math-period,724,2210940,1278.3999999910593,"",,,,,,,,,,,2,,,,,
html-keyboard-response,725,2211042,null,"",null,,,,,,,,,,,,,,,
math-period,726,2211826,1463.5000000149012,"",,,,,,,,,,,2,,,,,
html-keyboard-response,727,2211927,null,"",null,,,,,,,,,,,,,,,
math-period,728,2213274,2588.300000011921,"",,,,,,,,,,,1,,,,,
html-keyboard-response,729,2213375,null,"",null,,,,,,,,,,,,,,,
math-period,730,2214290,1743.4000000208616,"",,,,,,,,,,,1,,,,,
html-keyboard-response,731,2214391,null,"",null,,,,,,,,,,,,,,,
math-period,732,2214566,null,"",,,,,,,,,,,,,,,,
html-keyboard-response,733,2215569,null,"Recall Period!",null,,,,,,,,,,,,,,,
call-function,734,2215570,,"",,,,,,,,,,,,,,,,
html-keyboard-response,735,2215671,null,"",null,,,,,,,,,,,,,,,
recall-period,736,2216891,4652.300000026822,"",,,,,,,,,,,twig,,,,,
html-keyboard-response,737,2216992,null,"",null,,,,,,,,,,,,,,,
recall-period,738,2218171,3939.0000000298023,"",,,,,,,,,,,shrub,,,,,
html-keyboard-response,739,2218273,null,"",null,,,,,,,,,,,,,,,
recall-period,740,2219273,4355.800000056624,"",,,,,,,,,,,fireman,,,,,
html-keyboard-response,741,2219375,null,"",null,,,,,,,,,,,,,,,
recall-period,742,2220611,6375.199999988079,"",,,,,,,,,,,basket,,,,,
html-keyboard-response,743,2220713,null,"",null,,,,,,,,,,,,,,,
recall-period,744,2226587,39060.89999997616,"",,,,,,,,,,,scalpel,,,,,
html-keyboard-response,745,2226688,null,"",null,,,,,,,,,,,,,,,
recall-period,746,2234865,55095.4999999702,"",,,,,,,,,,,beaker,,,,,
html-keyboard-response,747,2234966,null,"",null,,,,,,,,,,,,,,,
recall-period,748,2290572,null,"",,,,,,,,,,,,,,,,
html-keyboard-response,749,2291074,null,"Time's Up!",null,,,,,,,,,,,,,,,
html-keyboard-response,750,2478537,187458.09999999404,"<p> Good job! You have responded correctly to 100% of the trials. </p>
                      <p>Be sure to only press the spacebar if you see a GREEN square, and please keep your accuracy above 80%.</p>
                      <p> Press any key to continue the experiment. </p>",32,,,,,,,,,,,,,,,
html-keyboard-response,751,2479095,556.8000000119209,"<div style=""font-size:48px;"">Press any key to begin list 7 of 16 </div>",32,,,,,,,,,,,,,,,
html-keyboard-response,752,2481597,null,"<div style=""font-size:60px;"">+</div>",null,,,,,,,,,,,,,,,
html-keyboard-response,753,2481799,null,"<div style=""font-size:42px;"">TOILET</div><img id = ""stim"" ><div class = red_square id = bottomsquare></div>",null,encoding,word_square,,,0,bottomsquare,none,true,,,TOILET,6,,,
html-keyboard-response,754,2482101,null,"<div style=""font-size:42px;"">TOILET</div>",null,,word,TOILET,,,,,,,,,,,,
html-keyboard-response,755,2483604,null,"",null,,word,TOILET,,,,,,,,,,,,
html-keyboard-response,756,2483805,null,"<div style=""font-size:42px;"">BISON</div><img id = ""stim"" ><div class = green_square id = topsquare></div>",null,encoding,word_square,,,1,topsquare,32,true,,,BISON,6,,,
html-keyboard-response,757,2484107,150.59999999403954,"<div style=""font-size:42px;"">BISON</div>",32,,word,BISON,,,,,,,,,,,,
html-keyboard-response,758,2485609,null,"",null,,word,BISON,,,,,,,,,,,,
html-keyboard-response,759,2485812,null,"<div style=""font-size:42px;"">CATTLE</div><img id = ""stim"" ><div class = red_square id = topsquare></div>",null,encoding,word_square,,,0,topsquare,none,true,,,CATTLE,6,,,
html-keyboard-response,760,2486114,null,"<div style=""font-size:42px;"">CATTLE</div>",null,,word,CATTLE,,,,,,,,,,,,
html-keyboard-response,761,2487616,null,"",null,,word,CATTLE,,,,,,,,,,,,
html-keyboard-response,762,2487818,null,"<div style=""font-size:42px;"">CABBAGE</div><img id = ""stim"" ><div class = red_square id = bottomsquare></div>",null,encoding,word_square,,,0,bottomsquare,none,true,,,CABBAGE,6,,,
html-keyboard-response,763,2488120,null,"<div style=""font-size:42px;"">CABBAGE</div>",null,,word,CABBAGE,,,,,,,,,,,,
html-keyboard-response,764,2489622,null,"",null,,word,CABBAGE,,,,,,,,,,,,
html-keyboard-response,765,2489824,null,"<div style=""font-size:42px;"">TRANSPLANT</div><img id = ""stim"" ><div class = green_square id = bottomsquare></div>",null,encoding,word_square,,,1,bottomsquare,32,true,,,TRANSPLANT,6,,,
html-keyboard-response,766,2490126,95.70000000298023,"<div style=""font-size:42px;"">TRANSPLANT</div>",32,,word,TRANSPLANT,,,,,,,,,,,,
html-keyboard-response,767,2491628,null,"",null,,word,TRANSPLANT,,,,,,,,,,,,
html-keyboard-response,768,2491830,null,"<div style=""font-size:42px;"">STAPLE</div><img id = ""stim"" ><div class = red_square id = topsquare></div>",null,encoding,word_square,,,0,topsquare,none,true,,,STAPLE,6,,,
html-keyboard-response,769,2492132,null,"<div style=""font-size:42px;"">STAPLE</div>",null,,word,STAPLE,,,,,,,,,,,,
html-keyboard-response,770,2493634,null,"",null,,word,STAPLE,,,,,,,,,,,,
html-keyboard-response,771,2493836,null,"<div style=""font-size:42px;"">MONARCH</div><img id = ""stim"" ><div class = red_square id = bottomsquare></div>",null,encoding,word_square,,,0,bottomsquare,none,true,,,MONARCH,6,,,
html-keyboard-response,772,2494138,null,"<div style=""font-size:42px;"">MONARCH</div>",null,,word,MONARCH,,,,,,,,,,,,
html-keyboard-response,773,2495640,null,"",null,,word,MONARCH,,,,,,,,,,,,
html-keyboard-response,774,2495842,null,"<div style=""font-size:42px;"">TURNIP</div><img id = ""stim"" ><div class = green_square id = topsquare></div>",null,encoding,word_square,,,1,topsquare,32,true,,,TURNIP,6,,,
html-keyboard-response,775,2496144,151.8999999910593,"<div style=""font-size:42px;"">TURNIP</div>",32,,word,TURNIP,,,,,,,,,,,,
html-keyboard-response,776,2497646,null,"",null,,word,TURNIP,,,,,,,,,,,,
html-keyboard-response,777,2497848,null,"<div style=""font-size:42px;"">STOCKING</div><img id = ""stim"" ><div class = green_square id = bottomsquare></div>",null,encoding,word_square,,,1,bottomsquare,32,true,,,STOCKING,6,,,
html-keyboard-response,778,2498150,121.19999998807907,"<div style=""font-size:42px;"">STOCKING</div>",32,,word,STOCKING,,,,,,,,,,,,
html-keyboard-response,779,2499652,null,"",null,,word,STOCKING,,,,,,,,,,,,
html-keyboard-response,780,2499854,null,"<div style=""font-size:42px;"">HAND</div><img id = ""stim"" ><div class = red_square id = topsquare></div>",null,encoding,word_square,,,0,topsquare,none,true,,,HAND,6,,,
html-keyboard-response,781,2500156,null,"<div style=""font-size:42px;"">HAND</div>",null,,word,HAND,,,,,,,,,,,,
html-keyboard-response,782,2501658,null,"",null,,word,HAND,,,,,,,,,,,,
html-keyboard-response,783,2501860,null,"<div style=""font-size:42px;"">CHARCOAL</div><img id = ""stim"" ><div class = green_square id = topsquare></div>",null,encoding,word_square,,,1,topsquare,32,true,,,CHARCOAL,6,,,
html-keyboard-response,784,2502162,182.90000000596046,"<div style=""font-size:42px;"">CHARCOAL</div>",32,,word,CHARCOAL,,,,,,,,,,,,
html-keyboard-response,785,2503664,null,"",null,,word,CHARCOAL,,,,,,,,,,,,
html-keyboard-response,786,2503866,null,"<div style=""font-size:42px;"">BELLY</div><img id = ""stim"" ><div class = green_square id = bottomsquare></div>",null,encoding,word_square,,,1,bottomsquare,32,true,,,BELLY,6,,,
html-keyboard-response,787,2504168,210.80000001192093,"<div style=""font-size:42px;"">BELLY</div>",32,,word,BELLY,,,,,,,,,,,,
html-keyboard-response,788,2505670,null,"",null,,word,BELLY,,,,,,,,,,,,
html-keyboard-response,789,2505872,null,"<div style=""font-size:42px;"">MASK</div><img id = ""stim"" ><div class = red_square id = bottomsquare></div>",null,encoding,word_square,,,0,bottomsquare,none,true,,,MASK,6,,,
html-keyboard-response,790,2506174,null,"<div style=""font-size:42px;"">MASK</div>",null,,word,MASK,,,,,,,,,,,,
html-keyboard-response,791,2507676,null,"",null,,word,MASK,,,,,,,,,,,,
html-keyboard-response,792,2507878,null,"<div style=""font-size:42px;"">ISLAND</div><img id = ""stim"" ><div class = red_square id = topsquare></div>",null,encoding,word_square,,,0,topsquare,none,true,,,ISLAND,6,,,
html-keyboard-response,793,2508181,null,"<div style=""font-size:42px;"">ISLAND</div>",null,,word,ISLAND,,,,,,,,,,,,
html-keyboard-response,794,2509682,null,"",null,,word,ISLAND,,,,,,,,,,,,
html-keyboard-response,795,2509885,null,"<div style=""font-size:42px;"">PRINCESS</div><img id = ""stim"" ><div class = green_square id = topsquare></div>",null,encoding,word_square,,,1,topsquare,32,true,,,PRINCESS,6,,,
html-keyboard-response,796,2510187,155.09999999403954,"<div style=""font-size:42px;"">PRINCESS</div>",32,,word,PRINCESS,,,,,,,,,,,,
html-keyboard-response,797,2511689,null,"",null,,word,PRINCESS,,,,,,,,,,,,
html-keyboard-response,798,2511891,null,"<div style=""font-size:42px;"">STREET</div><img id = ""stim"" ><div class = green_square id = bottomsquare></div>",null,encoding,word_square,,,1,bottomsquare,32,true,,,STREET,6,,,
html-keyboard-response,799,2512193,160.20000000298023,"<div style=""font-size:42px;"">STREET</div>",32,,word,STREET,,,,,,,,,,,,
html-keyboard-response,800,2513695,null,"",null,,word,STREET,,,,,,,,,,,,
call-function,801,2513695,,"",,,,,,,,,,,,,,,,
html-keyboard-response,802,2513797,null,"",null,,,,,,,,,,,,,,,
math-period,803,2515646,3384.500000014901,"",,,,,,,,,,,5,,,,,
html-keyboard-response,804,2515748,null,"",null,,,,,,,,,,,,,,,
math-period,805,2519120,6519.799999982119,"",,,,,,,,,,,2,,,,,
html-keyboard-response,806,2519222,null,"",null,,,,,,,,,,,,,,,
math-period,807,2520966,5651.400000020862,"",,,,,,,,,,,4,,,,,
html-keyboard-response,808,2521068,null,"",null,,,,,,,,,,,,,,,
math-period,809,2521850,1457.699999988079,"",,,,,,,,,,,5,,,,,
html-keyboard-response,810,2521952,null,"",null,,,,,,,,,,,,,,,
math-period,811,2522728,1447.199999988079,"",,,,,,,,,,,5,,,,,
html-keyboard-response,812,2522830,null,"",null,,,,,,,,,,,,,,,
math-period,813,2523894,2008.7000000029802,"",,,,,,,,,,,4,,,,,
html-keyboard-response,814,2523996,null,"",null,,,,,,,,,,,,,,,
math-period,815,2525216,2302.8999999910593,"",,,,,,,,,,,4,,,,,
html-keyboard-response,816,2525318,null,"",null,,,,,,,,,,,,,,,
math-period,817,2527456,3947.2999999970198,"",,,,,,,,,,,3,,,,,
html-keyboard-response,818,2527557,null,"",null,,,,,,,,,,,,,,,
math-period,819,2534844,81194.79999990761,"",,,,,,,,,,,0,,,,,
html-keyboard-response,820,2534946,null,"",null,,,,,,,,,,,,,,,
math-period,821,2536090,1935.800000011921,"",,,,,,,,,,,2,,,,,
html-keyboard-response,822,2536192,null,"",null,,,,,,,,,,,,,,,
math-period,823,2537686,2813.9000000059605,"",,,,,,,,,,,3,,,,,
html-keyboard-response,824,2537789,null,"",null,,,,,,,,,,,,,,,
math-period,825,2537791,null,"",,,,,,,,,,,,,,,,
html-keyboard-response,826,2538793,null,"Recall Period!",null,,,,,,,,,,,,,,,
call-function,827,2538793,,"",,,,,,,,,,,,,,,,
html-keyboard-response,828,2538895,null,"",null,,,,,,,,,,,,,,,
recall-period,829,2540707,8608.59999999404,"",,,,,,,,,,,bison,,,,,
html-keyboard-response,830,2540809,null,"",null,,,,,,,,,,,,,,,
recall-period,831,2541605,2996.999999985099,"",,,,,,,,,,,cattle,,,,,
html-keyboard-response,832,2541707,null,"",null,,,,,,,,,,,,,,,
recall-period,833,2542848,3930.700000077486,"",,,,,,,,,,,stocking,,,,,
html-keyboard-response,834,2542950,null,"",null,,,,,,,,,,,,,,,
recall-period,835,2551669,58774.19999995828,"",,,,,,,,,,,toilet,,,,,
html-keyboard-response,836,2551770,null,"",null,,,,,,,,,,,,,,,
recall-period,837,2559852,60699.299999937415,"",,,,,,,,,,,cabbage,,,,,
html-keyboard-response,838,2559954,null,"",null,,,,,,,,,,,,,,,
recall-period,839,2614422,null,"",,,,,,,,,,,,,,,,
html-keyboard-response,840,2615422,null,"Time's Up!",null,,,,,,,,,,,,,,,
html-keyboard-response,841,2644184,28759.79999999702,"<p> Good job! You have responded correctly to 100% of the trials. </p>
                      <p>Be sure to only press the spacebar if you see a GREEN square, and please keep your accuracy above 80%.</p>
                      <p> Press any key to continue the experiment. </p>",174,,,,,,,,,,,,,,,
html-keyboard-response,842,2644195,9.700000002980232,"<div style=""font-size:48px;"">Press any key to begin list 8 of 16 </div>",174,,,,,,,,,,,,,,,
html-keyboard-response,843,2646698,null,"<div style=""font-size:60px;"">+</div>",null,,,,,,,,,,,,,,,
html-keyboard-response,844,2646900,null,"<div style=""font-size:42px;"">STOMACH</div><img id = ""stim"" ><div class = green_square id = bottomsquare></div>",null,encoding,word_square,,,1,bottomsquare,32,true,,,STOMACH,7,,,
html-keyboard-response,845,2647202,157.20000000298023,"<div style=""font-size:42px;"">STOMACH</div>",32,,word,STOMACH,,,,,,,,,,,,
html-keyboard-response,846,2648703,null,"",null,,word,STOMACH,,,,,,,,,,,,
html-keyboard-response,847,2648905,null,"<div style=""font-size:42px;"">ULCER</div><img id = ""stim"" ><div class = green_square id = topsquare></div>",null,encoding,word_square,,,1,topsquare,32,true,,,ULCER,7,,,
html-keyboard-response,848,2649208,113.5,"<div style=""font-size:42px;"">ULCER</div>",32,,word,ULCER,,,,,,,,,,,,
html-keyboard-response,849,2650710,null,"",null,,word,ULCER,,,,,,,,,,,,
html-keyboard-response,850,2650912,null,"<div style=""font-size:42px;"">EUROPE</div><img id = ""stim"" ><div class = red_square id = topsquare></div>",null,encoding,word_square,,,0,topsquare,none,true,,,EUROPE,7,,,
html-keyboard-response,851,2651214,null,"<div style=""font-size:42px;"">EUROPE</div>",null,,word,EUROPE,,,,,,,,,,,,
html-keyboard-response,852,2652716,null,"",null,,word,EUROPE,,,,,,,,,,,,
html-keyboard-response,853,2652919,null,"<div style=""font-size:42px;"">GRAVE</div><img id = ""stim"" ><div class = red_square id = bottomsquare></div>",null,encoding,word_square,,,0,bottomsquare,none,true,,,GRAVE,7,,,
html-keyboard-response,854,2653221,null,"<div style=""font-size:42px;"">GRAVE</div>",null,,word,GRAVE,,,,,,,,,,,,
html-keyboard-response,855,2654723,null,"",null,,word,GRAVE,,,,,,,,,,,,
html-keyboard-response,856,2654925,null,"<div style=""font-size:42px;"">TOMBSTONE</div><img id = ""stim"" ><div class = green_square id = bottomsquare></div>",null,encoding,word_square,,,1,bottomsquare,32,true,,,TOMBSTONE,7,,,
html-keyboard-response,857,2655227,116.6000000089407,"<div style=""font-size:42px;"">TOMBSTONE</div>",32,,word,TOMBSTONE,,,,,,,,,,,,
html-keyboard-response,858,2656730,null,"",null,,word,TOMBSTONE,,,,,,,,,,,,
html-keyboard-response,859,2656932,null,"<div style=""font-size:42px;"">TRUCK</div><img id = ""stim"" ><div class = green_square id = topsquare></div>",null,encoding,word_square,,,1,topsquare,32,true,,,TRUCK,7,,,
html-keyboard-response,860,2657234,122.79999999701977,"<div style=""font-size:42px;"">TRUCK</div>",32,,word,TRUCK,,,,,,,,,,,,
html-keyboard-response,861,2658736,null,"",null,,word,TRUCK,,,,,,,,,,,,
html-keyboard-response,862,2658938,null,"<div style=""font-size:42px;"">EYELASH</div><img id = ""stim"" ><div class = red_square id = topsquare></div>",null,encoding,word_square,,,0,topsquare,none,true,,,EYELASH,7,,,
html-keyboard-response,863,2659240,null,"<div style=""font-size:42px;"">EYELASH</div>",null,,word,EYELASH,,,,,,,,,,,,
html-keyboard-response,864,2660742,null,"",null,,word,EYELASH,,,,,,,,,,,,
html-keyboard-response,865,2660944,null,"<div style=""font-size:42px;"">FROG</div><img id = ""stim"" ><div class = green_square id = bottomsquare></div>",null,encoding,word_square,,,1,bottomsquare,32,true,,,FROG,7,,,
html-keyboard-response,866,2661246,118.3999999910593,"<div style=""font-size:42px;"">FROG</div>",32,,word,FROG,,,,,,,,,,,,
html-keyboard-response,867,2662748,null,"",null,,word,FROG,,,,,,,,,,,,
html-keyboard-response,868,2662951,null,"<div style=""font-size:42px;"">OX</div><img id = ""stim"" ><div class = green_square id = topsquare></div>",null,encoding,word_square,,,1,topsquare,32,true,,,OX,7,,,
html-keyboard-response,869,2663253,145.5,"<div style=""font-size:42px;"">OX</div>",32,,word,OX,,,,,,,,,,,,
html-keyboard-response,870,2664756,null,"",null,,word,OX,,,,,,,,,,,,
html-keyboard-response,871,2664958,null,"<div style=""font-size:42px;"">CAFE</div><img id = ""stim"" ><div class = red_square id = bottomsquare></div>",null,encoding,word_square,,,0,bottomsquare,none,true,,,CAFE,7,,,
html-keyboard-response,872,2665260,null,"<div style=""font-size:42px;"">CAFE</div>",null,,word,CAFE,,,,,,,,,,,,
html-keyboard-response,873,2666762,null,"",null,,word,CAFE,,,,,,,,,,,,
html-keyboard-response,874,2666964,null,"<div style=""font-size:42px;"">BRANDY</div><img id = ""stim"" ><div class = red_square id = topsquare></div>",null,encoding,word_square,,,0,topsquare,none,true,,,BRANDY,7,,,
html-keyboard-response,875,2667266,null,"<div style=""font-size:42px;"">BRANDY</div>",null,,word,BRANDY,,,,,,,,,,,,
html-keyboard-response,876,2668768,null,"",null,,word,BRANDY,,,,,,,,,,,,
html-keyboard-response,877,2668971,null,"<div style=""font-size:42px;"">BEETLE</div><img id = ""stim"" ><div class = green_square id = bottomsquare></div>",null,encoding,word_square,,,1,bottomsquare,32,true,,,BEETLE,7,,,
html-keyboard-response,878,2669273,132.3999999910593,"<div style=""font-size:42px;"">BEETLE</div>",32,,word,BEETLE,,,,,,,,,,,,
html-keyboard-response,879,2670776,null,"",null,,word,BEETLE,,,,,,,,,,,,
html-keyboard-response,880,2670978,null,"<div style=""font-size:42px;"">FLASK</div><img id = ""stim"" ><div class = red_square id = bottomsquare></div>",null,encoding,word_square,,,0,bottomsquare,none,true,,,FLASK,7,,,
html-keyboard-response,881,2671280,null,"<div style=""font-size:42px;"">FLASK</div>",null,,word,FLASK,,,,,,,,,,,,
html-keyboard-response,882,2672782,null,"",null,,word,FLASK,,,,,,,,,,,,
html-keyboard-response,883,2672984,null,"<div style=""font-size:42px;"">BROOK</div><img id = ""stim"" ><div class = red_square id = topsquare></div>",null,encoding,word_square,,,0,topsquare,none,true,,,BROOK,7,,,
html-keyboard-response,884,2673286,null,"<div style=""font-size:42px;"">BROOK</div>",null,,word,BROOK,,,,,,,,,,,,
html-keyboard-response,885,2674789,null,"",null,,word,BROOK,,,,,,,,,,,,
html-keyboard-response,886,2674991,null,"<div style=""font-size:42px;"">COLESLAW</div><img id = ""stim"" ><div class = green_square id = topsquare></div>",null,encoding,word_square,,,1,topsquare,32,true,,,COLESLAW,7,,,
html-keyboard-response,887,2675293,150.6000000089407,"<div style=""font-size:42px;"">COLESLAW</div>",32,,word,COLESLAW,,,,,,,,,,,,
html-keyboard-response,888,2676795,null,"",null,,word,COLESLAW,,,,,,,,,,,,
html-keyboard-response,889,2676997,null,"<div style=""font-size:42px;"">COUNTRY</div><img id = ""stim"" ><div class = red_square id = bottomsquare></div>",null,encoding,word_square,,,0,bottomsquare,none,true,,,COUNTRY,7,,,
html-keyboard-response,890,2677299,null,"<div style=""font-size:42px;"">COUNTRY</div>",null,,word,COUNTRY,,,,,,,,,,,,
html-keyboard-response,891,2678801,null,"",null,,word,COUNTRY,,,,,,,,,,,,
call-function,892,2678801,,"",,,,,,,,,,,,,,,,
html-keyboard-response,893,2678903,null,"",null,,,,,,,,,,,,,,,
math-period,894,2681123,3979.7000000029802,"",,,,,,,,,,,0,,,,,
html-keyboard-response,895,2681225,null,"",null,,,,,,,,,,,,,,,
math-period,896,2682561,2287.6000000089407,"",,,,,,,,,,,3,,,,,
html-keyboard-response,897,2682663,null,"",null,,,,,,,,,,,,,,,
math-period,898,2683647,1730.7999999821186,"",,,,,,,,,,,4,,,,,
html-keyboard-response,899,2683749,null,"",null,,,,,,,,,,,,,,,
math-period,900,2684651,1692.4999999850988,"",,,,,,,,,,,4,,,,,
html-keyboard-response,901,2684753,null,"",null,,,,,,,,,,,,,,,
math-period,902,2687079,13357.70000000298,"",,,,,,,,,,,2,,,,,
html-keyboard-response,903,2687181,null,"",null,,,,,,,,,,,,,,,
math-period,904,2690761,6876.799999982119,"",,,,,,,,,,,2,,,,,
html-keyboard-response,905,2690863,null,"",null,,,,,,,,,,,,,,,
math-period,906,2692501,3181.8999999910593,"",,,,,,,,,,,1,,,,,
html-keyboard-response,907,2692602,null,"",null,,,,,,,,,,,,,,,
math-period,908,2693419,1547.6000000089407,"",,,,,,,,,,,2,,,,,
html-keyboard-response,909,2693520,null,"",null,,,,,,,,,,,,,,,
math-period,910,2694417,1675.5,"",,,,,,,,,,,4,,,,,
html-keyboard-response,911,2694518,null,"",null,,,,,,,,,,,,,,,
math-period,912,2695251,1355.5999999940395,"",,,,,,,,,,,3,,,,,
html-keyboard-response,913,2695352,null,"",null,,,,,,,,,,,,,,,
math-period,914,2696204,1637.0999999940395,"",,,,,,,,,,,3,,,,,
html-keyboard-response,915,2696306,null,"",null,,,,,,,,,,,,,,,
math-period,916,2696913,1096.9000000059605,"",,,,,,,,,,,3,,,,,
html-keyboard-response,917,2697015,null,"",null,,,,,,,,,,,,,,,
math-period,918,2698457,2788.9000000059605,"",,,,,,,,,,,2,,,,,
html-keyboard-response,919,2698559,null,"",null,,,,,,,,,,,,,,,
math-period,920,2699259,1296.9000000059605,"",,,,,,,,,,,2,,,,,
html-keyboard-response,921,2699361,null,"",null,,,,,,,,,,,,,,,
math-period,922,2700697,2512.800000011921,"",,,,,,,,,,,5,,,,,
html-keyboard-response,923,2700799,null,"",null,,,,,,,,,,,,,,,
math-period,924,2701747,1603.699999988079,"",,,,,,,,,,,5,,,,,
html-keyboard-response,925,2701849,null,"",null,,,,,,,,,,,,,,,
math-period,926,2702615,1394.5,"",,,,,,,,,,,5,,,,,
html-keyboard-response,927,2702716,null,"",null,,,,,,,,,,,,,,,
math-period,928,2702803,null,"",,,,,,,,,,,,,,,,
html-keyboard-response,929,2703805,null,"Recall Period!",null,,,,,,,,,,,,,,,
call-function,930,2703805,,"",,,,,,,,,,,,,,,,
html-keyboard-response,931,2703907,null,"",null,,,,,,,,,,,,,,,
recall-period,932,2705254,6983.0000000447035,"",,,,,,,,,,,stomach,,,,,
html-keyboard-response,933,2705356,null,"",null,,,,,,,,,,,,,,,
recall-period,934,2706143,2407.800000026822,"",,,,,,,,,,,ulcer,,,,,
html-keyboard-response,935,2706245,null,"",null,,,,,,,,,,,,,,,
recall-period,936,2710991,56260.400000080466,"",,,,,,,,,,,Europe,,,,,
html-keyboard-response,937,2711092,null,"",null,,,,,,,,,,,,,,,
recall-period,938,2712820,5563.5000000447035,"",,,,,,,,,,,country,,,,,
