trial_type,trial_index,time_elapsed,rt,stimulus,key_press,exp_phase,test_part,word,task,targ_cond,sq_pos,correctKeyCode,correct,value,response,Word,List,RecResp,serial_pos,colorChosen
pavlovia,0,2467,,"",,,,,,,,,,,,,,,,
external-html,1,21300,18597,"",,,,,,,,,,,,,,,,
html-keyboard-response,2,24032,2730,"Welcome to the experiment. Press any key to begin.",65,,,,,,,,,,,,,,,
html-keyboard-response,3,157058,133024,"<p>You will see a list of words and colored squares in the following task.<p><p>Press the spacebar whenever you see a red square.<p><p>Do not press a key if the square is green.<p><p>Press the spacebar to continue.</p>",32,,,,,,,,,,,,,,,
html-keyboard-response,4,204896,47332,"<p>Please try to remember as many of the words as you can, and try to think about the meaning of each word as it appears.<p><p>After the detection and encoding task you will be asked to solve some math problems for 24 seconds.<p> Please solve as many problems as you can in the time given. <p><p><p>Press the spacebar to continue.</p>",32,,,,,,,,,,,,,,,
html-keyboard-response,5,218357,12956,"After solving the math problems, you will be asked to type in as many words <p>from the previous list as you can remember for 75 seconds.<p> If you finish recalling before the 75 seconds are up,<p> just sit tight and try to think of any more words you could have missed. <p><p><p>Press the spacebar to continue.</p>",32,,,,,,,,,,,,,,,
html-keyboard-response,6,233064,14194,"There will be 16 lists of words and recall, followed  by<p><p> a recognition phase. The experiment is expected to take up to 90 minutes.<p>We will begin with a brief practice session.<p>Press the spacebar to begin the practice.</p>",32,,,,,,,,,,,,,,,
html-keyboard-response,7,235586,null,"<div style=""font-size:60px;"">+</div>",null,,,,,,,,,,,,,,,
html-keyboard-response,8,235787,null,"<div style=""font-size:42px;"">HAPPY</div><img id = ""stim"" ><div class = green_square id = ""bottomsquare"" ></div>",null,practice,word_square,HAPPY,prac_response,0,Bottom,none,true,,,,,,,
html-keyboard-response,9,236097,null,"<div style=""font-size:42px;"">HAPPY</div>",null,,word,HAPPY,,,,,,,,,,,,
html-keyboard-response,10,237612,null,"",null,,word,HAPPY,,,,,,,,,,,,
html-keyboard-response,11,237816,null,"<div style=""font-size:42px;"">COLD</div><img id = ""stim"" ><div class = red_square id = ""bottomsquare"" ></div>",null,practice,word_square,COLD,prac_response,1,Bottom,32,true,,,,,,,
html-keyboard-response,12,238127,null,"<div style=""font-size:42px;"">COLD</div>",null,,word,COLD,,,,,,,,,,,,
html-keyboard-response,13,239641,232,"",32,,word,COLD,,,,,,,,,,,,
html-keyboard-response,14,239845,null,"<div style=""font-size:42px;"">HEAVY</div><img id = ""stim"" ><div class = red_square id = ""topsquare"" ></div>",null,practice,word_square,HEAVY,prac_response,1,Top,32,true,,,,,,,
html-keyboard-response,15,240161,294,"<div style=""font-size:42px;"">HEAVY</div>",32,,word,HEAVY,,,,,,,,,,,,
html-keyboard-response,16,241674,null,"",null,,word,HEAVY,,,,,,,,,,,,
html-keyboard-response,17,241875,null,"<div style=""font-size:42px;"">FUNNY</div><img id = ""stim"" ><div class = green_square id = ""topsquare"" ></div>",null,practice,word_square,FUNNY,prac_response,0,Top,none,true,,,,,,,
html-keyboard-response,18,242191,null,"<div style=""font-size:42px;"">FUNNY</div>",null,,word,FUNNY,,,,,,,,,,,,
html-keyboard-response,19,243703,null,"",null,,word,FUNNY,,,,,,,,,,,,
html-keyboard-response,20,243918,null,"<div style=""font-size:42px;"">SCARY</div><img id = ""stim"" ><div class = red_square id = ""bottomsquare"" ></div>",null,practice,word_square,SCARY,prac_response,1,Bottom,32,true,,,,,,,
html-keyboard-response,21,244233,null,"<div style=""font-size:42px;"">SCARY</div>",null,,word,SCARY,,,,,,,,,,,,
html-keyboard-response,22,245743,250,"",32,,word,SCARY,,,,,,,,,,,,
html-keyboard-response,23,245948,null,"<div style=""font-size:42px;"">PEACEFUL</div><img id = ""stim"" ><div class = red_square id = ""topsquare"" ></div>",null,practice,word_square,PEACEFUL,prac_response,1,Top,32,true,,,,,,,
html-keyboard-response,24,246259,307,"<div style=""font-size:42px;"">PEACEFUL</div>",32,,word,PEACEFUL,,,,,,,,,,,,
html-keyboard-response,25,247770,null,"",null,,word,PEACEFUL,,,,,,,,,,,,
html-keyboard-response,26,247986,null,"<div style=""font-size:42px;"">LITTLE</div><img id = ""stim"" ><div class = green_square id = ""bottomsquare"" ></div>",null,practice,word_square,LITTLE,prac_response,0,Bottom,none,true,,,,,,,
html-keyboard-response,27,248298,null,"<div style=""font-size:42px;"">LITTLE</div>",null,,word,LITTLE,,,,,,,,,,,,
html-keyboard-response,28,249811,null,"",null,,word,LITTLE,,,,,,,,,,,,
html-keyboard-response,29,250014,null,"<div style=""font-size:42px;"">TIRED</div><img id = ""stim"" ><div class = green_square id = ""topsquare"" ></div>",null,practice,word_square,TIRED,prac_response,0,Top,none,false,,,,,,,
html-keyboard-response,30,250323,null,"<div style=""font-size:42px;"">TIRED</div>",null,,word,TIRED,,,,,,,,,,,,
html-keyboard-response,31,251829,339,"",32,,word,TIRED,,,,,,,,,,,,
html-keyboard-response,32,252032,null,"<div style=""font-size:42px;"">ENTERTAINING</div><img id = ""stim"" ><div class = green_square id = ""bottomsquare"" ></div>",null,practice,word_square,ENTERTAINING,prac_response,0,Bottom,none,true,,,,,,,
html-keyboard-response,33,252347,null,"<div style=""font-size:42px;"">ENTERTAINING</div>",null,,word,ENTERTAINING,,,,,,,,,,,,
html-keyboard-response,34,253849,null,"",null,,word,ENTERTAINING,,,,,,,,,,,,
html-keyboard-response,35,254065,null,"<div style=""font-size:42px;"">GRATEFUL</div><img id = ""stim"" ><div class = red_square id = ""bottomsquare"" ></div>",null,practice,word_square,GRATEFUL,prac_response,1,Bottom,32,true,,,,,,,
html-keyboard-response,36,254380,237,"<div style=""font-size:42px;"">GRATEFUL</div>",32,,word,GRATEFUL,,,,,,,,,,,,
html-keyboard-response,37,255892,null,"",null,,word,GRATEFUL,,,,,,,,,,,,
html-keyboard-response,38,256094,null,"<div style=""font-size:42px;"">LOUD</div><img id = ""stim"" ><div class = green_square id = ""topsquare"" ></div>",null,practice,word_square,LOUD,prac_response,0,Top,none,true,,,,,,,
html-keyboard-response,39,256408,null,"<div style=""font-size:42px;"">LOUD</div>",null,,word,LOUD,,,,,,,,,,,,
html-keyboard-response,40,257925,null,"",null,,word,LOUD,,,,,,,,,,,,
html-keyboard-response,41,258130,null,"<div style=""font-size:42px;"">SMART</div><img id = ""stim"" ><div class = red_square id = ""topsquare"" ></div>",null,practice,word_square,SMART,prac_response,1,Top,32,true,,,,,,,
html-keyboard-response,42,258444,null,"<div style=""font-size:42px;"">SMART</div>",null,,word,SMART,,,,,,,,,,,,
html-keyboard-response,43,259957,361,"",32,,word,SMART,,,,,,,,,,,,
html-keyboard-response,44,260172,null,"<div style=""font-size:42px;"">SMOOTH</div><img id = ""stim"" ><div class = red_square id = ""bottomsquare"" ></div>",null,practice,word_square,SMOOTH,prac_response,1,Bottom,32,true,,,,,,,
html-keyboard-response,45,260485,null,"<div style=""font-size:42px;"">SMOOTH</div>",null,,word,SMOOTH,,,,,,,,,,,,
html-keyboard-response,46,261987,72,"",32,,word,SMOOTH,,,,,,,,,,,,
html-keyboard-response,47,262191,null,"<div style=""font-size:42px;"">DISHONEST</div><img id = ""stim"" ><div class = green_square id = ""bottomsquare"" ></div>",null,practice,word_square,DISHONEST,prac_response,0,Bottom,none,true,,,,,,,
html-keyboard-response,48,262499,null,"<div style=""font-size:42px;"">DISHONEST</div>",null,,word,DISHONEST,,,,,,,,,,,,
html-keyboard-response,49,264009,null,"",null,,word,DISHONEST,,,,,,,,,,,,
html-keyboard-response,50,264211,null,"<div style=""font-size:42px;"">WEALTHY</div><img id = ""stim"" ><div class = red_square id = ""topsquare"" ></div>",null,practice,word_square,WEALTHY,prac_response,1,Top,32,true,,,,,,,
html-keyboard-response,51,264524,251,"<div style=""font-size:42px;"">WEALTHY</div>",32,,word,WEALTHY,,,,,,,,,,,,
html-keyboard-response,52,266026,null,"",null,,word,WEALTHY,,,,,,,,,,,,
html-keyboard-response,53,266234,null,"<div style=""font-size:42px;"">BEAUTIFUL</div><img id = ""stim"" ><div class = green_square id = ""topsquare"" ></div>",null,practice,word_square,BEAUTIFUL,prac_response,0,Top,none,true,,,,,,,
html-keyboard-response,54,266544,null,"<div style=""font-size:42px;"">BEAUTIFUL</div>",null,,word,BEAUTIFUL,,,,,,,,,,,,
html-keyboard-response,55,268056,null,"",null,,word,BEAUTIFUL,,,,,,,,,,,,
html-keyboard-response,56,275241,7183,"<p> Good job! You responded correctly to 94% of the trials. </p>
                  <p>Be sure to only press the spacebar if you see a red square, and please keep your accuracy above 80%.</p>
                  <p>We're going to try once more to make sure you understand the task. press any key to continue. </p>",32,,,,,,,,,,,,,,,
html-keyboard-response,57,279280,4039,"<p>You will see a list of words and colored squares in the following task.<p><p>Press the spacebar whenever you see a red square.<p><p>Do not press a key if the square is green<p><p>Press the spacebar to continue.</p>",32,,,,,,,,,,,,,,,
html-keyboard-response,58,281792,null,"<div style=""font-size:60px;"">+</div>",null,,,,,,,,,,,,,,,
html-keyboard-response,59,281995,null,"<div style=""font-size:42px;"">HAPPY</div><img id = ""stim"" ><div class = green_square id = ""bottomsquare"" ></div>",null,practice2,word_square,HAPPY,prac_response,0,Bottom,none,true,,,,,,,
html-keyboard-response,60,282306,null,"<div style=""font-size:42px;"">HAPPY</div>",null,,word,HAPPY,,,,,,,,,,,,
html-keyboard-response,61,283820,null,"",null,,word,HAPPY,,,,,,,,,,,,
html-keyboard-response,62,284023,null,"<div style=""font-size:42px;"">COLD</div><img id = ""stim"" ><div class = red_square id = ""bottomsquare"" ></div>",null,practice2,word_square,,prac_response,1,Bottom,32,true,,,,,,,
html-keyboard-response,63,284332,268,"<div style=""font-size:42px;"">COLD</div>",32,,word,COLD,,,,,,,,,,,,
html-keyboard-response,64,285848,null,"",null,,word,COLD,,,,,,,,,,,,
html-keyboard-response,65,286052,null,"<div style=""font-size:42px;"">HEAVY</div><img id = ""stim"" ><div class = red_square id = ""topsquare"" ></div>",null,practice2,word_square,,prac_response,1,Top,32,true,,,,,,,
html-keyboard-response,66,286359,null,"<div style=""font-size:42px;"">HEAVY</div>",null,,word,HEAVY,,,,,,,,,,,,
html-keyboard-response,67,287872,18,"",32,,word,HEAVY,,,,,,,,,,,,
html-keyboard-response,68,288087,null,"<div style=""font-size:42px;"">FUNNY</div><img id = ""stim"" ><div class = green_square id = ""topsquare"" ></div>",null,practice2,word_square,,prac_response,0,Top,none,true,,,,,,,
html-keyboard-response,69,288398,null,"<div style=""font-size:42px;"">FUNNY</div>",null,,word,FUNNY,,,,,,,,,,,,
html-keyboard-response,70,289915,null,"",null,,word,FUNNY,,,,,,,,,,,,
html-keyboard-response,71,290116,null,"<div style=""font-size:42px;"">SCARY</div><img id = ""stim"" ><div class = red_square id = ""bottomsquare"" ></div>",null,practice2,word_square,,prac_response,1,Bottom,32,true,,,,,,,
html-keyboard-response,72,290424,null,"<div style=""font-size:42px;"">SCARY</div>",null,,word,SCARY,,,,,,,,,,,,
html-keyboard-response,73,291936,51,"",32,,word,SCARY,,,,,,,,,,,,
html-keyboard-response,74,292138,null,"<div style=""font-size:42px;"">PEACEFUL</div><img id = ""stim"" ><div class = red_square id = ""topsquare"" ></div>",null,practice2,word_square,,prac_response,1,Top,32,true,,,,,,,
html-keyboard-response,75,292448,null,"<div style=""font-size:42px;"">PEACEFUL</div>",null,,word,PEACEFUL,,,,,,,,,,,,
html-keyboard-response,76,293960,147,"",32,,word,PEACEFUL,,,,,,,,,,,,
html-keyboard-response,77,294164,null,"<div style=""font-size:42px;"">LITTLE</div><img id = ""stim"" ><div class = green_square id = ""bottomsquare"" ></div>",null,practice2,word_square,LITTLE,prac_response,0,Bottom,none,true,,,,,,,
html-keyboard-response,78,294472,null,"<div style=""font-size:42px;"">LITTLE</div>",null,,word,LITTLE,,,,,,,,,,,,
html-keyboard-response,79,295983,null,"",null,,word,LITTLE,,,,,,,,,,,,
html-keyboard-response,80,296199,null,"<div style=""font-size:42px;"">TIRED</div><img id = ""stim"" ><div class = green_square id = ""topsquare"" ></div>",null,practice2,word_square,,prac_response,0,Top,none,true,,,,,,,
html-keyboard-response,81,296509,null,"<div style=""font-size:42px;"">TIRED</div>",null,,word,TIRED,,,,,,,,,,,,
html-keyboard-response,82,298016,null,"",null,,word,TIRED,,,,,,,,,,,,
html-keyboard-response,83,298219,null,"<div style=""font-size:42px;"">ENTERTAINING</div><img id = ""stim"" ><div class = green_square id = ""bottomsquare"" ></div>",null,practice2,word_square,ENTERTAINING,prac_response,0,Bottom,none,true,,,,,,,
html-keyboard-response,84,298531,null,"<div style=""font-size:42px;"">ENTERTAINING</div>",null,,word,ENTERTAINING,,,,,,,,,,,,
html-keyboard-response,85,300034,null,"",null,,word,ENTERTAINING,,,,,,,,,,,,
html-keyboard-response,86,300250,null,"<div style=""font-size:42px;"">GRATEFUL</div><img id = ""stim"" ><div class = red_square id = ""bottomsquare"" ></div>",null,practice2,word_square,,prac_response,1,Bottom,32,true,,,,,,,
html-keyboard-response,87,300561,310,"<div style=""font-size:42px;"">GRATEFUL</div>",32,,word,GRATEFUL,,,,,,,,,,,,
html-keyboard-response,88,302066,null,"",null,,word,GRATEFUL,,,,,,,,,,,,
html-keyboard-response,89,302270,null,"<div style=""font-size:42px;"">LOUD</div><img id = ""stim"" ><div class = green_square id = ""topsquare"" ></div>",null,practice2,word_square,,prac_response,0,Top,none,true,,,,,,,
html-keyboard-response,90,302580,null,"<div style=""font-size:42px;"">LOUD</div>",null,,word,LOUD,,,,,,,,,,,,
html-keyboard-response,91,304098,null,"",null,,word,LOUD,,,,,,,,,,,,
html-keyboard-response,92,304301,null,"<div style=""font-size:42px;"">SMART</div><img id = ""stim"" ><div class = red_square id = ""topsquare"" ></div>",null,practice2,word_square,,prac_response,1,Top,32,true,,,,,,,
html-keyboard-response,93,304612,null,"<div style=""font-size:42px;"">SMART</div>",null,,word,SMART,,,,,,,,,,,,
html-keyboard-response,94,306129,42,"",32,,word,SMART,,,,,,,,,,,,
html-keyboard-response,95,306344,null,"<div style=""font-size:42px;"">SMOOTH</div><img id = ""stim"" ><div class = red_square id = ""bottomsquare"" ></div>",null,practice2,word_square,,prac_response,1,Bottom,32,true,,,,,,,
html-keyboard-response,96,306657,210,"<div style=""font-size:42px;"">SMOOTH</div>",32,,word,SMOOTH,,,,,,,,,,,,
html-keyboard-response,97,308167,null,"",null,,word,SMOOTH,,,,,,,,,,,,
html-keyboard-response,98,308369,null,"<div style=""font-size:42px;"">DISHONEST</div><img id = ""stim"" ><div class = green_square id = ""bottomsquare"" ></div>",null,practice2,word_square,DISHONEST,prac_response,0,Bottom,none,true,,,,,,,
html-keyboard-response,99,308682,null,"<div style=""font-size:42px;"">DISHONEST</div>",null,,word,DISHONEST,,,,,,,,,,,,
html-keyboard-response,100,310194,null,"",null,,word,DISHONEST,,,,,,,,,,,,
html-keyboard-response,101,310400,null,"<div style=""font-size:42px;"">WEALTHY</div><img id = ""stim"" ><div class = red_square id = ""topsquare"" ></div>",null,practice2,word_square,,prac_response,1,Top,32,true,,,,,,,
html-keyboard-response,102,310712,279,"<div style=""font-size:42px;"">WEALTHY</div>",32,,word,WEALTHY,,,,,,,,,,,,
html-keyboard-response,103,312228,null,"",null,,word,WEALTHY,,,,,,,,,,,,
html-keyboard-response,104,312429,null,"<div style=""font-size:42px;"">BEAUTIFUL</div><img id = ""stim"" ><div class = green_square id = ""topsquare"" ></div>",null,practice2,word_square,,prac_response,0,Top,none,true,,,,,,,
html-keyboard-response,105,312738,null,"<div style=""font-size:42px;"">BEAUTIFUL</div>",null,,word,BEAUTIFUL,,,,,,,,,,,,
html-keyboard-response,106,314252,null,"",null,,word,BEAUTIFUL,,,,,,,,,,,,
html-keyboard-response,107,317508,3255,"<p> Good job! You responded correctly to 100% of the trials. </p>
                    <p>Be sure to only press the spacebar if you see a red square, and please keep your accuracy above 80%.</p>
                    <p>Press any key to begin the math and recall sections. Thank you! </p>",32,,,,,,,,,,,,,,,
call-function,108,317509,,"",,,,,,,,,,,,,,,,
html-keyboard-response,109,317617,null,"",null,,,,,,,,,,,,,,,
math-period,110,324372,11641,"",,,,,,,,,,,0,,,,,
html-keyboard-response,111,324478,null,"",null,,,,,,,,,,,,,,,
math-period,112,326607,3907,"",,,,,,,,,,,4,,,,,
html-keyboard-response,113,326719,null,"",null,,,,,,,,,,,,,,,
math-period,114,329681,5312,"",,,,,,,,,,,1,,,,,
html-keyboard-response,115,329794,null,"",null,,,,,,,,,,,,,,,
math-period,116,333536,12599,"",,,,,,,,,,,0,,,,,
html-keyboard-response,117,333646,null,"",null,,,,,,,,,,,,,,,
math-period,118,336464,5350,"",,,,,,,,,,,5,,,,,
html-keyboard-response,119,336571,null,"",null,,,,,,,,,,,,,,,
math-period,120,338194,3049,"",,,,,,,,,,,4,,,,,
html-keyboard-response,121,338304,null,"",null,,,,,,,,,,,,,,,
math-period,122,339643,2416,"",,,,,,,,,,,5,,,,,
html-keyboard-response,123,339749,null,"",null,,,,,,,,,,,,,,,
math-period,124,341512,1725,"",,,,,,,,,,,undefined,,,,,
html-keyboard-response,125,342526,null,"Recall Period!",null,,,,,,,,,,,,,,,
call-function,126,342526,,"",,,,,,,,,,,,,,,,
html-keyboard-response,127,342634,null,"",null,,,,,,,,,,,,,,,
recall-period,128,346068,13864,"",,,,,,,,,,,cold,,,,,
html-keyboard-response,129,346170,null,"",null,,,,,,,,,,,,,,,
recall-period,130,347953,7745,"",,,,,,,,,,,wealthy,,,,,
html-keyboard-response,131,348069,null,"",null,,,,,,,,,,,,,,,
recall-period,132,351059,17462,"",,,,,,,,,,,beautiful,,,,,
html-keyboard-response,133,351174,null,"",null,,,,,,,,,,,,,,,
recall-period,134,352196,3792,"",,,,,,,,,,,smooth,,,,,
html-keyboard-response,135,352311,null,"",null,,,,,,,,,,,,,,,
recall-period,136,356086,15270,"",,,,,,,,,,,heavy,,,,,
html-keyboard-response,137,356197,null,"",null,,,,,,,,,,,,,,,
recall-period,138,370959,84157,"",,,,,,,,,,,happy,,,,,
html-keyboard-response,139,371071,null,"",null,,,,,,,,,,,,,,,
recall-period,140,379293,73807,"",,,,,,,,,,,dishonest,,,,,
html-keyboard-response,141,379402,null,"",null,,,,,,,,,,,,,,,
recall-period,142,417538,null,"",,,,,,,,,,,,,,,,
html-keyboard-response,143,418054,null,"Time's Up!",null,,,,,,,,,,,,,,,
html-keyboard-response,144,420580,2524,"<p>We will now begin the experiment!<p><p>Please try to remember all words from each list.<p><p>Press the spacebar whenever you see a red square.<p><p><p><p>Press the spacebar to begin.</p>",32,,,,,,,,,,,,,,,
html-keyboard-response,145,423389,2296,"<div style=""font-size:48px;"">Press any key to begin list 1 of 16 </div>",32,,,,,,,,,,,,,,,
html-keyboard-response,146,425896,null,"<div style=""font-size:60px;"">+</div>",null,,,,,,,,,,,,,,,
html-keyboard-response,147,426097,null,"<div style=""font-size:42px;"">BRACELET</div><img id = ""stim"" ><div class = red_square id = topsquare></div>",null,encoding,word_square,,,1,topsquare,32,true,,,BRACELET,0,,,
html-keyboard-response,148,426398,null,"<div style=""font-size:42px;"">BRACELET</div>",null,,word,BRACELET,,,,,,,,,,,,
html-keyboard-response,149,427907,10,"",32,,word,BRACELET,,,,,,,,,,,,
html-keyboard-response,150,428110,null,"<div style=""font-size:42px;"">PORTRAIT</div><img id = ""stim"" ><div class = green_square id = bottomsquare></div>",null,encoding,word_square,,,0,bottomsquare,none,true,,,PORTRAIT,0,,,
html-keyboard-response,151,428425,null,"<div style=""font-size:42px;"">PORTRAIT</div>",null,,word,PORTRAIT,,,,,,,,,,,,
html-keyboard-response,152,429930,null,"",null,,word,PORTRAIT,,,,,,,,,,,,
html-keyboard-response,153,430135,null,"<div style=""font-size:42px;"">LUMBER</div><img id = ""stim"" ><div class = green_square id = topsquare></div>",null,encoding,word_square,,,0,topsquare,none,true,,,LUMBER,0,,,
html-keyboard-response,154,430450,null,"<div style=""font-size:42px;"">LUMBER</div>",null,,word,LUMBER,,,,,,,,,,,,
html-keyboard-response,155,431964,null,"",null,,word,LUMBER,,,,,,,,,,,,
html-keyboard-response,156,432181,null,"<div style=""font-size:42px;"">RODENT</div><img id = ""stim"" ><div class = red_square id = bottomsquare></div>",null,encoding,word_square,,,1,bottomsquare,32,true,,,RODENT,0,,,
html-keyboard-response,157,432496,232,"<div style=""font-size:42px;"">RODENT</div>",32,,word,RODENT,,,,,,,,,,,,
html-keyboard-response,158,434006,null,"",null,,word,RODENT,,,,,,,,,,,,
html-keyboard-response,159,434209,null,"<div style=""font-size:42px;"">POSSUM</div><img id = ""stim"" ><div class = red_square id = topsquare></div>",null,encoding,word_square,,,1,topsquare,32,true,,,POSSUM,0,,,
html-keyboard-response,160,434523,null,"<div style=""font-size:42px;"">POSSUM</div>",null,,word,POSSUM,,,,,,,,,,,,
html-keyboard-response,161,436035,274,"",32,,word,POSSUM,,,,,,,,,,,,
html-keyboard-response,162,436240,null,"<div style=""font-size:42px;"">MOTHER</div><img id = ""stim"" ><div class = green_square id = bottomsquare></div>",null,encoding,word_square,,,0,bottomsquare,none,true,,,MOTHER,0,,,
html-keyboard-response,163,436553,null,"<div style=""font-size:42px;"">MOTHER</div>",null,,word,MOTHER,,,,,,,,,,,,
html-keyboard-response,164,438056,null,"",null,,word,MOTHER,,,,,,,,,,,,
html-keyboard-response,165,438262,null,"<div style=""font-size:42px;"">SPONGE</div><img id = ""stim"" ><div class = green_square id = topsquare></div>",null,encoding,word_square,,,0,topsquare,none,true,,,SPONGE,0,,,
html-keyboard-response,166,438573,null,"<div style=""font-size:42px;"">SPONGE</div>",null,,word,SPONGE,,,,,,,,,,,,
html-keyboard-response,167,440075,null,"",null,,word,SPONGE,,,,,,,,,,,,
html-keyboard-response,168,440280,null,"<div style=""font-size:42px;"">RIVER</div><img id = ""stim"" ><div class = red_square id = bottomsquare></div>",null,encoding,word_square,,,1,bottomsquare,32,true,,,RIVER,0,,,
html-keyboard-response,169,440589,null,"<div style=""font-size:42px;"">RIVER</div>",null,,word,RIVER,,,,,,,,,,,,
html-keyboard-response,170,442106,32,"",32,,word,RIVER,,,,,,,,,,,,
html-keyboard-response,171,442310,null,"<div style=""font-size:42px;"">DRAWING</div><img id = ""stim"" ><div class = red_square id = topsquare></div>",null,encoding,word_square,,,1,topsquare,32,true,,,DRAWING,0,,,
html-keyboard-response,172,442621,null,"<div style=""font-size:42px;"">DRAWING</div>",null,,word,DRAWING,,,,,,,,,,,,
html-keyboard-response,173,444122,521,"",32,,word,DRAWING,,,,,,,,,,,,
html-keyboard-response,174,444325,null,"<div style=""font-size:42px;"">COMPASS</div><img id = ""stim"" ><div class = green_square id = bottomsquare></div>",null,encoding,word_square,,,0,bottomsquare,none,true,,,COMPASS,0,,,
html-keyboard-response,175,444634,null,"<div style=""font-size:42px;"">COMPASS</div>",null,,word,COMPASS,,,,,,,,,,,,
html-keyboard-response,176,446149,null,"",null,,word,COMPASS,,,,,,,,,,,,
html-keyboard-response,177,446350,null,"<div style=""font-size:42px;"">THICKET</div><img id = ""stim"" ><div class = green_square id = topsquare></div>",null,encoding,word_square,,,0,topsquare,none,true,,,THICKET,0,,,
html-keyboard-response,178,446658,null,"<div style=""font-size:42px;"">THICKET</div>",null,,word,THICKET,,,,,,,,,,,,
html-keyboard-response,179,448161,null,"",null,,word,THICKET,,,,,,,,,,,,
html-keyboard-response,180,448362,null,"<div style=""font-size:42px;"">PANTS</div><img id = ""stim"" ><div class = red_square id = bottomsquare></div>",null,encoding,word_square,,,1,bottomsquare,32,true,,,PANTS,0,,,
html-keyboard-response,181,448673,null,"<div style=""font-size:42px;"">PANTS</div>",null,,word,PANTS,,,,,,,,,,,,
html-keyboard-response,182,450186,15,"",32,,word,PANTS,,,,,,,,,,,,
html-keyboard-response,183,450388,null,"<div style=""font-size:42px;"">LACE</div><img id = ""stim"" ><div class = green_square id = bottomsquare></div>",null,encoding,word_square,,,0,bottomsquare,none,true,,,LACE,0,,,
html-keyboard-response,184,450696,null,"<div style=""font-size:42px;"">LACE</div>",null,,word,LACE,,,,,,,,,,,,
html-keyboard-response,185,452200,null,"",null,,word,LACE,,,,,,,,,,,,
html-keyboard-response,186,452404,null,"<div style=""font-size:42px;"">FLASK</div><img id = ""stim"" ><div class = red_square id = topsquare></div>",null,encoding,word_square,,,1,topsquare,32,true,,,FLASK,0,,,
html-keyboard-response,187,452715,236,"<div style=""font-size:42px;"">FLASK</div>",32,,word,FLASK,,,,,,,,,,,,
html-keyboard-response,188,454228,null,"",null,,word,FLASK,,,,,,,,,,,,
html-keyboard-response,189,454430,null,"<div style=""font-size:42px;"">PIGEON</div><img id = ""stim"" ><div class = red_square id = bottomsquare></div>",null,encoding,word_square,,,1,bottomsquare,32,true,,,PIGEON,0,,,
html-keyboard-response,190,454743,null,"<div style=""font-size:42px;"">PIGEON</div>",null,,word,PIGEON,,,,,,,,,,,,
html-keyboard-response,191,456257,162,"",32,,word,PIGEON,,,,,,,,,,,,
html-keyboard-response,192,456472,null,"<div style=""font-size:42px;"">PERCH</div><img id = ""stim"" ><div class = green_square id = topsquare></div>",null,encoding,word_square,,,0,topsquare,none,true,,,PERCH,0,,,
html-keyboard-response,193,456786,null,"<div style=""font-size:42px;"">PERCH</div>",null,,word,PERCH,,,,,,,,,,,,
html-keyboard-response,194,458302,null,"",null,,word,PERCH,,,,,,,,,,,,
call-function,195,458302,,"",,,,,,,,,,,,,,,,
html-keyboard-response,196,458411,null,"",null,,,,,,,,,,,,,,,
math-period,197,461236,4583,"",,,,,,,,,,,5,,,,,
html-keyboard-response,198,461342,null,"",null,,,,,,,,,,,,,,,
math-period,199,464635,5749,"",,,,,,,,,,,3,,,,,
html-keyboard-response,200,464741,null,"",null,,,,,,,,,,,,,,,
math-period,201,466365,2974,"",,,,,,,,,,,4,,,,,
html-keyboard-response,202,466478,null,"",null,,,,,,,,,,,,,,,
math-period,203,467531,1956,"",,,,,,,,,,,5,,,,,
html-keyboard-response,204,467635,null,"",null,,,,,,,,,,,,,,,
math-period,205,469013,2586,"",,,,,,,,,,,3,,,,,
html-keyboard-response,206,469125,null,"",null,,,,,,,,,,,,,,,
math-period,207,470556,2697,"",,,,,,,,,,,4,,,,,
html-keyboard-response,208,470672,null,"",null,,,,,,,,,,,,,,,
math-period,209,473183,4835,"",,,,,,,,,,,2,,,,,
html-keyboard-response,210,473292,null,"",null,,,,,,,,,,,,,,,
math-period,211,475430,4100,"",,,,,,,,,,,1,,,,,
html-keyboard-response,212,475536,null,"",null,,,,,,,,,,,,,,,
math-period,213,476904,2487,"",,,,,,,,,,,4,,,,,
html-keyboard-response,214,477020,null,"",null,,,,,,,,,,,,,,,
math-period,215,478266,2329,"",,,,,,,,,,,3,,,,,
html-keyboard-response,216,478370,null,"",null,,,,,,,,,,,,,,,
math-period,217,480994,4742,"",,,,,,,,,,,0,,,,,
html-keyboard-response,218,481095,null,"",null,,,,,,,,,,,,,,,
math-period,219,482309,null,"",,,,,,,,,,,,,,,,
html-keyboard-response,220,483311,null,"Recall Period!",null,,,,,,,,,,,,,,,
call-function,221,483312,,"",,,,,,,,,,,,,,,,
html-keyboard-response,222,483422,null,"",null,,,,,,,,,,,,,,,
recall-period,223,486464,10779,"",,,,,,,,,,,lace,,,,,
html-keyboard-response,224,486576,null,"",null,,,,,,,,,,,,,,,
recall-period,225,489214,10876,"",,,,,,,,,,,pigeon,,,,,
html-keyboard-response,226,489329,null,"",null,,,,,,,,,,,,,,,
recall-period,227,558319,null,"",,,,,,,,,,,,,,,,
html-keyboard-response,228,558831,null,"Time's Up!",null,,,,,,,,,,,,,,,
html-keyboard-response,229,564232,5400,"<p> Good job! You have responded correctly to 100% of the trials. </p>
                      <p>Be sure to only press the spacebar if you see a red square, and please keep your accuracy above 80%.</p>
                      <p> Press any key to continue the experiment. </p>",32,,,,,,,,,,,,,,,
html-keyboard-response,230,571994,7761,"<div style=""font-size:48px;"">Press any key to begin list 2 of 16 </div>",32,,,,,,,,,,,,,,,
html-keyboard-response,231,574512,null,"<div style=""font-size:60px;"">+</div>",null,,,,,,,,,,,,,,,
html-keyboard-response,232,574716,null,"<div style=""font-size:42px;"">BALLOON</div><img id = ""stim"" ><div class = green_square id = topsquare></div>",null,encoding,word_square,,,0,topsquare,none,true,,,BALLOON,1,,,
html-keyboard-response,233,575030,null,"<div style=""font-size:42px;"">BALLOON</div>",null,,word,BALLOON,,,,,,,,,,,,
html-keyboard-response,234,576537,null,"",null,,word,BALLOON,,,,,,,,,,,,
html-keyboard-response,235,576753,63,"<div style=""font-size:42px;"">ROD</div><img id = ""stim"" ><div class = red_square id = bottomsquare></div>",32,encoding,word_square,,,1,bottomsquare,32,true,,,ROD,1,,,
html-keyboard-response,236,577068,117,"<div style=""font-size:42px;"">ROD</div>",32,,word,ROD,,,,,,,,,,,,
html-keyboard-response,237,578578,null,"",null,,word,ROD,,,,,,,,,,,,
html-keyboard-response,238,578781,null,"<div style=""font-size:42px;"">HAND</div><img id = ""stim"" ><div class = red_square id = topsquare></div>",null,encoding,word_square,,,1,topsquare,32,true,,,HAND,1,,,
html-keyboard-response,239,579093,null,"<div style=""font-size:42px;"">HAND</div>",null,,word,HAND,,,,,,,,,,,,
html-keyboard-response,240,580603,1383,"",32,,word,HAND,,,,,,,,,,,,
html-keyboard-response,241,580820,null,"<div style=""font-size:42px;"">JUNGLE</div><img id = ""stim"" ><div class = green_square id = bottomsquare></div>",null,encoding,word_square,,,0,bottomsquare,none,true,,,JUNGLE,1,,,
html-keyboard-response,242,581135,null,"<div style=""font-size:42px;"">JUNGLE</div>",null,,word,JUNGLE,,,,,,,,,,,,
html-keyboard-response,243,582650,null,"",null,,word,JUNGLE,,,,,,,,,,,,
html-keyboard-response,244,582863,null,"<div style=""font-size:42px;"">PRIMATE</div><img id = ""stim"" ><div class = red_square id = bottomsquare></div>",null,encoding,word_square,,,1,bottomsquare,32,true,,,PRIMATE,1,,,
html-keyboard-response,245,583178,null,"<div style=""font-size:42px;"">PRIMATE</div>",null,,word,PRIMATE,,,,,,,,,,,,
html-keyboard-response,246,584688,220,"",32,,word,PRIMATE,,,,,,,,,,,,
html-keyboard-response,247,584892,null,"<div style=""font-size:42px;"">SODA</div><img id = ""stim"" ><div class = green_square id = topsquare></div>",null,encoding,word_square,,,0,topsquare,none,true,,,SODA,1,,,
html-keyboard-response,248,585202,null,"<div style=""font-size:42px;"">SODA</div>",null,,word,SODA,,,,,,,,,,,,
html-keyboard-response,249,586717,null,"",null,,word,SODA,,,,,,,,,,,,
html-keyboard-response,250,586922,null,"<div style=""font-size:42px;"">SIRLOIN</div><img id = ""stim"" ><div class = green_square id = bottomsquare></div>",null,encoding,word_square,,,0,bottomsquare,none,false,,,SIRLOIN,1,,,
html-keyboard-response,251,587235,null,"<div style=""font-size:42px;"">SIRLOIN</div>",null,,word,SIRLOIN,,,,,,,,,,,,
html-keyboard-response,252,588747,372,"",32,,word,SIRLOIN,,,,,,,,,,,,
html-keyboard-response,253,588951,null,"<div style=""font-size:42px;"">GLASSES</div><img id = ""stim"" ><div class = red_square id = topsquare></div>",null,encoding,word_square,,,1,topsquare,32,true,,,GLASSES,1,,,
html-keyboard-response,254,589261,null,"<div style=""font-size:42px;"">GLASSES</div>",null,,word,GLASSES,,,,,,,,,,,,
html-keyboard-response,255,590774,219,"",32,,word,GLASSES,,,,,,,,,,,,
html-keyboard-response,256,590990,null,"<div style=""font-size:42px;"">ADULT</div><img id = ""stim"" ><div class = red_square id = bottomsquare></div>",null,encoding,word_square,,,1,bottomsquare,32,true,,,ADULT,1,,,
html-keyboard-response,257,591303,null,"<div style=""font-size:42px;"">ADULT</div>",null,,word,ADULT,,,,,,,,,,,,
html-keyboard-response,258,592820,1017,"",32,,word,ADULT,,,,,,,,,,,,
html-keyboard-response,259,593035,null,"<div style=""font-size:42px;"">SWATTER</div><img id = ""stim"" ><div class = green_square id = topsquare></div>",null,encoding,word_square,,,0,topsquare,none,true,,,SWATTER,1,,,
html-keyboard-response,260,593346,null,"<div style=""font-size:42px;"">SWATTER</div>",null,,word,SWATTER,,,,,,,,,,,,
html-keyboard-response,261,594861,null,"",null,,word,SWATTER,,,,,,,,,,,,
html-keyboard-response,262,595063,null,"<div style=""font-size:42px;"">ARM</div><img id = ""stim"" ><div class = green_square id = bottomsquare></div>",null,encoding,word_square,,,0,bottomsquare,none,true,,,ARM,1,,,
html-keyboard-response,263,595376,null,"<div style=""font-size:42px;"">ARM</div>",null,,word,ARM,,,,,,,,,,,,
html-keyboard-response,264,596892,null,"",null,,word,ARM,,,,,,,,,,,,
html-keyboard-response,265,597098,null,"<div style=""font-size:42px;"">COUCH</div><img id = ""stim"" ><div class = red_square id = topsquare></div>",null,encoding,word_square,,,1,topsquare,32,true,,,COUCH,1,,,
html-keyboard-response,266,597412,231,"<div style=""font-size:42px;"">COUCH</div>",32,,word,COUCH,,,,,,,,,,,,
html-keyboard-response,267,598921,null,"",null,,word,COUCH,,,,,,,,,,,,
html-keyboard-response,268,599124,null,"<div style=""font-size:42px;"">GODDESS</div><img id = ""stim"" ><div class = red_square id = bottomsquare></div>",null,encoding,word_square,,,1,bottomsquare,32,true,,,GODDESS,1,,,
html-keyboard-response,269,599436,null,"<div style=""font-size:42px;"">GODDESS</div>",null,,word,GODDESS,,,,,,,,,,,,
html-keyboard-response,270,600945,24,"",32,,word,GODDESS,,,,,,,,,,,,
html-keyboard-response,271,601146,null,"<div style=""font-size:42px;"">CREATURE</div><img id = ""stim"" ><div class = green_square id = topsquare></div>",null,encoding,word_square,,,0,topsquare,none,true,,,CREATURE,1,,,
html-keyboard-response,272,601456,null,"<div style=""font-size:42px;"">CREATURE</div>",null,,word,CREATURE,,,,,,,,,,,,
html-keyboard-response,273,602969,null,"",null,,word,CREATURE,,,,,,,,,,,,
html-keyboard-response,274,603172,null,"<div style=""font-size:42px;"">PUDDLE</div><img id = ""stim"" ><div class = green_square id = bottomsquare></div>",null,encoding,word_square,,,0,bottomsquare,none,false,,,PUDDLE,1,,,
html-keyboard-response,275,603479,null,"<div style=""font-size:42px;"">PUDDLE</div>",null,,word,PUDDLE,,,,,,,,,,,,
html-keyboard-response,276,604989,59,"",32,,word,PUDDLE,,,,,,,,,,,,
html-keyboard-response,277,605194,null,"<div style=""font-size:42px;"">SLIDE</div><img id = ""stim"" ><div class = red_square id = topsquare></div>",null,encoding,word_square,,,1,topsquare,32,true,,,SLIDE,1,,,
html-keyboard-response,278,605505,null,"<div style=""font-size:42px;"">SLIDE</div>",null,,word,SLIDE,,,,,,,,,,,,
html-keyboard-response,279,607013,76,"",32,,word,SLIDE,,,,,,,,,,,,
call-function,280,607014,,"",,,,,,,,,,,,,,,,
html-keyboard-response,281,607125,null,"",null,,,,,,,,,,,,,,,
math-period,282,611052,6814,"",,,,,,,,,,,1,,,,,
html-keyboard-response,283,611165,null,"",null,,,,,,,,,,,,,,,
math-period,284,612502,2517,"",,,,,,,,,,,4,,,,,
html-keyboard-response,285,612617,null,"",null,,,,,,,,,,,,,,,
math-period,286,613698,2039,"",,,,,,,,,,,3,,,,,
html-keyboard-response,287,613811,null,"",null,,,,,,,,,,,,,,,
math-period,288,614875,1982,"",,,,,,,,,,,3,,,,,
html-keyboard-response,289,614984,null,"",null,,,,,,,,,,,,,,,
math-period,290,617306,4510,"",,,,,,,,,,,2,,,,,
html-keyboard-response,291,617418,null,"",null,,,,,,,,,,,,,,,
math-period,292,620368,5430,"",,,,,,,,,,,0,,,,,
html-keyboard-response,293,620481,null,"",null,,,,,,,,,,,,,,,
math-period,294,622085,3083,"",,,,,,,,,,,1,,,,,
html-keyboard-response,295,622200,null,"",null,,,,,,,,,,,,,,,
math-period,296,624624,4718,"",,,,,,,,,,,2,,,,,
html-keyboard-response,297,624733,null,"",null,,,,,,,,,,,,,,,
math-period,298,626324,2947,"",,,,,,,,,,,6,,,,,
html-keyboard-response,299,626427,null,"",null,,,,,,,,,,,,,,,
math-period,300,628718,4441,"",,,,,,,,,,,2,,,,,
html-keyboard-response,301,628828,null,"",null,,,,,,,,,,,,,,,
math-period,302,630540,3274,"",,,,,,,,,,,2,,,,,
html-keyboard-response,303,630654,null,"",null,,,,,,,,,,,,,,,
math-period,304,631014,null,"",,,,,,,,,,,,,,,,
html-keyboard-response,305,632022,null,"Recall Period!",null,,,,,,,,,,,,,,,
call-function,306,632022,,"",,,,,,,,,,,,,,,,
html-keyboard-response,307,632131,null,"",null,,,,,,,,,,,,,,,
recall-period,308,636802,25574,"",,,,,,,,,,,balloon,,,,,
html-keyboard-response,309,636918,null,"",null,,,,,,,,,,,,,,,
recall-period,310,638925,7457,"",,,,,,,,,,,jungle,,,,,
html-keyboard-response,311,639036,null,"",null,,,,,,,,,,,,,,,
recall-period,312,642107,6989,"",,,,,,,,,,,soda,,,,,
html-keyboard-response,313,642222,null,"",null,,,,,,,,,,,,,,,
recall-period,314,646183,27300,"",,,,,,,,,,,creature,,,,,
html-keyboard-response,315,646290,null,"",null,,,,,,,,,,,,,,,
recall-period,316,707031,null,"",,,,,,,,,,,,,,,,
html-keyboard-response,317,707544,null,"Time's Up!",null,,,,,,,,,,,,,,,
html-keyboard-response,318,715293,7747,"<p> Good job! You have responded correctly to 94% of the trials. </p>
                      <p>Be sure to only press the spacebar if you see a red square, and please keep your accuracy above 80%.</p>
                      <p> Press any key to continue the experiment. </p>",32,,,,,,,,,,,,,,,
html-keyboard-response,319,717395,2101,"<div style=""font-size:48px;"">Press any key to begin list 3 of 16 </div>",32,,,,,,,,,,,,,,,
html-keyboard-response,320,719907,null,"<div style=""font-size:60px;"">+</div>",null,,,,,,,,,,,,,,,
html-keyboard-response,321,720112,null,"<div style=""font-size:42px;"">PUPPY</div><img id = ""stim"" ><div class = green_square id = bottomsquare></div>",null,encoding,word_square,,,0,bottomsquare,none,true,,,PUPPY,2,,,
html-keyboard-response,322,720427,null,"<div style=""font-size:42px;"">PUPPY</div>",null,,word,PUPPY,,,,,,,,,,,,
html-keyboard-response,323,721932,null,"",null,,word,PUPPY,,,,,,,,,,,,
html-keyboard-response,324,722135,null,"<div style=""font-size:42px;"">CATCHER</div><img id = ""stim"" ><div class = red_square id = topsquare></div>",null,encoding,word_square,,,1,topsquare,32,true,,,CATCHER,2,,,
html-keyboard-response,325,722439,null,"<div style=""font-size:42px;"">CATCHER</div>",null,,word,CATCHER,,,,,,,,,,,,
html-keyboard-response,326,723951,710,"",32,,word,CATCHER,,,,,,,,,,,,
html-keyboard-response,327,724166,null,"<div style=""font-size:42px;"">KNUCKLE</div><img id = ""stim"" ><div class = red_square id = bottomsquare></div>",null,encoding,word_square,,,1,bottomsquare,32,true,,,KNUCKLE,2,,,
html-keyboard-response,328,724483,null,"<div style=""font-size:42px;"">KNUCKLE</div>",null,,word,KNUCKLE,,,,,,,,,,,,
html-keyboard-response,329,725988,568,"",32,,word,KNUCKLE,,,,,,,,,,,,
html-keyboard-response,330,726193,null,"<div style=""font-size:42px;"">SENATE</div><img id = ""stim"" ><div class = green_square id = topsquare></div>",null,encoding,word_square,,,0,topsquare,none,true,,,SENATE,2,,,
html-keyboard-response,331,726510,null,"<div style=""font-size:42px;"">SENATE</div>",null,,word,SENATE,,,,,,,,,,,,
html-keyboard-response,332,728018,null,"",null,,word,SENATE,,,,,,,,,,,,
html-keyboard-response,333,728225,null,"<div style=""font-size:42px;"">EYELASH</div><img id = ""stim"" ><div class = green_square id = bottomsquare></div>",null,encoding,word_square,,,0,bottomsquare,none,false,,,EYELASH,2,,,
html-keyboard-response,334,728540,null,"<div style=""font-size:42px;"">EYELASH</div>",null,,word,EYELASH,,,,,,,,,,,,
html-keyboard-response,335,730053,273,"",32,,word,EYELASH,,,,,,,,,,,,
html-keyboard-response,336,730259,null,"<div style=""font-size:42px;"">SWAMP</div><img id = ""stim"" ><div class = red_square id = topsquare></div>",null,encoding,word_square,,,1,topsquare,32,true,,,SWAMP,2,,,
html-keyboard-response,337,730568,null,"<div style=""font-size:42px;"">SWAMP</div>",null,,word,SWAMP,,,,,,,,,,,,
html-keyboard-response,338,732079,181,"",32,,word,SWAMP,,,,,,,,,,,,
html-keyboard-response,339,732282,null,"<div style=""font-size:42px;"">BLOCKADE</div><img id = ""stim"" ><div class = red_square id = bottomsquare></div>",null,encoding,word_square,,,1,bottomsquare,32,false,,,BLOCKADE,2,,,
html-keyboard-response,340,732593,null,"<div style=""font-size:42px;"">BLOCKADE</div>",null,,word,BLOCKADE,,,,,,,,,,,,
html-keyboard-response,341,734104,null,"",null,,word,BLOCKADE,,,,,,,,,,,,
html-keyboard-response,342,734307,null,"<div style=""font-size:42px;"">CRICKET</div><img id = ""stim"" ><div class = green_square id = topsquare></div>",null,encoding,word_square,,,0,topsquare,none,true,,,CRICKET,2,,,
html-keyboard-response,343,734617,null,"<div style=""font-size:42px;"">CRICKET</div>",null,,word,CRICKET,,,,,,,,,,,,
html-keyboard-response,344,736120,null,"",null,,word,CRICKET,,,,,,,,,,,,
html-keyboard-response,345,736325,null,"<div style=""font-size:42px;"">BUTLER</div><img id = ""stim"" ><div class = green_square id = bottomsquare></div>",null,encoding,word_square,,,0,bottomsquare,none,true,,,BUTLER,2,,,
html-keyboard-response,346,736635,null,"<div style=""font-size:42px;"">BUTLER</div>",null,,word,BUTLER,,,,,,,,,,,,
html-keyboard-response,347,738142,null,"",null,,word,BUTLER,,,,,,,,,,,,
html-keyboard-response,348,738349,null,"<div style=""font-size:42px;"">PROTON</div><img id = ""stim"" ><div class = red_square id = topsquare></div>",null,encoding,word_square,,,1,topsquare,32,true,,,PROTON,2,,,
html-keyboard-response,349,738650,null,"<div style=""font-size:42px;"">PROTON</div>",null,,word,PROTON,,,,,,,,,,,,
html-keyboard-response,350,740161,58,"",32,,word,PROTON,,,,,,,,,,,,
html-keyboard-response,351,740367,null,"<div style=""font-size:42px;"">ACTOR</div><img id = ""stim"" ><div class = red_square id = bottomsquare></div>",null,encoding,word_square,,,1,bottomsquare,32,true,,,ACTOR,2,,,
html-keyboard-response,352,740679,null,"<div style=""font-size:42px;"">ACTOR</div>",null,,word,ACTOR,,,,,,,,,,,,
html-keyboard-response,353,742189,317,"",32,,word,ACTOR,,,,,,,,,,,,
html-keyboard-response,354,742404,null,"<div style=""font-size:42px;"">SAPPHIRE</div><img id = ""stim"" ><div class = green_square id = topsquare></div>",null,encoding,word_square,,,0,topsquare,none,true,,,SAPPHIRE,2,,,
html-keyboard-response,355,742712,null,"<div style=""font-size:42px;"">SAPPHIRE</div>",null,,word,SAPPHIRE,,,,,,,,,,,,
html-keyboard-response,356,744240,null,"",null,,word,SAPPHIRE,,,,,,,,,,,,
html-keyboard-response,357,744446,null,"<div style=""font-size:42px;"">STAR</div><img id = ""stim"" ><div class = red_square id = topsquare></div>",null,encoding,word_square,,,1,topsquare,32,true,,,STAR,2,,,
html-keyboard-response,358,744758,null,"<div style=""font-size:42px;"">STAR</div>",null,,word,STAR,,,,,,,,,,,,
html-keyboard-response,359,746268,646,"",32,,word,STAR,,,,,,,,,,,,
html-keyboard-response,360,746472,null,"<div style=""font-size:42px;"">COMET</div><img id = ""stim"" ><div class = green_square id = bottomsquare></div>",null,encoding,word_square,,,0,bottomsquare,none,true,,,COMET,2,,,
html-keyboard-response,361,746782,null,"<div style=""font-size:42px;"">COMET</div>",null,,word,COMET,,,,,,,,,,,,
html-keyboard-response,362,748294,null,"",null,,word,COMET,,,,,,,,,,,,
html-keyboard-response,363,748497,null,"<div style=""font-size:42px;"">BRAKE</div><img id = ""stim"" ><div class = green_square id = topsquare></div>",null,encoding,word_square,,,0,topsquare,none,true,,,BRAKE,2,,,
html-keyboard-response,364,748806,null,"<div style=""font-size:42px;"">BRAKE</div>",null,,word,BRAKE,,,,,,,,,,,,
html-keyboard-response,365,750315,null,"",null,,word,BRAKE,,,,,,,,,,,,
html-keyboard-response,366,750516,null,"<div style=""font-size:42px;"">TURNIP</div><img id = ""stim"" ><div class = red_square id = bottomsquare></div>",null,encoding,word_square,,,1,bottomsquare,32,true,,,TURNIP,2,,,
html-keyboard-response,367,750831,null,"<div style=""font-size:42px;"">TURNIP</div>",null,,word,TURNIP,,,,,,,,,,,,
html-keyboard-response,368,752336,820,"",32,,word,TURNIP,,,,,,,,,,,,
call-function,369,752337,,"",,,,,,,,,,,,,,,,
html-keyboard-response,370,752446,null,"",null,,,,,,,,,,,,,,,
math-period,371,758405,10513,"",,,,,,,,,,,5,,,,,
html-keyboard-response,372,758511,null,"",null,,,,,,,,,,,,,,,
math-period,373,759533,1895,"",,,,,,,,,,,5,,,,,
html-keyboard-response,374,759637,null,"",null,,,,,,,,,,,,,,,
math-period,375,760865,2321,"",,,,,,,,,,,4,,,,,
html-keyboard-response,376,760969,null,"",null,,,,,,,,,,,,,,,
math-period,377,762769,3467,"",,,,,,,,,,,2,,,,,
html-keyboard-response,378,762879,null,"",null,,,,,,,,,,,,,,,
math-period,379,764737,3576,"",,,,,,,,,,,1,,,,,
html-keyboard-response,380,764848,null,"",null,,,,,,,,,,,,,,,
math-period,381,766036,2265,"",,,,,,,,,,,3,,,,,
html-keyboard-response,382,766142,null,"",null,,,,,,,,,,,,,,,
math-period,383,767265,2108,"",,,,,,,,,,,5,,,,,
html-keyboard-response,384,767368,null,"",null,,,,,,,,,,,,,,,
math-period,385,769210,3533,"",,,,,,,,,,,2,,,,,
html-keyboard-response,386,769323,null,"",null,,,,,,,,,,,,,,,
math-period,387,770966,2580,"",,,,,,,,,,,4,,,,,
html-keyboard-response,388,771073,null,"",null,,,,,,,,,,,,,,,
math-period,389,772011,1735,"",,,,,,,,,,,2,,,,,
html-keyboard-response,390,772115,null,"",null,,,,,,,,,,,,,,,
math-period,391,774020,3672,"",,,,,,,,,,,2,,,,,
html-keyboard-response,392,774122,null,"",null,,,,,,,,,,,,,,,
math-period,393,775399,2405,"",,,,,,,,,,,5,,,,,
html-keyboard-response,394,775512,null,"",null,,,,,,,,,,,,,,,
math-period,395,776352,null,"",,,,,,,,,,,,,,,,
html-keyboard-response,396,777366,null,"Recall Period!",null,,,,,,,,,,,,,,,
call-function,397,777366,,"",,,,,,,,,,,,,,,,
html-keyboard-response,398,777476,null,"",null,,,,,,,,,,,,,,,
recall-period,399,785076,48651,"",,,,,,,,,,,comet,,,,,
html-keyboard-response,400,785185,null,"",null,,,,,,,,,,,,,,,
recall-period,401,789002,17697,"",,,,,,,,,,,turnip,,,,,
html-keyboard-response,402,789110,null,"",null,,,,,,,,,,,,,,,
recall-period,403,790460,5336,"",,,,,,,,,,,star,,,,,
html-keyboard-response,404,790574,null,"",null,,,,,,,,,,,,,,,
recall-period,405,793422,8873,"",,,,,,,,,,,proton,,,,,
html-keyboard-response,406,793525,null,"",null,,,,,,,,,,,,,,,
recall-period,407,795418,7485,"",,,,,,,,,,,swamp,,,,,
html-keyboard-response,408,795525,null,"",null,,,,,,,,,,,,,,,
recall-period,409,797312,5204,"",,,,,,,,,,,catch,,,,,
html-keyboard-response,410,797416,null,"",null,,,,,,,,,,,,,,,
recall-period,411,800286,8209,"",,,,,,,,,,,senate,,,,,
html-keyboard-response,412,800399,null,"",null,,,,,,,,,,,,,,,
recall-period,413,852376,null,"",,,,,,,,,,,,,,,,
html-keyboard-response,414,852889,null,"Time's Up!",null,,,,,,,,,,,,,,,
html-keyboard-response,415,856705,3813,"<p> Good job! You have responded correctly to 92% of the trials. </p>
                      <p>Be sure to only press the spacebar if you see a red square, and please keep your accuracy above 80%.</p>
                      <p> Press any key to continue the experiment. </p>",32,,,,,,,,,,,,,,,
html-keyboard-response,416,858906,2199,"<div style=""font-size:48px;"">Press any key to begin list 4 of 16 </div>",32,,,,,,,,,,,,,,,
html-keyboard-response,417,861415,null,"<div style=""font-size:60px;"">+</div>",null,,,,,,,,,,,,,,,
html-keyboard-response,418,861631,null,"<div style=""font-size:42px;"">JEANS</div><img id = ""stim"" ><div class = red_square id = bottomsquare></div>",null,encoding,word_square,,,1,bottomsquare,32,true,,,JEANS,3,,,
html-keyboard-response,419,861943,null,"<div style=""font-size:42px;"">JEANS</div>",null,,word,JEANS,,,,,,,,,,,,
html-keyboard-response,420,863460,671,"",32,,word,JEANS,,,,,,,,,,,,
html-keyboard-response,421,863661,null,"<div style=""font-size:42px;"">COOKBOOK</div><img id = ""stim"" ><div class = green_square id = topsquare></div>",null,encoding,word_square,,,0,topsquare,none,true,,,COOKBOOK,3,,,
html-keyboard-response,422,863971,null,"<div style=""font-size:42px;"">COOKBOOK</div>",null,,word,COOKBOOK,,,,,,,,,,,,
html-keyboard-response,423,865486,null,"",null,,word,COOKBOOK,,,,,,,,,,,,
html-keyboard-response,424,865702,null,"<div style=""font-size:42px;"">SCULPTURE</div><img id = ""stim"" ><div class = green_square id = bottomsquare></div>",null,encoding,word_square,,,0,bottomsquare,none,true,,,SCULPTURE,3,,,
html-keyboard-response,425,866015,null,"<div style=""font-size:42px;"">SCULPTURE</div>",null,,word,SCULPTURE,,,,,,,,,,,,
html-keyboard-response,426,867519,null,"",null,,word,SCULPTURE,,,,,,,,,,,,
html-keyboard-response,427,867722,null,"<div style=""font-size:42px;"">PITCHFORK</div><img id = ""stim"" ><div class = red_square id = topsquare></div>",null,encoding,word_square,,,1,topsquare,32,true,,,PITCHFORK,3,,,
html-keyboard-response,428,868033,null,"<div style=""font-size:42px;"">PITCHFORK</div>",null,,word,PITCHFORK,,,,,,,,,,,,
html-keyboard-response,429,869539,100,"",32,,word,PITCHFORK,,,,,,,,,,,,
html-keyboard-response,430,869755,null,"<div style=""font-size:42px;"">HAWK</div><img id = ""stim"" ><div class = green_square id = topsquare></div>",null,encoding,word_square,,,0,topsquare,none,true,,,HAWK,3,,,
html-keyboard-response,431,870066,null,"<div style=""font-size:42px;"">HAWK</div>",null,,word,HAWK,,,,,,,,,,,,
html-keyboard-response,432,871579,null,"",null,,word,HAWK,,,,,,,,,,,,
html-keyboard-response,433,871784,null,"<div style=""font-size:42px;"">SOFTBALL</div><img id = ""stim"" ><div class = red_square id = bottomsquare></div>",null,encoding,word_square,,,1,bottomsquare,32,true,,,SOFTBALL,3,,,
html-keyboard-response,434,872097,null,"<div style=""font-size:42px;"">SOFTBALL</div>",null,,word,SOFTBALL,,,,,,,,,,,,
html-keyboard-response,435,873611,204,"",32,,word,SOFTBALL,,,,,,,,,,,,
html-keyboard-response,436,873813,null,"<div style=""font-size:42px;"">KLEENEX</div><img id = ""stim"" ><div class = red_square id = topsquare></div>",null,encoding,word_square,,,1,topsquare,32,false,,,KLEENEX,3,,,
html-keyboard-response,437,874122,null,"<div style=""font-size:42px;"">KLEENEX</div>",null,,word,KLEENEX,,,,,,,,,,,,
html-keyboard-response,438,875633,null,"",null,,word,KLEENEX,,,,,,,,,,,,
html-keyboard-response,439,875834,null,"<div style=""font-size:42px;"">POISON</div><img id = ""stim"" ><div class = green_square id = bottomsquare></div>",null,encoding,word_square,,,0,bottomsquare,none,true,,,POISON,3,,,
html-keyboard-response,440,876148,null,"<div style=""font-size:42px;"">POISON</div>",null,,word,POISON,,,,,,,,,,,,
html-keyboard-response,441,877661,null,"",null,,word,POISON,,,,,,,,,,,,
html-keyboard-response,442,877862,null,"<div style=""font-size:42px;"">RATTLE</div><img id = ""stim"" ><div class = green_square id = topsquare></div>",null,encoding,word_square,,,0,topsquare,none,true,,,RATTLE,3,,,
html-keyboard-response,443,878177,null,"<div style=""font-size:42px;"">RATTLE</div>",null,,word,RATTLE,,,,,,,,,,,,
html-keyboard-response,444,879684,null,"",null,,word,RATTLE,,,,,,,,,,,,
html-keyboard-response,445,879886,null,"<div style=""font-size:42px;"">CARTON</div><img id = ""stim"" ><div class = red_square id = bottomsquare></div>",null,encoding,word_square,,,1,bottomsquare,32,true,,,CARTON,3,,,
html-keyboard-response,446,880200,null,"<div style=""font-size:42px;"">CARTON</div>",null,,word,CARTON,,,,,,,,,,,,
html-keyboard-response,447,881714,317,"",32,,word,CARTON,,,,,,,,,,,,
html-keyboard-response,448,881917,null,"<div style=""font-size:42px;"">HAYSTACK</div><img id = ""stim"" ><div class = red_square id = topsquare></div>",null,encoding,word_square,,,1,topsquare,32,false,,,HAYSTACK,3,,,
html-keyboard-response,449,882232,null,"<div style=""font-size:42px;"">HAYSTACK</div>",null,,word,HAYSTACK,,,,,,,,,,,,
html-keyboard-response,450,883748,null,"",null,,word,HAYSTACK,,,,,,,,,,,,
html-keyboard-response,451,883951,null,"<div style=""font-size:42px;"">TEACHER</div><img id = ""stim"" ><div class = green_square id = bottomsquare></div>",null,encoding,word_square,,,0,bottomsquare,none,true,,,TEACHER,3,,,
html-keyboard-response,452,884262,null,"<div style=""font-size:42px;"">TEACHER</div>",null,,word,TEACHER,,,,,,,,,,,,
html-keyboard-response,453,885773,null,"",null,,word,TEACHER,,,,,,,,,,,,
html-keyboard-response,454,885988,null,"<div style=""font-size:42px;"">STUDENT</div><img id = ""stim"" ><div class = green_square id = topsquare></div>",null,encoding,word_square,,,0,topsquare,none,true,,,STUDENT,3,,,
html-keyboard-response,455,886290,null,"<div style=""font-size:42px;"">STUDENT</div>",null,,word,STUDENT,,,,,,,,,,,,
html-keyboard-response,456,887798,null,"",null,,word,STUDENT,,,,,,,,,,,,
html-keyboard-response,457,888002,null,"<div style=""font-size:42px;"">SERVER</div><img id = ""stim"" ><div class = red_square id = bottomsquare></div>",null,encoding,word_square,,,1,bottomsquare,32,true,,,SERVER,3,,,
html-keyboard-response,458,888317,null,"<div style=""font-size:42px;"">SERVER</div>",null,,word,SERVER,,,,,,,,,,,,
html-keyboard-response,459,889826,30,"",32,,word,SERVER,,,,,,,,,,,,
html-keyboard-response,460,890043,null,"<div style=""font-size:42px;"">MAJOR</div><img id = ""stim"" ><div class = red_square id = topsquare></div>",null,encoding,word_square,,,1,topsquare,32,true,,,MAJOR,3,,,
html-keyboard-response,461,890351,null,"<div style=""font-size:42px;"">MAJOR</div>",null,,word,MAJOR,,,,,,,,,,,,
html-keyboard-response,462,891853,256,"",32,,word,MAJOR,,,,,,,,,,,,
html-keyboard-response,463,892069,null,"<div style=""font-size:42px;"">SAND</div><img id = ""stim"" ><div class = green_square id = bottomsquare></div>",null,encoding,word_square,,,0,bottomsquare,none,true,,,SAND,3,,,
html-keyboard-response,464,892382,null,"<div style=""font-size:42px;"">SAND</div>",null,,word,SAND,,,,,,,,,,,,
html-keyboard-response,465,893890,null,"",null,,word,SAND,,,,,,,,,,,,
call-function,466,893891,,"",,,,,,,,,,,,,,,,
html-keyboard-response,467,894001,null,"",null,,,,,,,,,,,,,,,
math-period,468,900656,11467,"",,,,,,,,,,,3 ,,,,,
html-keyboard-response,469,900772,null,"",null,,,,,,,,,,,,,,,
math-period,470,905507,7984,"",,,,,,,,,,,2,,,,,
html-keyboard-response,471,905610,null,"",null,,,,,,,,,,,,,,,
math-period,472,907871,4376,"",,,,,,,,,,,4,,,,,
html-keyboard-response,473,907977,null,"",null,,,,,,,,,,,,,,,
math-period,474,908837,1613,"",,,,,,,,,,,3,,,,,
html-keyboard-response,475,908945,null,"",null,,,,,,,,,,,,,,,
math-period,476,910558,3032,"",,,,,,,,,,,3,,,,,
html-keyboard-response,477,910661,null,"",null,,,,,,,,,,,,,,,
math-period,478,912508,3281,"",,,,,,,,,,,4,,,,,
html-keyboard-response,479,912621,null,"",null,,,,,,,,,,,,,,,
math-period,480,915311,5216,"",,,,,,,,,,,1,,,,,
html-keyboard-response,481,915424,null,"",null,,,,,,,,,,,,,,,
math-period,482,916544,2104,"",,,,,,,,,,,3,,,,,
html-keyboard-response,483,916656,null,"",null,,,,,,,,,,,,,,,
math-period,484,917718,1981,"",,,,,,,,,,,4,,,,,
html-keyboard-response,485,917831,null,"",null,,,,,,,,,,,,,,,
math-period,486,917893,null,"",,,,,,,,,,,,,,,,
html-keyboard-response,487,918911,null,"Recall Period!",null,,,,,,,,,,,,,,,
call-function,488,918912,,"",,,,,,,,,,,,,,,,
html-keyboard-response,489,919017,null,"",null,,,,,,,,,,,,,,,
recall-period,490,925388,25185,"",,,,,,,,,,,jean,,,,,
html-keyboard-response,491,925492,null,"",null,,,,,,,,,,,,,,,
recall-period,492,928256,13298,"",,,,,,,,,,,sculpture,,,,,
html-keyboard-response,493,928357,null,"",null,,,,,,,,,,,,,,,
recall-period,494,930249,9501,"",,,,,,,,,,,softball,,,,,
html-keyboard-response,495,930356,null,"",null,,,,,,,,,,,,,,,
recall-period,496,932277,5044,"",,,,,,,,,,,carton,,,,,
html-keyboard-response,497,932383,null,"",null,,,,,,,,,,,,,,,
recall-period,498,935288,14769,"",,,,,,,,,,,student,,,,,
html-keyboard-response,499,935395,null,"",null,,,,,,,,,,,,,,,
recall-period,500,937389,7170,"",,,,,,,,,,,teacher,,,,,
html-keyboard-response,501,937498,null,"",null,,,,,,,,,,,,,,,
recall-period,502,938853,5077,"",,,,,,,,,,,major,,,,,
html-keyboard-response,503,938956,null,"",null,,,,,,,,,,,,,,,
recall-period,504,993926,null,"",,,,,,,,,,,,,,,,
html-keyboard-response,505,994441,null,"Time's Up!",null,,,,,,,,,,,,,,,
html-keyboard-response,506,999972,5530,"<p> Good job! You have responded correctly to 91% of the trials. </p>
                      <p>Be sure to only press the spacebar if you see a red square, and please keep your accuracy above 80%.</p>
                      <p> Press any key to continue the experiment. </p>",32,,,,,,,,,,,,,,,
html-keyboard-response,507,1001502,1528,"<div style=""font-size:48px;"">Press any key to begin list 5 of 16 </div>",32,,,,,,,,,,,,,,,
html-keyboard-response,508,1004022,null,"<div style=""font-size:60px;"">+</div>",null,,,,,,,,,,,,,,,
html-keyboard-response,509,1004237,null,"<div style=""font-size:42px;"">BLUEJAY</div><img id = ""stim"" ><div class = red_square id = topsquare></div>",null,encoding,word_square,,,1,topsquare,32,true,,,BLUEJAY,4,,,
html-keyboard-response,510,1004551,null,"<div style=""font-size:42px;"">BLUEJAY</div>",null,,word,BLUEJAY,,,,,,,,,,,,
html-keyboard-response,511,1006063,670,"",32,,word,BLUEJAY,,,,,,,,,,,,
html-keyboard-response,512,1006280,null,"<div style=""font-size:42px;"">LODGE</div><img id = ""stim"" ><div class = green_square id = bottomsquare></div>",null,encoding,word_square,,,0,bottomsquare,none,true,,,LODGE,4,,,
html-keyboard-response,513,1006593,null,"<div style=""font-size:42px;"">LODGE</div>",null,,word,LODGE,,,,,,,,,,,,
html-keyboard-response,514,1008101,null,"",null,,word,LODGE,,,,,,,,,,,,
html-keyboard-response,515,1008304,null,"<div style=""font-size:42px;"">CABIN</div><img id = ""stim"" ><div class = green_square id = topsquare></div>",null,encoding,word_square,,,0,topsquare,none,true,,,CABIN,4,,,
html-keyboard-response,516,1008621,null,"<div style=""font-size:42px;"">CABIN</div>",null,,word,CABIN,,,,,,,,,,,,
html-keyboard-response,517,1010135,null,"",null,,word,CABIN,,,,,,,,,,,,
html-keyboard-response,518,1010338,null,"<div style=""font-size:42px;"">TOASTER</div><img id = ""stim"" ><div class = red_square id = bottomsquare></div>",null,encoding,word_square,,,1,bottomsquare,32,true,,,TOASTER,4,,,
html-keyboard-response,519,1010653,null,"<div style=""font-size:42px;"">TOASTER</div>",null,,word,TOASTER,,,,,,,,,,,,
html-keyboard-response,520,1012166,136,"",32,,word,TOASTER,,,,,,,,,,,,
html-keyboard-response,521,1012369,null,"<div style=""font-size:42px;"">GARLIC</div><img id = ""stim"" ><div class = green_square id = bottomsquare></div>",null,encoding,word_square,,,0,bottomsquare,none,true,,,GARLIC,4,,,
html-keyboard-response,522,1012683,null,"<div style=""font-size:42px;"">GARLIC</div>",null,,word,GARLIC,,,,,,,,,,,,
html-keyboard-response,523,1014188,null,"",null,,word,GARLIC,,,,,,,,,,,,
html-keyboard-response,524,1014405,null,"<div style=""font-size:42px;"">FLIPPER</div><img id = ""stim"" ><div class = red_square id = topsquare></div>",null,encoding,word_square,,,1,topsquare,32,true,,,FLIPPER,4,,,
html-keyboard-response,525,1014718,null,"<div style=""font-size:42px;"">FLIPPER</div>",null,,word,FLIPPER,,,,,,,,,,,,
html-keyboard-response,526,1016233,265,"",32,,word,FLIPPER,,,,,,,,,,,,
html-keyboard-response,527,1016449,null,"<div style=""font-size:42px;"">MAMMAL</div><img id = ""stim"" ><div class = green_square id = topsquare></div>",null,encoding,word_square,,,0,topsquare,none,true,,,MAMMAL,4,,,
html-keyboard-response,528,1016766,null,"<div style=""font-size:42px;"">MAMMAL</div>",null,,word,MAMMAL,,,,,,,,,,,,
html-keyboard-response,529,1018274,null,"",null,,word,MAMMAL,,,,,,,,,,,,
html-keyboard-response,530,1018478,null,"<div style=""font-size:42px;"">FLUTE</div><img id = ""stim"" ><div class = green_square id = bottomsquare></div>",null,encoding,word_square,,,0,bottomsquare,none,true,,,FLUTE,4,,,
html-keyboard-response,531,1018794,null,"<div style=""font-size:42px;"">FLUTE</div>",null,,word,FLUTE,,,,,,,,,,,,
html-keyboard-response,532,1020304,null,"",null,,word,FLUTE,,,,,,,,,,,,
html-keyboard-response,533,1020508,null,"<div style=""font-size:42px;"">SCARECROW</div><img id = ""stim"" ><div class = red_square id = bottomsquare></div>",null,encoding,word_square,,,1,bottomsquare,32,true,,,SCARECROW,4,,,
html-keyboard-response,534,1020825,null,"<div style=""font-size:42px;"">SCARECROW</div>",null,,word,SCARECROW,,,,,,,,,,,,
html-keyboard-response,535,1022335,451,"",32,,word,SCARECROW,,,,,,,,,,,,
html-keyboard-response,536,1022540,null,"<div style=""font-size:42px;"">SQUID</div><img id = ""stim"" ><div class = green_square id = topsquare></div>",null,encoding,word_square,,,0,topsquare,none,true,,,SQUID,4,,,
html-keyboard-response,537,1022841,null,"<div style=""font-size:42px;"">SQUID</div>",null,,word,SQUID,,,,,,,,,,,,
html-keyboard-response,538,1024356,null,"",null,,word,SQUID,,,,,,,,,,,,
html-keyboard-response,539,1024560,null,"<div style=""font-size:42px;"">CLERK</div><img id = ""stim"" ><div class = red_square id = topsquare></div>",null,encoding,word_square,,,1,topsquare,32,true,,,CLERK,4,,,
html-keyboard-response,540,1024869,null,"<div style=""font-size:42px;"">CLERK</div>",null,,word,CLERK,,,,,,,,,,,,
html-keyboard-response,541,1026381,89,"",32,,word,CLERK,,,,,,,,,,,,
html-keyboard-response,542,1026587,null,"<div style=""font-size:42px;"">SHAMPOO</div><img id = ""stim"" ><div class = red_square id = bottomsquare></div>",null,encoding,word_square,,,1,bottomsquare,32,true,,,SHAMPOO,4,,,
html-keyboard-response,543,1026895,null,"<div style=""font-size:42px;"">SHAMPOO</div>",null,,word,SHAMPOO,,,,,,,,,,,,
html-keyboard-response,544,1028409,1035,"",32,,word,SHAMPOO,,,,,,,,,,,,
html-keyboard-response,545,1028614,null,"<div style=""font-size:42px;"">YOLK</div><img id = ""stim"" ><div class = red_square id = topsquare></div>",null,encoding,word_square,,,1,topsquare,32,false,,,YOLK,4,,,
html-keyboard-response,546,1028924,null,"<div style=""font-size:42px;"">YOLK</div>",null,,word,YOLK,,,,,,,,,,,,
html-keyboard-response,547,1030439,null,"",null,,word,YOLK,,,,,,,,,,,,
html-keyboard-response,548,1030641,null,"<div style=""font-size:42px;"">CUPBOARD</div><img id = ""stim"" ><div class = red_square id = bottomsquare></div>",null,encoding,word_square,,,1,bottomsquare,32,true,,,CUPBOARD,4,,,
html-keyboard-response,549,1030956,null,"<div style=""font-size:42px;"">CUPBOARD</div>",null,,word,CUPBOARD,,,,,,,,,,,,
html-keyboard-response,550,1032471,391,"",32,,word,CUPBOARD,,,,,,,,,,,,
html-keyboard-response,551,1032674,null,"<div style=""font-size:42px;"">SHIRT</div><img id = ""stim"" ><div class = green_square id = bottomsquare></div>",null,encoding,word_square,,,0,bottomsquare,none,true,,,SHIRT,4,,,
html-keyboard-response,552,1032984,null,"<div style=""font-size:42px;"">SHIRT</div>",null,,word,SHIRT,,,,,,,,,,,,
html-keyboard-response,553,1034486,null,"",null,,word,SHIRT,,,,,,,,,,,,
html-keyboard-response,554,1034691,null,"<div style=""font-size:42px;"">YACHT</div><img id = ""stim"" ><div class = green_square id = topsquare></div>",null,encoding,word_square,,,0,topsquare,none,true,,,YACHT,4,,,
html-keyboard-response,555,1034998,null,"<div style=""font-size:42px;"">YACHT</div>",null,,word,YACHT,,,,,,,,,,,,
html-keyboard-response,556,1036515,null,"",null,,word,YACHT,,,,,,,,,,,,
call-function,557,1036517,,"",,,,,,,,,,,,,,,,
html-keyboard-response,558,1036624,null,"",null,,,,,,,,,,,,,,,
math-period,559,1040871,7545,"",,,,,,,,,,,5,,,,,
html-keyboard-response,560,1040974,null,"",null,,,,,,,,,,,,,,,
math-period,561,1042232,2267,"",,,,,,,,,,,4,,,,,
html-keyboard-response,562,1042348,null,"",null,,,,,,,,,,,,,,,
math-period,563,1044433,4036,"",,,,,,,,,,,1,,,,,
html-keyboard-response,564,1044538,null,"",null,,,,,,,,,,,,,,,
math-period,565,1047803,6187,"",,,,,,,,,,,4,,,,,
html-keyboard-response,566,1047919,null,"",null,,,,,,,,,,,,,,,
math-period,567,1048944,1921,"",,,,,,,,,,,3,,,,,
html-keyboard-response,568,1049047,null,"",null,,,,,,,,,,,,,,,
math-period,569,1049934,1659,"",,,,,,,,,,,3,,,,,
html-keyboard-response,570,1050039,null,"",null,,,,,,,,,,,,,,,
math-period,571,1051922,3632,"",,,,,,,,,,,1,,,,,
html-keyboard-response,572,1052037,null,"",null,,,,,,,,,,,,,,,
math-period,573,1059464,82084,"",,,,,,,,,,,0,,,,,
html-keyboard-response,574,1059580,null,"",null,,,,,,,,,,,,,,,
math-period,575,1060519,921,"",,,,,,,,,,,4,,,,,
html-keyboard-response,576,1061522,null,"Recall Period!",null,,,,,,,,,,,,,,,
call-function,577,1061522,,"",,,,,,,,,,,,,,,,
html-keyboard-response,578,1061630,null,"",null,,,,,,,,,,,,,,,
recall-period,579,1064984,11330,"",,,,,,,,,,,yacht,,,,,
html-keyboard-response,580,1065098,null,"",null,,,,,,,,,,,,,,,
recall-period,581,1066996,5901,"",,,,,,,,,,,clerk,,,,,
html-keyboard-response,582,1067101,null,"",null,,,,,,,,,,,,,,,
recall-period,583,1069594,6255,"",,,,,,,,,,,yolk,,,,,
html-keyboard-response,584,1069708,null,"",null,,,,,,,,,,,,,,,
recall-period,585,1072500,11939,"",,,,,,,,,,,bluejay,,,,,
html-keyboard-response,586,1072617,null,"",null,,,,,,,,,,,,,,,
recall-period,587,1073640,3502,"",,,,,,,,,,,cabin,,,,,
html-keyboard-response,588,1073753,null,"",null,,,,,,,,,,,,,,,
recall-period,589,1075362,7083,"",,,,,,,,,,,garlic,,,,,
html-keyboard-response,590,1075466,null,"",null,,,,,,,,,,,,,,,
recall-period,591,1077745,5616,"",,,,,,,,,,,squid,,,,,
html-keyboard-response,592,1077855,null,"",null,,,,,,,,,,,,,,,
recall-period,593,1080929,9627,"",,,,,,,,,,,mammal,,,,,
html-keyboard-response,594,1081045,null,"",null,,,,,,,,,,,,,,,
recall-period,595,1136532,null,"",,,,,,,,,,,,,,,,
html-keyboard-response,596,1137043,null,"Time's Up!",null,,,,,,,,,,,,,,,
html-keyboard-response,597,1141165,4121,"<p> Good job! You have responded correctly to 91% of the trials. </p>
                      <p>Be sure to only press the spacebar if you see a red square, and please keep your accuracy above 80%.</p>
                      <p> Press any key to continue the experiment. </p>",32,,,,,,,,,,,,,,,
html-keyboard-response,598,1142766,1599,"<div style=""font-size:48px;"">Press any key to begin list 6 of 16 </div>",32,,,,,,,,,,,,,,,
html-keyboard-response,599,1145291,null,"<div style=""font-size:60px;"">+</div>",null,,,,,,,,,,,,,,,
html-keyboard-response,600,1145494,null,"<div style=""font-size:42px;"">TOILET</div><img id = ""stim"" ><div class = green_square id = topsquare></div>",null,encoding,word_square,,,0,topsquare,none,true,,,TOILET,5,,,
html-keyboard-response,601,1145806,null,"<div style=""font-size:42px;"">TOILET</div>",null,,word,TOILET,,,,,,,,,,,,
html-keyboard-response,602,1147322,null,"",null,,word,TOILET,,,,,,,,,,,,
html-keyboard-response,603,1147539,null,"<div style=""font-size:42px;"">SPOOL</div><img id = ""stim"" ><div class = green_square id = bottomsquare></div>",null,encoding,word_square,,,0,bottomsquare,none,true,,,SPOOL,5,,,
html-keyboard-response,604,1147853,null,"<div style=""font-size:42px;"">SPOOL</div>",null,,word,SPOOL,,,,,,,,,,,,
html-keyboard-response,605,1149358,null,"",null,,word,SPOOL,,,,,,,,,,,,
html-keyboard-response,606,1149576,null,"<div style=""font-size:42px;"">MARKER</div><img id = ""stim"" ><div class = red_square id = bottomsquare></div>",null,encoding,word_square,,,1,bottomsquare,32,true,,,MARKER,5,,,
html-keyboard-response,607,1149892,null,"<div style=""font-size:42px;"">MARKER</div>",null,,word,MARKER,,,,,,,,,,,,
html-keyboard-response,608,1151398,441,"",32,,word,MARKER,,,,,,,,,,,,
html-keyboard-response,609,1151600,null,"<div style=""font-size:42px;"">CATTLE</div><img id = ""stim"" ><div class = red_square id = topsquare></div>",null,encoding,word_square,,,1,topsquare,32,false,,,CATTLE,5,,,
html-keyboard-response,610,1151913,null,"<div style=""font-size:42px;"">CATTLE</div>",null,,word,CATTLE,,,,,,,,,,,,
html-keyboard-response,611,1153424,null,"",null,,word,CATTLE,,,,,,,,,,,,
html-keyboard-response,612,1153625,null,"<div style=""font-size:42px;"">SPOON</div><img id = ""stim"" ><div class = red_square id = bottomsquare></div>",null,encoding,word_square,,,1,bottomsquare,32,true,,,SPOON,5,,,
html-keyboard-response,613,1153939,null,"<div style=""font-size:42px;"">SPOON</div>",null,,word,SPOON,,,,,,,,,,,,
html-keyboard-response,614,1155446,769,"",32,,word,SPOON,,,,,,,,,,,,
html-keyboard-response,615,1155653,null,"<div style=""font-size:42px;"">LASER</div><img id = ""stim"" ><div class = red_square id = topsquare></div>",null,encoding,word_square,,,1,topsquare,32,false,,,LASER,5,,,
html-keyboard-response,616,1155966,null,"<div style=""font-size:42px;"">LASER</div>",null,,word,LASER,,,,,,,,,,,,
html-keyboard-response,617,1157474,null,"",null,,word,LASER,,,,,,,,,,,,
html-keyboard-response,618,1157677,null,"<div style=""font-size:42px;"">ICEBERG</div><img id = ""stim"" ><div class = green_square id = topsquare></div>",null,encoding,word_square,,,0,topsquare,none,true,,,ICEBERG,5,,,
html-keyboard-response,619,1157989,null,"<div style=""font-size:42px;"">ICEBERG</div>",null,,word,ICEBERG,,,,,,,,,,,,
html-keyboard-response,620,1159505,null,"",null,,word,ICEBERG,,,,,,,,,,,,
html-keyboard-response,621,1159710,null,"<div style=""font-size:42px;"">SCARF</div><img id = ""stim"" ><div class = red_square id = bottomsquare></div>",null,encoding,word_square,,,1,bottomsquare,32,true,,,SCARF,5,,,
html-keyboard-response,622,1160020,null,"<div style=""font-size:42px;"">SCARF</div>",null,,word,SCARF,,,,,,,,,,,,
html-keyboard-response,623,1161531,100,"",32,,word,SCARF,,,,,,,,,,,,
html-keyboard-response,624,1161735,null,"<div style=""font-size:42px;"">JAR</div><img id = ""stim"" ><div class = green_square id = bottomsquare></div>",null,encoding,word_square,,,0,bottomsquare,none,true,,,JAR,5,,,
html-keyboard-response,625,1162051,null,"<div style=""font-size:42px;"">JAR</div>",null,,word,JAR,,,,,,,,,,,,
html-keyboard-response,626,1163564,null,"",null,,word,JAR,,,,,,,,,,,,
html-keyboard-response,627,1163767,null,"<div style=""font-size:42px;"">BRIDE</div><img id = ""stim"" ><div class = green_square id = topsquare></div>",null,encoding,word_square,,,0,topsquare,none,true,,,BRIDE,5,,,
html-keyboard-response,628,1164079,null,"<div style=""font-size:42px;"">BRIDE</div>",null,,word,BRIDE,,,,,,,,,,,,
html-keyboard-response,629,1165586,null,"",null,,word,BRIDE,,,,,,,,,,,,
html-keyboard-response,630,1165794,null,"<div style=""font-size:42px;"">PIRATE</div><img id = ""stim"" ><div class = red_square id = topsquare></div>",null,encoding,word_square,,,1,topsquare,32,true,,,PIRATE,5,,,
html-keyboard-response,631,1166105,null,"<div style=""font-size:42px;"">PIRATE</div>",null,,word,PIRATE,,,,,,,,,,,,
html-keyboard-response,632,1167613,220,"",32,,word,PIRATE,,,,,,,,,,,,
html-keyboard-response,633,1167815,null,"<div style=""font-size:42px;"">WASHER</div><img id = ""stim"" ><div class = green_square id = bottomsquare></div>",null,encoding,word_square,,,0,bottomsquare,none,true,,,WASHER,5,,,
html-keyboard-response,634,1168117,null,"<div style=""font-size:42px;"">WASHER</div>",null,,word,WASHER,,,,,,,,,,,,
html-keyboard-response,635,1169634,null,"",null,,word,WASHER,,,,,,,,,,,,
html-keyboard-response,636,1169838,null,"<div style=""font-size:42px;"">CANDY</div><img id = ""stim"" ><div class = red_square id = bottomsquare></div>",null,encoding,word_square,,,1,bottomsquare,32,false,,,CANDY,5,,,
html-keyboard-response,637,1170151,null,"<div style=""font-size:42px;"">CANDY</div>",null,,word,CANDY,,,,,,,,,,,,
html-keyboard-response,638,1171663,null,"",null,,word,CANDY,,,,,,,,,,,,
html-keyboard-response,639,1171866,84,"<div style=""font-size:42px;"">MATCH</div><img id = ""stim"" ><div class = green_square id = topsquare></div>",32,encoding,word_square,,,0,topsquare,none,false,,,MATCH,5,,,
html-keyboard-response,640,1172175,null,"<div style=""font-size:42px;"">MATCH</div>",null,,word,MATCH,,,,,,,,,,,,
html-keyboard-response,641,1173689,null,"",null,,word,MATCH,,,,,,,,,,,,
html-keyboard-response,642,1173905,null,"<div style=""font-size:42px;"">SPRINKLE</div><img id = ""stim"" ><div class = green_square id = bottomsquare></div>",null,encoding,word_square,,,0,bottomsquare,none,true,,,SPRINKLE,5,,,
html-keyboard-response,643,1174218,null,"<div style=""font-size:42px;"">SPRINKLE</div>",null,,word,SPRINKLE,,,,,,,,,,,,
html-keyboard-response,644,1175732,null,"",null,,word,SPRINKLE,,,,,,,,,,,,
html-keyboard-response,645,1175935,null,"<div style=""font-size:42px;"">APRON</div><img id = ""stim"" ><div class = red_square id = topsquare></div>",null,encoding,word_square,,,1,topsquare,32,true,,,APRON,5,,,
html-keyboard-response,646,1176245,null,"<div style=""font-size:42px;"">APRON</div>",null,,word,APRON,,,,,,,,,,,,
html-keyboard-response,647,1177757,107,"",32,,word,APRON,,,,,,,,,,,,
call-function,648,1177759,,"",,,,,,,,,,,,,,,,
html-keyboard-response,649,1177870,null,"",null,,,,,,,,,,,,,,,
math-period,650,1181244,5989,"",,,,,,,,,,,4,,,,,
html-keyboard-response,651,1181361,null,"",null,,,,,,,,,,,,,,,
math-period,652,1183604,3795,"",,,,,,,,,,,4,,,,,
html-keyboard-response,653,1183716,null,"",null,,,,,,,,,,,,,,,
math-period,654,1185812,4012,"",,,,,,,,,,,2,,,,,
html-keyboard-response,655,1185914,null,"",null,,,,,,,,,,,,,,,
math-period,656,1188870,8970,"",,,,,,,,,,,2,,,,,
html-keyboard-response,657,1188972,null,"",null,,,,,,,,,,,,,,,
math-period,658,1190779,3064,"",,,,,,,,,,,6,,,,,
html-keyboard-response,659,1190892,null,"",null,,,,,,,,,,,,,,,
math-period,660,1192103,2267,"",,,,,,,,,,,5,,,,,
html-keyboard-response,661,1192208,null,"",null,,,,,,,,,,,,,,,
math-period,662,1194031,5255,"",,,,,,,,,,,4,,,,,
html-keyboard-response,663,1194138,null,"",null,,,,,,,,,,,,,,,
math-period,664,1195087,1766,"",,,,,,,,,,,3,,,,,
html-keyboard-response,665,1195199,null,"",null,,,,,,,,,,,,,,,
math-period,666,1196086,1658,"",,,,,,,,,,,4,,,,,
html-keyboard-response,667,1196198,null,"",null,,,,,,,,,,,,,,,
math-period,668,1197122,1705,"",,,,,,,,,,,3,,,,,
html-keyboard-response,669,1197229,null,"",null,,,,,,,,,,,,,,,
math-period,670,1198372,2114,"",,,,,,,,,,,5,,,,,
html-keyboard-response,671,1198475,null,"",null,,,,,,,,,,,,,,,
math-period,672,1200719,3736,"",,,,,,,,,,,2,,,,,
html-keyboard-response,673,1200829,null,"",null,,,,,,,,,,,,,,,
math-period,674,1201771,null,"",,,,,,,,,,,,,,,,
html-keyboard-response,675,1202772,null,"Recall Period!",null,,,,,,,,,,,,,,,
call-function,676,1202773,,"",,,,,,,,,,,,,,,,
html-keyboard-response,677,1202882,null,"",null,,,,,,,,,,,,,,,
recall-period,678,1208809,32153,"",,,,,,,,,,,candy,,,,,
html-keyboard-response,679,1208922,null,"",null,,,,,,,,,,,,,,,
recall-period,680,1210708,7331,"",,,,,,,,,,,apron,,,,,
html-keyboard-response,681,1210824,null,"",null,,,,,,,,,,,,,,,
recall-period,682,1218329,31523,"",,,,,,,,,,,spoon,,,,,
html-keyboard-response,683,1218445,null,"",null,,,,,,,,,,,,,,,
recall-period,684,1221217,11817,"",,,,,,,,,,,marker,,,,,
html-keyboard-response,685,1221327,null,"",null,,,,,,,,,,,,,,,
recall-period,686,1230731,131289,"",,,,,,,,,,,laser,,,,,
html-keyboard-response,687,1230846,null,"",null,,,,,,,,,,,,,,,
recall-period,688,1235142,17654,"",,,,,,,,,,,scarf,,,,,
html-keyboard-response,689,1235254,null,"",null,,,,,,,,,,,,,,,
recall-period,690,1236433,5190,"",,,,,,,,,,,pirate,,,,,
html-keyboard-response,691,1236539,null,"",null,,,,,,,,,,,,,,,
recall-period,692,1255122,362589,"",,,,,,,,,,,toilet,,,,,
html-keyboard-response,693,1255235,null,"",null,,,,,,,,,,,,,,,
recall-period,694,1277783,null,"",,,,,,,,,,,,,,,,
html-keyboard-response,695,1278300,null,"Time's Up!",null,,,,,,,,,,,,,,,
html-keyboard-response,696,1290120,11817,"<p> Good job! You have responded correctly to 89% of the trials. </p>
                      <p>Be sure to only press the spacebar if you see a red square, and please keep your accuracy above 80%.</p>
                      <p> Press any key to continue the experiment. </p>",13,,,,,,,,,,,,,,,
html-keyboard-response,697,1294804,4684,"<div style=""font-size:48px;"">Press any key to begin list 7 of 16 </div>",32,,,,,,,,,,,,,,,
html-keyboard-response,698,1297308,null,"<div style=""font-size:60px;"">+</div>",null,,,,,,,,,,,,,,,
html-keyboard-response,699,1297524,null,"<div style=""font-size:42px;"">COIN</div><img id = ""stim"" ><div class = green_square id = bottomsquare></div>",null,encoding,word_square,,,0,bottomsquare,none,true,,,COIN,6,,,
html-keyboard-response,700,1297836,null,"<div style=""font-size:42px;"">COIN</div>",null,,word,COIN,,,,,,,,,,,,
html-keyboard-response,701,1299348,null,"",null,,word,COIN,,,,,,,,,,,,
html-keyboard-response,702,1299565,null,"<div style=""font-size:42px;"">CORAL</div><img id = ""stim"" ><div class = red_square id = topsquare></div>",null,encoding,word_square,,,1,topsquare,32,true,,,CORAL,6,,,
html-keyboard-response,703,1299875,null,"<div style=""font-size:42px;"">CORAL</div>",null,,word,CORAL,,,,,,,,,,,,
html-keyboard-response,704,1301383,102,"",32,,word,CORAL,,,,,,,,,,,,
html-keyboard-response,705,1301598,null,"<div style=""font-size:42px;"">CHISEL</div><img id = ""stim"" ><div class = red_square id = bottomsquare></div>",null,encoding,word_square,,,1,bottomsquare,32,true,,,CHISEL,6,,,
html-keyboard-response,706,1301907,null,"<div style=""font-size:42px;"">CHISEL</div>",null,,word,CHISEL,,,,,,,,,,,,
html-keyboard-response,707,1303414,309,"",32,,word,CHISEL,,,,,,,,,,,,
html-keyboard-response,708,1303631,null,"<div style=""font-size:42px;"">EUROPE</div><img id = ""stim"" ><div class = green_square id = topsquare></div>",null,encoding,word_square,,,0,topsquare,none,true,,,EUROPE,6,,,
html-keyboard-response,709,1303942,null,"<div style=""font-size:42px;"">EUROPE</div>",null,,word,EUROPE,,,,,,,,,,,,
html-keyboard-response,710,1305452,null,"",null,,word,EUROPE,,,,,,,,,,,,
html-keyboard-response,711,1305655,null,"<div style=""font-size:42px;"">ARTIST</div><img id = ""stim"" ><div class = red_square id = topsquare></div>",null,encoding,word_square,,,1,topsquare,32,true,,,ARTIST,6,,,
html-keyboard-response,712,1305967,null,"<div style=""font-size:42px;"">ARTIST</div>",null,,word,ARTIST,,,,,,,,,,,,
html-keyboard-response,713,1307470,342,"",32,,word,ARTIST,,,,,,,,,,,,
html-keyboard-response,714,1307685,null,"<div style=""font-size:42px;"">CRYSTAL</div><img id = ""stim"" ><div class = green_square id = bottomsquare></div>",null,encoding,word_square,,,0,bottomsquare,none,true,,,CRYSTAL,6,,,
html-keyboard-response,715,1307996,null,"<div style=""font-size:42px;"">CRYSTAL</div>",null,,word,CRYSTAL,,,,,,,,,,,,
html-keyboard-response,716,1309498,null,"",null,,word,CRYSTAL,,,,,,,,,,,,
html-keyboard-response,717,1309714,null,"<div style=""font-size:42px;"">FRIES</div><img id = ""stim"" ><div class = red_square id = bottomsquare></div>",null,encoding,word_square,,,1,bottomsquare,32,true,,,FRIES,6,,,
html-keyboard-response,718,1310030,null,"<div style=""font-size:42px;"">FRIES</div>",null,,word,FRIES,,,,,,,,,,,,
html-keyboard-response,719,1311539,168,"",32,,word,FRIES,,,,,,,,,,,,
html-keyboard-response,720,1311742,null,"<div style=""font-size:42px;"">TWIG</div><img id = ""stim"" ><div class = red_square id = topsquare></div>",null,encoding,word_square,,,1,topsquare,32,true,,,TWIG,6,,,
html-keyboard-response,721,1312056,null,"<div style=""font-size:42px;"">TWIG</div>",null,,word,TWIG,,,,,,,,,,,,
html-keyboard-response,722,1313566,679,"",32,,word,TWIG,,,,,,,,,,,,
html-keyboard-response,723,1313768,null,"<div style=""font-size:42px;"">NOTEBOOK</div><img id = ""stim"" ><div class = green_square id = topsquare></div>",null,encoding,word_square,,,0,topsquare,none,true,,,NOTEBOOK,6,,,
html-keyboard-response,724,1314084,null,"<div style=""font-size:42px;"">NOTEBOOK</div>",null,,word,NOTEBOOK,,,,,,,,,,,,
html-keyboard-response,725,1315596,null,"",null,,word,NOTEBOOK,,,,,,,,,,,,
html-keyboard-response,726,1315799,null,"<div style=""font-size:42px;"">COBBLER</div><img id = ""stim"" ><div class = red_square id = bottomsquare></div>",null,encoding,word_square,,,1,bottomsquare,32,true,,,COBBLER,6,,,
html-keyboard-response,727,1316111,null,"<div style=""font-size:42px;"">COBBLER</div>",null,,word,COBBLER,,,,,,,,,,,,
html-keyboard-response,728,1317620,399,"",32,,word,COBBLER,,,,,,,,,,,,
html-keyboard-response,729,1317836,null,"<div style=""font-size:42px;"">LILY</div><img id = ""stim"" ><div class = green_square id = bottomsquare></div>",null,encoding,word_square,,,0,bottomsquare,none,true,,,LILY,6,,,
html-keyboard-response,730,1318148,null,"<div style=""font-size:42px;"">LILY</div>",null,,word,LILY,,,,,,,,,,,,
html-keyboard-response,731,1319655,null,"",null,,word,LILY,,,,,,,,,,,,
html-keyboard-response,732,1319862,null,"<div style=""font-size:42px;"">SLOPE</div><img id = ""stim"" ><div class = green_square id = topsquare></div>",null,encoding,word_square,,,0,topsquare,none,true,,,SLOPE,6,,,
html-keyboard-response,733,1320176,null,"<div style=""font-size:42px;"">SLOPE</div>",null,,word,SLOPE,,,,,,,,,,,,
html-keyboard-response,734,1321687,null,"",null,,word,SLOPE,,,,,,,,,,,,
html-keyboard-response,735,1321890,null,"<div style=""font-size:42px;"">CASHIER</div><img id = ""stim"" ><div class = green_square id = bottomsquare></div>",null,encoding,word_square,,,0,bottomsquare,none,true,,,CASHIER,6,,,
html-keyboard-response,736,1322206,null,"<div style=""font-size:42px;"">CASHIER</div>",null,,word,CASHIER,,,,,,,,,,,,
html-keyboard-response,737,1323714,null,"",null,,word,CASHIER,,,,,,,,,,,,
html-keyboard-response,738,1323921,null,"<div style=""font-size:42px;"">FATHER</div><img id = ""stim"" ><div class = green_square id = topsquare></div>",null,encoding,word_square,,,0,topsquare,none,true,,,FATHER,6,,,
html-keyboard-response,739,1324236,null,"<div style=""font-size:42px;"">FATHER</div>",null,,word,FATHER,,,,,,,,,,,,
html-keyboard-response,740,1325743,null,"",null,,word,FATHER,,,,,,,,,,,,
html-keyboard-response,741,1325947,null,"<div style=""font-size:42px;"">CHIPMUNK</div><img id = ""stim"" ><div class = red_square id = topsquare></div>",null,encoding,word_square,,,1,topsquare,32,true,,,CHIPMUNK,6,,,
html-keyboard-response,742,1326257,308,"<div style=""font-size:42px;"">CHIPMUNK</div>",32,,word,CHIPMUNK,,,,,,,,,,,,
html-keyboard-response,743,1327771,null,"",null,,word,CHIPMUNK,,,,,,,,,,,,
html-keyboard-response,744,1327988,null,"<div style=""font-size:42px;"">PISTOL</div><img id = ""stim"" ><div class = red_square id = bottomsquare></div>",null,encoding,word_square,,,1,bottomsquare,32,true,,,PISTOL,6,,,
html-keyboard-response,745,1328300,null,"<div style=""font-size:42px;"">PISTOL</div>",null,,word,PISTOL,,,,,,,,,,,,
html-keyboard-response,746,1329815,1121,"",32,,word,PISTOL,,,,,,,,,,,,
call-function,747,1329816,,"",,,,,,,,,,,,,,,,
html-keyboard-response,748,1329925,null,"",null,,,,,,,,,,,,,,,
math-period,749,1335327,10308,"",,,,,,,,,,,1,,,,,
html-keyboard-response,750,1335440,null,"",null,,,,,,,,,,,,,,,
math-period,751,1337089,3174,"",,,,,,,,,,,1,,,,,
html-keyboard-response,752,1337195,null,"",null,,,,,,,,,,,,,,,
math-period,753,1338222,1940,"",,,,,,,,,,,3,,,,,
html-keyboard-response,754,1338332,null,"",null,,,,,,,,,,,,,,,
math-period,755,1339141,1483,"",,,,,,,,,,,3,,,,,
html-keyboard-response,756,1339247,null,"",null,,,,,,,,,,,,,,,
math-period,757,1340128,1645,"",,,,,,,,,,,2,,,,,
html-keyboard-response,758,1340243,null,"",null,,,,,,,,,,,,,,,
math-period,759,1341741,2646,"",,,,,,,,,,,6,,,,,
html-keyboard-response,760,1341850,null,"",null,,,,,,,,,,,,,,,
math-period,761,1343923,3991,"",,,,,,,,,,,2,,,,,
html-keyboard-response,762,1344033,null,"",null,,,,,,,,,,,,,,,
math-period,763,1345607,2745,"",,,,,,,,,,,6,,,,,
html-keyboard-response,764,1345717,null,"",null,,,,,,,,,,,,,,,
math-period,765,1348196,4340,"",,,,,,,,,,,0,,,,,
html-keyboard-response,766,1348311,null,"",null,,,,,,,,,,,,,,,
math-period,767,1349567,2358,"",,,,,,,,,,,5,,,,,
html-keyboard-response,768,1349681,null,"",null,,,,,,,,,,,,,,,
math-period,769,1350661,1839,"",,,,,,,,,,,3,,,,,
html-keyboard-response,770,1350767,null,"",null,,,,,,,,,,,,,,,
math-period,771,1352186,2661,"",,,,,,,,,,,4,,,,,
html-keyboard-response,772,1352294,null,"",null,,,,,,,,,,,,,,,
math-period,773,1353824,1371,"",,,,,,,,,,,2,,,,,
html-keyboard-response,774,1354838,null,"Recall Period!",null,,,,,,,,,,,,,,,
call-function,775,1354839,,"",,,,,,,,,,,,,,,,
html-keyboard-response,776,1354947,null,"",null,,,,,,,,,,,,,,,
recall-period,777,1360758,34879,"",,,,,,,,,,,fries,,,,,
html-keyboard-response,778,1360863,null,"",null,,,,,,,,,,,,,,,
recall-period,779,1362759,3887,"",,,,,,,,,,,coin,,,,,
html-keyboard-response,780,1362868,null,"",null,,,,,,,,,,,,,,,
recall-period,781,1369796,33210,"",,,,,,,,,,,coral,,,,,
html-keyboard-response,782,1369903,null,"",null,,,,,,,,,,,,,,,
recall-period,783,1373176,17995,"",,,,,,,,,,,europe,,,,,
html-keyboard-response,784,1373288,null,"",null,,,,,,,,,,,,,,,
recall-period,785,1379064,30828,"",,,,,,,,,,,artist,,,,,
html-keyboard-response,786,1379180,null,"",null,,,,,,,,,,,,,,,
recall-period,787,1381059,4693,"",,,,,,,,,,,lily,,,,,
html-keyboard-response,788,1381165,null,"",null,,,,,,,,,,,,,,,
recall-period,789,1382758,7481,"",,,,,,,,,,,father,,,,,
html-keyboard-response,790,1382873,null,"",null,,,,,,,,,,,,,,,
recall-period,791,1386174,18371,"",,,,,,,,,,,pistol,,,,,
html-keyboard-response,792,1386287,null,"",null,,,,,,,,,,,,,,,
recall-period,793,1418332,154927,"",,,,,,,,,,,twig,,,,,
html-keyboard-response,794,1418445,null,"",null,,,,,,,,,,,,,,,
recall-period,795,1429841,null,"",,,,,,,,,,,,,,,,
html-keyboard-response,796,1430343,null,"Time's Up!",null,,,,,,,,,,,,,,,
html-keyboard-response,797,1435226,4881,"<p> Good job! You have responded correctly to 90% of the trials. </p>
                      <p>Be sure to only press the spacebar if you see a red square, and please keep your accuracy above 80%.</p>
                      <p> Press any key to continue the experiment. </p>",32,,,,,,,,,,,,,,,
html-keyboard-response,798,1437641,2413,"<div style=""font-size:48px;"">Press any key to begin list 8 of 16 </div>",32,,,,,,,,,,,,,,,
html-keyboard-response,799,1440161,null,"<div style=""font-size:60px;"">+</div>",null,,,,,,,,,,,,,,,
html-keyboard-response,800,1440364,null,"<div style=""font-size:42px;"">ROCKET</div><img id = ""stim"" ><div class = red_square id = bottomsquare></div>",null,encoding,word_square,,,1,bottomsquare,32,true,,,ROCKET,7,,,
html-keyboard-response,801,1440676,null,"<div style=""font-size:42px;"">ROCKET</div>",null,,word,ROCKET,,,,,,,,,,,,
html-keyboard-response,802,1442189,583,"",32,,word,ROCKET,,,,,,,,,,,,
html-keyboard-response,803,1442406,null,"<div style=""font-size:42px;"">LAKE</div><img id = ""stim"" ><div class = red_square id = topsquare></div>",null,encoding,word_square,,,1,topsquare,32,true,,,LAKE,7,,,
html-keyboard-response,804,1442718,null,"<div style=""font-size:42px;"">LAKE</div>",null,,word,LAKE,,,,,,,,,,,,
html-keyboard-response,805,1444233,118,"",32,,word,LAKE,,,,,,,,,,,,
html-keyboard-response,806,1444449,null,"<div style=""font-size:42px;"">CABLE</div><img id = ""stim"" ><div class = green_square id = topsquare></div>",null,encoding,word_square,,,0,topsquare,none,true,,,CABLE,7,,,
html-keyboard-response,807,1444761,null,"<div style=""font-size:42px;"">CABLE</div>",null,,word,CABLE,,,,,,,,,,,,
html-keyboard-response,808,1446268,null,"",null,,word,CABLE,,,,,,,,,,,,
html-keyboard-response,809,1446485,null,"<div style=""font-size:42px;"">STOCKING</div><img id = ""stim"" ><div class = green_square id = bottomsquare></div>",null,encoding,word_square,,,0,bottomsquare,none,true,,,STOCKING,7,,,
html-keyboard-response,810,1446786,null,"<div style=""font-size:42px;"">STOCKING</div>",null,,word,STOCKING,,,,,,,,,,,,
html-keyboard-response,811,1448293,null,"",null,,word,STOCKING,,,,,,,,,,,,
html-keyboard-response,812,1448497,null,"<div style=""font-size:42px;"">BRUNETTE</div><img id = ""stim"" ><div class = green_square id = topsquare></div>",null,encoding,word_square,,,0,topsquare,none,true,,,BRUNETTE,7,,,
html-keyboard-response,813,1448799,null,"<div style=""font-size:42px;"">BRUNETTE</div>",null,,word,BRUNETTE,,,,,,,,,,,,
html-keyboard-response,814,1450315,null,"",null,,word,BRUNETTE,,,,,,,,,,,,
html-keyboard-response,815,1450519,null,"<div style=""font-size:42px;"">GALLON</div><img id = ""stim"" ><div class = green_square id = bottomsquare></div>",null,encoding,word_square,,,0,bottomsquare,none,true,,,GALLON,7,,,
html-keyboard-response,816,1450820,null,"<div style=""font-size:42px;"">GALLON</div>",null,,word,GALLON,,,,,,,,,,,,
html-keyboard-response,817,1452332,null,"",null,,word,GALLON,,,,,,,,,,,,
html-keyboard-response,818,1452538,null,"<div style=""font-size:42px;"">MILK</div><img id = ""stim"" ><div class = red_square id = bottomsquare></div>",null,encoding,word_square,,,1,bottomsquare,32,true,,,MILK,7,,,
html-keyboard-response,819,1452847,177,"<div style=""font-size:42px;"">MILK</div>",32,,word,MILK,,,,,,,,,,,,
html-keyboard-response,820,1454354,null,"",null,,word,MILK,,,,,,,,,,,,
html-keyboard-response,821,1454559,null,"<div style=""font-size:42px;"">DONKEY</div><img id = ""stim"" ><div class = green_square id = topsquare></div>",null,encoding,word_square,,,0,topsquare,none,true,,,DONKEY,7,,,
html-keyboard-response,822,1454867,null,"<div style=""font-size:42px;"">DONKEY</div>",null,,word,DONKEY,,,,,,,,,,,,
html-keyboard-response,823,1456370,null,"",null,,word,DONKEY,,,,,,,,,,,,
html-keyboard-response,824,1456574,null,"<div style=""font-size:42px;"">CRATER</div><img id = ""stim"" ><div class = red_square id = topsquare></div>",null,encoding,word_square,,,1,topsquare,32,true,,,CRATER,7,,,
html-keyboard-response,825,1456881,null,"<div style=""font-size:42px;"">CRATER</div>",null,,word,CRATER,,,,,,,,,,,,
html-keyboard-response,826,1458397,77,"",32,,word,CRATER,,,,,,,,,,,,
html-keyboard-response,827,1458602,null,"<div style=""font-size:42px;"">FOX</div><img id = ""stim"" ><div class = red_square id = bottomsquare></div>",null,encoding,word_square,,,1,bottomsquare,32,true,,,FOX,7,,,
html-keyboard-response,828,1458910,null,"<div style=""font-size:42px;"">FOX</div>",null,,word,FOX,,,,,,,,,,,,
html-keyboard-response,829,1460415,264,"",32,,word,FOX,,,,,,,,,,,,
html-keyboard-response,830,1460631,null,"<div style=""font-size:42px;"">RELISH</div><img id = ""stim"" ><div class = green_square id = bottomsquare></div>",null,encoding,word_square,,,0,bottomsquare,none,true,,,RELISH,7,,,
html-keyboard-response,831,1460945,null,"<div style=""font-size:42px;"">RELISH</div>",null,,word,RELISH,,,,,,,,,,,,
html-keyboard-response,832,1462461,null,"",null,,word,RELISH,,,,,,,,,,,,
html-keyboard-response,833,1462677,null,"<div style=""font-size:42px;"">FEMALE</div><img id = ""stim"" ><div class = red_square id = topsquare></div>",null,encoding,word_square,,,1,topsquare,32,true,,,FEMALE,7,,,
html-keyboard-response,834,1462988,null,"<div style=""font-size:42px;"">FEMALE</div>",null,,word,FEMALE,,,,,,,,,,,,
html-keyboard-response,835,1464496,135,"",32,,word,FEMALE,,,,,,,,,,,,
html-keyboard-response,836,1464698,null,"<div style=""font-size:42px;"">KETCHUP</div><img id = ""stim"" ><div class = green_square id = topsquare></div>",null,encoding,word_square,,,0,topsquare,none,true,,,KETCHUP,7,,,
html-keyboard-response,837,1465006,null,"<div style=""font-size:42px;"">KETCHUP</div>",null,,word,KETCHUP,,,,,,,,,,,,
html-keyboard-response,838,1466523,null,"",null,,word,KETCHUP,,,,,,,,,,,,
html-keyboard-response,839,1466740,null,"<div style=""font-size:42px;"">MISSILE</div><img id = ""stim"" ><div class = red_square id = bottomsquare></div>",null,encoding,word_square,,,1,bottomsquare,32,false,,,MISSILE,7,,,
html-keyboard-response,840,1467051,null,"<div style=""font-size:42px;"">MISSILE</div>",null,,word,MISSILE,,,,,,,,,,,,
html-keyboard-response,841,1468553,null,"",null,,word,MISSILE,,,,,,,,,,,,
html-keyboard-response,842,1468756,null,"<div style=""font-size:42px;"">SATURN</div><img id = ""stim"" ><div class = red_square id = topsquare></div>",null,encoding,word_square,,,1,topsquare,32,true,,,SATURN,7,,,
html-keyboard-response,843,1469068,null,"<div style=""font-size:42px;"">SATURN</div>",null,,word,SATURN,,,,,,,,,,,,
html-keyboard-response,844,1470582,114,"",32,,word,SATURN,,,,,,,,,,,,
html-keyboard-response,845,1470785,null,"<div style=""font-size:42px;"">ELBOW</div><img id = ""stim"" ><div class = green_square id = bottomsquare></div>",null,encoding,word_square,,,0,bottomsquare,none,true,,,ELBOW,7,,,
html-keyboard-response,846,1471096,null,"<div style=""font-size:42px;"">ELBOW</div>",null,,word,ELBOW,,,,,,,,,,,,
html-keyboard-response,847,1472607,null,"",null,,word,ELBOW,,,,,,,,,,,,
call-function,848,1472609,,"",,,,,,,,,,,,,,,,
html-keyboard-response,849,1472716,null,"",null,,,,,,,,,,,,,,,
math-period,850,1477071,7810,"",,,,,,,,,,,4,,,,,
html-keyboard-response,851,1477174,null,"",null,,,,,,,,,,,,,,,
math-period,852,1479477,4465,"",,,,,,,,,,,1,,,,,
html-keyboard-response,853,1479585,null,"",null,,,,,,,,,,,,,,,
math-period,854,1482615,5871,"",,,,,,,,,,,1,,,,,
html-keyboard-response,855,1482732,null,"",null,,,,,,,,,,,,,,,
math-period,856,1484683,3762,"",,,,,,,,,,,1,,,,,
html-keyboard-response,857,1484800,null,"",null,,,,,,,,,,,,,,,
math-period,858,1486259,2769,"",,,,,,,,,,,1,,,,,
html-keyboard-response,859,1486368,null,"",null,,,,,,,,,,,,,,,
math-period,860,1488413,3928,"",,,,,,,,,,,1,,,,,
html-keyboard-response,861,1488520,null,"",null,,,,,,,,,,,,,,,
math-period,862,1489704,2250,"",,,,,,,,,,,3,,,,,
html-keyboard-response,863,1489821,null,"",null,,,,,,,,,,,,,,,
math-period,864,1491082,2368,"",,,,,,,,,,,5,,,,,
html-keyboard-response,865,1491192,null,"",null,,,,,,,,,,,,,,,
math-period,866,1493279,4031,"",,,,,,,,,,,3,,,,,
html-keyboard-response,867,1493391,null,"",null,,,,,,,,,,,,,,,
math-period,868,1496611,8065,"",,,,,,,,,,,undefined,,,,,
html-keyboard-response,869,1497628,null,"Recall Period!",null,,,,,,,,,,,,,,,
call-function,870,1497629,,"",,,,,,,,,,,,,,,,
html-keyboard-response,871,1497737,null,"",null,,,,,,,,,,,,,,,
recall-period,872,1502530,25571,"",,,,,,,,,,,saturn,,,,,
html-keyboard-response,873,1502647,null,"",null,,,,,,,,,,,,,,,
recall-period,874,1505577,10963,"",,,,,,,,,,,female,,,,,
html-keyboard-response,875,1505683,null,"",null,,,,,,,,,,,,,,,
recall-period,876,1507378,2685,"",,,,,,,,,,,fox,,,,,
html-keyboard-response,877,1507487,null,"",null,,,,,,,,,,,,,,,
recall-period,878,1513948,29976,"",,,,,,,,,,,lake,,,,,
html-keyboard-response,879,1514052,null,"",null,,,,,,,,,,,,,,,
recall-period,880,1518046,9567,"",,,,,,,,,,,gallon,,,,,
html-keyboard-response,881,1518154,null,"",null,,,,,,,,,,,,,,,
recall-period,882,1525807,29649,"",,,,,,,,,,,milk,,,,,
html-keyboard-response,883,1525912,null,"",null,,,,,,,,,,,,,,,
recall-period,884,1572631,null,"",,,,,,,,,,,,,,,,
html-keyboard-response,885,1573149,null,"Time's Up!",null,,,,,,,,,,,,,,,
html-keyboard-response,886,1578521,5369,"<p> Good job! You have responded correctly to 91% of the trials. </p>
                      <p>Be sure to only press the spacebar if you see a red square, and please keep your accuracy above 80%.</p>
                      <p> Press any key to continue the experiment. </p>",32,,,,,,,,,,,,,,,
html-keyboard-response,887,1579793,1270,"<div style=""font-size:48px;"">Press any key to begin list 9 of 16 </div>",32,,,,,,,,,,,,,,,
html-keyboard-response,888,1582311,null,"<div style=""font-size:60px;"">+</div>",null,,,,,,,,,,,,,,,
html-keyboard-response,889,1582527,null,"<div style=""font-size:42px;"">GYMNAST</div><img id = ""stim"" ><div class = red_square id = topsquare></div>",null,encoding,word_square,,,1,topsquare,32,true,,,GYMNAST,8,,,
html-keyboard-response,890,1582842,null,"<div style=""font-size:42px;"">GYMNAST</div>",null,,word,GYMNAST,,,,,,,,,,,,
html-keyboard-response,891,1584351,52,"",32,,word,GYMNAST,,,,,,,,,,,,
html-keyboard-response,892,1584557,null,"<div style=""font-size:42px;"">BIBLE</div><img id = ""stim"" ><div class = green_square id = bottomsquare></div>",null,encoding,word_square,,,0,bottomsquare,none,true,,,BIBLE,8,,,
html-keyboard-response,893,1584870,null,"<div style=""font-size:42px;"">BIBLE</div>",null,,word,BIBLE,,,,,,,,,,,,
html-keyboard-response,894,1586384,null,"",null,,word,BIBLE,,,,,,,,,,,,
html-keyboard-response,895,1586588,null,"<div style=""font-size:42px;"">TRUCK</div><img id = ""stim"" ><div class = red_square id = bottomsquare></div>",null,encoding,word_square,,,1,bottomsquare,32,true,,,TRUCK,8,,,
html-keyboard-response,896,1586904,null,"<div style=""font-size:42px;"">TRUCK</div>",null,,word,TRUCK,,,,,,,,,,,,
html-keyboard-response,897,1588419,237,"",32,,word,TRUCK,,,,,,,,,,,,
html-keyboard-response,898,1588624,null,"<div style=""font-size:42px;"">SEAL</div><img id = ""stim"" ><div class = green_square id = topsquare></div>",null,encoding,word_square,,,0,topsquare,none,true,,,SEAL,8,,,
html-keyboard-response,899,1588926,null,"<div style=""font-size:42px;"">SEAL</div>",null,,word,SEAL,,,,,,,,,,,,
html-keyboard-response,900,1590433,null,"",null,,word,SEAL,,,,,,,,,,,,
html-keyboard-response,901,1590637,null,"<div style=""font-size:42px;"">ZEBRA</div><img id = ""stim"" ><div class = green_square id = bottomsquare></div>",null,encoding,word_square,,,0,bottomsquare,none,false,,,ZEBRA,8,,,
html-keyboard-response,902,1590953,null,"<div style=""font-size:42px;"">ZEBRA</div>",null,,word,ZEBRA,,,,,,,,,,,,
html-keyboard-response,903,1592465,365,"",32,,word,ZEBRA,,,,,,,,,,,,
html-keyboard-response,904,1592670,null,"<div style=""font-size:42px;"">CABOOSE</div><img id = ""stim"" ><div class = red_square id = topsquare></div>",null,encoding,word_square,,,1,topsquare,32,true,,,CABOOSE,8,,,
html-keyboard-response,905,1592985,null,"<div style=""font-size:42px;"">CABOOSE</div>",null,,word,CABOOSE,,,,,,,,,,,,
html-keyboard-response,906,1594494,222,"",32,,word,CABOOSE,,,,,,,,,,,,
html-keyboard-response,907,1594697,null,"<div style=""font-size:42px;"">AUTHOR</div><img id = ""stim"" ><div class = green_square id = topsquare></div>",null,encoding,word_square,,,0,topsquare,none,true,,,AUTHOR,8,,,
html-keyboard-response,908,1595009,null,"<div style=""font-size:42px;"">AUTHOR</div>",null,,word,AUTHOR,,,,,,,,,,,,
html-keyboard-response,909,1596525,null,"",null,,word,AUTHOR,,,,,,,,,,,,
html-keyboard-response,910,1596733,null,"<div style=""font-size:42px;"">NOVEL</div><img id = ""stim"" ><div class = red_square id = bottomsquare></div>",null,encoding,word_square,,,1,bottomsquare,32,true,,,NOVEL,8,,,
html-keyboard-response,911,1597045,null,"<div style=""font-size:42px;"">NOVEL</div>",null,,word,NOVEL,,,,,,,,,,,,
html-keyboard-response,912,1598553,162,"",32,,word,NOVEL,,,,,,,,,,,,
html-keyboard-response,913,1598761,null,"<div style=""font-size:42px;"">MOTOR</div><img id = ""stim"" ><div class = red_square id = topsquare></div>",null,encoding,word_square,,,1,topsquare,32,false,,,MOTOR,8,,,
html-keyboard-response,914,1599072,null,"<div style=""font-size:42px;"">MOTOR</div>",null,,word,MOTOR,,,,,,,,,,,,
html-keyboard-response,915,1600579,null,"",null,,word,MOTOR,,,,,,,,,,,,
html-keyboard-response,916,1600784,null,"<div style=""font-size:42px;"">DOORBELL</div><img id = ""stim"" ><div class = green_square id = bottomsquare></div>",null,encoding,word_square,,,0,bottomsquare,none,true,,,DOORBELL,8,,,
html-keyboard-response,917,1601098,null,"<div style=""font-size:42px;"">DOORBELL</div>",null,,word,DOORBELL,,,,,,,,,,,,
html-keyboard-response,918,1602612,null,"",null,,word,DOORBELL,,,,,,,,,,,,
html-keyboard-response,919,1602826,null,"<div style=""font-size:42px;"">SCHOOL</div><img id = ""stim"" ><div class = green_square id = topsquare></div>",null,encoding,word_square,,,0,topsquare,none,true,,,SCHOOL,8,,,
html-keyboard-response,920,1603139,null,"<div style=""font-size:42px;"">SCHOOL</div>",null,,word,SCHOOL,,,,,,,,,,,,
html-keyboard-response,921,1604643,null,"",null,,word,SCHOOL,,,,,,,,,,,,
html-keyboard-response,922,1604846,null,"<div style=""font-size:42px;"">AGENT</div><img id = ""stim"" ><div class = red_square id = bottomsquare></div>",null,encoding,word_square,,,1,bottomsquare,32,true,,,AGENT,8,,,
html-keyboard-response,923,1605161,null,"<div style=""font-size:42px;"">AGENT</div>",null,,word,AGENT,,,,,,,,,,,,
html-keyboard-response,924,1606677,70,"",32,,word,AGENT,,,,,,,,,,,,
html-keyboard-response,925,1606892,null,"<div style=""font-size:42px;"">CLOTHES</div><img id = ""stim"" ><div class = red_square id = topsquare></div>",null,encoding,word_square,,,1,topsquare,32,true,,,CLOTHES,8,,,
html-keyboard-response,926,1607208,null,"<div style=""font-size:42px;"">CLOTHES</div>",null,,word,CLOTHES,,,,,,,,,,,,
html-keyboard-response,927,1608718,620,"",32,,word,CLOTHES,,,,,,,,,,,,
html-keyboard-response,928,1608935,null,"<div style=""font-size:42px;"">SPOUSE</div><img id = ""stim"" ><div class = green_square id = bottomsquare></div>",null,encoding,word_square,,,0,bottomsquare,none,true,,,SPOUSE,8,,,
html-keyboard-response,929,1609250,null,"<div style=""font-size:42px;"">SPOUSE</div>",null,,word,SPOUSE,,,,,,,,,,,,
html-keyboard-response,930,1610762,null,"",null,,word,SPOUSE,,,,,,,,,,,,
html-keyboard-response,931,1610965,null,"<div style=""font-size:42px;"">HELMET</div><img id = ""stim"" ><div class = green_square id = topsquare></div>",null,encoding,word_square,,,0,topsquare,none,true,,,HELMET,8,,,
html-keyboard-response,932,1611276,null,"<div style=""font-size:42px;"">HELMET</div>",null,,word,HELMET,,,,,,,,,,,,
html-keyboard-response,933,1612779,null,"",null,,word,HELMET,,,,,,,,,,,,
