trial_type,trial_index,time_elapsed,rt,stimulus,key_press,exp_phase,test_part,word,task,targ_cond,sq_pos,correctKeyCode,correct,value,response,Word,List,RecResp,serial_pos,colorChosen
pavlovia,0,2226,,"",,,,,,,,,,,,,,,,
external-html,1,6968,3886.7000000476837,"",,,,,,,,,,,,,,,,
html-keyboard-response,2,8779,1808.7999999523163,"Welcome to the experiment. Press any key to begin.",32,,,,,,,,,,,,,,,
html-keyboard-response,3,25211,16431.099999904633,"<p>You will see a list of words and colored squares in the following task.<p><p>Press the spacebar whenever you see a GREEN square.<p><p>Do not press a key if the square is RED.<p><p>Press the spacebar to continue.</p>",32,,,,,,,,,,,,,,,
html-keyboard-response,4,35008,9288.399999856949,"<p>Please try to remember as many of the words as you can, and try to think about the meaning of each word as it appears.<p><p>After the detection and encoding task you will be asked to solve some math problems for 24 seconds.<p> Please solve as many problems as you can in the time given. <p><p><p>Press the spacebar to continue.</p>",32,,,,,,,,,,,,,,,
html-keyboard-response,5,43062,7542.900000095367,"After solving the math problems, you will be asked to type in as many words <p>from the previous list as you can remember for 75 seconds.<p> If you finish recalling before the 75 seconds are up,<p> just sit tight and try to think of any more words you could have missed. <p><p><p>Press the spacebar to continue.</p>",32,,,,,,,,,,,,,,,
html-keyboard-response,6,51149,7579.5,"There will be 16 lists of words and recall, followed  by<p><p> a recognition phase. The experiment is expected to take up to 90 minutes.<p>We will begin with a brief practice session.<p>Press the spacebar to begin the practice.</p>",32,,,,,,,,,,,,,,,
html-keyboard-response,7,53666,null,"<div style=""font-size:60px;"">+</div>",null,,,,,,,,,,,,,,,
html-keyboard-response,8,53881,null,"<div style=""font-size:42px;"">HAPPY</div><img id = ""stim"" ><div class = red_square id = ""bottomsquare"" ></div>",null,practice,word_square,HAPPY,prac_response,0,Bottom,none,true,,,,,,,
html-keyboard-response,9,54198,null,"<div style=""font-size:42px;"">HAPPY</div>",null,,word,HAPPY,,,,,,,,,,,,
html-keyboard-response,10,55703,null,"",null,,word,HAPPY,,,,,,,,,,,,
html-keyboard-response,11,55914,null,"<div style=""font-size:42px;"">COLD</div><img id = ""stim"" ><div class = green_square id = ""bottomsquare"" ></div>",null,practice,word_square,COLD,prac_response,1,Bottom,32,true,,,,,,,
html-keyboard-response,12,56216,107.20000004768372,"<div style=""font-size:42px;"">COLD</div>",32,,word,COLD,,,,,,,,,,,,
html-keyboard-response,13,57728,null,"",null,,word,COLD,,,,,,,,,,,,
html-keyboard-response,14,57940,null,"<div style=""font-size:42px;"">HEAVY</div><img id = ""stim"" ><div class = green_square id = ""topsquare"" ></div>",null,practice,word_square,HEAVY,prac_response,1,Top,32,true,,,,,,,
html-keyboard-response,15,58257,156.80000019073486,"<div style=""font-size:42px;"">HEAVY</div>",32,,word,HEAVY,,,,,,,,,,,,
html-keyboard-response,16,59761,null,"",null,,word,HEAVY,,,,,,,,,,,,
html-keyboard-response,17,59972,null,"<div style=""font-size:42px;"">FUNNY</div><img id = ""stim"" ><div class = red_square id = ""topsquare"" ></div>",null,practice,word_square,FUNNY,prac_response,0,Top,none,true,,,,,,,
html-keyboard-response,18,60275,null,"<div style=""font-size:42px;"">FUNNY</div>",null,,word,FUNNY,,,,,,,,,,,,
html-keyboard-response,19,61786,null,"",null,,word,FUNNY,,,,,,,,,,,,
html-keyboard-response,20,61998,null,"<div style=""font-size:42px;"">SCARY</div><img id = ""stim"" ><div class = green_square id = ""bottomsquare"" ></div>",null,practice,word_square,SCARY,prac_response,1,Bottom,32,true,,,,,,,
html-keyboard-response,21,62310,89.40000009536743,"<div style=""font-size:42px;"">SCARY</div>",32,,word,SCARY,,,,,,,,,,,,
html-keyboard-response,22,63824,null,"",null,,word,SCARY,,,,,,,,,,,,
html-keyboard-response,23,64038,null,"<div style=""font-size:42px;"">PEACEFUL</div><img id = ""stim"" ><div class = green_square id = ""topsquare"" ></div>",null,practice,word_square,PEACEFUL,prac_response,1,Top,32,true,,,,,,,
html-keyboard-response,24,64341,232.90000009536743,"<div style=""font-size:42px;"">PEACEFUL</div>",32,,word,PEACEFUL,,,,,,,,,,,,
html-keyboard-response,25,65853,null,"",null,,word,PEACEFUL,,,,,,,,,,,,
html-keyboard-response,26,66056,null,"<div style=""font-size:42px;"">LITTLE</div><img id = ""stim"" ><div class = red_square id = ""bottomsquare"" ></div>",null,practice,word_square,LITTLE,prac_response,0,Bottom,none,false,,,,,,,
html-keyboard-response,27,66366,143.59999990463257,"<div style=""font-size:42px;"">LITTLE</div>",32,,word,LITTLE,,,,,,,,,,,,
html-keyboard-response,28,67868,null,"",null,,word,LITTLE,,,,,,,,,,,,
html-keyboard-response,29,68081,null,"<div style=""font-size:42px;"">TIRED</div><img id = ""stim"" ><div class = red_square id = ""topsquare"" ></div>",null,practice,word_square,TIRED,prac_response,0,Top,none,true,,,,,,,
html-keyboard-response,30,68391,null,"<div style=""font-size:42px;"">TIRED</div>",null,,word,TIRED,,,,,,,,,,,,
html-keyboard-response,31,69903,null,"",null,,word,TIRED,,,,,,,,,,,,
html-keyboard-response,32,70115,null,"<div style=""font-size:42px;"">ENTERTAINING</div><img id = ""stim"" ><div class = red_square id = ""bottomsquare"" ></div>",null,practice,word_square,ENTERTAINING,prac_response,0,Bottom,none,true,,,,,,,
html-keyboard-response,33,70424,null,"<div style=""font-size:42px;"">ENTERTAINING</div>",null,,word,ENTERTAINING,,,,,,,,,,,,
html-keyboard-response,34,71936,null,"",null,,word,ENTERTAINING,,,,,,,,,,,,
html-keyboard-response,35,72147,null,"<div style=""font-size:42px;"">GRATEFUL</div><img id = ""stim"" ><div class = green_square id = ""bottomsquare"" ></div>",null,practice,word_square,GRATEFUL,prac_response,1,Bottom,32,true,,,,,,,
html-keyboard-response,36,72449,94.20000004768372,"<div style=""font-size:42px;"">GRATEFUL</div>",32,,word,GRATEFUL,,,,,,,,,,,,
html-keyboard-response,37,73951,null,"",null,,word,GRATEFUL,,,,,,,,,,,,
html-keyboard-response,38,74164,null,"<div style=""font-size:42px;"">LOUD</div><img id = ""stim"" ><div class = red_square id = ""topsquare"" ></div>",null,practice,word_square,LOUD,prac_response,0,Top,none,true,,,,,,,
html-keyboard-response,39,74466,null,"<div style=""font-size:42px;"">LOUD</div>",null,,word,LOUD,,,,,,,,,,,,
html-keyboard-response,40,75979,null,"",null,,word,LOUD,,,,,,,,,,,,
html-keyboard-response,41,76189,null,"<div style=""font-size:42px;"">SMART</div><img id = ""stim"" ><div class = green_square id = ""topsquare"" ></div>",null,practice,word_square,SMART,prac_response,1,Top,32,true,,,,,,,
html-keyboard-response,42,76491,210.29999995231628,"<div style=""font-size:42px;"">SMART</div>",32,,word,SMART,,,,,,,,,,,,
html-keyboard-response,43,78003,null,"",null,,word,SMART,,,,,,,,,,,,
html-keyboard-response,44,78214,null,"<div style=""font-size:42px;"">SMOOTH</div><img id = ""stim"" ><div class = green_square id = ""bottomsquare"" ></div>",null,practice,word_square,SMOOTH,prac_response,1,Bottom,32,true,,,,,,,
html-keyboard-response,45,78524,177.70000004768372,"<div style=""font-size:42px;"">SMOOTH</div>",32,,word,SMOOTH,,,,,,,,,,,,
html-keyboard-response,46,80036,null,"",null,,word,SMOOTH,,,,,,,,,,,,
html-keyboard-response,47,80248,null,"<div style=""font-size:42px;"">DISHONEST</div><img id = ""stim"" ><div class = red_square id = ""bottomsquare"" ></div>",null,practice,word_square,DISHONEST,prac_response,0,Bottom,none,true,,,,,,,
html-keyboard-response,48,80557,null,"<div style=""font-size:42px;"">DISHONEST</div>",null,,word,DISHONEST,,,,,,,,,,,,
html-keyboard-response,49,82070,null,"",null,,word,DISHONEST,,,,,,,,,,,,
html-keyboard-response,50,82281,null,"<div style=""font-size:42px;"">WEALTHY</div><img id = ""stim"" ><div class = green_square id = ""topsquare"" ></div>",null,practice,word_square,WEALTHY,prac_response,1,Top,32,true,,,,,,,
html-keyboard-response,51,82583,262.40000009536743,"<div style=""font-size:42px;"">WEALTHY</div>",32,,word,WEALTHY,,,,,,,,,,,,
html-keyboard-response,52,84094,null,"",null,,word,WEALTHY,,,,,,,,,,,,
html-keyboard-response,53,84306,null,"<div style=""font-size:42px;"">BEAUTIFUL</div><img id = ""stim"" ><div class = red_square id = ""topsquare"" ></div>",null,practice,word_square,BEAUTIFUL,prac_response,0,Top,none,true,,,,,,,
html-keyboard-response,54,84623,null,"<div style=""font-size:42px;"">BEAUTIFUL</div>",null,,word,BEAUTIFUL,,,,,,,,,,,,
html-keyboard-response,55,86128,null,"",null,,word,BEAUTIFUL,,,,,,,,,,,,
html-keyboard-response,56,94739,8608.899999856949,"<p> Good job! You responded correctly to 94% of the trials. </p>
                  <p>Be sure to only press the spacebar if you see a GREEN square, and please keep your accuracy above 80%.</p>
                  <p>We're going to try once more to make sure you understand the task. press any key to continue. </p>",32,,,,,,,,,,,,,,,
html-keyboard-response,57,97219,2478.4000000953674,"<p>You will see a list of words and colored squares in the following task.<p><p>Press the spacebar whenever you see a GREEN square.<p><p>Do not press a key if the square is RED<p><p>Press the spacebar to continue.</p>",32,,,,,,,,,,,,,,,
html-keyboard-response,58,99736,null,"<div style=""font-size:60px;"">+</div>",null,,,,,,,,,,,,,,,
html-keyboard-response,59,99939,null,"<div style=""font-size:42px;"">HAPPY</div><img id = ""stim"" ><div class = red_square id = ""bottomsquare"" ></div>",null,practice2,word_square,HAPPY,prac_response,0,Bottom,none,true,,,,,,,
html-keyboard-response,60,100249,null,"<div style=""font-size:42px;"">HAPPY</div>",null,,word,HAPPY,,,,,,,,,,,,
html-keyboard-response,61,101761,null,"",null,,word,HAPPY,,,,,,,,,,,,
html-keyboard-response,62,101971,null,"<div style=""font-size:42px;"">COLD</div><img id = ""stim"" ><div class = green_square id = ""bottomsquare"" ></div>",null,practice2,word_square,,prac_response,1,Bottom,32,true,,,,,,,
html-keyboard-response,63,102274,null,"<div style=""font-size:42px;"">COLD</div>",null,,word,COLD,,,,,,,,,,,,
html-keyboard-response,64,103782,33.59999990463257,"",32,,word,COLD,,,,,,,,,,,,
html-keyboard-response,65,103997,null,"<div style=""font-size:42px;"">HEAVY</div><img id = ""stim"" ><div class = green_square id = ""topsquare"" ></div>",null,practice2,word_square,,prac_response,1,Top,32,true,,,,,,,
html-keyboard-response,66,104300,242.5,"<div style=""font-size:42px;"">HEAVY</div>",32,,word,HEAVY,,,,,,,,,,,,
html-keyboard-response,67,105814,null,"",null,,word,HEAVY,,,,,,,,,,,,
html-keyboard-response,68,106022,null,"<div style=""font-size:42px;"">FUNNY</div><img id = ""stim"" ><div class = red_square id = ""topsquare"" ></div>",null,practice2,word_square,,prac_response,0,Top,none,true,,,,,,,
html-keyboard-response,69,106325,null,"<div style=""font-size:42px;"">FUNNY</div>",null,,word,FUNNY,,,,,,,,,,,,
html-keyboard-response,70,107836,null,"",null,,word,FUNNY,,,,,,,,,,,,
html-keyboard-response,71,108047,null,"<div style=""font-size:42px;"">SCARY</div><img id = ""stim"" ><div class = green_square id = ""bottomsquare"" ></div>",null,practice2,word_square,,prac_response,1,Bottom,32,true,,,,,,,
html-keyboard-response,72,108357,177.09999990463257,"<div style=""font-size:42px;"">SCARY</div>",32,,word,SCARY,,,,,,,,,,,,
html-keyboard-response,73,109871,null,"",null,,word,SCARY,,,,,,,,,,,,
html-keyboard-response,74,110081,null,"<div style=""font-size:42px;"">PEACEFUL</div><img id = ""stim"" ><div class = green_square id = ""topsquare"" ></div>",null,practice2,word_square,,prac_response,1,Top,32,true,,,,,,,
html-keyboard-response,75,110390,250.60000014305115,"<div style=""font-size:42px;"">PEACEFUL</div>",32,,word,PEACEFUL,,,,,,,,,,,,
html-keyboard-response,76,111902,null,"",null,,word,PEACEFUL,,,,,,,,,,,,
html-keyboard-response,77,112114,null,"<div style=""font-size:42px;"">LITTLE</div><img id = ""stim"" ><div class = red_square id = ""bottomsquare"" ></div>",null,practice2,word_square,LITTLE,prac_response,0,Bottom,none,true,,,,,,,
html-keyboard-response,78,112416,null,"<div style=""font-size:42px;"">LITTLE</div>",null,,word,LITTLE,,,,,,,,,,,,
html-keyboard-response,79,113927,null,"",null,,word,LITTLE,,,,,,,,,,,,
html-keyboard-response,80,114131,null,"<div style=""font-size:42px;"">TIRED</div><img id = ""stim"" ><div class = red_square id = ""topsquare"" ></div>",null,practice2,word_square,,prac_response,0,Top,none,true,,,,,,,
html-keyboard-response,81,114440,null,"<div style=""font-size:42px;"">TIRED</div>",null,,word,TIRED,,,,,,,,,,,,
html-keyboard-response,82,115944,null,"",null,,word,TIRED,,,,,,,,,,,,
html-keyboard-response,83,116157,null,"<div style=""font-size:42px;"">ENTERTAINING</div><img id = ""stim"" ><div class = red_square id = ""bottomsquare"" ></div>",null,practice2,word_square,ENTERTAINING,prac_response,0,Bottom,none,true,,,,,,,
html-keyboard-response,84,116465,null,"<div style=""font-size:42px;"">ENTERTAINING</div>",null,,word,ENTERTAINING,,,,,,,,,,,,
html-keyboard-response,85,117977,null,"",null,,word,ENTERTAINING,,,,,,,,,,,,
html-keyboard-response,86,118180,null,"<div style=""font-size:42px;"">GRATEFUL</div><img id = ""stim"" ><div class = green_square id = ""bottomsquare"" ></div>",null,practice2,word_square,,prac_response,1,Bottom,32,true,,,,,,,
html-keyboard-response,87,118489,140.90000009536743,"<div style=""font-size:42px;"">GRATEFUL</div>",32,,word,GRATEFUL,,,,,,,,,,,,
html-keyboard-response,88,119994,null,"",null,,word,GRATEFUL,,,,,,,,,,,,
html-keyboard-response,89,120205,null,"<div style=""font-size:42px;"">LOUD</div><img id = ""stim"" ><div class = red_square id = ""topsquare"" ></div>",null,practice2,word_square,,prac_response,0,Top,none,true,,,,,,,
html-keyboard-response,90,120508,null,"<div style=""font-size:42px;"">LOUD</div>",null,,word,LOUD,,,,,,,,,,,,
html-keyboard-response,91,122019,null,"",null,,word,LOUD,,,,,,,,,,,,
html-keyboard-response,92,122222,null,"<div style=""font-size:42px;"">SMART</div><img id = ""stim"" ><div class = green_square id = ""topsquare"" ></div>",null,practice2,word_square,,prac_response,1,Top,32,true,,,,,,,
html-keyboard-response,93,122532,194,"<div style=""font-size:42px;"">SMART</div>",32,,word,SMART,,,,,,,,,,,,
html-keyboard-response,94,124045,null,"",null,,word,SMART,,,,,,,,,,,,
html-keyboard-response,95,124255,null,"<div style=""font-size:42px;"">SMOOTH</div><img id = ""stim"" ><div class = green_square id = ""bottomsquare"" ></div>",null,practice2,word_square,,prac_response,1,Bottom,32,true,,,,,,,
html-keyboard-response,96,124557,185.40000009536743,"<div style=""font-size:42px;"">SMOOTH</div>",32,,word,SMOOTH,,,,,,,,,,,,
html-keyboard-response,97,126070,null,"",null,,word,SMOOTH,,,,,,,,,,,,
html-keyboard-response,98,126280,null,"<div style=""font-size:42px;"">DISHONEST</div><img id = ""stim"" ><div class = red_square id = ""bottomsquare"" ></div>",null,practice2,word_square,DISHONEST,prac_response,0,Bottom,none,true,,,,,,,
html-keyboard-response,99,126590,null,"<div style=""font-size:42px;"">DISHONEST</div>",null,,word,DISHONEST,,,,,,,,,,,,
html-keyboard-response,100,128104,null,"",null,,word,DISHONEST,,,,,,,,,,,,
html-keyboard-response,101,128313,null,"<div style=""font-size:42px;"">WEALTHY</div><img id = ""stim"" ><div class = green_square id = ""topsquare"" ></div>",null,practice2,word_square,,prac_response,1,Top,32,true,,,,,,,
html-keyboard-response,102,128616,145.70000004768372,"<div style=""font-size:42px;"">WEALTHY</div>",32,,word,WEALTHY,,,,,,,,,,,,
html-keyboard-response,103,130128,null,"",null,,word,WEALTHY,,,,,,,,,,,,
html-keyboard-response,104,130338,null,"<div style=""font-size:42px;"">BEAUTIFUL</div><img id = ""stim"" ><div class = red_square id = ""topsquare"" ></div>",null,practice2,word_square,,prac_response,0,Top,none,true,,,,,,,
html-keyboard-response,105,130641,null,"<div style=""font-size:42px;"">BEAUTIFUL</div>",null,,word,BEAUTIFUL,,,,,,,,,,,,
html-keyboard-response,106,132150,null,"",null,,word,BEAUTIFUL,,,,,,,,,,,,
html-keyboard-response,107,136785,4633.400000095367,"<p> Good job! You responded correctly to 100% of the trials. </p>
                    <p>Be sure to only press the spacebar if you see a GREEN square, and please keep your accuracy above 80%.</p>
                    <p>Press any key to begin the math and recall sections. Thank you! </p>",32,,,,,,,,,,,,,,,
call-function,108,136786,,"",,,,,,,,,,,,,,,,
html-keyboard-response,109,136888,null,"",null,,,,,,,,,,,,,,,
math-period,110,141468,6532.299999952316,"",,,,,,,,,,,6,,,,,
html-keyboard-response,111,141572,null,"",null,,,,,,,,,,,,,,,
math-period,112,144926,6327.099999666214,"",,,,,,,,,,,2,,,,,
html-keyboard-response,113,145029,null,"",null,,,,,,,,,,,,,,,
math-period,114,147872,5279.900000095367,"",,,,,,,,,,,1,,,,,
html-keyboard-response,115,147986,null,"",null,,,,,,,,,,,,,,,
math-period,116,149706,2981.0999999046326,"",,,,,,,,,,,3,,,,,
html-keyboard-response,117,149807,null,"",null,,,,,,,,,,,,,,,
math-period,118,151683,3424.5,"",,,,,,,,,,,4,,,,,
html-keyboard-response,119,151787,null,"",null,,,,,,,,,,,,,,,
math-period,120,154306,4633.099999904633,"",,,,,,,,,,,0,,,,,
html-keyboard-response,121,154412,null,"",null,,,,,,,,,,,,,,,
math-period,122,156233,3231.199999809265,"",,,,,,,,,,,1,,,,,
html-keyboard-response,123,156338,null,"",null,,,,,,,,,,,,,,,
math-period,124,157906,2688.9999997615814,"",,,,,,,,,,,3,,,,,
html-keyboard-response,125,158011,null,"",null,,,,,,,,,,,,,,,
math-period,126,159665,2862.2000002861023,"",,,,,,,,,,,2,,,,,
html-keyboard-response,127,159770,null,"",null,,,,,,,,,,,,,,,
math-period,128,160794,null,"",,,,,,,,,,,,,,,,
html-keyboard-response,129,161801,null,"Recall Period!",null,,,,,,,,,,,,,,,
call-function,130,161802,,"",,,,,,,,,,,,,,,,
html-keyboard-response,131,161919,null,"",null,,,,,,,,,,,,,,,
recall-period,132,167234,26853.70000076294,"",,,,,,,,,,,happy,,,,,
html-keyboard-response,133,167337,null,"",null,,,,,,,,,,,,,,,
recall-period,134,169565,9742.700000286102,"",,,,,,,,,,,funny,,,,,
html-keyboard-response,135,169669,null,"",null,,,,,,,,,,,,,,,
recall-period,136,171798,9674.200000286102,"",,,,,,,,,,,smart,,,,,
html-keyboard-response,137,171912,null,"",null,,,,,,,,,,,,,,,
recall-period,138,174424,12755.79999947548,"",,,,,,,,,,,beautiful,,,,,
html-keyboard-response,139,174535,null,"",null,,,,,,,,,,,,,,,
recall-period,140,176675,9906.199999809265,"",,,,,,,,,,,wealthy,,,,,
html-keyboard-response,141,176777,null,"",null,,,,,,,,,,,,,,,
recall-period,142,179990,18690.10000038147,"",,,,,,,,,,,dishonest,,,,,
html-keyboard-response,143,180095,null,"",null,,,,,,,,,,,,,,,
recall-period,144,183798,7205.500000476837,"",,,,,,,,,,,scary,,,,,
html-keyboard-response,145,183913,null,"",null,,,,,,,,,,,,,,,
recall-period,146,185521,7001.700000524521,"",,,,,,,,,,,little,,,,,
html-keyboard-response,147,185635,null,"",null,,,,,,,,,,,,,,,
recall-period,148,214022,139830.2000002861,"",,,,,,,,,,,cold,,,,,
html-keyboard-response,149,214128,null,"",null,,,,,,,,,,,,,,,
recall-period,150,235327,250769.4000005722,"",,,,,,,,,,,persuasive,,,,,
html-keyboard-response,151,235443,null,"",null,,,,,,,,,,,,,,,
recall-period,152,236810,null,"",,,,,,,,,,,,,,,,
html-keyboard-response,153,237319,null,"Time's Up!",null,,,,,,,,,,,,,,,
html-keyboard-response,154,243626,6305.700000047684,"<p>We will now begin the experiment!<p><p>Please try to remember all words from each list.<p><p>Press the spacebar whenever you see a GREEN square.<p><p><p><p>Press the spacebar to begin.</p>",32,,,,,,,,,,,,,,,
html-keyboard-response,155,245807,1671,"<div style=""font-size:48px;"">Press any key to begin list 1 of 16 </div>",32,,,,,,,,,,,,,,,
html-keyboard-response,156,248328,null,"<div style=""font-size:60px;"">+</div>",null,,,,,,,,,,,,,,,
html-keyboard-response,157,248543,null,"<div style=""font-size:42px;"">DART</div><img id = ""stim"" ><div class = green_square id = topsquare></div>",null,encoding,word_square,,,1,topsquare,32,true,,,DART,0,,,
html-keyboard-response,158,248854,189.90000009536743,"<div style=""font-size:42px;"">DART</div>",32,,word,DART,,,,,,,,,,,,
html-keyboard-response,159,250360,null,"",null,,word,DART,,,,,,,,,,,,
html-keyboard-response,160,250572,null,"<div style=""font-size:42px;"">SLIME</div><img id = ""stim"" ><div class = red_square id = bottomsquare></div>",null,encoding,word_square,,,0,bottomsquare,none,true,,,SLIME,0,,,
html-keyboard-response,161,250888,null,"<div style=""font-size:42px;"">SLIME</div>",null,,word,SLIME,,,,,,,,,,,,
html-keyboard-response,162,252401,null,"",null,,word,SLIME,,,,,,,,,,,,
html-keyboard-response,163,252613,null,"<div style=""font-size:42px;"">SLEEVE</div><img id = ""stim"" ><div class = red_square id = topsquare></div>",null,encoding,word_square,,,0,topsquare,none,true,,,SLEEVE,0,,,
html-keyboard-response,164,252922,null,"<div style=""font-size:42px;"">SLEEVE</div>",null,,word,SLEEVE,,,,,,,,,,,,
html-keyboard-response,165,254438,null,"",null,,word,SLEEVE,,,,,,,,,,,,
html-keyboard-response,166,254655,null,"<div style=""font-size:42px;"">DRINK</div><img id = ""stim"" ><div class = green_square id = bottomsquare></div>",null,encoding,word_square,,,1,bottomsquare,32,true,,,DRINK,0,,,
html-keyboard-response,167,254956,110,"<div style=""font-size:42px;"">DRINK</div>",32,,word,DRINK,,,,,,,,,,,,
html-keyboard-response,168,256469,null,"",null,,word,DRINK,,,,,,,,,,,,
html-keyboard-response,169,256678,null,"<div style=""font-size:42px;"">VALVE</div><img id = ""stim"" ><div class = red_square id = bottomsquare></div>",null,encoding,word_square,,,0,bottomsquare,none,true,,,VALVE,0,,,
html-keyboard-response,170,256981,null,"<div style=""font-size:42px;"">VALVE</div>",null,,word,VALVE,,,,,,,,,,,,
html-keyboard-response,171,258493,null,"",null,,word,VALVE,,,,,,,,,,,,
html-keyboard-response,172,258696,null,"<div style=""font-size:42px;"">DOLPHIN</div><img id = ""stim"" ><div class = red_square id = topsquare></div>",null,encoding,word_square,,,0,topsquare,none,true,,,DOLPHIN,0,,,
html-keyboard-response,173,259006,null,"<div style=""font-size:42px;"">DOLPHIN</div>",null,,word,DOLPHIN,,,,,,,,,,,,
html-keyboard-response,174,260518,null,"",null,,word,DOLPHIN,,,,,,,,,,,,
html-keyboard-response,175,260728,null,"<div style=""font-size:42px;"">ASIA</div><img id = ""stim"" ><div class = green_square id = topsquare></div>",null,encoding,word_square,,,1,topsquare,32,true,,,ASIA,0,,,
html-keyboard-response,176,261031,157.5,"<div style=""font-size:42px;"">ASIA</div>",32,,word,ASIA,,,,,,,,,,,,
html-keyboard-response,177,262533,null,"",null,,word,ASIA,,,,,,,,,,,,
html-keyboard-response,178,262746,null,"<div style=""font-size:42px;"">JAPAN</div><img id = ""stim"" ><div class = red_square id = bottomsquare></div>",null,encoding,word_square,,,0,bottomsquare,none,true,,,JAPAN,0,,,
html-keyboard-response,179,263048,null,"<div style=""font-size:42px;"">JAPAN</div>",null,,word,JAPAN,,,,,,,,,,,,
html-keyboard-response,180,264560,null,"",null,,word,JAPAN,,,,,,,,,,,,
html-keyboard-response,181,264772,null,"<div style=""font-size:42px;"">ISLAND</div><img id = ""stim"" ><div class = green_square id = bottomsquare></div>",null,encoding,word_square,,,1,bottomsquare,32,true,,,ISLAND,0,,,
html-keyboard-response,182,265081,133.40000009536743,"<div style=""font-size:42px;"">ISLAND</div>",32,,word,ISLAND,,,,,,,,,,,,
html-keyboard-response,183,266583,null,"",null,,word,ISLAND,,,,,,,,,,,,
html-keyboard-response,184,266797,null,"<div style=""font-size:42px;"">PARTNER</div><img id = ""stim"" ><div class = green_square id = topsquare></div>",null,encoding,word_square,,,1,topsquare,32,true,,,PARTNER,0,,,
html-keyboard-response,185,267106,252.20000004768372,"<div style=""font-size:42px;"">PARTNER</div>",32,,word,PARTNER,,,,,,,,,,,,
html-keyboard-response,186,268618,null,"",null,,word,PARTNER,,,,,,,,,,,,
html-keyboard-response,187,268829,null,"<div style=""font-size:42px;"">BOYFRIEND</div><img id = ""stim"" ><div class = green_square id = bottomsquare></div>",null,encoding,word_square,,,1,bottomsquare,32,true,,,BOYFRIEND,0,,,
html-keyboard-response,188,269139,205.90000009536743,"<div style=""font-size:42px;"">BOYFRIEND</div>",32,,word,BOYFRIEND,,,,,,,,,,,,
html-keyboard-response,189,270643,null,"",null,,word,BOYFRIEND,,,,,,,,,,,,
html-keyboard-response,190,270846,null,"<div style=""font-size:42px;"">CHURCH</div><img id = ""stim"" ><div class = red_square id = topsquare></div>",null,encoding,word_square,,,0,topsquare,none,true,,,CHURCH,0,,,
html-keyboard-response,191,271148,null,"<div style=""font-size:42px;"">CHURCH</div>",null,,word,CHURCH,,,,,,,,,,,,
html-keyboard-response,192,272659,null,"",null,,word,CHURCH,,,,,,,,,,,,
html-keyboard-response,193,272871,null,"<div style=""font-size:42px;"">HORSE</div><img id = ""stim"" ><div class = green_square id = topsquare></div>",null,encoding,word_square,,,1,topsquare,32,true,,,HORSE,0,,,
html-keyboard-response,194,273173,178.20000004768372,"<div style=""font-size:42px;"">HORSE</div>",32,,word,HORSE,,,,,,,,,,,,
html-keyboard-response,195,274682,null,"",null,,word,HORSE,,,,,,,,,,,,
html-keyboard-response,196,274888,null,"<div style=""font-size:42px;"">PARTY</div><img id = ""stim"" ><div class = red_square id = bottomsquare></div>",null,encoding,word_square,,,0,bottomsquare,none,true,,,PARTY,0,,,
html-keyboard-response,197,275205,null,"<div style=""font-size:42px;"">PARTY</div>",null,,word,PARTY,,,,,,,,,,,,
html-keyboard-response,198,276718,null,"",null,,word,PARTY,,,,,,,,,,,,
html-keyboard-response,199,276931,null,"<div style=""font-size:42px;"">VILLAIN</div><img id = ""stim"" ><div class = red_square id = topsquare></div>",null,encoding,word_square,,,0,topsquare,none,true,,,VILLAIN,0,,,
html-keyboard-response,200,277239,null,"<div style=""font-size:42px;"">VILLAIN</div>",null,,word,VILLAIN,,,,,,,,,,,,
html-keyboard-response,201,278751,null,"",null,,word,VILLAIN,,,,,,,,,,,,
html-keyboard-response,202,278963,null,"<div style=""font-size:42px;"">CROSS</div><img id = ""stim"" ><div class = green_square id = bottomsquare></div>",null,encoding,word_square,,,1,bottomsquare,32,true,,,CROSS,0,,,
html-keyboard-response,203,279279,124.70000004768372,"<div style=""font-size:42px;"">CROSS</div>",32,,word,CROSS,,,,,,,,,,,,
html-keyboard-response,204,280785,null,"",null,,word,CROSS,,,,,,,,,,,,
call-function,205,280786,,"",,,,,,,,,,,,,,,,
html-keyboard-response,206,280894,null,"",null,,,,,,,,,,,,,,,
math-period,207,284481,6301.900000333786,"",,,,,,,,,,,2,,,,,
html-keyboard-response,208,284587,null,"",null,,,,,,,,,,,,,,,
math-period,209,286027,2470.2000000476837,"",,,,,,,,,,,3,,,,,
html-keyboard-response,210,286143,null,"",null,,,,,,,,,,,,,,,
math-period,211,289026,5390.400000095367,"",,,,,,,,,,,3,,,,,
html-keyboard-response,212,289128,null,"",null,,,,,,,,,,,,,,,
math-period,213,290592,2618.9000000953674,"",,,,,,,,,,,3,,,,,
html-keyboard-response,214,290694,null,"",null,,,,,,,,,,,,,,,
math-period,215,292738,3806.0000002384186,"",,,,,,,,,,,1,,,,,
html-keyboard-response,216,292847,null,"",null,,,,,,,,,,,,,,,
math-period,217,294269,2499.300000190735,"",,,,,,,,,,,3,,,,,
html-keyboard-response,218,294371,null,"",null,,,,,,,,,,,,,,,
math-period,219,295860,2579.100000143051,"",,,,,,,,,,,4,,,,,
html-keyboard-response,220,295968,null,"",null,,,,,,,,,,,,,,,
math-period,221,297527,2745.0999999046326,"",,,,,,,,,,,4,,,,,
html-keyboard-response,222,297629,null,"",null,,,,,,,,,,,,,,,
math-period,223,299047,2507.1000003814697,"",,,,,,,,,,,5,,,,,
html-keyboard-response,224,299152,null,"",null,,,,,,,,,,,,,,,
math-period,225,300305,1898.5999999046326,"",,,,,,,,,,,5,,,,,
html-keyboard-response,226,300410,null,"",null,,,,,,,,,,,,,,,
math-period,227,301868,2277.5000002384186,"",,,,,,,,,,,5,,,,,
html-keyboard-response,228,301970,null,"",null,,,,,,,,,,,,,,,
math-period,229,303784,3070.2999999523163,"",,,,,,,,,,,4,,,,,
html-keyboard-response,230,303895,null,"",null,,,,,,,,,,,,,,,
math-period,231,304792,null,"",,,,,,,,,,,,,,,,
html-keyboard-response,232,305801,null,"Recall Period!",null,,,,,,,,,,,,,,,
call-function,233,305801,,"",,,,,,,,,,,,,,,,
html-keyboard-response,234,305905,null,"",null,,,,,,,,,,,,,,,
recall-period,235,309256,13907.999999523163,"",,,,,,,,,,,Asia,,,,,
html-keyboard-response,236,309362,null,"",null,,,,,,,,,,,,,,,
recall-period,237,311403,5845.300000667572,"",,,,,,,,,,,dart,,,,,
html-keyboard-response,238,311512,null,"",null,,,,,,,,,,,,,,,
recall-period,239,315524,23611.500000715256,"",,,,,,,,,,,Japan,,,,,
html-keyboard-response,240,315627,null,"",null,,,,,,,,,,,,,,,
recall-period,241,317270,6444.499999761581,"",,,,,,,,,,,island,,,,,
html-keyboard-response,242,317385,null,"",null,,,,,,,,,,,,,,,
recall-period,243,319323,8944.300000190735,"",,,,,,,,,,,horse,,,,,
html-keyboard-response,244,319436,null,"",null,,,,,,,,,,,,,,,
recall-period,245,321603,10389.10000038147,"",,,,,,,,,,,dolphin,,,,,
html-keyboard-response,246,321718,null,"",null,,,,,,,,,,,,,,,
recall-period,247,324053,11232.499999523163,"",,,,,,,,,,,partner,,,,,
html-keyboard-response,248,324168,null,"",null,,,,,,,,,,,,,,,
recall-period,249,326413,14892.400000095367,"",,,,,,,,,,,boyfriend,,,,,
html-keyboard-response,250,326527,null,"",null,,,,,,,,,,,,,,,
recall-period,251,328878,9752.300000667572,"",,,,,,,,,,,villain,,,,,
html-keyboard-response,252,328985,null,"",null,,,,,,,,,,,,,,,
recall-period,253,332657,21374.900000333786,"",,,,,,,,,,,church,,,,,
html-keyboard-response,254,332759,null,"",null,,,,,,,,,,,,,,,
recall-period,255,350366,102527.99999976158,"",,,,,,,,,,,slime,,,,,
html-keyboard-response,256,350467,null,"",null,,,,,,,,,,,,,,,
recall-period,257,380810,null,"",,,,,,,,,,,,,,,,
html-keyboard-response,258,381325,null,"Time's Up!",null,,,,,,,,,,,,,,,
html-keyboard-response,259,387123,5796.399999856949,"<p> Good job! You have responded correctly to 100% of the trials. </p>
                      <p>Be sure to only press the spacebar if you see a GREEN square, and please keep your accuracy above 80%.</p>
                      <p> Press any key to continue the experiment. </p>",32,,,,,,,,,,,,,,,
html-keyboard-response,260,388509,1385.7999999523163,"<div style=""font-size:48px;"">Press any key to begin list 2 of 16 </div>",32,,,,,,,,,,,,,,,
html-keyboard-response,261,391032,null,"<div style=""font-size:60px;"">+</div>",null,,,,,,,,,,,,,,,
html-keyboard-response,262,391246,null,"<div style=""font-size:42px;"">BIKE</div><img id = ""stim"" ><div class = green_square id = bottomsquare></div>",null,encoding,word_square,,,1,bottomsquare,32,true,,,BIKE,1,,,
html-keyboard-response,263,391555,279.7000000476837,"<div style=""font-size:42px;"">BIKE</div>",32,,word,BIKE,,,,,,,,,,,,
html-keyboard-response,264,393060,null,"",null,,word,BIKE,,,,,,,,,,,,
html-keyboard-response,265,393267,null,"<div style=""font-size:42px;"">SPINACH</div><img id = ""stim"" ><div class = red_square id = topsquare></div>",null,encoding,word_square,,,0,topsquare,none,true,,,SPINACH,1,,,
html-keyboard-response,266,393572,null,"<div style=""font-size:42px;"">SPINACH</div>",null,,word,SPINACH,,,,,,,,,,,,
html-keyboard-response,267,395084,null,"",null,,word,SPINACH,,,,,,,,,,,,
html-keyboard-response,268,395295,null,"<div style=""font-size:42px;"">FOOT</div><img id = ""stim"" ><div class = red_square id = bottomsquare></div>",null,encoding,word_square,,,0,bottomsquare,none,true,,,FOOT,1,,,
html-keyboard-response,269,395598,null,"<div style=""font-size:42px;"">FOOT</div>",null,,word,FOOT,,,,,,,,,,,,
html-keyboard-response,270,397110,null,"",null,,word,FOOT,,,,,,,,,,,,
html-keyboard-response,271,397320,null,"<div style=""font-size:42px;"">BLACKBOARD</div><img id = ""stim"" ><div class = green_square id = topsquare></div>",null,encoding,word_square,,,1,topsquare,32,true,,,BLACKBOARD,1,,,
html-keyboard-response,272,397623,213.89999985694885,"<div style=""font-size:42px;"">BLACKBOARD</div>",32,,word,BLACKBOARD,,,,,,,,,,,,
html-keyboard-response,273,399134,null,"",null,,word,BLACKBOARD,,,,,,,,,,,,
html-keyboard-response,274,399345,null,"<div style=""font-size:42px;"">MONGOOSE</div><img id = ""stim"" ><div class = red_square id = topsquare></div>",null,encoding,word_square,,,0,topsquare,none,true,,,MONGOOSE,1,,,
html-keyboard-response,275,399647,null,"<div style=""font-size:42px;"">MONGOOSE</div>",null,,word,MONGOOSE,,,,,,,,,,,,
html-keyboard-response,276,401159,null,"",null,,word,MONGOOSE,,,,,,,,,,,,
html-keyboard-response,277,401371,null,"<div style=""font-size:42px;"">HOSTESS</div><img id = ""stim"" ><div class = green_square id = bottomsquare></div>",null,encoding,word_square,,,1,bottomsquare,32,true,,,HOSTESS,1,,,
html-keyboard-response,278,401680,115.20000004768372,"<div style=""font-size:42px;"">HOSTESS</div>",32,,word,HOSTESS,,,,,,,,,,,,
html-keyboard-response,279,403192,null,"",null,,word,HOSTESS,,,,,,,,,,,,
html-keyboard-response,280,403404,null,"<div style=""font-size:42px;"">WAITRESS</div><img id = ""stim"" ><div class = green_square id = topsquare></div>",null,encoding,word_square,,,1,topsquare,32,true,,,WAITRESS,1,,,
html-keyboard-response,281,403721,140.29999995231628,"<div style=""font-size:42px;"">WAITRESS</div>",32,,word,WAITRESS,,,,,,,,,,,,
html-keyboard-response,282,405233,null,"",null,,word,WAITRESS,,,,,,,,,,,,
html-keyboard-response,283,405437,null,"<div style=""font-size:42px;"">SAND</div><img id = ""stim"" ><div class = green_square id = bottomsquare></div>",null,encoding,word_square,,,1,bottomsquare,32,true,,,SAND,1,,,
html-keyboard-response,284,405747,140.90000009536743,"<div style=""font-size:42px;"">SAND</div>",32,,word,SAND,,,,,,,,,,,,
html-keyboard-response,285,407259,null,"",null,,word,SAND,,,,,,,,,,,,
html-keyboard-response,286,407470,null,"<div style=""font-size:42px;"">CAFE</div><img id = ""stim"" ><div class = red_square id = bottomsquare></div>",null,encoding,word_square,,,0,bottomsquare,none,true,,,CAFE,1,,,
html-keyboard-response,287,407780,null,"<div style=""font-size:42px;"">CAFE</div>",null,,word,CAFE,,,,,,,,,,,,
html-keyboard-response,288,409292,null,"",null,,word,CAFE,,,,,,,,,,,,
html-keyboard-response,289,409504,null,"<div style=""font-size:42px;"">SUPPER</div><img id = ""stim"" ><div class = green_square id = topsquare></div>",null,encoding,word_square,,,1,topsquare,32,true,,,SUPPER,1,,,
html-keyboard-response,290,409807,162.40000009536743,"<div style=""font-size:42px;"">SUPPER</div>",32,,word,SUPPER,,,,,,,,,,,,
html-keyboard-response,291,411317,null,"",null,,word,SUPPER,,,,,,,,,,,,
html-keyboard-response,292,411529,null,"<div style=""font-size:42px;"">PUPIL</div><img id = ""stim"" ><div class = red_square id = topsquare></div>",null,encoding,word_square,,,0,topsquare,none,true,,,PUPIL,1,,,
html-keyboard-response,293,411838,null,"<div style=""font-size:42px;"">PUPIL</div>",null,,word,PUPIL,,,,,,,,,,,,
html-keyboard-response,294,413349,null,"",null,,word,PUPIL,,,,,,,,,,,,
html-keyboard-response,295,413563,null,"<div style=""font-size:42px;"">PEDAL</div><img id = ""stim"" ><div class = red_square id = bottomsquare></div>",null,encoding,word_square,,,0,bottomsquare,none,true,,,PEDAL,1,,,
html-keyboard-response,296,413871,null,"<div style=""font-size:42px;"">PEDAL</div>",null,,word,PEDAL,,,,,,,,,,,,
html-keyboard-response,297,415383,null,"",null,,word,PEDAL,,,,,,,,,,,,
html-keyboard-response,298,415596,null,"<div style=""font-size:42px;"">CORAL</div><img id = ""stim"" ><div class = green_square id = bottomsquare></div>",null,encoding,word_square,,,1,bottomsquare,32,true,,,CORAL,1,,,
html-keyboard-response,299,415913,105.89999985694885,"<div style=""font-size:42px;"">CORAL</div>",32,,word,CORAL,,,,,,,,,,,,
html-keyboard-response,300,417426,null,"",null,,word,CORAL,,,,,,,,,,,,
html-keyboard-response,301,417636,null,"<div style=""font-size:42px;"">COFFIN</div><img id = ""stim"" ><div class = red_square id = topsquare></div>",null,encoding,word_square,,,0,topsquare,none,true,,,COFFIN,1,,,
html-keyboard-response,302,417939,null,"<div style=""font-size:42px;"">COFFIN</div>",null,,word,COFFIN,,,,,,,,,,,,
html-keyboard-response,303,419451,null,"",null,,word,COFFIN,,,,,,,,,,,,
html-keyboard-response,304,419662,null,"<div style=""font-size:42px;"">MARKET</div><img id = ""stim"" ><div class = red_square id = bottomsquare></div>",null,encoding,word_square,,,0,bottomsquare,none,true,,,MARKET,1,,,
html-keyboard-response,305,419980,null,"<div style=""font-size:42px;"">MARKET</div>",null,,word,MARKET,,,,,,,,,,,,
html-keyboard-response,306,421492,null,"",null,,word,MARKET,,,,,,,,,,,,
html-keyboard-response,307,421704,null,"<div style=""font-size:42px;"">PAPER</div><img id = ""stim"" ><div class = green_square id = topsquare></div>",null,encoding,word_square,,,1,topsquare,32,true,,,PAPER,1,,,
html-keyboard-response,308,422014,162.40000009536743,"<div style=""font-size:42px;"">PAPER</div>",32,,word,PAPER,,,,,,,,,,,,
html-keyboard-response,309,423525,null,"",null,,word,PAPER,,,,,,,,,,,,
call-function,310,423526,,"",,,,,,,,,,,,,,,,
html-keyboard-response,311,423636,null,"",null,,,,,,,,,,,,,,,
math-period,312,425924,3680.7999999523163,"",,,,,,,,,,,4,,,,,
html-keyboard-response,313,426028,null,"",null,,,,,,,,,,,,,,,
math-period,314,428617,4680.199999809265,"",,,,,,,,,,,0,,,,,
html-keyboard-response,315,428719,null,"",null,,,,,,,,,,,,,,,
math-period,316,430334,2933.900000333786,"",,,,,,,,,,,1,,,,,
html-keyboard-response,317,430435,null,"",null,,,,,,,,,,,,,,,
math-period,318,431955,2740.899999856949,"",,,,,,,,,,,6,,,,,
html-keyboard-response,319,432062,null,"",null,,,,,,,,,,,,,,,
math-period,320,434508,4262.000000238419,"",,,,,,,,,,,2,,,,,
html-keyboard-response,321,434612,null,"",null,,,,,,,,,,,,,,,
math-period,322,436551,3555.2999999523163,"",,,,,,,,,,,1,,,,,
html-keyboard-response,323,436667,null,"",null,,,,,,,,,,,,,,,
math-period,324,438128,2556.600000143051,"",,,,,,,,,,,1,,,,,
html-keyboard-response,325,438242,null,"",null,,,,,,,,,,,,,,,
math-period,326,440352,3738.800000190735,"",,,,,,,,,,,2,,,,,
html-keyboard-response,327,440468,null,"",null,,,,,,,,,,,,,,,
math-period,328,442164,2900.800000190735,"",,,,,,,,,,,4,,,,,
html-keyboard-response,329,442269,null,"",null,,,,,,,,,,,,,,,
math-period,330,444069,2837.300000190735,"",,,,,,,,,,,5,,,,,
html-keyboard-response,331,444184,null,"",null,,,,,,,,,,,,,,,
math-period,332,446315,3785.9000000953674,"",,,,,,,,,,,2,,,,,
html-keyboard-response,333,446427,null,"",null,,,,,,,,,,,,,,,
math-period,334,447535,null,"",,,,,,,,,,,,,,,,
html-keyboard-response,335,448542,null,"Recall Period!",null,,,,,,,,,,,,,,,
call-function,336,448543,,"",,,,,,,,,,,,,,,,
html-keyboard-response,337,448659,null,"",null,,,,,,,,,,,,,,,
recall-period,338,450785,7823.000000476837,"",,,,,,,,,,,bike,,,,,
html-keyboard-response,339,450902,null,"",null,,,,,,,,,,,,,,,
recall-period,340,453593,6640.300000190735,"",,,,,,,,,,,pedal,,,,,
html-keyboard-response,341,453708,null,"",null,,,,,,,,,,,,,,,
recall-period,342,456120,9860.200000047684,"",,,,,,,,,,,pupil,,,,,
html-keyboard-response,343,456226,null,"",null,,,,,,,,,,,,,,,
recall-period,344,460038,24106.000001192093,"",,,,,,,,,,,blackboard,,,,,
html-keyboard-response,345,460143,null,"",null,,,,,,,,,,,,,,,
recall-period,346,462062,6076.399999856949,"",,,,,,,,,,,paper,,,,,
html-keyboard-response,347,462168,null,"",null,,,,,,,,,,,,,,,
recall-period,348,464362,8582.100000143051,"",,,,,,,,,,,market,,,,,
html-keyboard-response,349,464466,null,"",null,,,,,,,,,,,,,,,
recall-period,350,465694,3696.200000524521,"",,,,,,,,,,,sand,,,,,
html-keyboard-response,351,465800,null,"",null,,,,,,,,,,,,,,,
recall-period,352,470284,23518.799999713898,"",,,,,,,,,,,coral,,,,,
html-keyboard-response,353,470398,null,"",null,,,,,,,,,,,,,,,
recall-period,354,478480,56270.499999284744,"",,,,,,,,,,,spinach,,,,,
html-keyboard-response,355,478587,null,"",null,,,,,,,,,,,,,,,
recall-period,356,523556,null,"",,,,,,,,,,,,,,,,
html-keyboard-response,357,524065,null,"Time's Up!",null,,,,,,,,,,,,,,,
html-keyboard-response,358,526298,2231.5,"<p> Good job! You have responded correctly to 100% of the trials. </p>
                      <p>Be sure to only press the spacebar if you see a GREEN square, and please keep your accuracy above 80%.</p>
                      <p> Press any key to continue the experiment. </p>",32,,,,,,,,,,,,,,,
html-keyboard-response,359,528773,2473.600000143051,"<div style=""font-size:48px;"">Press any key to begin list 3 of 16 </div>",32,,,,,,,,,,,,,,,
html-keyboard-response,360,531292,null,"<div style=""font-size:60px;"">+</div>",null,,,,,,,,,,,,,,,
html-keyboard-response,361,531503,null,"<div style=""font-size:42px;"">PRIMATE</div><img id = ""stim"" ><div class = red_square id = bottomsquare></div>",null,encoding,word_square,,,0,bottomsquare,none,true,,,PRIMATE,2,,,
html-keyboard-response,362,531819,null,"<div style=""font-size:42px;"">PRIMATE</div>",null,,word,PRIMATE,,,,,,,,,,,,
html-keyboard-response,363,533329,null,"",null,,word,PRIMATE,,,,,,,,,,,,
html-keyboard-response,364,533544,null,"<div style=""font-size:42px;"">MISTER</div><img id = ""stim"" ><div class = green_square id = topsquare></div>",null,encoding,word_square,,,1,topsquare,32,true,,,MISTER,2,,,
html-keyboard-response,365,533846,182.20000004768372,"<div style=""font-size:42px;"">MISTER</div>",32,,word,MISTER,,,,,,,,,,,,
html-keyboard-response,366,535358,null,"",null,,word,MISTER,,,,,,,,,,,,
html-keyboard-response,367,535570,null,"<div style=""font-size:42px;"">ARM</div><img id = ""stim"" ><div class = green_square id = bottomsquare></div>",null,encoding,word_square,,,1,bottomsquare,32,true,,,ARM,2,,,
html-keyboard-response,368,535887,246.40000009536743,"<div style=""font-size:42px;"">ARM</div>",32,,word,ARM,,,,,,,,,,,,
html-keyboard-response,369,537399,null,"",null,,word,ARM,,,,,,,,,,,,
html-keyboard-response,370,537611,null,"<div style=""font-size:42px;"">SPIDER</div><img id = ""stim"" ><div class = red_square id = topsquare></div>",null,encoding,word_square,,,0,topsquare,none,true,,,SPIDER,2,,,
html-keyboard-response,371,537928,null,"<div style=""font-size:42px;"">SPIDER</div>",null,,word,SPIDER,,,,,,,,,,,,
html-keyboard-response,372,539433,null,"",null,,word,SPIDER,,,,,,,,,,,,
html-keyboard-response,373,539636,null,"<div style=""font-size:42px;"">GODDESS</div><img id = ""stim"" ><div class = green_square id = topsquare></div>",null,encoding,word_square,,,1,topsquare,32,true,,,GODDESS,2,,,
html-keyboard-response,374,539938,207,"<div style=""font-size:42px;"">GODDESS</div>",32,,word,GODDESS,,,,,,,,,,,,
html-keyboard-response,375,541449,null,"",null,,word,GODDESS,,,,,,,,,,,,
html-keyboard-response,376,541660,null,"<div style=""font-size:42px;"">PONY</div><img id = ""stim"" ><div class = green_square id = bottomsquare></div>",null,encoding,word_square,,,1,bottomsquare,32,true,,,PONY,2,,,
html-keyboard-response,377,541963,186.20000004768372,"<div style=""font-size:42px;"">PONY</div>",32,,word,PONY,,,,,,,,,,,,
html-keyboard-response,378,543474,null,"",null,,word,PONY,,,,,,,,,,,,
html-keyboard-response,379,543686,null,"<div style=""font-size:42px;"">NOVEL</div><img id = ""stim"" ><div class = red_square id = bottomsquare></div>",null,encoding,word_square,,,0,bottomsquare,none,true,,,NOVEL,2,,,
html-keyboard-response,380,544003,null,"<div style=""font-size:42px;"">NOVEL</div>",null,,word,NOVEL,,,,,,,,,,,,
html-keyboard-response,381,545515,null,"",null,,word,NOVEL,,,,,,,,,,,,
html-keyboard-response,382,545727,null,"<div style=""font-size:42px;"">GIFT</div><img id = ""stim"" ><div class = green_square id = topsquare></div>",null,encoding,word_square,,,1,topsquare,32,true,,,GIFT,2,,,
html-keyboard-response,383,546029,118.59999990463257,"<div style=""font-size:42px;"">GIFT</div>",32,,word,GIFT,,,,,,,,,,,,
html-keyboard-response,384,547541,null,"",null,,word,GIFT,,,,,,,,,,,,
html-keyboard-response,385,547753,null,"<div style=""font-size:42px;"">POSTAGE</div><img id = ""stim"" ><div class = red_square id = topsquare></div>",null,encoding,word_square,,,0,topsquare,none,true,,,POSTAGE,2,,,
html-keyboard-response,386,548070,null,"<div style=""font-size:42px;"">POSTAGE</div>",null,,word,POSTAGE,,,,,,,,,,,,
html-keyboard-response,387,549574,null,"",null,,word,POSTAGE,,,,,,,,,,,,
html-keyboard-response,388,549786,null,"<div style=""font-size:42px;"">PIRATE</div><img id = ""stim"" ><div class = red_square id = bottomsquare></div>",null,encoding,word_square,,,0,bottomsquare,none,true,,,PIRATE,2,,,
html-keyboard-response,389,550103,null,"<div style=""font-size:42px;"">PIRATE</div>",null,,word,PIRATE,,,,,,,,,,,,
html-keyboard-response,390,551616,null,"",null,,word,PIRATE,,,,,,,,,,,,
html-keyboard-response,391,551828,null,"<div style=""font-size:42px;"">JUNGLE</div><img id = ""stim"" ><div class = red_square id = topsquare></div>",null,encoding,word_square,,,0,topsquare,none,true,,,JUNGLE,2,,,
html-keyboard-response,392,552137,null,"<div style=""font-size:42px;"">JUNGLE</div>",null,,word,JUNGLE,,,,,,,,,,,,
html-keyboard-response,393,553652,null,"",null,,word,JUNGLE,,,,,,,,,,,,
html-keyboard-response,394,553869,null,"<div style=""font-size:42px;"">WAREHOUSE</div><img id = ""stim"" ><div class = green_square id = bottomsquare></div>",null,encoding,word_square,,,1,bottomsquare,32,true,,,WAREHOUSE,2,,,
html-keyboard-response,395,554171,125.20000004768372,"<div style=""font-size:42px;"">WAREHOUSE</div>",32,,word,WAREHOUSE,,,,,,,,,,,,
html-keyboard-response,396,555683,null,"",null,,word,WAREHOUSE,,,,,,,,,,,,
html-keyboard-response,397,555894,null,"<div style=""font-size:42px;"">COCOON</div><img id = ""stim"" ><div class = red_square id = bottomsquare></div>",null,encoding,word_square,,,0,bottomsquare,none,true,,,COCOON,2,,,
html-keyboard-response,398,556211,null,"<div style=""font-size:42px;"">COCOON</div>",null,,word,COCOON,,,,,,,,,,,,
html-keyboard-response,399,557716,null,"",null,,word,COCOON,,,,,,,,,,,,
html-keyboard-response,400,557927,null,"<div style=""font-size:42px;"">SUNRISE</div><img id = ""stim"" ><div class = green_square id = topsquare></div>",null,encoding,word_square,,,1,topsquare,32,true,,,SUNRISE,2,,,
html-keyboard-response,401,558237,199.10000014305115,"<div style=""font-size:42px;"">SUNRISE</div>",32,,word,SUNRISE,,,,,,,,,,,,
html-keyboard-response,402,559749,null,"",null,,word,SUNRISE,,,,,,,,,,,,
html-keyboard-response,403,559961,null,"<div style=""font-size:42px;"">SUNSET</div><img id = ""stim"" ><div class = green_square id = bottomsquare></div>",null,encoding,word_square,,,1,bottomsquare,32,true,,,SUNSET,2,,,
html-keyboard-response,404,560269,147.79999995231628,"<div style=""font-size:42px;"">SUNSET</div>",32,,word,SUNSET,,,,,,,,,,,,
html-keyboard-response,405,561775,null,"",null,,word,SUNSET,,,,,,,,,,,,
html-keyboard-response,406,561985,null,"<div style=""font-size:42px;"">STOCKING</div><img id = ""stim"" ><div class = red_square id = topsquare></div>",null,encoding,word_square,,,0,topsquare,none,true,,,STOCKING,2,,,
html-keyboard-response,407,562303,null,"<div style=""font-size:42px;"">STOCKING</div>",null,,word,STOCKING,,,,,,,,,,,,
html-keyboard-response,408,563815,null,"",null,,word,STOCKING,,,,,,,,,,,,
call-function,409,563816,,"",,,,,,,,,,,,,,,,
html-keyboard-response,410,563926,null,"",null,,,,,,,,,,,,,,,
math-period,411,566554,4946,"",,,,,,,,,,,6,,,,,
html-keyboard-response,412,566659,null,"",null,,,,,,,,,,,,,,,
math-period,413,568957,4286.200000047684,"",,,,,,,,,,,1,,,,,
html-keyboard-response,414,569061,null,"",null,,,,,,,,,,,,,,,
math-period,415,570696,2648.9000000953674,"",,,,,,,,,,,4,,,,,
html-keyboard-response,416,570800,null,"",null,,,,,,,,,,,,,,,
math-period,417,572542,2988.7000000476837,"",,,,,,,,,,,2,,,,,
html-keyboard-response,418,572644,null,"",null,,,,,,,,,,,,,,,
math-period,419,574764,3580.2999999523163,"",,,,,,,,,,,1,,,,,
html-keyboard-response,420,574872,null,"",null,,,,,,,,,,,,,,,
math-period,421,576390,2747.7000000476837,"",,,,,,,,,,,4,,,,,
html-keyboard-response,422,576500,null,"",null,,,,,,,,,,,,,,,
math-period,423,577971,2610,"",,,,,,,,,,,1,,,,,
html-keyboard-response,424,578076,null,"",null,,,,,,,,,,,,,,,
math-period,425,580684,4754.499999761581,"",,,,,,,,,,,2,,,,,
html-keyboard-response,426,580785,null,"",null,,,,,,,,,,,,,,,
math-period,427,583011,3949.699999809265,"",,,,,,,,,,,0,,,,,
html-keyboard-response,428,583116,null,"",null,,,,,,,,,,,,,,,
math-period,429,584940,3342.2999999523163,"",,,,,,,,,,,3,,,,,
html-keyboard-response,430,585043,null,"",null,,,,,,,,,,,,,,,
math-period,431,586724,3097.199999809265,"",,,,,,,,,,,1,,,,,
html-keyboard-response,432,586826,null,"",null,,,,,,,,,,,,,,,
math-period,433,587818,null,"",,,,,,,,,,,,,,,,
html-keyboard-response,434,588831,null,"Recall Period!",null,,,,,,,,,,,,,,,
call-function,435,588832,,"",,,,,,,,,,,,,,,,
html-keyboard-response,436,588935,null,"",null,,,,,,,,,,,,,,,
recall-period,437,591548,13825.599999904633,"",,,,,,,,,,,primate,,,,,
html-keyboard-response,438,591651,null,"",null,,,,,,,,,,,,,,,
recall-period,439,593386,8224.200000047684,"",,,,,,,,,,,spider,,,,,
html-keyboard-response,440,593500,null,"",null,,,,,,,,,,,,,,,
recall-period,441,594929,3155.7000002861023,"",,,,,,,,,,,arm,,,,,
html-keyboard-response,442,595034,null,"",null,,,,,,,,,,,,,,,
recall-period,443,597251,9166.700000286102,"",,,,,,,,,,,jungle,,,,,
html-keyboard-response,444,597366,null,"",null,,,,,,,,,,,,,,,
recall-period,445,599644,6315.100000143051,"",,,,,,,,,,,cocoon,,,,,
html-keyboard-response,446,599750,null,"",null,,,,,,,,,,,,,,,
recall-period,447,602437,10579.80000090599,"",,,,,,,,,,,pirate,,,,,
html-keyboard-response,448,602543,null,"",null,,,,,,,,,,,,,,,
recall-period,449,604989,9838.799998998642,"",,,,,,,,,,,sunrise,,,,,
html-keyboard-response,450,605093,null,"",null,,,,,,,,,,,,,,,
recall-period,451,607003,8600.000000238419,"",,,,,,,,,,,sunset,,,,,
html-keyboard-response,452,607109,null,"",null,,,,,,,,,,,,,,,
recall-period,453,609681,7846.60000038147,"",,,,,,,,,,,pony,,,,,
html-keyboard-response,454,609784,null,"",null,,,,,,,,,,,,,,,
recall-period,455,624438,84457.2999997139,"",,,,,,,,,,,novel,,,,,
html-keyboard-response,456,624542,null,"",null,,,,,,,,,,,,,,,
recall-period,457,663840,null,"",,,,,,,,,,,,,,,,
html-keyboard-response,458,664347,null,"Time's Up!",null,,,,,,,,,,,,,,,
html-keyboard-response,459,666399,2050.600000143051,"<p> Good job! You have responded correctly to 100% of the trials. </p>
                      <p>Be sure to only press the spacebar if you see a GREEN square, and please keep your accuracy above 80%.</p>
                      <p> Press any key to continue the experiment. </p>",32,,,,,,,,,,,,,,,
html-keyboard-response,460,667975,1575.2999999523163,"<div style=""font-size:48px;"">Press any key to begin list 4 of 16 </div>",32,,,,,,,,,,,,,,,
html-keyboard-response,461,670490,null,"<div style=""font-size:60px;"">+</div>",null,,,,,,,,,,,,,,,
html-keyboard-response,462,670693,null,"<div style=""font-size:42px;"">SAUSAGE</div><img id = ""stim"" ><div class = red_square id = topsquare></div>",null,encoding,word_square,,,0,topsquare,none,true,,,SAUSAGE,3,,,
html-keyboard-response,463,670996,null,"<div style=""font-size:42px;"">SAUSAGE</div>",null,,word,SAUSAGE,,,,,,,,,,,,
html-keyboard-response,464,672507,null,"",null,,word,SAUSAGE,,,,,,,,,,,,
html-keyboard-response,465,672719,null,"<div style=""font-size:42px;"">STAKE</div><img id = ""stim"" ><div class = green_square id = bottomsquare></div>",null,encoding,word_square,,,1,bottomsquare,32,true,,,STAKE,3,,,
html-keyboard-response,466,673025,129.29999995231628,"<div style=""font-size:42px;"">STAKE</div>",32,,word,STAKE,,,,,,,,,,,,
html-keyboard-response,467,674539,null,"",null,,word,STAKE,,,,,,,,,,,,
html-keyboard-response,468,674743,null,"<div style=""font-size:42px;"">CABIN</div><img id = ""stim"" ><div class = green_square id = topsquare></div>",null,encoding,word_square,,,1,topsquare,32,true,,,CABIN,3,,,
html-keyboard-response,469,675052,142.59999990463257,"<div style=""font-size:42px;"">CABIN</div>",32,,word,CABIN,,,,,,,,,,,,
html-keyboard-response,470,676562,null,"",null,,word,CABIN,,,,,,,,,,,,
html-keyboard-response,471,676776,null,"<div style=""font-size:42px;"">FIELD</div><img id = ""stim"" ><div class = red_square id = bottomsquare></div>",null,encoding,word_square,,,0,bottomsquare,none,true,,,FIELD,3,,,
html-keyboard-response,472,677093,null,"<div style=""font-size:42px;"">FIELD</div>",null,,word,FIELD,,,,,,,,,,,,
html-keyboard-response,473,678599,null,"",null,,word,FIELD,,,,,,,,,,,,
html-keyboard-response,474,678810,null,"<div style=""font-size:42px;"">DRUG</div><img id = ""stim"" ><div class = green_square id = bottomsquare></div>",null,encoding,word_square,,,1,bottomsquare,32,true,,,DRUG,3,,,
html-keyboard-response,475,679118,127.29999995231628,"<div style=""font-size:42px;"">DRUG</div>",32,,word,DRUG,,,,,,,,,,,,
html-keyboard-response,476,680623,null,"",null,,word,DRUG,,,,,,,,,,,,
html-keyboard-response,477,680835,null,"<div style=""font-size:42px;"">WAIST</div><img id = ""stim"" ><div class = red_square id = topsquare></div>",null,encoding,word_square,,,0,topsquare,none,true,,,WAIST,3,,,
html-keyboard-response,478,681145,null,"<div style=""font-size:42px;"">WAIST</div>",null,,word,WAIST,,,,,,,,,,,,
html-keyboard-response,479,682648,null,"",null,,word,WAIST,,,,,,,,,,,,
html-keyboard-response,480,682859,null,"<div style=""font-size:42px;"">CANYON</div><img id = ""stim"" ><div class = red_square id = bottomsquare></div>",null,encoding,word_square,,,0,bottomsquare,none,true,,,CANYON,3,,,
html-keyboard-response,481,683177,null,"<div style=""font-size:42px;"">CANYON</div>",null,,word,CANYON,,,,,,,,,,,,
html-keyboard-response,482,684682,null,"",null,,word,CANYON,,,,,,,,,,,,
html-keyboard-response,483,684893,null,"<div style=""font-size:42px;"">SHOULDER</div><img id = ""stim"" ><div class = red_square id = topsquare></div>",null,encoding,word_square,,,0,topsquare,none,true,,,SHOULDER,3,,,
html-keyboard-response,484,685210,null,"<div style=""font-size:42px;"">SHOULDER</div>",null,,word,SHOULDER,,,,,,,,,,,,
html-keyboard-response,485,686723,null,"",null,,word,SHOULDER,,,,,,,,,,,,
html-keyboard-response,486,686934,null,"<div style=""font-size:42px;"">CEILING</div><img id = ""stim"" ><div class = green_square id = topsquare></div>",null,encoding,word_square,,,1,topsquare,32,true,,,CEILING,3,,,
html-keyboard-response,487,687237,137.5,"<div style=""font-size:42px;"">CEILING</div>",32,,word,CEILING,,,,,,,,,,,,
html-keyboard-response,488,688748,null,"",null,,word,CEILING,,,,,,,,,,,,
html-keyboard-response,489,688959,null,"<div style=""font-size:42px;"">CANOE</div><img id = ""stim"" ><div class = red_square id = bottomsquare></div>",null,encoding,word_square,,,0,bottomsquare,none,true,,,CANOE,3,,,
html-keyboard-response,490,689262,null,"<div style=""font-size:42px;"">CANOE</div>",null,,word,CANOE,,,,,,,,,,,,
html-keyboard-response,491,690773,null,"",null,,word,CANOE,,,,,,,,,,,,
html-keyboard-response,492,690977,null,"<div style=""font-size:42px;"">PLUTO</div><img id = ""stim"" ><div class = green_square id = bottomsquare></div>",null,encoding,word_square,,,1,bottomsquare,32,true,,,PLUTO,3,,,
html-keyboard-response,493,691291,148.79999995231628,"<div style=""font-size:42px;"">PLUTO</div>",32,,word,PLUTO,,,,,,,,,,,,
html-keyboard-response,494,692798,null,"",null,,word,PLUTO,,,,,,,,,,,,
html-keyboard-response,495,693011,null,"<div style=""font-size:42px;"">ELBOW</div><img id = ""stim"" ><div class = green_square id = topsquare></div>",null,encoding,word_square,,,1,topsquare,32,true,,,ELBOW,3,,,
html-keyboard-response,496,693320,216.40000009536743,"<div style=""font-size:42px;"">ELBOW</div>",32,,word,ELBOW,,,,,,,,,,,,
html-keyboard-response,497,694832,null,"",null,,word,ELBOW,,,,,,,,,,,,
html-keyboard-response,498,695035,null,"<div style=""font-size:42px;"">POND</div><img id = ""stim"" ><div class = red_square id = topsquare></div>",null,encoding,word_square,,,0,topsquare,none,false,,,POND,3,,,
html-keyboard-response,499,695344,null,"<div style=""font-size:42px;"">POND</div>",null,,word,POND,,,,,,,,,,,,
html-keyboard-response,500,696858,32,"",32,,word,POND,,,,,,,,,,,,
html-keyboard-response,501,697076,null,"<div style=""font-size:42px;"">SCALLOP</div><img id = ""stim"" ><div class = green_square id = bottomsquare></div>",null,encoding,word_square,,,1,bottomsquare,32,true,,,SCALLOP,3,,,
html-keyboard-response,502,697385,220.5,"<div style=""font-size:42px;"">SCALLOP</div>",32,,word,SCALLOP,,,,,,,,,,,,
html-keyboard-response,503,698889,null,"",null,,word,SCALLOP,,,,,,,,,,,,
html-keyboard-response,504,699093,null,"<div style=""font-size:42px;"">SPOUSE</div><img id = ""stim"" ><div class = green_square id = topsquare></div>",null,encoding,word_square,,,1,topsquare,32,true,,,SPOUSE,3,,,
html-keyboard-response,505,699402,232.90000009536743,"<div style=""font-size:42px;"">SPOUSE</div>",32,,word,SPOUSE,,,,,,,,,,,,
html-keyboard-response,506,700907,null,"",null,,word,SPOUSE,,,,,,,,,,,,
html-keyboard-response,507,701119,null,"<div style=""font-size:42px;"">LOVER</div><img id = ""stim"" ><div class = red_square id = bottomsquare></div>",null,encoding,word_square,,,0,bottomsquare,none,true,,,LOVER,3,,,
html-keyboard-response,508,701428,null,"<div style=""font-size:42px;"">LOVER</div>",null,,word,LOVER,,,,,,,,,,,,
html-keyboard-response,509,702940,null,"",null,,word,LOVER,,,,,,,,,,,,
call-function,510,702940,,"",,,,,,,,,,,,,,,,
html-keyboard-response,511,703049,null,"",null,,,,,,,,,,,,,,,
math-period,512,705518,3962.2999999523163,"",,,,,,,,,,,4,,,,,
html-keyboard-response,513,705632,null,"",null,,,,,,,,,,,,,,,
math-period,514,707112,2596.100000143051,"",,,,,,,,,,,5,,,,,
html-keyboard-response,515,707216,null,"",null,,,,,,,,,,,,,,,
math-period,516,708777,2727,"",,,,,,,,,,,5,,,,,
html-keyboard-response,517,708883,null,"",null,,,,,,,,,,,,,,,
math-period,518,709977,1810.5999999046326,"",,,,,,,,,,,5,,,,,
html-keyboard-response,519,710083,null,"",null,,,,,,,,,,,,,,,
math-period,520,711645,2716.5,"",,,,,,,,,,,3,,,,,
html-keyboard-response,521,711751,null,"",null,,,,,,,,,,,,,,,
math-period,522,713143,2371.0999999046326,"",,,,,,,,,,,4,,,,,
html-keyboard-response,523,713256,null,"",null,,,,,,,,,,,,,,,
math-period,524,714878,2903.699999809265,"",,,,,,,,,,,1,,,,,
html-keyboard-response,525,714979,null,"",null,,,,,,,,,,,,,,,
math-period,526,716373,2389.300000190735,"",,,,,,,,,,,5,,,,,
html-keyboard-response,527,716475,null,"",null,,,,,,,,,,,,,,,
math-period,528,717666,2005,"",,,,,,,,,,,5,,,,,
html-keyboard-response,529,717767,null,"",null,,,,,,,,,,,,,,,
math-period,530,719463,3100.4999997615814,"",,,,,,,,,,,1,,,,,
html-keyboard-response,531,719567,null,"",null,,,,,,,,,,,,,,,
math-period,532,721554,3013.2000000476837,"",,,,,,,,,,,5,,,,,
html-keyboard-response,533,721665,null,"",null,,,,,,,,,,,,,,,
math-period,534,722541,1484.5,"",,,,,,,,,,,5,,,,,
html-keyboard-response,535,722657,null,"",null,,,,,,,,,,,,,,,
math-period,536,724572,3177.4999997615814,"",,,,,,,,,,,4,,,,,
html-keyboard-response,537,724676,null,"",null,,,,,,,,,,,,,,,
math-period,538,726057,2335.199999809265,"",,,,,,,,,,,5,,,,,
html-keyboard-response,539,726160,null,"",null,,,,,,,,,,,,,,,
math-period,540,726945,null,"",,,,,,,,,,,,,,,,
html-keyboard-response,541,727956,null,"Recall Period!",null,,,,,,,,,,,,,,,
call-function,542,727956,,"",,,,,,,,,,,,,,,,
html-keyboard-response,543,728057,null,"",null,,,,,,,,,,,,,,,
recall-period,544,731334,13775.800000667572,"",,,,,,,,,,,waist,,,,,
html-keyboard-response,545,731448,null,"",null,,,,,,,,,,,,,,,
recall-period,546,734418,18609.80000090599,"",,,,,,,,,,,shoulder,,,,,
html-keyboard-response,547,734548,null,"",null,,,,,,,,,,,,,,,
recall-period,548,736354,6677.300000190735,"",,,,,,,,,,,elbow,,,,,
html-keyboard-response,549,736458,null,"",null,,,,,,,,,,,,,,,
recall-period,550,738637,8885.10000038147,"",,,,,,,,,,,cabin,,,,,
html-keyboard-response,551,738752,null,"",null,,,,,,,,,,,,,,,
recall-period,552,740674,5115.299999952316,"",,,,,,,,,,,pond,,,,,
html-keyboard-response,553,740783,null,"",null,,,,,,,,,,,,,,,
recall-period,554,742967,9499.700001001358,"",,,,,,,,,,,scallop,,,,,
html-keyboard-response,555,743074,null,"",null,,,,,,,,,,,,,,,
recall-period,556,747677,13132.500000238419,"",,,,,,,,,,,lover,,,,,
html-keyboard-response,557,747782,null,"",null,,,,,,,,,,,,,,,
recall-period,558,751469,21339.00000023842,"",,,,,,,,,,,ceiling,,,,,
html-keyboard-response,559,751575,null,"",null,,,,,,,,,,,,,,,
recall-period,560,760365,49630.69999957085,"",,,,,,,,,,,pluto,,,,,
html-keyboard-response,561,760474,null,"",null,,,,,,,,,,,,,,,
recall-period,562,802966,null,"",,,,,,,,,,,,,,,,
html-keyboard-response,563,803472,null,"Time's Up!",null,,,,,,,,,,,,,,,
html-keyboard-response,564,812453,8979.299999952316,"<p> Good job! You have responded correctly to 98% of the trials. </p>
                      <p>Be sure to only press the spacebar if you see a GREEN square, and please keep your accuracy above 80%.</p>
                      <p> Press any key to continue the experiment. </p>",32,,,,,,,,,,,,,,,
html-keyboard-response,565,813425,970.8999998569489,"<div style=""font-size:48px;"">Press any key to begin list 5 of 16 </div>",32,,,,,,,,,,,,,,,
html-keyboard-response,566,815939,null,"<div style=""font-size:60px;"">+</div>",null,,,,,,,,,,,,,,,
html-keyboard-response,567,816151,null,"<div style=""font-size:42px;"">HATCHET</div><img id = ""stim"" ><div class = green_square id = topsquare></div>",null,encoding,word_square,,,1,topsquare,32,true,,,HATCHET,4,,,
html-keyboard-response,568,816460,238.90000009536743,"<div style=""font-size:42px;"">HATCHET</div>",32,,word,HATCHET,,,,,,,,,,,,
html-keyboard-response,569,817972,null,"",null,,word,HATCHET,,,,,,,,,,,,
html-keyboard-response,570,818185,null,"<div style=""font-size:42px;"">LETTUCE</div><img id = ""stim"" ><div class = green_square id = bottomsquare></div>",null,encoding,word_square,,,1,bottomsquare,32,true,,,LETTUCE,4,,,
html-keyboard-response,571,818496,186.40000009536743,"<div style=""font-size:42px;"">LETTUCE</div>",32,,word,LETTUCE,,,,,,,,,,,,
html-keyboard-response,572,820006,null,"",null,,word,LETTUCE,,,,,,,,,,,,
html-keyboard-response,573,820218,null,"<div style=""font-size:42px;"">FRECKLE</div><img id = ""stim"" ><div class = red_square id = bottomsquare></div>",null,encoding,word_square,,,0,bottomsquare,none,true,,,FRECKLE,4,,,
html-keyboard-response,574,820535,null,"<div style=""font-size:42px;"">FRECKLE</div>",null,,word,FRECKLE,,,,,,,,,,,,
html-keyboard-response,575,822039,null,"",null,,word,FRECKLE,,,,,,,,,,,,
html-keyboard-response,576,822250,null,"<div style=""font-size:42px;"">CLOSET</div><img id = ""stim"" ><div class = green_square id = topsquare></div>",null,encoding,word_square,,,1,topsquare,32,true,,,CLOSET,4,,,
html-keyboard-response,577,822553,169.5,"<div style=""font-size:42px;"">CLOSET</div>",32,,word,CLOSET,,,,,,,,,,,,
html-keyboard-response,578,824055,null,"",null,,word,CLOSET,,,,,,,,,,,,
html-keyboard-response,579,824267,null,"<div style=""font-size:42px;"">CANDY</div><img id = ""stim"" ><div class = red_square id = topsquare></div>",null,encoding,word_square,,,0,topsquare,none,true,,,CANDY,4,,,
html-keyboard-response,580,824569,null,"<div style=""font-size:42px;"">CANDY</div>",null,,word,CANDY,,,,,,,,,,,,
html-keyboard-response,581,826081,null,"",null,,word,CANDY,,,,,,,,,,,,
html-keyboard-response,582,826292,null,"<div style=""font-size:42px;"">PASTRY</div><img id = ""stim"" ><div class = green_square id = bottomsquare></div>",null,encoding,word_square,,,1,bottomsquare,32,true,,,PASTRY,4,,,
html-keyboard-response,583,826602,237.5,"<div style=""font-size:42px;"">PASTRY</div>",32,,word,PASTRY,,,,,,,,,,,,
html-keyboard-response,584,828114,null,"",null,,word,PASTRY,,,,,,,,,,,,
html-keyboard-response,585,828326,null,"<div style=""font-size:42px;"">FIDDLE</div><img id = ""stim"" ><div class = green_square id = topsquare></div>",null,encoding,word_square,,,1,topsquare,32,true,,,FIDDLE,4,,,
html-keyboard-response,586,828628,261.5,"<div style=""font-size:42px;"">FIDDLE</div>",32,,word,FIDDLE,,,,,,,,,,,,
html-keyboard-response,587,830141,null,"",null,,word,FIDDLE,,,,,,,,,,,,
html-keyboard-response,588,830350,null,"<div style=""font-size:42px;"">WHISTLE</div><img id = ""stim"" ><div class = red_square id = bottomsquare></div>",null,encoding,word_square,,,0,bottomsquare,none,true,,,WHISTLE,4,,,
html-keyboard-response,589,830660,null,"<div style=""font-size:42px;"">WHISTLE</div>",null,,word,WHISTLE,,,,,,,,,,,,
html-keyboard-response,590,832172,null,"",null,,word,WHISTLE,,,,,,,,,,,,
html-keyboard-response,591,832384,null,"<div style=""font-size:42px;"">SQUID</div><img id = ""stim"" ><div class = red_square id = topsquare></div>",null,encoding,word_square,,,0,topsquare,none,true,,,SQUID,4,,,
html-keyboard-response,592,832686,null,"<div style=""font-size:42px;"">SQUID</div>",null,,word,SQUID,,,,,,,,,,,,
html-keyboard-response,593,834198,null,"",null,,word,SQUID,,,,,,,,,,,,
html-keyboard-response,594,834409,null,"<div style=""font-size:42px;"">WORKER</div><img id = ""stim"" ><div class = green_square id = bottomsquare></div>",null,encoding,word_square,,,1,bottomsquare,32,true,,,WORKER,4,,,
html-keyboard-response,595,834719,178.09999990463257,"<div style=""font-size:42px;"">WORKER</div>",32,,word,WORKER,,,,,,,,,,,,
html-keyboard-response,596,836231,null,"",null,,word,WORKER,,,,,,,,,,,,
html-keyboard-response,597,836434,null,"<div style=""font-size:42px;"">TILE</div><img id = ""stim"" ><div class = red_square id = bottomsquare></div>",null,encoding,word_square,,,0,bottomsquare,none,true,,,TILE,4,,,
html-keyboard-response,598,836736,null,"<div style=""font-size:42px;"">TILE</div>",null,,word,TILE,,,,,,,,,,,,
html-keyboard-response,599,838247,null,"",null,,word,TILE,,,,,,,,,,,,
html-keyboard-response,600,838459,null,"<div style=""font-size:42px;"">RUG</div><img id = ""stim"" ><div class = red_square id = topsquare></div>",null,encoding,word_square,,,0,topsquare,none,true,,,RUG,4,,,
html-keyboard-response,601,838769,null,"<div style=""font-size:42px;"">RUG</div>",null,,word,RUG,,,,,,,,,,,,
html-keyboard-response,602,840281,null,"",null,,word,RUG,,,,,,,,,,,,
html-keyboard-response,603,840493,null,"<div style=""font-size:42px;"">TUTU</div><img id = ""stim"" ><div class = green_square id = topsquare></div>",null,encoding,word_square,,,1,topsquare,32,true,,,TUTU,4,,,
html-keyboard-response,604,840810,216.20000004768372,"<div style=""font-size:42px;"">TUTU</div>",32,,word,TUTU,,,,,,,,,,,,
html-keyboard-response,605,842314,null,"",null,,word,TUTU,,,,,,,,,,,,
html-keyboard-response,606,842526,null,"<div style=""font-size:42px;"">GOBLIN</div><img id = ""stim"" ><div class = red_square id = bottomsquare></div>",null,encoding,word_square,,,0,bottomsquare,none,true,,,GOBLIN,4,,,
html-keyboard-response,607,842843,null,"<div style=""font-size:42px;"">GOBLIN</div>",null,,word,GOBLIN,,,,,,,,,,,,
html-keyboard-response,608,844348,null,"",null,,word,GOBLIN,,,,,,,,,,,,
html-keyboard-response,609,844559,null,"<div style=""font-size:42px;"">BRIDE</div><img id = ""stim"" ><div class = red_square id = topsquare></div>",null,encoding,word_square,,,0,topsquare,none,true,,,BRIDE,4,,,
html-keyboard-response,610,844868,null,"<div style=""font-size:42px;"">BRIDE</div>",null,,word,BRIDE,,,,,,,,,,,,
html-keyboard-response,611,846371,null,"",null,,word,BRIDE,,,,,,,,,,,,
html-keyboard-response,612,846578,null,"<div style=""font-size:42px;"">EYELASH</div><img id = ""stim"" ><div class = green_square id = bottomsquare></div>",null,encoding,word_square,,,1,bottomsquare,32,true,,,EYELASH,4,,,
html-keyboard-response,613,846888,268.60000014305115,"<div style=""font-size:42px;"">EYELASH</div>",32,,word,EYELASH,,,,,,,,,,,,
html-keyboard-response,614,848398,null,"",null,,word,EYELASH,,,,,,,,,,,,
call-function,615,848399,,"",,,,,,,,,,,,,,,,
html-keyboard-response,616,848507,null,"",null,,,,,,,,,,,,,,,
math-period,617,851096,3917.2999999523163,"",,,,,,,,,,,2,,,,,
html-keyboard-response,618,851199,null,"",null,,,,,,,,,,,,,,,
math-period,619,852510,2373.2999997138977,"",,,,,,,,,,,3,,,,,
html-keyboard-response,620,852617,null,"",null,,,,,,,,,,,,,,,
math-period,621,853772,2046.7000000476837,"",,,,,,,,,,,4,,,,,
html-keyboard-response,622,853875,null,"",null,,,,,,,,,,,,,,,
math-period,623,855510,2897.2000000476837,"",,,,,,,,,,,4,,,,,
html-keyboard-response,624,855616,null,"",null,,,,,,,,,,,,,,,
math-period,625,857743,3924.9000000953674,"",,,,,,,,,,,0,,,,,
html-keyboard-response,626,857849,null,"",null,,,,,,,,,,,,,,,
math-period,627,860292,4592.700000047684,"",,,,,,,,,,,1,,,,,
html-keyboard-response,628,860406,null,"",null,,,,,,,,,,,,,,,
math-period,629,862056,3050.7999999523163,"",,,,,,,,,,,2,,,,,
html-keyboard-response,630,862159,null,"",null,,,,,,,,,,,,,,,
math-period,631,863747,2819.5999999046326,"",,,,,,,,,,,6,,,,,
html-keyboard-response,632,863850,null,"",null,,,,,,,,,,,,,,,
math-period,633,865740,3451.5999999046326,"",,,,,,,,,,,1,,,,,
html-keyboard-response,634,865842,null,"",null,,,,,,,,,,,,,,,
math-period,635,867408,2807.600000143051,"",,,,,,,,,,,6,,,,,
html-keyboard-response,636,867517,null,"",null,,,,,,,,,,,,,,,
math-period,637,868893,2440.0999999046326,"",,,,,,,,,,,2,,,,,
html-keyboard-response,638,868998,null,"",null,,,,,,,,,,,,,,,
math-period,639,870179,2096.7999999523163,"",,,,,,,,,,,3,,,,,
html-keyboard-response,640,870282,null,"",null,,,,,,,,,,,,,,,
math-period,641,872411,2072.0999999046326,"",,,,,,,,,,,2,,,,,
html-keyboard-response,642,873423,null,"Recall Period!",null,,,,,,,,,,,,,,,
call-function,643,873424,,"",,,,,,,,,,,,,,,,
html-keyboard-response,644,873532,null,"",null,,,,,,,,,,,,,,,
recall-period,645,876191,11846.20000052452,"",,,,,,,,,,,goblin,,,,,
html-keyboard-response,646,876306,null,"",null,,,,,,,,,,,,,,,
recall-period,647,877570,3672.400000333786,"",,,,,,,,,,,tutu,,,,,
html-keyboard-response,648,877682,null,"",null,,,,,,,,,,,,,,,
recall-period,649,880498,8897.600000619888,"",,,,,,,,,,,eyelash,,,,,
html-keyboard-response,650,880615,null,"",null,,,,,,,,,,,,,,,
recall-period,651,882331,4079.199999332428,"",,,,,,,,,,,tile,,,,,
html-keyboard-response,652,882432,null,"",null,,,,,,,,,,,,,,,
recall-period,653,885418,7037.800000190735,"",,,,,,,,,,,carpet,,,,,
html-keyboard-response,654,885522,null,"",null,,,,,,,,,,,,,,,
recall-period,655,888655,8264.400000095367,"",,,,,,,,,,,squid,,,,,
html-keyboard-response,656,888769,null,"",null,,,,,,,,,,,,,,,
recall-period,657,890294,4742,"",,,,,,,,,,,candy,,,,,
html-keyboard-response,658,890403,null,"",null,,,,,,,,,,,,,,,
recall-period,659,892805,9120.899999380112,"",,,,,,,,,,,pastry,,,,,
html-keyboard-response,660,892913,null,"",null,,,,,,,,,,,,,,,
recall-period,661,897814,23828.500000476837,"",,,,,,,,,,,bride,,,,,
html-keyboard-response,662,897928,null,"",null,,,,,,,,,,,,,,,
recall-period,663,903284,28302.699999332428,"",,,,,,,,,,,whistle,,,,,
html-keyboard-response,664,903388,null,"",null,,,,,,,,,,,,,,,
recall-period,665,907176,11089.099999427795,"",,,,,,,,,,,fiddle,,,,,
html-keyboard-response,666,907279,null,"",null,,,,,,,,,,,,,,,
recall-period,667,909653,10382.600000619888,"",,,,,,,,,,,hatchet,,,,,
html-keyboard-response,668,909755,null,"",null,,,,,,,,,,,,,,,
recall-period,669,948438,null,"",,,,,,,,,,,,,,,,
html-keyboard-response,670,948954,null,"Time's Up!",null,,,,,,,,,,,,,,,
html-keyboard-response,671,951856,2900.5999999046326,"<p> Good job! You have responded correctly to 99% of the trials. </p>
                      <p>Be sure to only press the spacebar if you see a GREEN square, and please keep your accuracy above 80%.</p>
                      <p> Press any key to continue the experiment. </p>",32,,,,,,,,,,,,,,,
html-keyboard-response,672,954783,2925.800000190735,"<div style=""font-size:48px;"">Press any key to begin list 6 of 16 </div>",32,,,,,,,,,,,,,,,
html-keyboard-response,673,957297,null,"<div style=""font-size:60px;"">+</div>",null,,,,,,,,,,,,,,,
html-keyboard-response,674,957508,null,"<div style=""font-size:42px;"">STREET</div><img id = ""stim"" ><div class = green_square id = bottomsquare></div>",null,encoding,word_square,,,1,bottomsquare,32,true,,,STREET,5,,,
html-keyboard-response,675,957825,null,"<div style=""font-size:42px;"">STREET</div>",null,,word,STREET,,,,,,,,,,,,
html-keyboard-response,676,959330,7.400000095367432,"",32,,word,STREET,,,,,,,,,,,,
html-keyboard-response,677,959541,null,"<div style=""font-size:42px;"">ROOSTER</div><img id = ""stim"" ><div class = red_square id = topsquare></div>",null,encoding,word_square,,,0,topsquare,none,true,,,ROOSTER,5,,,
html-keyboard-response,678,959858,null,"<div style=""font-size:42px;"">ROOSTER</div>",null,,word,ROOSTER,,,,,,,,,,,,
html-keyboard-response,679,961363,null,"",null,,word,ROOSTER,,,,,,,,,,,,
html-keyboard-response,680,961575,null,"<div style=""font-size:42px;"">PORPOISE</div><img id = ""stim"" ><div class = red_square id = bottomsquare></div>",null,encoding,word_square,,,0,bottomsquare,none,true,,,PORPOISE,5,,,
html-keyboard-response,681,961893,null,"<div style=""font-size:42px;"">PORPOISE</div>",null,,word,PORPOISE,,,,,,,,,,,,
html-keyboard-response,682,963411,null,"",null,,word,PORPOISE,,,,,,,,,,,,
html-keyboard-response,683,963625,null,"<div style=""font-size:42px;"">BANDIT</div><img id = ""stim"" ><div class = green_square id = topsquare></div>",null,encoding,word_square,,,1,topsquare,32,true,,,BANDIT,5,,,
html-keyboard-response,684,963942,183,"<div style=""font-size:42px;"">BANDIT</div>",32,,word,BANDIT,,,,,,,,,,,,
html-keyboard-response,685,965454,null,"",null,,word,BANDIT,,,,,,,,,,,,
html-keyboard-response,686,965665,null,"<div style=""font-size:42px;"">GLOBE</div><img id = ""stim"" ><div class = red_square id = topsquare></div>",null,encoding,word_square,,,0,topsquare,none,true,,,GLOBE,5,,,
html-keyboard-response,687,965968,null,"<div style=""font-size:42px;"">GLOBE</div>",null,,word,GLOBE,,,,,,,,,,,,
html-keyboard-response,688,967480,null,"",null,,word,GLOBE,,,,,,,,,,,,
html-keyboard-response,689,967692,null,"<div style=""font-size:42px;"">TORCH</div><img id = ""stim"" ><div class = red_square id = bottomsquare></div>",null,encoding,word_square,,,0,bottomsquare,none,true,,,TORCH,5,,,
html-keyboard-response,690,968009,null,"<div style=""font-size:42px;"">TORCH</div>",null,,word,TORCH,,,,,,,,,,,,
html-keyboard-response,691,969521,null,"",null,,word,TORCH,,,,,,,,,,,,
html-keyboard-response,692,969732,null,"<div style=""font-size:42px;"">BANKER</div><img id = ""stim"" ><div class = green_square id = bottomsquare></div>",null,encoding,word_square,,,1,bottomsquare,32,true,,,BANKER,5,,,
html-keyboard-response,693,970035,136.90000009536743,"<div style=""font-size:42px;"">BANKER</div>",32,,word,BANKER,,,,,,,,,,,,
html-keyboard-response,694,971546,null,"",null,,word,BANKER,,,,,,,,,,,,
html-keyboard-response,695,971757,null,"<div style=""font-size:42px;"">PERCH</div><img id = ""stim"" ><div class = red_square id = topsquare></div>",null,encoding,word_square,,,0,topsquare,none,true,,,PERCH,5,,,
html-keyboard-response,696,972060,null,"<div style=""font-size:42px;"">PERCH</div>",null,,word,PERCH,,,,,,,,,,,,
html-keyboard-response,697,973568,null,"",null,,word,PERCH,,,,,,,,,,,,
html-keyboard-response,698,973784,null,"<div style=""font-size:42px;"">POISON</div><img id = ""stim"" ><div class = red_square id = bottomsquare></div>",null,encoding,word_square,,,0,bottomsquare,none,true,,,POISON,5,,,
html-keyboard-response,699,974100,null,"<div style=""font-size:42px;"">POISON</div>",null,,word,POISON,,,,,,,,,,,,
html-keyboard-response,700,975614,null,"",null,,word,POISON,,,,,,,,,,,,
html-keyboard-response,701,975816,null,"<div style=""font-size:42px;"">PASTA</div><img id = ""stim"" ><div class = green_square id = topsquare></div>",null,encoding,word_square,,,1,topsquare,32,true,,,PASTA,5,,,
html-keyboard-response,702,976117,248,"<div style=""font-size:42px;"">PASTA</div>",32,,word,PASTA,,,,,,,,,,,,
html-keyboard-response,703,977630,null,"",null,,word,PASTA,,,,,,,,,,,,
html-keyboard-response,704,977841,null,"<div style=""font-size:42px;"">SHAMPOO</div><img id = ""stim"" ><div class = green_square id = bottomsquare></div>",null,encoding,word_square,,,1,bottomsquare,32,true,,,SHAMPOO,5,,,
html-keyboard-response,705,978143,261.89999985694885,"<div style=""font-size:42px;"">SHAMPOO</div>",32,,word,SHAMPOO,,,,,,,,,,,,
html-keyboard-response,706,979655,null,"",null,,word,SHAMPOO,,,,,,,,,,,,
html-keyboard-response,707,979865,null,"<div style=""font-size:42px;"">PARROT</div><img id = ""stim"" ><div class = red_square id = topsquare></div>",null,encoding,word_square,,,0,topsquare,none,true,,,PARROT,5,,,
html-keyboard-response,708,980168,null,"<div style=""font-size:42px;"">PARROT</div>",null,,word,PARROT,,,,,,,,,,,,
html-keyboard-response,709,981672,null,"",null,,word,PARROT,,,,,,,,,,,,
html-keyboard-response,710,981875,null,"<div style=""font-size:42px;"">SCARECROW</div><img id = ""stim"" ><div class = green_square id = topsquare></div>",null,encoding,word_square,,,1,topsquare,32,true,,,SCARECROW,5,,,
html-keyboard-response,711,982178,302.2000000476837,"<div style=""font-size:42px;"">SCARECROW</div>",32,,word,SCARECROW,,,,,,,,,,,,
html-keyboard-response,712,983688,null,"",null,,word,SCARECROW,,,,,,,,,,,,
html-keyboard-response,713,983900,null,"<div style=""font-size:42px;"">TOMBSTONE</div><img id = ""stim"" ><div class = red_square id = bottomsquare></div>",null,encoding,word_square,,,0,bottomsquare,none,true,,,TOMBSTONE,5,,,
html-keyboard-response,714,984217,null,"<div style=""font-size:42px;"">TOMBSTONE</div>",null,,word,TOMBSTONE,,,,,,,,,,,,
html-keyboard-response,715,985721,null,"",null,,word,TOMBSTONE,,,,,,,,,,,,
html-keyboard-response,716,985925,null,"<div style=""font-size:42px;"">DRESSER</div><img id = ""stim"" ><div class = green_square id = bottomsquare></div>",null,encoding,word_square,,,1,bottomsquare,32,true,,,DRESSER,5,,,
html-keyboard-response,717,986227,274,"<div style=""font-size:42px;"">DRESSER</div>",32,,word,DRESSER,,,,,,,,,,,,
html-keyboard-response,718,987738,null,"",null,,word,DRESSER,,,,,,,,,,,,
html-keyboard-response,719,987949,null,"<div style=""font-size:42px;"">BUREAU</div><img id = ""stim"" ><div class = green_square id = topsquare></div>",null,encoding,word_square,,,1,topsquare,32,true,,,BUREAU,5,,,
html-keyboard-response,720,988252,null,"<div style=""font-size:42px;"">BUREAU</div>",null,,word,BUREAU,,,,,,,,,,,,
html-keyboard-response,721,989763,13,"",32,,word,BUREAU,,,,,,,,,,,,
call-function,722,989765,,"",,,,,,,,,,,,,,,,
html-keyboard-response,723,989871,null,"",null,,,,,,,,,,,,,,,
math-period,724,992099,3575.7000000476837,"",,,,,,,,,,,5,,,,,
html-keyboard-response,725,992214,null,"",null,,,,,,,,,,,,,,,
math-period,726,993608,2402.2000002861023,"",,,,,,,,,,,4,,,,,
html-keyboard-response,727,993722,null,"",null,,,,,,,,,,,,,,,
math-period,728,995385,2645.100000143051,"",,,,,,,,,,,5,,,,,
html-keyboard-response,729,995491,null,"",null,,,,,,,,,,,,,,,
math-period,730,996979,2532.0000002384186,"",,,,,,,,,,,4,,,,,
html-keyboard-response,731,997082,null,"",null,,,,,,,,,,,,,,,
math-period,732,999092,3146.7000000476837,"",,,,,,,,,,,5,,,,,
html-keyboard-response,733,999198,null,"",null,,,,,,,,,,,,,,,
math-period,734,1000820,2708.7000000476837,"",,,,,,,,,,,4,,,,,
html-keyboard-response,735,1000921,null,"",null,,,,,,,,,,,,,,,
math-period,736,1002577,2748.300000190735,"",,,,,,,,,,,3,,,,,
html-keyboard-response,737,1002678,null,"",null,,,,,,,,,,,,,,,
math-period,738,1004461,3232,"",,,,,,,,,,,1,,,,,
html-keyboard-response,739,1004577,null,"",null,,,,,,,,,,,,,,,
math-period,740,1006097,2698.5,"",,,,,,,,,,,5,,,,,
html-keyboard-response,741,1006202,null,"",null,,,,,,,,,,,,,,,
math-period,742,1008608,4327.300000190735,"",,,,,,,,,,,3,,,,,
html-keyboard-response,743,1008719,null,"",null,,,,,,,,,,,,,,,
math-period,744,1010592,2871.9000000953674,"",,,,,,,,,,,4,,,,,
html-keyboard-response,745,1010696,null,"",null,,,,,,,,,,,,,,,
math-period,746,1012937,3692.9000000953674,"",,,,,,,,,,,2,,,,,
html-keyboard-response,747,1013044,null,"",null,,,,,,,,,,,,,,,
math-period,748,1013766,null,"",,,,,,,,,,,,,,,,
html-keyboard-response,749,1014768,null,"Recall Period!",null,,,,,,,,,,,,,,,
call-function,750,1014769,,"",,,,,,,,,,,,,,,,
html-keyboard-response,751,1014885,null,"",null,,,,,,,,,,,,,,,
recall-period,752,1017174,10834.000000238419,"",,,,,,,,,,,poison,,,,,
html-keyboard-response,753,1017285,null,"",null,,,,,,,,,,,,,,,
recall-period,754,1019851,11078.700000286102,"",,,,,,,,,,,dresser,,,,,
html-keyboard-response,755,1019953,null,"",null,,,,,,,,,,,,,,,
recall-period,756,1022207,8435.400000095367,"",,,,,,,,,,,bureau,,,,,
html-keyboard-response,757,1022320,null,"",null,,,,,,,,,,,,,,,
recall-period,758,1024531,10222,"",,,,,,,,,,,banker,,,,,
html-keyboard-response,759,1024637,null,"",null,,,,,,,,,,,,,,,
recall-period,760,1027656,9856.099999427795,"",,,,,,,,,,,bandit,,,,,
html-keyboard-response,761,1027762,null,"",null,,,,,,,,,,,,,,,
recall-period,762,1031510,18568.400000095367,"",,,,,,,,,,,scarecrow,,,,,
html-keyboard-response,763,1031626,null,"",null,,,,,,,,,,,,,,,
recall-period,764,1033992,8001.700000524521,"",,,,,,,,,,,parrot,,,,,
html-keyboard-response,765,1034095,null,"",null,,,,,,,,,,,,,,,
recall-period,766,1089796,null,"",,,,,,,,,,,,,,,,
html-keyboard-response,767,1090304,null,"Time's Up!",null,,,,,,,,,,,,,,,
html-keyboard-response,768,1092697,2390.9000000953674,"<p> Good job! You have responded correctly to 99% of the trials. </p>
                      <p>Be sure to only press the spacebar if you see a GREEN square, and please keep your accuracy above 80%.</p>
                      <p> Press any key to continue the experiment. </p>",32,,,,,,,,,,,,,,,
html-keyboard-response,769,1094003,1305.0999999046326,"<div style=""font-size:48px;"">Press any key to begin list 7 of 16 </div>",32,,,,,,,,,,,,,,,
html-keyboard-response,770,1096521,null,"<div style=""font-size:60px;"">+</div>",null,,,,,,,,,,,,,,,
html-keyboard-response,771,1096724,null,"<div style=""font-size:42px;"">HAYSTACK</div><img id = ""stim"" ><div class = red_square id = bottomsquare></div>",null,encoding,word_square,,,0,bottomsquare,none,true,,,HAYSTACK,6,,,
html-keyboard-response,772,1097041,null,"<div style=""font-size:42px;"">HAYSTACK</div>",null,,word,HAYSTACK,,,,,,,,,,,,
html-keyboard-response,773,1098548,null,"",null,,word,HAYSTACK,,,,,,,,,,,,
html-keyboard-response,774,1098757,null,"<div style=""font-size:42px;"">TOURIST</div><img id = ""stim"" ><div class = red_square id = topsquare></div>",null,encoding,word_square,,,0,topsquare,none,true,,,TOURIST,6,,,
html-keyboard-response,775,1099059,null,"<div style=""font-size:42px;"">TOURIST</div>",null,,word,TOURIST,,,,,,,,,,,,
html-keyboard-response,776,1100563,null,"",null,,word,TOURIST,,,,,,,,,,,,
html-keyboard-response,777,1100774,null,"<div style=""font-size:42px;"">LODGE</div><img id = ""stim"" ><div class = green_square id = topsquare></div>",null,encoding,word_square,,,1,topsquare,32,true,,,LODGE,6,,,
html-keyboard-response,778,1101076,197.5,"<div style=""font-size:42px;"">LODGE</div>",32,,word,LODGE,,,,,,,,,,,,
html-keyboard-response,779,1102587,null,"",null,,word,LODGE,,,,,,,,,,,,
html-keyboard-response,780,1102800,null,"<div style=""font-size:42px;"">BUILDER</div><img id = ""stim"" ><div class = red_square id = bottomsquare></div>",null,encoding,word_square,,,0,bottomsquare,none,true,,,BUILDER,6,,,
html-keyboard-response,781,1103108,null,"<div style=""font-size:42px;"">BUILDER</div>",null,,word,BUILDER,,,,,,,,,,,,
html-keyboard-response,782,1104625,null,"",null,,word,BUILDER,,,,,,,,,,,,
html-keyboard-response,783,1104832,null,"<div style=""font-size:42px;"">PAINTING</div><img id = ""stim"" ><div class = green_square id = bottomsquare></div>",null,encoding,word_square,,,1,bottomsquare,32,true,,,PAINTING,6,,,
html-keyboard-response,784,1105140,156.39999985694885,"<div style=""font-size:42px;"">PAINTING</div>",32,,word,PAINTING,,,,,,,,,,,,
html-keyboard-response,785,1106645,null,"",null,,word,PAINTING,,,,,,,,,,,,
html-keyboard-response,786,1106849,null,"<div style=""font-size:42px;"">ATTIC</div><img id = ""stim"" ><div class = red_square id = topsquare></div>",null,encoding,word_square,,,0,topsquare,none,true,,,ATTIC,6,,,
html-keyboard-response,787,1107158,null,"<div style=""font-size:42px;"">ATTIC</div>",null,,word,ATTIC,,,,,,,,,,,,
html-keyboard-response,788,1108671,null,"",null,,word,ATTIC,,,,,,,,,,,,
html-keyboard-response,789,1108882,null,"<div style=""font-size:42px;"">KNUCKLE</div><img id = ""stim"" ><div class = red_square id = bottomsquare></div>",null,encoding,word_square,,,0,bottomsquare,none,true,,,KNUCKLE,6,,,
html-keyboard-response,790,1109200,null,"<div style=""font-size:42px;"">KNUCKLE</div>",null,,word,KNUCKLE,,,,,,,,,,,,
html-keyboard-response,791,1110712,null,"",null,,word,KNUCKLE,,,,,,,,,,,,
html-keyboard-response,792,1110924,null,"<div style=""font-size:42px;"">SCARF</div><img id = ""stim"" ><div class = green_square id = topsquare></div>",null,encoding,word_square,,,1,topsquare,32,true,,,SCARF,6,,,
html-keyboard-response,793,1111236,244.90000009536743,"<div style=""font-size:42px;"">SCARF</div>",32,,word,SCARF,,,,,,,,,,,,
html-keyboard-response,794,1112746,null,"",null,,word,SCARF,,,,,,,,,,,,
html-keyboard-response,795,1112958,null,"<div style=""font-size:42px;"">THIEF</div><img id = ""stim"" ><div class = green_square id = bottomsquare></div>",null,encoding,word_square,,,1,bottomsquare,32,true,,,THIEF,6,,,
html-keyboard-response,796,1113267,236.39999985694885,"<div style=""font-size:42px;"">THIEF</div>",32,,word,THIEF,,,,,,,,,,,,
html-keyboard-response,797,1114779,null,"",null,,word,THIEF,,,,,,,,,,,,
html-keyboard-response,798,1114990,null,"<div style=""font-size:42px;"">RACKET</div><img id = ""stim"" ><div class = red_square id = topsquare></div>",null,encoding,word_square,,,0,topsquare,none,true,,,RACKET,6,,,
html-keyboard-response,799,1115300,null,"<div style=""font-size:42px;"">RACKET</div>",null,,word,RACKET,,,,,,,,,,,,
html-keyboard-response,800,1116812,null,"",null,,word,RACKET,,,,,,,,,,,,
html-keyboard-response,801,1117023,null,"<div style=""font-size:42px;"">COOKIE</div><img id = ""stim"" ><div class = green_square id = topsquare></div>",null,encoding,word_square,,,1,topsquare,32,true,,,COOKIE,6,,,
html-keyboard-response,802,1117326,193.09999990463257,"<div style=""font-size:42px;"">COOKIE</div>",32,,word,COOKIE,,,,,,,,,,,,
html-keyboard-response,803,1118837,null,"",null,,word,COOKIE,,,,,,,,,,,,
html-keyboard-response,804,1119048,null,"<div style=""font-size:42px;"">MOTEL</div><img id = ""stim"" ><div class = green_square id = bottomsquare></div>",null,encoding,word_square,,,1,bottomsquare,32,true,,,MOTEL,6,,,
html-keyboard-response,805,1119358,279.59999990463257,"<div style=""font-size:42px;"">MOTEL</div>",32,,word,MOTEL,,,,,,,,,,,,
html-keyboard-response,806,1120871,null,"",null,,word,MOTEL,,,,,,,,,,,,
html-keyboard-response,807,1121082,null,"<div style=""font-size:42px;"">DRILL</div><img id = ""stim"" ><div class = red_square id = bottomsquare></div>",null,encoding,word_square,,,0,bottomsquare,none,true,,,DRILL,6,,,
html-keyboard-response,808,1121385,null,"<div style=""font-size:42px;"">DRILL</div>",null,,word,DRILL,,,,,,,,,,,,
html-keyboard-response,809,1122888,null,"",null,,word,DRILL,,,,,,,,,,,,
html-keyboard-response,810,1123091,null,"<div style=""font-size:42px;"">SPOON</div><img id = ""stim"" ><div class = green_square id = topsquare></div>",null,encoding,word_square,,,1,topsquare,32,true,,,SPOON,6,,,
html-keyboard-response,811,1123401,null,"<div style=""font-size:42px;"">SPOON</div>",null,,word,SPOON,,,,,,,,,,,,
html-keyboard-response,812,1124912,218.20000004768372,"",32,,word,SPOON,,,,,,,,,,,,
html-keyboard-response,813,1125126,null,"<div style=""font-size:42px;"">SWORD</div><img id = ""stim"" ><div class = green_square id = bottomsquare></div>",null,encoding,word_square,,,1,bottomsquare,32,true,,,SWORD,6,,,
html-keyboard-response,814,1125435,null,"<div style=""font-size:42px;"">SWORD</div>",null,,word,SWORD,,,,,,,,,,,,
html-keyboard-response,815,1126946,2.4000000953674316,"",32,,word,SWORD,,,,,,,,,,,,
html-keyboard-response,816,1127157,null,"<div style=""font-size:42px;"">WRENCH</div><img id = ""stim"" ><div class = red_square id = topsquare></div>",null,encoding,word_square,,,0,topsquare,none,true,,,WRENCH,6,,,
html-keyboard-response,817,1127466,null,"<div style=""font-size:42px;"">WRENCH</div>",null,,word,WRENCH,,,,,,,,,,,,
html-keyboard-response,818,1128970,null,"",null,,word,WRENCH,,,,,,,,,,,,
call-function,819,1128971,,"",,,,,,,,,,,,,,,,
html-keyboard-response,820,1129080,null,"",null,,,,,,,,,,,,,,,
math-period,821,1131395,3763.300000190735,"",,,,,,,,,,,1,,,,,
html-keyboard-response,822,1131498,null,"",null,,,,,,,,,,,,,,,
math-period,823,1135134,4779.400000095367,"",,,,,,,,,,,5numpad,,,,,
html-keyboard-response,824,1135239,null,"",null,,,,,,,,,,,,,,,
math-period,825,1138389,5872.800000190735,"",,,,,,,,,,,2,,,,,
html-keyboard-response,826,1138504,null,"",null,,,,,,,,,,,,,,,
math-period,827,1141019,4267.5,"",,,,,,,,,,,4,,,,,
html-keyboard-response,828,1141122,null,"",null,,,,,,,,,,,,,,,
math-period,829,1142671,2642.9000000953674,"",,,,,,,,,,,3,,,,,
html-keyboard-response,830,1142773,null,"",null,,,,,,,,,,,,,,,
math-period,831,1144734,3500.9999997615814,"",,,,,,,,,,,3,,,,,
html-keyboard-response,832,1144840,null,"",null,,,,,,,,,,,,,,,
math-period,833,1147227,3885.300000190735,"",,,,,,,,,,,1,,,,,
html-keyboard-response,834,1147338,null,"",null,,,,,,,,,,,,,,,
math-period,835,1149252,3460.7999999523163,"",,,,,,,,,,,5,,,,,
html-keyboard-response,836,1149355,null,"",null,,,,,,,,,,,,,,,
math-period,837,1150996,2735.4999997615814,"",,,,,,,,,,,2,,,,,
html-keyboard-response,838,1151110,null,"",null,,,,,,,,,,,,,,,
math-period,839,1152588,2464.399999856949,"",,,,,,,,,,,5,,,,,
html-keyboard-response,840,1152691,null,"",null,,,,,,,,,,,,,,,
math-period,841,1152986,null,"",,,,,,,,,,,,,,,,
html-keyboard-response,842,1153991,null,"Recall Period!",null,,,,,,,,,,,,,,,
call-function,843,1153992,,"",,,,,,,,,,,,,,,,
html-keyboard-response,844,1154100,null,"",null,,,,,,,,,,,,,,,
recall-period,845,1156186,8027.600000143051,"",,,,,,,,,,,drill,,,,,
html-keyboard-response,846,1156300,null,"",null,,,,,,,,,,,,,,,
recall-period,847,1158158,6382.099999189377,"",,,,,,,,,,,spoon,,,,,
html-keyboard-response,848,1158271,null,"",null,,,,,,,,,,,,,,,
recall-period,849,1161048,6527.200000286102,"",,,,,,,,,,,sword,,,,,
html-keyboard-response,850,1161162,null,"",null,,,,,,,,,,,,,,,
recall-period,851,1165193,8070.100000858307,"",,,,,,,,,,,racket,,,,,
html-keyboard-response,852,1165297,null,"",null,,,,,,,,,,,,,,,
recall-period,853,1171730,35404.900000572205,"",,,,,,,,,,,motel,,,,,
html-keyboard-response,854,1171832,null,"",null,,,,,,,,,,,,,,,
recall-period,855,1177222,31773.199999809265,"",,,,,,,,,,,robber,,,,,
html-keyboard-response,856,1177325,null,"",null,,,,,,,,,,,,,,,
recall-period,857,1228997,null,"",,,,,,,,,,,,,,,,
html-keyboard-response,858,1229503,null,"Time's Up!",null,,,,,,,,,,,,,,,
html-keyboard-response,859,1231939,2434.100000143051,"<p> Good job! You have responded correctly to 99% of the trials. </p>
                      <p>Be sure to only press the spacebar if you see a GREEN square, and please keep your accuracy above 80%.</p>
                      <p> Press any key to continue the experiment. </p>",32,,,,,,,,,,,,,,,
html-keyboard-response,860,1233778,1838.4000000953674,"<div style=""font-size:48px;"">Press any key to begin list 8 of 16 </div>",32,,,,,,,,,,,,,,,
html-keyboard-response,861,1236297,null,"<div style=""font-size:60px;"">+</div>",null,,,,,,,,,,,,,,,
html-keyboard-response,862,1236507,null,"<div style=""font-size:42px;"">TORTOISE</div><img id = ""stim"" ><div class = red_square id = topsquare></div>",null,encoding,word_square,,,0,topsquare,none,true,,,TORTOISE,7,,,
html-keyboard-response,863,1236816,null,"<div style=""font-size:42px;"">TORTOISE</div>",null,,word,TORTOISE,,,,,,,,,,,,
html-keyboard-response,864,1238320,null,"",null,,word,TORTOISE,,,,,,,,,,,,
html-keyboard-response,865,1238539,null,"<div style=""font-size:42px;"">WARDROBE</div><img id = ""stim"" ><div class = green_square id = bottomsquare></div>",null,encoding,word_square,,,1,bottomsquare,32,true,,,WARDROBE,7,,,
html-keyboard-response,866,1238842,283.09999990463257,"<div style=""font-size:42px;"">WARDROBE</div>",32,,word,WARDROBE,,,,,,,,,,,,
html-keyboard-response,867,1240354,null,"",null,,word,WARDROBE,,,,,,,,,,,,
html-keyboard-response,868,1240566,null,"<div style=""font-size:42px;"">MATCH</div><img id = ""stim"" ><div class = green_square id = topsquare></div>",null,encoding,word_square,,,1,topsquare,32,true,,,MATCH,7,,,
html-keyboard-response,869,1240875,236.80000019073486,"<div style=""font-size:42px;"">MATCH</div>",32,,word,MATCH,,,,,,,,,,,,
html-keyboard-response,870,1242387,null,"",null,,word,MATCH,,,,,,,,,,,,
html-keyboard-response,871,1242599,null,"<div style=""font-size:42px;"">ZEBRA</div><img id = ""stim"" ><div class = red_square id = bottomsquare></div>",null,encoding,word_square,,,0,bottomsquare,none,true,,,ZEBRA,7,,,
html-keyboard-response,872,1242908,null,"<div style=""font-size:42px;"">ZEBRA</div>",null,,word,ZEBRA,,,,,,,,,,,,
html-keyboard-response,873,1244417,null,"",null,,word,ZEBRA,,,,,,,,,,,,
html-keyboard-response,874,1244622,null,"<div style=""font-size:42px;"">COOK</div><img id = ""stim"" ><div class = green_square id = bottomsquare></div>",null,encoding,word_square,,,1,bottomsquare,32,true,,,COOK,7,,,
html-keyboard-response,875,1244939,161,"<div style=""font-size:42px;"">COOK</div>",32,,word,COOK,,,,,,,,,,,,
html-keyboard-response,876,1246445,null,"",null,,word,COOK,,,,,,,,,,,,
html-keyboard-response,877,1246656,null,"<div style=""font-size:42px;"">SHELF</div><img id = ""stim"" ><div class = green_square id = topsquare></div>",null,encoding,word_square,,,1,topsquare,32,true,,,SHELF,7,,,
html-keyboard-response,878,1246965,208.10000014305115,"<div style=""font-size:42px;"">SHELF</div>",32,,word,SHELF,,,,,,,,,,,,
html-keyboard-response,879,1248478,null,"",null,,word,SHELF,,,,,,,,,,,,
html-keyboard-response,880,1248689,null,"<div style=""font-size:42px;"">PASSAGE</div><img id = ""stim"" ><div class = red_square id = topsquare></div>",null,encoding,word_square,,,0,topsquare,none,true,,,PASSAGE,7,,,
html-keyboard-response,881,1248991,null,"<div style=""font-size:42px;"">PASSAGE</div>",null,,word,PASSAGE,,,,,,,,,,,,
html-keyboard-response,882,1250502,null,"",null,,word,PASSAGE,,,,,,,,,,,,
html-keyboard-response,883,1250714,null,"<div style=""font-size:42px;"">VICTIM</div><img id = ""stim"" ><div class = green_square id = bottomsquare></div>",null,encoding,word_square,,,1,bottomsquare,32,true,,,VICTIM,7,,,
html-keyboard-response,884,1251018,152.10000014305115,"<div style=""font-size:42px;"">VICTIM</div>",32,,word,VICTIM,,,,,,,,,,,,
html-keyboard-response,885,1252527,null,"",null,,word,VICTIM,,,,,,,,,,,,
html-keyboard-response,886,1252739,null,"<div style=""font-size:42px;"">FRIES</div><img id = ""stim"" ><div class = green_square id = topsquare></div>",null,encoding,word_square,,,1,topsquare,32,true,,,FRIES,7,,,
html-keyboard-response,887,1253049,131.90000009536743,"<div style=""font-size:42px;"">FRIES</div>",32,,word,FRIES,,,,,,,,,,,,
html-keyboard-response,888,1254561,null,"",null,,word,FRIES,,,,,,,,,,,,
html-keyboard-response,889,1254773,null,"<div style=""font-size:42px;"">CUPBOARD</div><img id = ""stim"" ><div class = red_square id = bottomsquare></div>",null,encoding,word_square,,,0,bottomsquare,none,true,,,CUPBOARD,7,,,
html-keyboard-response,890,1255090,null,"<div style=""font-size:42px;"">CUPBOARD</div>",null,,word,CUPBOARD,,,,,,,,,,,,
html-keyboard-response,891,1256604,null,"",null,,word,CUPBOARD,,,,,,,,,,,,
html-keyboard-response,892,1256814,null,"<div style=""font-size:42px;"">LUMBER</div><img id = ""stim"" ><div class = red_square id = topsquare></div>",null,encoding,word_square,,,0,topsquare,none,true,,,LUMBER,7,,,
html-keyboard-response,893,1257123,null,"<div style=""font-size:42px;"">LUMBER</div>",null,,word,LUMBER,,,,,,,,,,,,
html-keyboard-response,894,1258628,null,"",null,,word,LUMBER,,,,,,,,,,,,
html-keyboard-response,895,1258831,null,"<div style=""font-size:42px;"">COBWEB</div><img id = ""stim"" ><div class = green_square id = bottomsquare></div>",null,encoding,word_square,,,1,bottomsquare,32,true,,,COBWEB,7,,,
html-keyboard-response,896,1259140,222.30000019073486,"<div style=""font-size:42px;"">COBWEB</div>",32,,word,COBWEB,,,,,,,,,,,,
html-keyboard-response,897,1260653,null,"",null,,word,COBWEB,,,,,,,,,,,,
html-keyboard-response,898,1260856,null,"<div style=""font-size:42px;"">DIME</div><img id = ""stim"" ><div class = red_square id = bottomsquare></div>",null,encoding,word_square,,,0,bottomsquare,none,true,,,DIME,7,,,
html-keyboard-response,899,1261166,null,"<div style=""font-size:42px;"">DIME</div>",null,,word,DIME,,,,,,,,,,,,
html-keyboard-response,900,1262678,null,"",null,,word,DIME,,,,,,,,,,,,
html-keyboard-response,901,1262889,null,"<div style=""font-size:42px;"">QUARTER</div><img id = ""stim"" ><div class = green_square id = topsquare></div>",null,encoding,word_square,,,1,topsquare,32,true,,,QUARTER,7,,,
html-keyboard-response,902,1263207,null,"<div style=""font-size:42px;"">QUARTER</div>",null,,word,QUARTER,,,,,,,,,,,,
html-keyboard-response,903,1264719,328,"",32,,word,QUARTER,,,,,,,,,,,,
html-keyboard-response,904,1264932,null,"<div style=""font-size:42px;"">PLANET</div><img id = ""stim"" ><div class = red_square id = topsquare></div>",null,encoding,word_square,,,0,topsquare,none,true,,,PLANET,7,,,
html-keyboard-response,905,1265241,null,"<div style=""font-size:42px;"">PLANET</div>",null,,word,PLANET,,,,,,,,,,,,
html-keyboard-response,906,1266754,null,"",null,,word,PLANET,,,,,,,,,,,,
html-keyboard-response,907,1266964,null,"<div style=""font-size:42px;"">OUTFIT</div><img id = ""stim"" ><div class = red_square id = bottomsquare></div>",null,encoding,word_square,,,0,bottomsquare,none,true,,,OUTFIT,7,,,
html-keyboard-response,908,1267274,null,"<div style=""font-size:42px;"">OUTFIT</div>",null,,word,OUTFIT,,,,,,,,,,,,
html-keyboard-response,909,1268786,null,"",null,,word,OUTFIT,,,,,,,,,,,,
call-function,910,1268787,,"",,,,,,,,,,,,,,,,
html-keyboard-response,911,1268896,null,"",null,,,,,,,,,,,,,,,
math-period,912,1271501,3968.699999809265,"",,,,,,,,,,,3,,,,,
html-keyboard-response,913,1271605,null,"",null,,,,,,,,,,,,,,,
math-period,914,1273033,2469.4000000953674,"",,,,,,,,,,,4,,,,,
html-keyboard-response,915,1273140,null,"",null,,,,,,,,,,,,,,,
math-period,916,1274402,2150.4000000953674,"",,,,,,,,,,,3,,,,,
html-keyboard-response,917,1274505,null,"",null,,,,,,,,,,,,,,,
math-period,918,1275737,2093.699999809265,"",,,,,,,,,,,3,,,,,
html-keyboard-response,919,1275840,null,"",null,,,,,,,,,,,,,,,
math-period,920,1278765,4360.400000095367,"",,,,,,,,,,,2,,,,,
html-keyboard-response,921,1278875,null,"",null,,,,,,,,,,,,,,,
math-period,922,1281193,3898.0999999046326,"",,,,,,,,,,,1,,,,,
html-keyboard-response,923,1281295,null,"",null,,,,,,,,,,,,,,,
math-period,924,1282742,2370.2999999523163,"",,,,,,,,,,,4,,,,,
html-keyboard-response,925,1282849,null,"",null,,,,,,,,,,,,,,,
math-period,926,1284429,2614.4000000953674,"",,,,,,,,,,,5,,,,,
html-keyboard-response,927,1284545,null,"",null,,,,,,,,,,,,,,,
math-period,928,1287319,4227.599999904633,"",,,,,,,,,,,5,,,,,
html-keyboard-response,929,1287421,null,"",null,,,,,,,,,,,,,,,
math-period,930,1290224,5297.599999666214,"",,,,,,,,,,,1,,,,,
html-keyboard-response,931,1290336,null,"",null,,,,,,,,,,,,,,,
math-period,932,1291919,2625.399999856949,"",,,,,,,,,,,4,,,,,
html-keyboard-response,933,1292021,null,"",null,,,,,,,,,,,,,,,
math-period,934,1292794,null,"",,,,,,,,,,,,,,,,
html-keyboard-response,935,1293806,null,"Recall Period!",null,,,,,,,,,,,,,,,
call-function,936,1293807,,"",,,,,,,,,,,,,,,,
html-keyboard-response,937,1293915,null,"",null,,,,,,,,,,,,,,,
recall-period,938,1296548,9344.499999761581,"",,,,,,,,,,,cook,,,,,
html-keyboard-response,939,1296661,null,"",null,,,,,,,,,,,,,,,
recall-period,940,1297982,4374.799999952316,"",,,,,,,,,,,shelf,,,,,
html-keyboard-response,941,1298087,null,"",null,,,,,,,,,,,,,,,
recall-period,942,1300244,8025.200000286102,"",,,,,,,,,,,lumber,,,,,
html-keyboard-response,943,1300346,null,"",null,,,,,,,,,,,,,,,
recall-period,944,1301877,5142.499999761581,"",,,,,,,,,,,dime,,,,,
