trial_type,trial_index,time_elapsed,rt,stimulus,key_press,exp_phase,test_part,word,task,targ_cond,sq_pos,correctKeyCode,correct,value,response,Word,List,RecResp,serial_pos,colorChosen
pavlovia,0,2363,,"",,,,,,,,,,,,,,,,
external-html,1,293980,98619.89999997616,"",,,,,,,,,,,,,,,,
html-keyboard-response,2,297459,3475.699999988079,"Welcome to the experiment. Press any key to begin.",32,,,,,,,,,,,,,,,
html-keyboard-response,3,311381,13920.400000035763,"<p>You will see a list of words and colored squares in the following task.<p><p>Press the spacebar whenever you see a GREEN square.<p><p>Do not press a key if the square is RED.<p><p>Press the spacebar to continue.</p>",32,,,,,,,,,,,,,,,
html-keyboard-response,4,330874,18990.5,"<p>Please try to remember as many of the words as you can, and try to think about the meaning of each word as it appears.<p><p>After the detection and encoding task you will be asked to solve some math problems for 24 seconds.<p> Please solve as many problems as you can in the time given. <p><p><p>Press the spacebar to continue.</p>",32,,,,,,,,,,,,,,,
html-keyboard-response,5,343013,11637.300000011921,"After solving the math problems, you will be asked to type in as many words <p>from the previous list as you can remember for 75 seconds.<p> If you finish recalling before the 75 seconds are up,<p> just sit tight and try to think of any more words you could have missed. <p><p><p>Press the spacebar to continue.</p>",32,,,,,,,,,,,,,,,
html-keyboard-response,6,355229,11710.300000011921,"There will be 16 lists of words and recall, followed  by<p><p> a recognition phase. The experiment is expected to take up to 90 minutes.<p>We will begin with a brief practice session.<p>Press the spacebar to begin the practice.</p>",32,,,,,,,,,,,,,,,
html-keyboard-response,7,357735,null,"<div style=""font-size:60px;"">+</div>",null,,,,,,,,,,,,,,,
html-keyboard-response,8,357941,null,"<div style=""font-size:42px;"">HAPPY</div><img id = ""stim"" ><div class = red_square id = ""bottomsquare"" ></div>",null,practice,word_square,HAPPY,prac_response,0,Bottom,none,true,,,,,,,
html-keyboard-response,9,358243,null,"<div style=""font-size:42px;"">HAPPY</div>",null,,word,HAPPY,,,,,,,,,,,,
html-keyboard-response,10,359745,null,"",null,,word,HAPPY,,,,,,,,,,,,
html-keyboard-response,11,359949,null,"<div style=""font-size:42px;"">COLD</div><img id = ""stim"" ><div class = green_square id = ""bottomsquare"" ></div>",null,practice,word_square,COLD,prac_response,1,Bottom,32,true,,,,,,,
html-keyboard-response,12,360255,null,"<div style=""font-size:42px;"">COLD</div>",null,,word,COLD,,,,,,,,,,,,
html-keyboard-response,13,361758,126.20000004768372,"",32,,word,COLD,,,,,,,,,,,,
html-keyboard-response,14,361961,null,"<div style=""font-size:42px;"">HEAVY</div><img id = ""stim"" ><div class = green_square id = ""topsquare"" ></div>",null,practice,word_square,HEAVY,prac_response,1,Top,32,true,,,,,,,
html-keyboard-response,15,362268,279.89999997615814,"<div style=""font-size:42px;"">HEAVY</div>",32,,word,HEAVY,,,,,,,,,,,,
html-keyboard-response,16,363770,null,"",null,,word,HEAVY,,,,,,,,,,,,
html-keyboard-response,17,363975,null,"<div style=""font-size:42px;"">FUNNY</div><img id = ""stim"" ><div class = red_square id = ""topsquare"" ></div>",null,practice,word_square,FUNNY,prac_response,0,Top,none,true,,,,,,,
html-keyboard-response,18,364277,null,"<div style=""font-size:42px;"">FUNNY</div>",null,,word,FUNNY,,,,,,,,,,,,
html-keyboard-response,19,365779,null,"",null,,word,FUNNY,,,,,,,,,,,,
html-keyboard-response,20,365981,null,"<div style=""font-size:42px;"">SCARY</div><img id = ""stim"" ><div class = green_square id = ""bottomsquare"" ></div>",null,practice,word_square,SCARY,prac_response,1,Bottom,32,true,,,,,,,
html-keyboard-response,21,366282,296.5,"<div style=""font-size:42px;"">SCARY</div>",32,,word,SCARY,,,,,,,,,,,,
html-keyboard-response,22,367784,null,"",null,,word,SCARY,,,,,,,,,,,,
html-keyboard-response,23,367987,null,"<div style=""font-size:42px;"">PEACEFUL</div><img id = ""stim"" ><div class = green_square id = ""topsquare"" ></div>",null,practice,word_square,PEACEFUL,prac_response,1,Top,32,true,,,,,,,
html-keyboard-response,24,368289,null,"<div style=""font-size:42px;"">PEACEFUL</div>",null,,word,PEACEFUL,,,,,,,,,,,,
html-keyboard-response,25,369791,258.80000001192093,"",32,,word,PEACEFUL,,,,,,,,,,,,
html-keyboard-response,26,369995,null,"<div style=""font-size:42px;"">LITTLE</div><img id = ""stim"" ><div class = red_square id = ""bottomsquare"" ></div>",null,practice,word_square,LITTLE,prac_response,0,Bottom,none,true,,,,,,,
html-keyboard-response,27,370300,null,"<div style=""font-size:42px;"">LITTLE</div>",null,,word,LITTLE,,,,,,,,,,,,
html-keyboard-response,28,371802,null,"",null,,word,LITTLE,,,,,,,,,,,,
html-keyboard-response,29,372004,null,"<div style=""font-size:42px;"">TIRED</div><img id = ""stim"" ><div class = red_square id = ""topsquare"" ></div>",null,practice,word_square,TIRED,prac_response,0,Top,none,true,,,,,,,
html-keyboard-response,30,372307,null,"<div style=""font-size:42px;"">TIRED</div>",null,,word,TIRED,,,,,,,,,,,,
html-keyboard-response,31,373809,null,"",null,,word,TIRED,,,,,,,,,,,,
html-keyboard-response,32,374012,null,"<div style=""font-size:42px;"">ENTERTAINING</div><img id = ""stim"" ><div class = red_square id = ""bottomsquare"" ></div>",null,practice,word_square,ENTERTAINING,prac_response,0,Bottom,none,true,,,,,,,
html-keyboard-response,33,374316,null,"<div style=""font-size:42px;"">ENTERTAINING</div>",null,,word,ENTERTAINING,,,,,,,,,,,,
html-keyboard-response,34,375819,null,"",null,,word,ENTERTAINING,,,,,,,,,,,,
html-keyboard-response,35,376026,null,"<div style=""font-size:42px;"">GRATEFUL</div><img id = ""stim"" ><div class = green_square id = ""bottomsquare"" ></div>",null,practice,word_square,GRATEFUL,prac_response,1,Bottom,32,true,,,,,,,
html-keyboard-response,36,376328,221,"<div style=""font-size:42px;"">GRATEFUL</div>",32,,word,GRATEFUL,,,,,,,,,,,,
html-keyboard-response,37,377830,null,"",null,,word,GRATEFUL,,,,,,,,,,,,
html-keyboard-response,38,378035,null,"<div style=""font-size:42px;"">LOUD</div><img id = ""stim"" ><div class = red_square id = ""topsquare"" ></div>",null,practice,word_square,LOUD,prac_response,0,Top,none,true,,,,,,,
html-keyboard-response,39,378341,null,"<div style=""font-size:42px;"">LOUD</div>",null,,word,LOUD,,,,,,,,,,,,
html-keyboard-response,40,379844,null,"",null,,word,LOUD,,,,,,,,,,,,
html-keyboard-response,41,380050,null,"<div style=""font-size:42px;"">SMART</div><img id = ""stim"" ><div class = green_square id = ""topsquare"" ></div>",null,practice,word_square,SMART,prac_response,1,Top,32,true,,,,,,,
html-keyboard-response,42,380352,null,"<div style=""font-size:42px;"">SMART</div>",null,,word,SMART,,,,,,,,,,,,
html-keyboard-response,43,381855,148.60000002384186,"",32,,word,SMART,,,,,,,,,,,,
html-keyboard-response,44,382061,null,"<div style=""font-size:42px;"">SMOOTH</div><img id = ""stim"" ><div class = green_square id = ""bottomsquare"" ></div>",null,practice,word_square,SMOOTH,prac_response,1,Bottom,32,true,,,,,,,
html-keyboard-response,45,382363,193.30000001192093,"<div style=""font-size:42px;"">SMOOTH</div>",32,,word,SMOOTH,,,,,,,,,,,,
html-keyboard-response,46,383865,null,"",null,,word,SMOOTH,,,,,,,,,,,,
html-keyboard-response,47,384070,null,"<div style=""font-size:42px;"">DISHONEST</div><img id = ""stim"" ><div class = red_square id = ""bottomsquare"" ></div>",null,practice,word_square,DISHONEST,prac_response,0,Bottom,none,false,,,,,,,
html-keyboard-response,48,384375,198,"<div style=""font-size:42px;"">DISHONEST</div>",32,,word,DISHONEST,,,,,,,,,,,,
html-keyboard-response,49,385876,null,"",null,,word,DISHONEST,,,,,,,,,,,,
html-keyboard-response,50,386081,null,"<div style=""font-size:42px;"">WEALTHY</div><img id = ""stim"" ><div class = green_square id = ""topsquare"" ></div>",null,practice,word_square,WEALTHY,prac_response,1,Top,32,true,,,,,,,
html-keyboard-response,51,386382,209.19999998807907,"<div style=""font-size:42px;"">WEALTHY</div>",32,,word,WEALTHY,,,,,,,,,,,,
html-keyboard-response,52,387885,null,"",null,,word,WEALTHY,,,,,,,,,,,,
html-keyboard-response,53,388089,null,"<div style=""font-size:42px;"">BEAUTIFUL</div><img id = ""stim"" ><div class = red_square id = ""topsquare"" ></div>",null,practice,word_square,BEAUTIFUL,prac_response,0,Top,none,true,,,,,,,
html-keyboard-response,54,388394,null,"<div style=""font-size:42px;"">BEAUTIFUL</div>",null,,word,BEAUTIFUL,,,,,,,,,,,,
html-keyboard-response,55,389896,null,"",null,,word,BEAUTIFUL,,,,,,,,,,,,
html-keyboard-response,56,396463,6564.899999976158,"<p> Good job! You responded correctly to 94% of the trials. </p>
                  <p>Be sure to only press the spacebar if you see a GREEN square, and please keep your accuracy above 80%.</p>
                  <p>We're going to try once more to make sure you understand the task. press any key to continue. </p>",32,,,,,,,,,,,,,,,
html-keyboard-response,57,398246,1781.8999999761581,"<p>You will see a list of words and colored squares in the following task.<p><p>Press the spacebar whenever you see a GREEN square.<p><p>Do not press a key if the square is RED<p><p>Press the spacebar to continue.</p>",32,,,,,,,,,,,,,,,
html-keyboard-response,58,400751,null,"<div style=""font-size:60px;"">+</div>",null,,,,,,,,,,,,,,,
html-keyboard-response,59,400957,null,"<div style=""font-size:42px;"">HAPPY</div><img id = ""stim"" ><div class = red_square id = ""bottomsquare"" ></div>",null,practice2,word_square,HAPPY,prac_response,0,Bottom,none,true,,,,,,,
html-keyboard-response,60,401262,null,"<div style=""font-size:42px;"">HAPPY</div>",null,,word,HAPPY,,,,,,,,,,,,
html-keyboard-response,61,402764,null,"",null,,word,HAPPY,,,,,,,,,,,,
html-keyboard-response,62,402969,null,"<div style=""font-size:42px;"">COLD</div><img id = ""stim"" ><div class = green_square id = ""bottomsquare"" ></div>",null,practice2,word_square,,prac_response,1,Bottom,32,true,,,,,,,
html-keyboard-response,63,403274,176.39999997615814,"<div style=""font-size:42px;"">COLD</div>",32,,word,COLD,,,,,,,,,,,,
html-keyboard-response,64,404775,null,"",null,,word,COLD,,,,,,,,,,,,
html-keyboard-response,65,404977,null,"<div style=""font-size:42px;"">HEAVY</div><img id = ""stim"" ><div class = green_square id = ""topsquare"" ></div>",null,practice2,word_square,,prac_response,1,Top,32,true,,,,,,,
html-keyboard-response,66,405282,null,"<div style=""font-size:42px;"">HEAVY</div>",null,,word,HEAVY,,,,,,,,,,,,
html-keyboard-response,67,406783,76.59999996423721,"",32,,word,HEAVY,,,,,,,,,,,,
html-keyboard-response,68,406985,null,"<div style=""font-size:42px;"">FUNNY</div><img id = ""stim"" ><div class = red_square id = ""topsquare"" ></div>",null,practice2,word_square,,prac_response,0,Top,none,true,,,,,,,
html-keyboard-response,69,407288,null,"<div style=""font-size:42px;"">FUNNY</div>",null,,word,FUNNY,,,,,,,,,,,,
html-keyboard-response,70,408789,null,"",null,,word,FUNNY,,,,,,,,,,,,
html-keyboard-response,71,408994,null,"<div style=""font-size:42px;"">SCARY</div><img id = ""stim"" ><div class = green_square id = ""bottomsquare"" ></div>",null,practice2,word_square,,prac_response,1,Bottom,32,true,,,,,,,
html-keyboard-response,72,409296,172.60000002384186,"<div style=""font-size:42px;"">SCARY</div>",32,,word,SCARY,,,,,,,,,,,,
html-keyboard-response,73,410799,null,"",null,,word,SCARY,,,,,,,,,,,,
html-keyboard-response,74,411004,null,"<div style=""font-size:42px;"">PEACEFUL</div><img id = ""stim"" ><div class = green_square id = ""topsquare"" ></div>",null,practice2,word_square,,prac_response,1,Top,32,true,,,,,,,
html-keyboard-response,75,411310,215.60000002384186,"<div style=""font-size:42px;"">PEACEFUL</div>",32,,word,PEACEFUL,,,,,,,,,,,,
html-keyboard-response,76,412813,null,"",null,,word,PEACEFUL,,,,,,,,,,,,
html-keyboard-response,77,413017,null,"<div style=""font-size:42px;"">LITTLE</div><img id = ""stim"" ><div class = red_square id = ""bottomsquare"" ></div>",null,practice2,word_square,LITTLE,prac_response,0,Bottom,none,false,,,,,,,
html-keyboard-response,78,413319,137.30000001192093,"<div style=""font-size:42px;"">LITTLE</div>",32,,word,LITTLE,,,,,,,,,,,,
html-keyboard-response,79,414821,null,"",null,,word,LITTLE,,,,,,,,,,,,
html-keyboard-response,80,415025,null,"<div style=""font-size:42px;"">TIRED</div><img id = ""stim"" ><div class = red_square id = ""topsquare"" ></div>",null,practice2,word_square,,prac_response,0,Top,none,true,,,,,,,
html-keyboard-response,81,415327,null,"<div style=""font-size:42px;"">TIRED</div>",null,,word,TIRED,,,,,,,,,,,,
html-keyboard-response,82,416831,null,"",null,,word,TIRED,,,,,,,,,,,,
html-keyboard-response,83,417034,null,"<div style=""font-size:42px;"">ENTERTAINING</div><img id = ""stim"" ><div class = red_square id = ""bottomsquare"" ></div>",null,practice2,word_square,ENTERTAINING,prac_response,0,Bottom,none,true,,,,,,,
html-keyboard-response,84,417337,null,"<div style=""font-size:42px;"">ENTERTAINING</div>",null,,word,ENTERTAINING,,,,,,,,,,,,
html-keyboard-response,85,418841,null,"",null,,word,ENTERTAINING,,,,,,,,,,,,
html-keyboard-response,86,419044,null,"<div style=""font-size:42px;"">GRATEFUL</div><img id = ""stim"" ><div class = green_square id = ""bottomsquare"" ></div>",null,practice2,word_square,,prac_response,1,Bottom,32,true,,,,,,,
html-keyboard-response,87,419350,133.0999999642372,"<div style=""font-size:42px;"">GRATEFUL</div>",32,,word,GRATEFUL,,,,,,,,,,,,
html-keyboard-response,88,420853,null,"",null,,word,GRATEFUL,,,,,,,,,,,,
html-keyboard-response,89,421057,null,"<div style=""font-size:42px;"">LOUD</div><img id = ""stim"" ><div class = red_square id = ""topsquare"" ></div>",null,practice2,word_square,,prac_response,0,Top,none,true,,,,,,,
html-keyboard-response,90,421359,null,"<div style=""font-size:42px;"">LOUD</div>",null,,word,LOUD,,,,,,,,,,,,
html-keyboard-response,91,422861,null,"",null,,word,LOUD,,,,,,,,,,,,
html-keyboard-response,92,423067,null,"<div style=""font-size:42px;"">SMART</div><img id = ""stim"" ><div class = green_square id = ""topsquare"" ></div>",null,practice2,word_square,,prac_response,1,Top,32,true,,,,,,,
html-keyboard-response,93,423371,154.19999998807907,"<div style=""font-size:42px;"">SMART</div>",32,,word,SMART,,,,,,,,,,,,
html-keyboard-response,94,424874,null,"",null,,word,SMART,,,,,,,,,,,,
html-keyboard-response,95,425080,null,"<div style=""font-size:42px;"">SMOOTH</div><img id = ""stim"" ><div class = green_square id = ""bottomsquare"" ></div>",null,practice2,word_square,,prac_response,1,Bottom,32,true,,,,,,,
html-keyboard-response,96,425382,200.60000002384186,"<div style=""font-size:42px;"">SMOOTH</div>",32,,word,SMOOTH,,,,,,,,,,,,
html-keyboard-response,97,426884,null,"",null,,word,SMOOTH,,,,,,,,,,,,
html-keyboard-response,98,427088,null,"<div style=""font-size:42px;"">DISHONEST</div><img id = ""stim"" ><div class = red_square id = ""bottomsquare"" ></div>",null,practice2,word_square,DISHONEST,prac_response,0,Bottom,none,false,,,,,,,
html-keyboard-response,99,427390,176.5,"<div style=""font-size:42px;"">DISHONEST</div>",32,,word,DISHONEST,,,,,,,,,,,,
html-keyboard-response,100,428895,null,"",null,,word,DISHONEST,,,,,,,,,,,,
html-keyboard-response,101,429100,null,"<div style=""font-size:42px;"">WEALTHY</div><img id = ""stim"" ><div class = green_square id = ""topsquare"" ></div>",null,practice2,word_square,,prac_response,1,Top,32,true,,,,,,,
html-keyboard-response,102,429405,163.69999998807907,"<div style=""font-size:42px;"">WEALTHY</div>",32,,word,WEALTHY,,,,,,,,,,,,
html-keyboard-response,103,430907,null,"",null,,word,WEALTHY,,,,,,,,,,,,
html-keyboard-response,104,431111,null,"<div style=""font-size:42px;"">BEAUTIFUL</div><img id = ""stim"" ><div class = red_square id = ""topsquare"" ></div>",null,practice2,word_square,,prac_response,0,Top,none,false,,,,,,,
html-keyboard-response,105,431417,null,"<div style=""font-size:42px;"">BEAUTIFUL</div>",null,,word,BEAUTIFUL,,,,,,,,,,,,
html-keyboard-response,106,432919,null,"",null,,word,BEAUTIFUL,,,,,,,,,,,,
html-keyboard-response,107,441746,8825.300000011921,"<p> Good job! You responded correctly to 88% of the trials. </p>
                    <p>Be sure to only press the spacebar if you see a GREEN square, and please keep your accuracy above 80%.</p>
                    <p>Press any key to begin the math and recall sections. Thank you! </p>",32,,,,,,,,,,,,,,,
call-function,108,441747,,"",,,,,,,,,,,,,,,,
html-keyboard-response,109,441850,null,"",null,,,,,,,,,,,,,,,
math-period,110,446446,10517.5,"",,,,,,,,,,,5 ,,,,,
html-keyboard-response,111,446548,null,"",null,,,,,,,,,,,,,,,
math-period,112,448395,3560.8000000715256,"",,,,,,,,,,,4,,,,,
html-keyboard-response,113,448497,null,"",null,,,,,,,,,,,,,,,
math-period,114,449676,2222.8000000715256,"",,,,,,,,,,,3,,,,,
html-keyboard-response,115,449777,null,"",null,,,,,,,,,,,,,,,
math-period,116,450944,2244.699999988079,"",,,,,,,,,,,4,,,,,
html-keyboard-response,117,451048,null,"",null,,,,,,,,,,,,,,,
math-period,118,451967,1703,"",,,,,,,,,,,3,,,,,
html-keyboard-response,119,452069,null,"",null,,,,,,,,,,,,,,,
math-period,120,453122,2034.5,"",,,,,,,,,,,5,,,,,
html-keyboard-response,121,453224,null,"",null,,,,,,,,,,,,,,,
math-period,122,454215,1891.7999999523163,"",,,,,,,,,,,6,,,,,
html-keyboard-response,123,454320,null,"",null,,,,,,,,,,,,,,,
math-period,124,456004,3233.7999999523163,"",,,,,,,,,,,0,,,,,
html-keyboard-response,125,456108,null,"",null,,,,,,,,,,,,,,,
math-period,126,457104,1860.800000011921,"",,,,,,,,,,,4,,,,,
html-keyboard-response,127,457209,null,"",null,,,,,,,,,,,,,,,
math-period,128,458773,3011.0000000596046,"",,,,,,,,,,,1,,,,,
html-keyboard-response,129,458875,null,"",null,,,,,,,,,,,,,,,
math-period,130,459939,2053.599999964237,"",,,,,,,,,,,6,,,,,
html-keyboard-response,131,460044,null,"",null,,,,,,,,,,,,,,,
math-period,132,461821,3475.0000000596046,"",,,,,,,,,,,2,,,,,
html-keyboard-response,133,461925,null,"",null,,,,,,,,,,,,,,,
math-period,134,463127,2271.5,"",,,,,,,,,,,5,,,,,
html-keyboard-response,135,463231,null,"",null,,,,,,,,,,,,,,,
math-period,136,464613,2677.4999999403954,"",,,,,,,,,,,1,,,,,
html-keyboard-response,137,464717,null,"",null,,,,,,,,,,,,,,,
math-period,138,465752,null,"",,,,,,,,,,,,,,,,
html-keyboard-response,139,466756,null,"Recall Period!",null,,,,,,,,,,,,,,,
call-function,140,466757,,"",,,,,,,,,,,,,,,,
html-keyboard-response,141,466862,null,"",null,,,,,,,,,,,,,,,
recall-period,142,472211,24367,"",,,,,,,,,,,smooth,,,,,
html-keyboard-response,143,472316,null,"",null,,,,,,,,,,,,,,,
recall-period,144,474688,9743.400000154972,"",,,,,,,,,,,happy,,,,,
html-keyboard-response,145,474789,null,"",null,,,,,,,,,,,,,,,
recall-period,146,477911,20270.200000166893,"",,,,,,,,,,,beautiful,,,,,
html-keyboard-response,147,478016,null,"",null,,,,,,,,,,,,,,,
recall-period,148,479657,6904.599999845028,"",,,,,,,,,,,peachful,,,,,
html-keyboard-response,149,479759,null,"",null,,,,,,,,,,,,,,,
recall-period,150,482899,24073.60000038147,"",,,,,,,,,,,entertaining,,,,,
html-keyboard-response,151,483000,null,"",null,,,,,,,,,,,,,,,
recall-period,152,484420,6234.099999904633,"",,,,,,,,,,,little,,,,,
html-keyboard-response,153,484521,null,"",null,,,,,,,,,,,,,,,
recall-period,154,486164,6382.399999976158,"",,,,,,,,,,,cold,,,,,
html-keyboard-response,155,486265,null,"",null,,,,,,,,,,,,,,,
recall-period,156,491631,32245.30000001192,"",,,,,,,,,,,scary,,,,,
html-keyboard-response,157,491733,null,"",null,,,,,,,,,,,,,,,
recall-period,158,513781,236369.7999996543,"",,,,,,,,,,,happy,,,,,
html-keyboard-response,159,513885,null,"",null,,,,,,,,,,,,,,,
recall-period,160,517068,14452.800000071526,"",,,,,,,,,,,cold,,,,,
html-keyboard-response,161,517172,null,"",null,,,,,,,,,,,,,,,
recall-period,162,535212,86745.30000007153,"",,,,,,,,,,,warm,,,,,
html-keyboard-response,163,535314,null,"",null,,,,,,,,,,,,,,,
recall-period,164,537800,10503.299999892712,"",,,,,,,,,,,little,,,,,
html-keyboard-response,165,537903,null,"",null,,,,,,,,,,,,,,,
recall-period,166,541761,null,"",,,,,,,,,,,,,,,,
html-keyboard-response,167,542267,null,"Time's Up!",null,,,,,,,,,,,,,,,
html-keyboard-response,168,558577,16308.599999964237,"<p>We will now begin the experiment!<p><p>Please try to remember all words from each list.<p><p>Press the spacebar whenever you see a GREEN square.<p><p><p><p>Press the spacebar to begin.</p>",32,,,,,,,,,,,,,,,
html-keyboard-response,169,564992,5911.800000011921,"<div style=""font-size:48px;"">Press any key to begin list 1 of 16 </div>",49,,,,,,,,,,,,,,,
html-keyboard-response,170,567502,null,"<div style=""font-size:60px;"">+</div>",null,,,,,,,,,,,,,,,
html-keyboard-response,171,567706,null,"<div style=""font-size:42px;"">BELLY</div><img id = ""stim"" ><div class = green_square id = topsquare></div>",null,encoding,word_square,,,1,topsquare,32,true,,,BELLY,0,,,
html-keyboard-response,172,568012,249.80000001192093,"<div style=""font-size:42px;"">BELLY</div>",32,,word,BELLY,,,,,,,,,,,,
html-keyboard-response,173,569513,null,"",null,,word,BELLY,,,,,,,,,,,,
html-keyboard-response,174,569719,null,"<div style=""font-size:42px;"">SAUSAGE</div><img id = ""stim"" ><div class = red_square id = bottomsquare></div>",null,encoding,word_square,,,0,bottomsquare,none,true,,,SAUSAGE,0,,,
html-keyboard-response,175,570021,null,"<div style=""font-size:42px;"">SAUSAGE</div>",null,,word,SAUSAGE,,,,,,,,,,,,
html-keyboard-response,176,571523,null,"",null,,word,SAUSAGE,,,,,,,,,,,,
html-keyboard-response,177,571728,null,"<div style=""font-size:42px;"">MILDEW</div><img id = ""stim"" ><div class = red_square id = topsquare></div>",null,encoding,word_square,,,0,topsquare,none,true,,,MILDEW,0,,,
html-keyboard-response,178,572034,null,"<div style=""font-size:42px;"">MILDEW</div>",null,,word,MILDEW,,,,,,,,,,,,
html-keyboard-response,179,573536,null,"",null,,word,MILDEW,,,,,,,,,,,,
html-keyboard-response,180,573742,null,"<div style=""font-size:42px;"">SHRIMP</div><img id = ""stim"" ><div class = green_square id = bottomsquare></div>",null,encoding,word_square,,,1,bottomsquare,32,true,,,SHRIMP,0,,,
html-keyboard-response,181,574047,null,"<div style=""font-size:42px;"">SHRIMP</div>",null,,word,SHRIMP,,,,,,,,,,,,
html-keyboard-response,182,575549,130.20000004768372,"",32,,word,SHRIMP,,,,,,,,,,,,
html-keyboard-response,183,575754,null,"<div style=""font-size:42px;"">MASK</div><img id = ""stim"" ><div class = red_square id = bottomsquare></div>",null,encoding,word_square,,,0,bottomsquare,none,true,,,MASK,0,,,
html-keyboard-response,184,576058,null,"<div style=""font-size:42px;"">MASK</div>",null,,word,MASK,,,,,,,,,,,,
html-keyboard-response,185,577560,null,"",null,,word,MASK,,,,,,,,,,,,
html-keyboard-response,186,577765,null,"<div style=""font-size:42px;"">VAMPIRE</div><img id = ""stim"" ><div class = green_square id = topsquare></div>",null,encoding,word_square,,,1,topsquare,32,true,,,VAMPIRE,0,,,
html-keyboard-response,187,578070,249,"<div style=""font-size:42px;"">VAMPIRE</div>",32,,word,VAMPIRE,,,,,,,,,,,,
html-keyboard-response,188,579571,null,"",null,,word,VAMPIRE,,,,,,,,,,,,
html-keyboard-response,189,579776,null,"<div style=""font-size:42px;"">GRAVE</div><img id = ""stim"" ><div class = red_square id = topsquare></div>",null,encoding,word_square,,,0,topsquare,none,true,,,GRAVE,0,,,
html-keyboard-response,190,580081,null,"<div style=""font-size:42px;"">GRAVE</div>",null,,word,GRAVE,,,,,,,,,,,,
html-keyboard-response,191,581583,null,"",null,,word,GRAVE,,,,,,,,,,,,
html-keyboard-response,192,581785,null,"<div style=""font-size:42px;"">VALLEY</div><img id = ""stim"" ><div class = red_square id = bottomsquare></div>",null,encoding,word_square,,,0,bottomsquare,none,false,,,VALLEY,0,,,
html-keyboard-response,193,582090,null,"<div style=""font-size:42px;"">VALLEY</div>",null,,word,VALLEY,,,,,,,,,,,,
html-keyboard-response,194,583592,30,"",32,,word,VALLEY,,,,,,,,,,,,
html-keyboard-response,195,583797,null,"<div style=""font-size:42px;"">CARRIAGE</div><img id = ""stim"" ><div class = green_square id = bottomsquare></div>",null,encoding,word_square,,,1,bottomsquare,32,true,,,CARRIAGE,0,,,
html-keyboard-response,196,584099,225.89999997615814,"<div style=""font-size:42px;"">CARRIAGE</div>",32,,word,CARRIAGE,,,,,,,,,,,,
html-keyboard-response,197,585602,null,"",null,,word,CARRIAGE,,,,,,,,,,,,
html-keyboard-response,198,585808,null,"<div style=""font-size:42px;"">CRIB</div><img id = ""stim"" ><div class = red_square id = topsquare></div>",null,encoding,word_square,,,0,topsquare,none,true,,,CRIB,0,,,
html-keyboard-response,199,586113,null,"<div style=""font-size:42px;"">CRIB</div>",null,,word,CRIB,,,,,,,,,,,,
html-keyboard-response,200,587615,null,"",null,,word,CRIB,,,,,,,,,,,,
html-keyboard-response,201,587821,null,"<div style=""font-size:42px;"">SLOPE</div><img id = ""stim"" ><div class = green_square id = topsquare></div>",null,encoding,word_square,,,1,topsquare,32,true,,,SLOPE,0,,,
html-keyboard-response,202,588127,200.4000000357628,"<div style=""font-size:42px;"">SLOPE</div>",32,,word,SLOPE,,,,,,,,,,,,
html-keyboard-response,203,589629,null,"",null,,word,SLOPE,,,,,,,,,,,,
html-keyboard-response,204,589835,null,"<div style=""font-size:42px;"">FRECKLE</div><img id = ""stim"" ><div class = red_square id = bottomsquare></div>",null,encoding,word_square,,,0,bottomsquare,none,true,,,FRECKLE,0,,,
html-keyboard-response,205,590142,null,"<div style=""font-size:42px;"">FRECKLE</div>",null,,word,FRECKLE,,,,,,,,,,,,
html-keyboard-response,206,591644,null,"",null,,word,FRECKLE,,,,,,,,,,,,
html-keyboard-response,207,591850,null,"<div style=""font-size:42px;"">PERFUME</div><img id = ""stim"" ><div class = red_square id = topsquare></div>",null,encoding,word_square,,,0,topsquare,none,true,,,PERFUME,0,,,
html-keyboard-response,208,592156,null,"<div style=""font-size:42px;"">PERFUME</div>",null,,word,PERFUME,,,,,,,,,,,,
html-keyboard-response,209,593658,null,"",null,,word,PERFUME,,,,,,,,,,,,
html-keyboard-response,210,593863,null,"<div style=""font-size:42px;"">CRACKER</div><img id = ""stim"" ><div class = green_square id = bottomsquare></div>",null,encoding,word_square,,,1,bottomsquare,32,true,,,CRACKER,0,,,
html-keyboard-response,211,594168,266.69999998807907,"<div style=""font-size:42px;"">CRACKER</div>",32,,word,CRACKER,,,,,,,,,,,,
html-keyboard-response,212,595670,null,"",null,,word,CRACKER,,,,,,,,,,,,
html-keyboard-response,213,595873,null,"<div style=""font-size:42px;"">COWBOY</div><img id = ""stim"" ><div class = green_square id = topsquare></div>",null,encoding,word_square,,,1,topsquare,32,true,,,COWBOY,0,,,
html-keyboard-response,214,596176,287.5,"<div style=""font-size:42px;"">COWBOY</div>",32,,word,COWBOY,,,,,,,,,,,,
html-keyboard-response,215,597678,null,"",null,,word,COWBOY,,,,,,,,,,,,
html-keyboard-response,216,597881,null,"<div style=""font-size:42px;"">PIMPLE</div><img id = ""stim"" ><div class = green_square id = bottomsquare></div>",null,encoding,word_square,,,1,bottomsquare,32,true,,,PIMPLE,0,,,
html-keyboard-response,217,598183,null,"<div style=""font-size:42px;"">PIMPLE</div>",null,,word,PIMPLE,,,,,,,,,,,,
html-keyboard-response,218,599687,5.600000023841858,"",32,,word,PIMPLE,,,,,,,,,,,,
call-function,219,599687,,"",,,,,,,,,,,,,,,,
html-keyboard-response,220,599789,null,"",null,,,,,,,,,,,,,,,
math-period,221,602754,4765.699999988079,"",,,,,,,,,,,1,,,,,
html-keyboard-response,222,602859,null,"",null,,,,,,,,,,,,,,,
math-period,223,604132,2435.600000023842,"",,,,,,,,,,,2,,,,,
html-keyboard-response,224,604235,null,"",null,,,,,,,,,,,,,,,
math-period,225,605226,1935.5,"",,,,,,,,,,,5,,,,,
html-keyboard-response,226,605329,null,"",null,,,,,,,,,,,,,,,
math-period,227,606815,2900.399999976158,"",,,,,,,,,,,1,,,,,
html-keyboard-response,228,606916,null,"",null,,,,,,,,,,,,,,,
math-period,229,607784,1645.0999999642372,"",,,,,,,,,,,3,,,,,
html-keyboard-response,230,607888,null,"",null,,,,,,,,,,,,,,,
math-period,231,608930,2014.5000000596046,"",,,,,,,,,,,2,,,,,
html-keyboard-response,232,609034,null,"",null,,,,,,,,,,,,,,,
math-period,233,610223,2294.900000035763,"",,,,,,,,,,,2,,,,,
html-keyboard-response,234,610326,null,"",null,,,,,,,,,,,,,,,
math-period,235,611168,1620.5999999642372,"",,,,,,,,,,,3,,,,,
html-keyboard-response,236,611272,null,"",null,,,,,,,,,,,,,,,
math-period,237,613039,3436.5,"",,,,,,,,,,,0,,,,,
html-keyboard-response,238,613143,null,"",null,,,,,,,,,,,,,,,
math-period,239,614245,2124.600000023842,"",,,,,,,,,,,6,,,,,
html-keyboard-response,240,614348,null,"",null,,,,,,,,,,,,,,,
math-period,241,615546,2321.9999999403954,"",,,,,,,,,,,2,,,,,
html-keyboard-response,242,615648,null,"",null,,,,,,,,,,,,,,,
math-period,243,616803,2247.2000000476837,"",,,,,,,,,,,2,,,,,
html-keyboard-response,244,616907,null,"",null,,,,,,,,,,,,,,,
math-period,245,618252,2608.2000000476837,"",,,,,,,,,,,2,,,,,
html-keyboard-response,246,618354,null,"",null,,,,,,,,,,,,,,,
math-period,247,619379,1984.5,"",,,,,,,,,,,2,,,,,
html-keyboard-response,248,619482,null,"",null,,,,,,,,,,,,,,,
math-period,249,620394,1754.699999988079,"",,,,,,,,,,,2,,,,,
html-keyboard-response,250,620496,null,"",null,,,,,,,,,,,,,,,
math-period,251,621294,1481.0999999642372,"",,,,,,,,,,,2,,,,,
html-keyboard-response,252,621396,null,"",null,,,,,,,,,,,,,,,
math-period,253,622815,2759.600000023842,"",,,,,,,,,,,1,,,,,
html-keyboard-response,254,622917,null,"",null,,,,,,,,,,,,,,,
math-period,255,623690,null,"",,,,,,,,,,,,,,,,
html-keyboard-response,256,624693,null,"Recall Period!",null,,,,,,,,,,,,,,,
call-function,257,624694,,"",,,,,,,,,,,,,,,,
html-keyboard-response,258,624797,null,"",null,,,,,,,,,,,,,,,
recall-period,259,630525,33954.7999997735,"",,,,,,,,,,,cowboy,,,,,
html-keyboard-response,260,630628,null,"",null,,,,,,,,,,,,,,,
recall-period,261,632625,10112.099999904633,"",,,,,,,,,,,cracker,,,,,
html-keyboard-response,262,632728,null,"",null,,,,,,,,,,,,,,,
recall-period,263,634215,5455.39999973774,"",,,,,,,,,,,pimple,,,,,
html-keyboard-response,264,634320,null,"",null,,,,,,,,,,,,,,,
recall-period,265,642212,70292.90000021458,"",,,,,,,,,,,sausage,,,,,
html-keyboard-response,266,642315,null,"",null,,,,,,,,,,,,,,,
recall-period,267,647231,25301.299999833107,"",,,,,,,,,,,belly,,,,,
html-keyboard-response,268,647333,null,"",null,,,,,,,,,,,,,,,
recall-period,269,652704,31924.19999998808,"",,,,,,,,,,,mildew,,,,,
html-keyboard-response,270,652806,null,"",null,,,,,,,,,,,,,,,
recall-period,271,658184,31290.699999928474,"",,,,,,,,,,,shrimp,,,,,
html-keyboard-response,272,658286,null,"",null,,,,,,,,,,,,,,,
recall-period,273,661554,13091.99999988079,"",,,,,,,,,,,mask,,,,,
html-keyboard-response,274,661657,null,"",null,,,,,,,,,,,,,,,
recall-period,275,667687,37248.90000003576,"",,,,,,,,,,,vampire,,,,,
html-keyboard-response,276,667788,null,"",null,,,,,,,,,,,,,,,
recall-period,277,671866,20043,"",,,,,,,,,,,grave,,,,,
html-keyboard-response,278,671968,null,"",null,,,,,,,,,,,,,,,
recall-period,279,678538,38693.99999976158,"",,,,,,,,,,,carriage,,,,,
html-keyboard-response,280,678641,null,"",null,,,,,,,,,,,,,,,
recall-period,281,683893,25995.100000083447,"",,,,,,,,,,,slope,,,,,
html-keyboard-response,282,683994,null,"",null,,,,,,,,,,,,,,,
recall-period,283,687766,18681.099999845028,"",,,,,,,,,,,freckle,,,,,
html-keyboard-response,284,687868,null,"",null,,,,,,,,,,,,,,,
recall-period,285,691276,22661.700000047684,"",,,,,,,,,,,perfume,,,,,
html-keyboard-response,286,691378,null,"",null,,,,,,,,,,,,,,,
recall-period,287,699700,null,"",,,,,,,,,,,,,,,,
html-keyboard-response,288,700206,null,"Time's Up!",null,,,,,,,,,,,,,,,
html-keyboard-response,289,704075,3867.599999964237,"<p> Good job! You have responded correctly to 94% of the trials. </p>
                      <p>Be sure to only press the spacebar if you see a GREEN square, and please keep your accuracy above 80%.</p>
                      <p> Press any key to continue the experiment. </p>",32,,,,,,,,,,,,,,,
html-keyboard-response,290,709928,5851.900000035763,"<div style=""font-size:48px;"">Press any key to begin list 2 of 16 </div>",32,,,,,,,,,,,,,,,
html-keyboard-response,291,712433,null,"<div style=""font-size:60px;"">+</div>",null,,,,,,,,,,,,,,,
html-keyboard-response,292,712640,null,"<div style=""font-size:42px;"">DOORBELL</div><img id = ""stim"" ><div class = green_square id = bottomsquare></div>",null,encoding,word_square,,,1,bottomsquare,32,true,,,DOORBELL,1,,,
html-keyboard-response,293,712942,297.80000001192093,"<div style=""font-size:42px;"">DOORBELL</div>",32,,word,DOORBELL,,,,,,,,,,,,
html-keyboard-response,294,714445,null,"",null,,word,DOORBELL,,,,,,,,,,,,
html-keyboard-response,295,714650,null,"<div style=""font-size:42px;"">ULCER</div><img id = ""stim"" ><div class = green_square id = topsquare></div>",null,encoding,word_square,,,1,topsquare,32,true,,,ULCER,1,,,
html-keyboard-response,296,714955,139.60000002384186,"<div style=""font-size:42px;"">ULCER</div>",32,,word,ULCER,,,,,,,,,,,,
html-keyboard-response,297,716457,null,"",null,,word,ULCER,,,,,,,,,,,,
html-keyboard-response,298,716664,null,"<div style=""font-size:42px;"">STOMACH</div><img id = ""stim"" ><div class = green_square id = bottomsquare></div>",null,encoding,word_square,,,1,bottomsquare,32,true,,,STOMACH,1,,,
html-keyboard-response,299,716966,280.4000000357628,"<div style=""font-size:42px;"">STOMACH</div>",32,,word,STOMACH,,,,,,,,,,,,
html-keyboard-response,300,718468,null,"",null,,word,STOMACH,,,,,,,,,,,,
html-keyboard-response,301,718674,null,"<div style=""font-size:42px;"">RESORT</div><img id = ""stim"" ><div class = red_square id = topsquare></div>",null,encoding,word_square,,,0,topsquare,none,true,,,RESORT,1,,,
html-keyboard-response,302,718979,null,"<div style=""font-size:42px;"">RESORT</div>",null,,word,RESORT,,,,,,,,,,,,
html-keyboard-response,303,720481,null,"",null,,word,RESORT,,,,,,,,,,,,
html-keyboard-response,304,720686,null,"<div style=""font-size:42px;"">KEEPER</div><img id = ""stim"" ><div class = red_square id = bottomsquare></div>",null,encoding,word_square,,,0,bottomsquare,none,true,,,KEEPER,1,,,
html-keyboard-response,305,720988,null,"<div style=""font-size:42px;"">KEEPER</div>",null,,word,KEEPER,,,,,,,,,,,,
html-keyboard-response,306,722492,null,"",null,,word,KEEPER,,,,,,,,,,,,
html-keyboard-response,307,722695,null,"<div style=""font-size:42px;"">ACTOR</div><img id = ""stim"" ><div class = green_square id = topsquare></div>",null,encoding,word_square,,,1,topsquare,32,true,,,ACTOR,1,,,
html-keyboard-response,308,723000,null,"<div style=""font-size:42px;"">ACTOR</div>",null,,word,ACTOR,,,,,,,,,,,,
html-keyboard-response,309,724502,155.30000001192093,"",32,,word,ACTOR,,,,,,,,,,,,
html-keyboard-response,310,724708,null,"<div style=""font-size:42px;"">GYMNAST</div><img id = ""stim"" ><div class = red_square id = topsquare></div>",null,encoding,word_square,,,0,topsquare,none,true,,,GYMNAST,1,,,
html-keyboard-response,311,725011,null,"<div style=""font-size:42px;"">GYMNAST</div>",null,,word,GYMNAST,,,,,,,,,,,,
html-keyboard-response,312,726515,null,"",null,,word,GYMNAST,,,,,,,,,,,,
html-keyboard-response,313,726718,null,"<div style=""font-size:42px;"">BUILDER</div><img id = ""stim"" ><div class = green_square id = bottomsquare></div>",null,encoding,word_square,,,1,bottomsquare,32,true,,,BUILDER,1,,,
html-keyboard-response,314,727020,null,"<div style=""font-size:42px;"">BUILDER</div>",null,,word,BUILDER,,,,,,,,,,,,
html-keyboard-response,315,728523,79.19999998807907,"",32,,word,BUILDER,,,,,,,,,,,,
html-keyboard-response,316,728729,null,"<div style=""font-size:42px;"">POPCORN</div><img id = ""stim"" ><div class = red_square id = bottomsquare></div>",null,encoding,word_square,,,0,bottomsquare,none,false,,,POPCORN,1,,,
html-keyboard-response,317,729034,null,"<div style=""font-size:42px;"">POPCORN</div>",null,,word,POPCORN,,,,,,,,,,,,
html-keyboard-response,318,730536,347.69999998807907,"",32,,word,POPCORN,,,,,,,,,,,,
html-keyboard-response,319,730741,null,"<div style=""font-size:42px;"">SEAFOOD</div><img id = ""stim"" ><div class = red_square id = topsquare></div>",null,encoding,word_square,,,0,topsquare,none,true,,,SEAFOOD,1,,,
html-keyboard-response,320,731045,null,"<div style=""font-size:42px;"">SEAFOOD</div>",null,,word,SEAFOOD,,,,,,,,,,,,
html-keyboard-response,321,732547,null,"",null,,word,SEAFOOD,,,,,,,,,,,,
html-keyboard-response,322,732750,null,"<div style=""font-size:42px;"">CANVAS</div><img id = ""stim"" ><div class = green_square id = topsquare></div>",null,encoding,word_square,,,1,topsquare,32,true,,,CANVAS,1,,,
html-keyboard-response,323,733052,184.80000001192093,"<div style=""font-size:42px;"">CANVAS</div>",32,,word,CANVAS,,,,,,,,,,,,
html-keyboard-response,324,734557,null,"",null,,word,CANVAS,,,,,,,,,,,,
html-keyboard-response,325,734764,null,"<div style=""font-size:42px;"">TUTU</div><img id = ""stim"" ><div class = red_square id = bottomsquare></div>",null,encoding,word_square,,,0,bottomsquare,none,true,,,TUTU,1,,,
html-keyboard-response,326,735069,null,"<div style=""font-size:42px;"">TUTU</div>",null,,word,TUTU,,,,,,,,,,,,
html-keyboard-response,327,736570,null,"",null,,word,TUTU,,,,,,,,,,,,
html-keyboard-response,328,736776,null,"<div style=""font-size:42px;"">DRESS</div><img id = ""stim"" ><div class = green_square id = bottomsquare></div>",null,encoding,word_square,,,1,bottomsquare,32,true,,,DRESS,1,,,
html-keyboard-response,329,737082,null,"<div style=""font-size:42px;"">DRESS</div>",null,,word,DRESS,,,,,,,,,,,,
html-keyboard-response,330,738584,69.20000004768372,"",32,,word,DRESS,,,,,,,,,,,,
html-keyboard-response,331,738787,null,"<div style=""font-size:42px;"">BISCUIT</div><img id = ""stim"" ><div class = red_square id = topsquare></div>",null,encoding,word_square,,,0,topsquare,none,true,,,BISCUIT,1,,,
html-keyboard-response,332,739089,null,"<div style=""font-size:42px;"">BISCUIT</div>",null,,word,BISCUIT,,,,,,,,,,,,
html-keyboard-response,333,740591,null,"",null,,word,BISCUIT,,,,,,,,,,,,
html-keyboard-response,334,740795,null,"<div style=""font-size:42px;"">CRAB</div><img id = ""stim"" ><div class = red_square id = bottomsquare></div>",null,encoding,word_square,,,0,bottomsquare,none,true,,,CRAB,1,,,
html-keyboard-response,335,741100,null,"<div style=""font-size:42px;"">CRAB</div>",null,,word,CRAB,,,,,,,,,,,,
html-keyboard-response,336,742603,null,"",null,,word,CRAB,,,,,,,,,,,,
html-keyboard-response,337,742810,null,"<div style=""font-size:42px;"">PAPER</div><img id = ""stim"" ><div class = green_square id = topsquare></div>",null,encoding,word_square,,,1,topsquare,32,true,,,PAPER,1,,,
html-keyboard-response,338,743113,null,"<div style=""font-size:42px;"">PAPER</div>",null,,word,PAPER,,,,,,,,,,,,
html-keyboard-response,339,744616,482.19999998807907,"",32,,word,PAPER,,,,,,,,,,,,
call-function,340,744616,,"",,,,,,,,,,,,,,,,
html-keyboard-response,341,744719,null,"",null,,,,,,,,,,,,,,,
math-period,342,746942,3515.9999999403954,"",,,,,,,,,,,5,,,,,
html-keyboard-response,343,747045,null,"",null,,,,,,,,,,,,,,,
math-period,344,748651,2680.900000035763,"",,,,,,,,,,,1,,,,,
html-keyboard-response,345,748753,null,"",null,,,,,,,,,,,,,,,
math-period,346,750467,3254.699999988079,"",,,,,,,,,,,0,,,,,
html-keyboard-response,347,750571,null,"",null,,,,,,,,,,,,,,,
math-period,348,751565,1916.699999988079,"",,,,,,,,,,,4,,,,,
html-keyboard-response,349,751670,null,"",null,,,,,,,,,,,,,,,
math-period,350,753785,4125.600000023842,"",,,,,,,,,,,5,,,,,
html-keyboard-response,351,753887,null,"",null,,,,,,,,,,,,,,,
math-period,352,754847,1821.2999999523163,"",,,,,,,,,,,1,,,,,
html-keyboard-response,353,754952,null,"",null,,,,,,,,,,,,,,,
math-period,354,756365,2722.599999964237,"",,,,,,,,,,,3,,,,,
html-keyboard-response,355,756469,null,"",null,,,,,,,,,,,,,,,
math-period,356,757468,1934.800000011921,"",,,,,,,,,,,2,,,,,
html-keyboard-response,357,757572,null,"",null,,,,,,,,,,,,,,,
math-period,358,758689,2201.600000023842,"",,,,,,,,,,,5,,,,,
html-keyboard-response,359,758791,null,"",null,,,,,,,,,,,,,,,
math-period,360,759673,1711.3999999165535,"",,,,,,,,,,,3,,,,,
html-keyboard-response,361,759779,null,"",null,,,,,,,,,,,,,,,
math-period,362,760696,1793.0999999642372,"",,,,,,,,,,,2,,,,,
html-keyboard-response,363,760799,null,"",null,,,,,,,,,,,,,,,
math-period,364,761878,2094.699999988079,"",,,,,,,,,,,6,,,,,
html-keyboard-response,365,761981,null,"",null,,,,,,,,,,,,,,,
math-period,366,762854,1706.300000011921,"",,,,,,,,,,,3,,,,,
html-keyboard-response,367,762959,null,"",null,,,,,,,,,,,,,,,
math-period,368,763921,1865.7000000476837,"",,,,,,,,,,,2,,,,,
html-keyboard-response,369,764027,null,"",null,,,,,,,,,,,,,,,
math-period,370,765115,2120.300000011921,"",,,,,,,,,,,6,,,,,
html-keyboard-response,371,765220,null,"",null,,,,,,,,,,,,,,,
math-period,372,766286,2039,"",,,,,,,,,,,4,,,,,
html-keyboard-response,373,766388,null,"",null,,,,,,,,,,,,,,,
math-period,374,767328,1803.3999999761581,"",,,,,,,,,,,1,,,,,
html-keyboard-response,375,767431,null,"",null,,,,,,,,,,,,,,,
math-period,376,768432,1936.7000000476837,"",,,,,,,,,,,2,,,,,
html-keyboard-response,377,768538,null,"",null,,,,,,,,,,,,,,,
math-period,378,768622,null,"",,,,,,,,,,,,,,,,
html-keyboard-response,379,769624,null,"Recall Period!",null,,,,,,,,,,,,,,,
call-function,380,769625,,"",,,,,,,,,,,,,,,,
html-keyboard-response,381,769730,null,"",null,,,,,,,,,,,,,,,
recall-period,382,776742,58008.99999988079,"",,,,,,,,,,,doorbell,,,,,
html-keyboard-response,383,776844,null,"",null,,,,,,,,,,,,,,,
recall-period,384,778211,5693.800000011921,"",,,,,,,,,,,ulcer,,,,,
html-keyboard-response,385,778313,null,"",null,,,,,,,,,,,,,,,
recall-period,386,780993,15585.100000023842,"",,,,,,,,,,,stomach,,,,,
html-keyboard-response,387,781096,null,"",null,,,,,,,,,,,,,,,
recall-period,388,783695,17071.50000023842,"",,,,,,,,,,,resort,,,,,
html-keyboard-response,389,783797,null,"",null,,,,,,,,,,,,,,,
recall-period,390,785199,5909.600000023842,"",,,,,,,,,,,keeper,,,,,
html-keyboard-response,391,785303,null,"",null,,,,,,,,,,,,,,,
recall-period,392,786576,4533.200000107288,"",,,,,,,,,,,actor,,,,,
html-keyboard-response,393,786680,null,"",null,,,,,,,,,,,,,,,
recall-period,394,788664,11552.299999952316,"",,,,,,,,,,,gymnast,,,,,
html-keyboard-response,395,788768,null,"",null,,,,,,,,,,,,,,,
recall-period,396,790702,11081.199999809265,"",,,,,,,,,,,builder,,,,,
html-keyboard-response,397,790803,null,"",null,,,,,,,,,,,,,,,
recall-period,398,794226,17432.99999988079,"",,,,,,,,,,,ppocorn,,,,,
html-keyboard-response,399,794327,null,"",null,,,,,,,,,,,,,,,
recall-period,400,796263,10147.100000143051,"",,,,,,,,,,,seafood,,,,,
html-keyboard-response,401,796367,null,"",null,,,,,,,,,,,,,,,
recall-period,402,797874,6985.799999892712,"",,,,,,,,,,,canvas,,,,,
html-keyboard-response,403,797976,null,"",null,,,,,,,,,,,,,,,
recall-period,404,798975,3012.0999999046326,"",,,,,,,,,,,tutu,,,,,
html-keyboard-response,405,799078,null,"",null,,,,,,,,,,,,,,,
recall-period,406,800867,6274.100000143051,"",,,,,,,,,,,dress,,,,,
html-keyboard-response,407,800972,null,"",null,,,,,,,,,,,,,,,
recall-period,408,802690,9412.399999916553,"",,,,,,,,,,,biscuit,,,,,
html-keyboard-response,409,802792,null,"",null,,,,,,,,,,,,,,,
recall-period,410,804606,6768.399999976158,"",,,,,,,,,,,crab,,,,,
html-keyboard-response,411,804707,null,"",null,,,,,,,,,,,,,,,
recall-period,412,806105,6487.000000059605,"",,,,,,,,,,,paper,,,,,
html-keyboard-response,413,806207,null,"",null,,,,,,,,,,,,,,,
recall-period,414,812718,72309.00000011921,"",,,,,,,,,,,popcorn,,,,,
html-keyboard-response,415,812820,null,"",null,,,,,,,,,,,,,,,
recall-period,416,844631,null,"",,,,,,,,,,,,,,,,
html-keyboard-response,417,845135,null,"Time's Up!",null,,,,,,,,,,,,,,,
html-keyboard-response,418,851461,6324.099999964237,"<p> Good job! You have responded correctly to 94% of the trials. </p>
                      <p>Be sure to only press the spacebar if you see a GREEN square, and please keep your accuracy above 80%.</p>
                      <p> Press any key to continue the experiment. </p>",32,,,,,,,,,,,,,,,
html-keyboard-response,419,855919,4456.599999964237,"<div style=""font-size:48px;"">Press any key to begin list 3 of 16 </div>",32,,,,,,,,,,,,,,,
html-keyboard-response,420,858424,null,"<div style=""font-size:60px;"">+</div>",null,,,,,,,,,,,,,,,
html-keyboard-response,421,858630,null,"<div style=""font-size:42px;"">FREEWAY</div><img id = ""stim"" ><div class = red_square id = bottomsquare></div>",null,encoding,word_square,,,0,bottomsquare,none,true,,,FREEWAY,2,,,
html-keyboard-response,422,858934,null,"<div style=""font-size:42px;"">FREEWAY</div>",null,,word,FREEWAY,,,,,,,,,,,,
html-keyboard-response,423,860438,null,"",null,,word,FREEWAY,,,,,,,,,,,,
html-keyboard-response,424,860644,null,"<div style=""font-size:42px;"">CATCHER</div><img id = ""stim"" ><div class = green_square id = topsquare></div>",null,encoding,word_square,,,1,topsquare,32,true,,,CATCHER,2,,,
html-keyboard-response,425,860946,193.5,"<div style=""font-size:42px;"">CATCHER</div>",32,,word,CATCHER,,,,,,,,,,,,
html-keyboard-response,426,862448,null,"",null,,word,CATCHER,,,,,,,,,,,,
html-keyboard-response,427,862652,null,"<div style=""font-size:42px;"">EUROPE</div><img id = ""stim"" ><div class = green_square id = bottomsquare></div>",null,encoding,word_square,,,1,bottomsquare,32,true,,,EUROPE,2,,,
html-keyboard-response,428,862957,null,"<div style=""font-size:42px;"">EUROPE</div>",null,,word,EUROPE,,,,,,,,,,,,
html-keyboard-response,429,864459,182.5,"",32,,word,EUROPE,,,,,,,,,,,,
html-keyboard-response,430,864665,null,"<div style=""font-size:42px;"">JAPAN</div><img id = ""stim"" ><div class = red_square id = topsquare></div>",null,encoding,word_square,,,0,topsquare,none,true,,,JAPAN,2,,,
html-keyboard-response,431,864972,null,"<div style=""font-size:42px;"">JAPAN</div>",null,,word,JAPAN,,,,,,,,,,,,
html-keyboard-response,432,866475,null,"",null,,word,JAPAN,,,,,,,,,,,,
html-keyboard-response,433,866678,null,"<div style=""font-size:42px;"">TWEEZERS</div><img id = ""stim"" ><div class = green_square id = topsquare></div>",null,encoding,word_square,,,1,topsquare,32,true,,,TWEEZERS,2,,,
html-keyboard-response,434,866984,null,"<div style=""font-size:42px;"">TWEEZERS</div>",null,,word,TWEEZERS,,,,,,,,,,,,
html-keyboard-response,435,868485,61.200000047683716,"",32,,word,TWEEZERS,,,,,,,,,,,,
html-keyboard-response,436,868692,null,"<div style=""font-size:42px;"">POND</div><img id = ""stim"" ><div class = red_square id = bottomsquare></div>",null,encoding,word_square,,,0,bottomsquare,none,true,,,POND,2,,,
html-keyboard-response,437,868995,null,"<div style=""font-size:42px;"">POND</div>",null,,word,POND,,,,,,,,,,,,
html-keyboard-response,438,870496,null,"",null,,word,POND,,,,,,,,,,,,
html-keyboard-response,439,870702,null,"<div style=""font-size:42px;"">TORCH</div><img id = ""stim"" ><div class = green_square id = bottomsquare></div>",null,encoding,word_square,,,1,bottomsquare,32,true,,,TORCH,2,,,
html-keyboard-response,440,871004,null,"<div style=""font-size:42px;"">TORCH</div>",null,,word,TORCH,,,,,,,,,,,,
html-keyboard-response,441,872507,84.30000001192093,"",32,,word,TORCH,,,,,,,,,,,,
html-keyboard-response,442,872710,null,"<div style=""font-size:42px;"">SKETCH</div><img id = ""stim"" ><div class = green_square id = topsquare></div>",null,encoding,word_square,,,1,topsquare,32,true,,,SKETCH,2,,,
html-keyboard-response,443,873012,252.5,"<div style=""font-size:42px;"">SKETCH</div>",32,,word,SKETCH,,,,,,,,,,,,
html-keyboard-response,444,874515,null,"",null,,word,SKETCH,,,,,,,,,,,,
html-keyboard-response,445,874718,null,"<div style=""font-size:42px;"">CHISEL</div><img id = ""stim"" ><div class = red_square id = topsquare></div>",null,encoding,word_square,,,0,topsquare,none,true,,,CHISEL,2,,,
html-keyboard-response,446,875020,null,"<div style=""font-size:42px;"">CHISEL</div>",null,,word,CHISEL,,,,,,,,,,,,
html-keyboard-response,447,876525,null,"",null,,word,CHISEL,,,,,,,,,,,,
html-keyboard-response,448,876727,null,"<div style=""font-size:42px;"">FRUIT</div><img id = ""stim"" ><div class = green_square id = bottomsquare></div>",null,encoding,word_square,,,1,bottomsquare,32,true,,,FRUIT,2,,,
html-keyboard-response,449,877033,233.89999997615814,"<div style=""font-size:42px;"">FRUIT</div>",32,,word,FRUIT,,,,,,,,,,,,
html-keyboard-response,450,878535,null,"",null,,word,FRUIT,,,,,,,,,,,,
html-keyboard-response,451,878741,null,"<div style=""font-size:42px;"">TART</div><img id = ""stim"" ><div class = red_square id = bottomsquare></div>",null,encoding,word_square,,,0,bottomsquare,none,true,,,TART,2,,,
html-keyboard-response,452,879047,null,"<div style=""font-size:42px;"">TART</div>",null,,word,TART,,,,,,,,,,,,
html-keyboard-response,453,880549,null,"",null,,word,TART,,,,,,,,,,,,
html-keyboard-response,454,880755,null,"<div style=""font-size:42px;"">TRACTOR</div><img id = ""stim"" ><div class = green_square id = topsquare></div>",null,encoding,word_square,,,1,topsquare,32,true,,,TRACTOR,2,,,
html-keyboard-response,455,881057,184.89999997615814,"<div style=""font-size:42px;"">TRACTOR</div>",32,,word,TRACTOR,,,,,,,,,,,,
html-keyboard-response,456,882560,null,"",null,,word,TRACTOR,,,,,,,,,,,,
html-keyboard-response,457,882766,null,"<div style=""font-size:42px;"">LONDON</div><img id = ""stim"" ><div class = green_square id = bottomsquare></div>",null,encoding,word_square,,,1,bottomsquare,32,true,,,LONDON,2,,,
html-keyboard-response,458,883071,225.89999997615814,"<div style=""font-size:42px;"">LONDON</div>",32,,word,LONDON,,,,,,,,,,,,
html-keyboard-response,459,884573,null,"",null,,word,LONDON,,,,,,,,,,,,
html-keyboard-response,460,884778,null,"<div style=""font-size:42px;"">RULER</div><img id = ""stim"" ><div class = red_square id = topsquare></div>",null,encoding,word_square,,,0,topsquare,none,true,,,RULER,2,,,
html-keyboard-response,461,885080,null,"<div style=""font-size:42px;"">RULER</div>",null,,word,RULER,,,,,,,,,,,,
html-keyboard-response,462,886584,null,"",null,,word,RULER,,,,,,,,,,,,
html-keyboard-response,463,886787,null,"<div style=""font-size:42px;"">CARROT</div><img id = ""stim"" ><div class = red_square id = bottomsquare></div>",null,encoding,word_square,,,0,bottomsquare,none,true,,,CARROT,2,,,
html-keyboard-response,464,887092,null,"<div style=""font-size:42px;"">CARROT</div>",null,,word,CARROT,,,,,,,,,,,,
html-keyboard-response,465,888594,null,"",null,,word,CARROT,,,,,,,,,,,,
html-keyboard-response,466,888796,null,"<div style=""font-size:42px;"">RABBIT</div><img id = ""stim"" ><div class = red_square id = topsquare></div>",null,encoding,word_square,,,0,topsquare,none,true,,,RABBIT,2,,,
html-keyboard-response,467,889098,null,"<div style=""font-size:42px;"">RABBIT</div>",null,,word,RABBIT,,,,,,,,,,,,
html-keyboard-response,468,890601,null,"",null,,word,RABBIT,,,,,,,,,,,,
call-function,469,890602,,"",,,,,,,,,,,,,,,,
html-keyboard-response,470,890705,null,"",null,,,,,,,,,,,,,,,
math-period,471,893242,4032.2999999523163,"",,,,,,,,,,,1,,,,,
html-keyboard-response,472,893347,null,"",null,,,,,,,,,,,,,,,
math-period,473,895199,3462,"",,,,,,,,,,,2,,,,,
html-keyboard-response,474,895300,null,"",null,,,,,,,,,,,,,,,
math-period,475,896928,3130.599999964237,"",,,,,,,,,,,0,,,,,
html-keyboard-response,476,897029,null,"",null,,,,,,,,,,,,,,,
math-period,477,898564,3020.199999988079,"",,,,,,,,,,,4,,,,,
html-keyboard-response,478,898666,null,"",null,,,,,,,,,,,,,,,
math-period,479,900412,3417.599999964237,"",,,,,,,,,,,2,,,,,
html-keyboard-response,480,900517,null,"",null,,,,,,,,,,,,,,,
math-period,481,901612,2096.300000011921,"",,,,,,,,,,,5,,,,,
html-keyboard-response,482,901717,null,"",null,,,,,,,,,,,,,,,
math-period,483,902711,1911.8999999761581,"",,,,,,,,,,,4,,,,,
html-keyboard-response,484,902815,null,"",null,,,,,,,,,,,,,,,
math-period,485,904329,2719.5,"",,,,,,,,,,,5,,,,,
html-keyboard-response,486,904431,null,"",null,,,,,,,,,,,,,,,
math-period,487,905674,2436.599999964237,"",,,,,,,,,,,1,,,,,
html-keyboard-response,488,905781,null,"",null,,,,,,,,,,,,,,,
math-period,489,906659,1705.8999999165535,"",,,,,,,,,,,4,,,,,
html-keyboard-response,490,906762,null,"",null,,,,,,,,,,,,,,,
math-period,491,908514,3453.300000011921,"",,,,,,,,,,,4,,,,,
html-keyboard-response,492,908617,null,"",null,,,,,,,,,,,,,,,
math-period,493,910534,3763.800000011921,"",,,,,,,,,,,4,,,,,
html-keyboard-response,494,910636,null,"",null,,,,,,,,,,,,,,,
math-period,495,911371,1396,"",,,,,,,,,,,4,,,,,
html-keyboard-response,496,911473,null,"",null,,,,,,,,,,,,,,,
math-period,497,912602,2203.9000000953674,"",,,,,,,,,,,1,,,,,
html-keyboard-response,498,912706,null,"",null,,,,,,,,,,,,,,,
math-period,499,914605,1815.699999988079,"",,,,,,,,,,,4,,,,,
html-keyboard-response,500,915610,null,"Recall Period!",null,,,,,,,,,,,,,,,
call-function,501,915611,,"",,,,,,,,,,,,,,,,
html-keyboard-response,502,915714,null,"",null,,,,,,,,,,,,,,,
recall-period,503,921246,26076.100000083447,"",,,,,,,,,,,pond,,,,,
html-keyboard-response,504,921351,null,"",null,,,,,,,,,,,,,,,
recall-period,505,925802,30166.100000023842,"",,,,,,,,,,,freeway,,,,,
html-keyboard-response,506,925904,null,"",null,,,,,,,,,,,,,,,
recall-period,507,927425,8173.400000214577,"",,,,,,,,,,,catcher,,,,,
html-keyboard-response,508,927529,null,"",null,,,,,,,,,,,,,,,
recall-period,509,929453,9943.299999892712,"",,,,,,,,,,,europe,,,,,
html-keyboard-response,510,929554,null,"",null,,,,,,,,,,,,,,,
recall-period,511,931332,7376.699999988079,"",,,,,,,,,,,japan,,,,,
html-keyboard-response,512,931434,null,"",null,,,,,,,,,,,,,,,
recall-period,513,934211,17665.800000071526,"",,,,,,,,,,,tweezers,,,,,
html-keyboard-response,514,934313,null,"",null,,,,,,,,,,,,,,,
recall-period,515,937277,15311.799999833107,"",,,,,,,,,,,torch,,,,,
html-keyboard-response,516,937378,null,"",null,,,,,,,,,,,,,,,
recall-period,517,939796,11319.699999988079,"",,,,,,,,,,,sketch,,,,,
html-keyboard-response,518,939898,null,"",null,,,,,,,,,,,,,,,
recall-period,519,941564,7338.5,"",,,,,,,,,,,chisel,,,,,
html-keyboard-response,520,941665,null,"",null,,,,,,,,,,,,,,,
recall-period,521,943615,9118,"",,,,,,,,,,,fruit,,,,,
html-keyboard-response,522,943717,null,"",null,,,,,,,,,,,,,,,
recall-period,523,945335,5999.200000107288,"",,,,,,,,,,,tart,,,,,
html-keyboard-response,524,945438,null,"",null,,,,,,,,,,,,,,,
recall-period,525,947645,14041.000000238419,"",,,,,,,,,,,tractor,,,,,
html-keyboard-response,526,947747,null,"",null,,,,,,,,,,,,,,,
recall-period,527,950696,10711.400000035763,"",,,,,,,,,,,london,,,,,
html-keyboard-response,528,950799,null,"",null,,,,,,,,,,,,,,,
recall-period,529,951629,2824.800000190735,"",,,,,,,,,,,ruler,,,,,
html-keyboard-response,530,951733,null,"",null,,,,,,,,,,,,,,,
recall-period,531,954292,13232.700000107288,"",,,,,,,,,,,carrot,,,,,
html-keyboard-response,532,954393,null,"",null,,,,,,,,,,,,,,,
recall-period,533,955620,5615.500000119209,"",,,,,,,,,,,rabiit,,,,,
html-keyboard-response,534,955727,null,"",null,,,,,,,,,,,,,,,
recall-period,535,959079,18447.099999964237,"",,,,,,,,,,,rabbit,,,,,
html-keyboard-response,536,959180,null,"",null,,,,,,,,,,,,,,,
recall-period,537,963086,3904.800000011921,"",,,,,,,,,,,,,,,,
html-keyboard-response,538,963187,null,"",null,,,,,,,,,,,,,,,
recall-period,539,991590,null,"",,,,,,,,,,,,,,,,
html-keyboard-response,540,992597,null,"Time's Up!",null,,,,,,,,,,,,,,,
html-keyboard-response,541,4994924,4002198.100000024,"<p> Good job! You have responded correctly to 96% of the trials. </p>
                      <p>Be sure to only press the spacebar if you see a GREEN square, and please keep your accuracy above 80%.</p>
                      <p> Press any key to continue the experiment. </p>",32,,,,,,,,,,,,,,,
html-keyboard-response,542,4996275,1349.8999999761581,"<div style=""font-size:48px;"">Press any key to begin list 4 of 16 </div>",32,,,,,,,,,,,,,,,
html-keyboard-response,543,4998783,null,"<div style=""font-size:60px;"">+</div>",null,,,,,,,,,,,,,,,
html-keyboard-response,544,4998989,null,"<div style=""font-size:42px;"">SUPPER</div><img id = ""stim"" ><div class = red_square id = topsquare></div>",null,encoding,word_square,,,0,topsquare,none,true,,,SUPPER,3,,,
html-keyboard-response,545,4999294,null,"<div style=""font-size:42px;"">SUPPER</div>",null,,word,SUPPER,,,,,,,,,,,,
html-keyboard-response,546,5000796,null,"",null,,word,SUPPER,,,,,,,,,,,,
html-keyboard-response,547,5001002,null,"<div style=""font-size:42px;"">SERVER</div><img id = ""stim"" ><div class = red_square id = bottomsquare></div>",null,encoding,word_square,,,0,bottomsquare,none,true,,,SERVER,3,,,
html-keyboard-response,548,5001307,null,"<div style=""font-size:42px;"">SERVER</div>",null,,word,SERVER,,,,,,,,,,,,
html-keyboard-response,549,5002812,null,"",null,,word,SERVER,,,,,,,,,,,,
html-keyboard-response,550,5003015,null,"<div style=""font-size:42px;"">MILK</div><img id = ""stim"" ><div class = red_square id = topsquare></div>",null,encoding,word_square,,,0,topsquare,none,true,,,MILK,3,,,
html-keyboard-response,551,5003316,null,"<div style=""font-size:42px;"">MILK</div>",null,,word,MILK,,,,,,,,,,,,
html-keyboard-response,552,5004820,null,"",null,,word,MILK,,,,,,,,,,,,
html-keyboard-response,553,5005023,null,"<div style=""font-size:42px;"">GALLON</div><img id = ""stim"" ><div class = green_square id = bottomsquare></div>",null,encoding,word_square,,,1,bottomsquare,32,true,,,GALLON,3,,,
html-keyboard-response,554,5005325,null,"<div style=""font-size:42px;"">GALLON</div>",null,,word,GALLON,,,,,,,,,,,,
html-keyboard-response,555,5006829,67.20000004768372,"",32,,word,GALLON,,,,,,,,,,,,
html-keyboard-response,556,5007032,null,"<div style=""font-size:42px;"">SANDWICH</div><img id = ""stim"" ><div class = green_square id = topsquare></div>",null,encoding,word_square,,,1,topsquare,32,true,,,SANDWICH,3,,,
html-keyboard-response,557,5007336,271.2000000476837,"<div style=""font-size:42px;"">SANDWICH</div>",32,,word,SANDWICH,,,,,,,,,,,,
html-keyboard-response,558,5008838,null,"",null,,word,SANDWICH,,,,,,,,,,,,
html-keyboard-response,559,5009046,null,"<div style=""font-size:42px;"">TROUT</div><img id = ""stim"" ><div class = red_square id = bottomsquare></div>",null,encoding,word_square,,,0,bottomsquare,none,true,,,TROUT,3,,,
html-keyboard-response,560,5009348,null,"<div style=""font-size:42px;"">TROUT</div>",null,,word,TROUT,,,,,,,,,,,,
html-keyboard-response,561,5010851,null,"",null,,word,TROUT,,,,,,,,,,,,
html-keyboard-response,562,5011055,null,"<div style=""font-size:42px;"">FEATHER</div><img id = ""stim"" ><div class = green_square id = bottomsquare></div>",null,encoding,word_square,,,1,bottomsquare,32,true,,,FEATHER,3,,,
html-keyboard-response,563,5011359,283.30000001192093,"<div style=""font-size:42px;"">FEATHER</div>",32,,word,FEATHER,,,,,,,,,,,,
html-keyboard-response,564,5012861,null,"",null,,word,FEATHER,,,,,,,,,,,,
html-keyboard-response,565,5013067,null,"<div style=""font-size:42px;"">RECORD</div><img id = ""stim"" ><div class = red_square id = topsquare></div>",null,encoding,word_square,,,0,topsquare,none,true,,,RECORD,3,,,
html-keyboard-response,566,5013371,null,"<div style=""font-size:42px;"">RECORD</div>",null,,word,RECORD,,,,,,,,,,,,
html-keyboard-response,567,5014872,null,"",null,,word,RECORD,,,,,,,,,,,,
html-keyboard-response,568,5015078,null,"<div style=""font-size:42px;"">CASHEW</div><img id = ""stim"" ><div class = green_square id = topsquare></div>",null,encoding,word_square,,,1,topsquare,32,true,,,CASHEW,3,,,
html-keyboard-response,569,5015380,290.60000002384186,"<div style=""font-size:42px;"">CASHEW</div>",32,,word,CASHEW,,,,,,,,,,,,
html-keyboard-response,570,5016882,null,"",null,,word,CASHEW,,,,,,,,,,,,
html-keyboard-response,571,5017088,null,"<div style=""font-size:42px;"">CACTUS</div><img id = ""stim"" ><div class = green_square id = bottomsquare></div>",null,encoding,word_square,,,1,bottomsquare,32,true,,,CACTUS,3,,,
html-keyboard-response,572,5017394,null,"<div style=""font-size:42px;"">CACTUS</div>",null,,word,CACTUS,,,,,,,,,,,,
html-keyboard-response,573,5018896,206.5,"",32,,word,CACTUS,,,,,,,,,,,,
html-keyboard-response,574,5019101,null,"<div style=""font-size:42px;"">COURSE</div><img id = ""stim"" ><div class = red_square id = bottomsquare></div>",null,encoding,word_square,,,0,bottomsquare,none,true,,,COURSE,3,,,
html-keyboard-response,575,5019406,null,"<div style=""font-size:42px;"">COURSE</div>",null,,word,COURSE,,,,,,,,,,,,
html-keyboard-response,576,5020908,null,"",null,,word,COURSE,,,,,,,,,,,,
html-keyboard-response,577,5021114,null,"<div style=""font-size:42px;"">PEANUT</div><img id = ""stim"" ><div class = green_square id = topsquare></div>",null,encoding,word_square,,,1,topsquare,32,true,,,PEANUT,3,,,
html-keyboard-response,578,5021419,null,"<div style=""font-size:42px;"">PEANUT</div>",null,,word,PEANUT,,,,,,,,,,,,
html-keyboard-response,579,5022922,56.30000001192093,"",32,,word,PEANUT,,,,,,,,,,,,
html-keyboard-response,580,5023127,null,"<div style=""font-size:42px;"">PISTON</div><img id = ""stim"" ><div class = red_square id = topsquare></div>",null,encoding,word_square,,,0,topsquare,none,true,,,PISTON,3,,,
html-keyboard-response,581,5023433,null,"<div style=""font-size:42px;"">PISTON</div>",null,,word,PISTON,,,,,,,,,,,,
html-keyboard-response,582,5024934,null,"",null,,word,PISTON,,,,,,,,,,,,
html-keyboard-response,583,5025141,null,"<div style=""font-size:42px;"">CRADLE</div><img id = ""stim"" ><div class = green_square id = bottomsquare></div>",null,encoding,word_square,,,1,bottomsquare,32,true,,,CRADLE,3,,,
html-keyboard-response,584,5025445,null,"<div style=""font-size:42px;"">CRADLE</div>",null,,word,CRADLE,,,,,,,,,,,,
html-keyboard-response,585,5026948,26.69999998807907,"",32,,word,CRADLE,,,,,,,,,,,,
html-keyboard-response,586,5027152,null,"<div style=""font-size:42px;"">PONY</div><img id = ""stim"" ><div class = green_square id = topsquare></div>",null,encoding,word_square,,,1,topsquare,32,true,,,PONY,3,,,
html-keyboard-response,587,5027454,null,"<div style=""font-size:42px;"">PONY</div>",null,,word,PONY,,,,,,,,,,,,
html-keyboard-response,588,5028958,55.30000001192093,"",32,,word,PONY,,,,,,,,,,,,
html-keyboard-response,589,5029164,null,"<div style=""font-size:42px;"">GLASS</div><img id = ""stim"" ><div class = red_square id = bottomsquare></div>",null,encoding,word_square,,,0,bottomsquare,none,true,,,GLASS,3,,,
html-keyboard-response,590,5029469,null,"<div style=""font-size:42px;"">GLASS</div>",null,,word,GLASS,,,,,,,,,,,,
html-keyboard-response,591,5030971,null,"",null,,word,GLASS,,,,,,,,,,,,
call-function,592,5030972,,"",,,,,,,,,,,,,,,,
html-keyboard-response,593,5031078,null,"",null,,,,,,,,,,,,,,,
math-period,594,5034254,5616,"",,,,,,,,,,,4,,,,,
html-keyboard-response,595,5034357,null,"",null,,,,,,,,,,,,,,,
math-period,596,5035954,3118,"",,,,,,,,,,,0,,,,,
html-keyboard-response,597,5036057,null,"",null,,,,,,,,,,,,,,,
math-period,598,5037063,1934.1000000238419,"",,,,,,,,,,,4,,,,,
html-keyboard-response,599,5037168,null,"",null,,,,,,,,,,,,,,,
math-period,600,5038174,1752.800000011921,"",,,,,,,,,,,4,,,,,
html-keyboard-response,601,5038277,null,"",null,,,,,,,,,,,,,,,
math-period,602,5039383,2142.7000000476837,"",,,,,,,,,,,1,,,,,
html-keyboard-response,603,5039488,null,"",null,,,,,,,,,,,,,,,
math-period,604,5040443,1842.800000011921,"",,,,,,,,,,,2,,,,,
html-keyboard-response,605,5040544,null,"",null,,,,,,,,,,,,,,,
math-period,606,5041693,2239.900000035763,"",,,,,,,,,,,1,,,,,
html-keyboard-response,607,5041798,null,"",null,,,,,,,,,,,,,,,
math-period,608,5043435,3191.8000000715256,"",,,,,,,,,,,5,,,,,
html-keyboard-response,609,5043540,null,"",null,,,,,,,,,,,,,,,
math-period,610,5044803,2417.099999964237,"",,,,,,,,,,,2,,,,,
html-keyboard-response,611,5044905,null,"",null,,,,,,,,,,,,,,,
math-period,612,5045800,1682.7000000476837,"",,,,,,,,,,,2,,,,,
html-keyboard-response,613,5045902,null,"",null,,,,,,,,,,,,,,,
math-period,614,5046751,1560.4999999403954,"",,,,,,,,,,,2,,,,,
html-keyboard-response,615,5046854,null,"",null,,,,,,,,,,,,,,,
math-period,616,5047989,2223.5,"",,,,,,,,,,,4,,,,,
html-keyboard-response,617,5048094,null,"",null,,,,,,,,,,,,,,,
math-period,618,5049113,1992.5999999642372,"",,,,,,,,,,,4,,,,,
html-keyboard-response,619,5049215,null,"",null,,,,,,,,,,,,,,,
math-period,620,5050190,1848.800000011921,"",,,,,,,,,,,1,,,,,
html-keyboard-response,621,5050292,null,"",null,,,,,,,,,,,,,,,
math-period,622,5051449,2218.7000000476837,"",,,,,,,,,,,6,,,,,
html-keyboard-response,623,5051551,null,"",null,,,,,,,,,,,,,,,
math-period,624,5052609,2066.0999999046326,"",,,,,,,,,,,5,,,,,
html-keyboard-response,625,5052712,null,"",null,,,,,,,,,,,,,,,
math-period,626,5053785,2043.1999999284744,"",,,,,,,,,,,4,,,,,
html-keyboard-response,627,5053886,null,"",null,,,,,,,,,,,,,,,
math-period,628,5054806,1789.6999999284744,"",,,,,,,,,,,2,,,,,
html-keyboard-response,629,5054912,null,"",null,,,,,,,,,,,,,,,
math-period,630,5054976,null,"",,,,,,,,,,,,,,,,
html-keyboard-response,631,5055981,null,"Recall Period!",null,,,,,,,,,,,,,,,
call-function,632,5055982,,"",,,,,,,,,,,,,,,,
html-keyboard-response,633,5056085,null,"",null,,,,,,,,,,,,,,,
recall-period,634,5062202,36643.300000190735,"",,,,,,,,,,,pony,,,,,
html-keyboard-response,635,5062304,null,"",null,,,,,,,,,,,,,,,
recall-period,636,5065388,17138.400000095367,"",,,,,,,,,,,glass,,,,,
html-keyboard-response,637,5065491,null,"",null,,,,,,,,,,,,,,,
recall-period,638,5068329,14669.599999964237,"",,,,,,,,,,,server,,,,,
html-keyboard-response,639,5068430,null,"",null,,,,,,,,,,,,,,,
recall-period,640,5069765,4474.3999999165535,"",,,,,,,,,,,milk,,,,,
html-keyboard-response,641,5069866,null,"",null,,,,,,,,,,,,,,,
recall-period,642,5072407,11691.699999988079,"",,,,,,,,,,,gallon,,,,,
html-keyboard-response,643,5072510,null,"",null,,,,,,,,,,,,,,,
recall-period,644,5075578,16735.40000039339,"",,,,,,,,,,,sandwich,,,,,
html-keyboard-response,645,5075679,null,"",null,,,,,,,,,,,,,,,
recall-period,646,5077148,5212.19999986887,"",,,,,,,,,,,trout,,,,,
html-keyboard-response,647,5077250,null,"",null,,,,,,,,,,,,,,,
recall-period,648,5080003,18461.900000214577,"",,,,,,,,,,,feather,,,,,
html-keyboard-response,649,5080107,null,"",null,,,,,,,,,,,,,,,
recall-period,650,5082676,19823.49999988079,"",,,,,,,,,,,casher,,,,,
html-keyboard-response,651,5082782,null,"",null,,,,,,,,,,,,,,,
recall-period,652,5084907,11126.400000154972,"",,,,,,,,,,,cashew,,,,,
html-keyboard-response,653,5085010,null,"",null,,,,,,,,,,,,,,,
recall-period,654,5088157,18805.699999809265,"",,,,,,,,,,,peanut,,,,,
html-keyboard-response,655,5088263,null,"",null,,,,,,,,,,,,,,,
recall-period,656,5090974,14249.400000154972,"",,,,,,,,,,,piston,,,,,
html-keyboard-response,657,5091079,null,"",null,,,,,,,,,,,,,,,
recall-period,658,5092404,5861.400000154972,"",,,,,,,,,,,cradle,,,,,
html-keyboard-response,659,5092506,null,"",null,,,,,,,,,,,,,,,
recall-period,660,5118488,202545.80000019073,"",,,,,,,,,,,feather,,,,,
html-keyboard-response,661,5118591,null,"",null,,,,,,,,,,,,,,,
recall-period,662,5124738,35208.700000047684,"",,,,,,,,,,,cactus,,,,,
html-keyboard-response,663,5124842,null,"",null,,,,,,,,,,,,,,,
recall-period,664,5126512,6415,"",,,,,,,,,,,course,,,,,
html-keyboard-response,665,5126614,null,"",null,,,,,,,,,,,,,,,
recall-period,666,5130988,null,"",,,,,,,,,,,,,,,,
html-keyboard-response,667,5131493,null,"Time's Up!",null,,,,,,,,,,,,,,,
html-keyboard-response,668,5133156,1662.2000000476837,"<p> Good job! You have responded correctly to 97% of the trials. </p>
                      <p>Be sure to only press the spacebar if you see a GREEN square, and please keep your accuracy above 80%.</p>
                      <p> Press any key to continue the experiment. </p>",32,,,,,,,,,,,,,,,
html-keyboard-response,669,5134464,1306.199999988079,"<div style=""font-size:48px;"">Press any key to begin list 5 of 16 </div>",32,,,,,,,,,,,,,,,
html-keyboard-response,670,5136969,null,"<div style=""font-size:60px;"">+</div>",null,,,,,,,,,,,,,,,
html-keyboard-response,671,5137171,null,"<div style=""font-size:42px;"">PIRATE</div><img id = ""stim"" ><div class = green_square id = topsquare></div>",null,encoding,word_square,,,1,topsquare,32,true,,,PIRATE,4,,,
html-keyboard-response,672,5137477,246.5,"<div style=""font-size:42px;"">PIRATE</div>",32,,word,PIRATE,,,,,,,,,,,,
html-keyboard-response,673,5138980,null,"",null,,word,PIRATE,,,,,,,,,,,,
html-keyboard-response,674,5139184,null,"<div style=""font-size:42px;"">MARKET</div><img id = ""stim"" ><div class = red_square id = bottomsquare></div>",null,encoding,word_square,,,0,bottomsquare,none,true,,,MARKET,4,,,
html-keyboard-response,675,5139487,null,"<div style=""font-size:42px;"">MARKET</div>",null,,word,MARKET,,,,,,,,,,,,
html-keyboard-response,676,5140990,null,"",null,,word,MARKET,,,,,,,,,,,,
html-keyboard-response,677,5141194,null,"<div style=""font-size:42px;"">DINER</div><img id = ""stim"" ><div class = red_square id = topsquare></div>",null,encoding,word_square,,,0,topsquare,none,true,,,DINER,4,,,
html-keyboard-response,678,5141498,null,"<div style=""font-size:42px;"">DINER</div>",null,,word,DINER,,,,,,,,,,,,
html-keyboard-response,679,5143001,null,"",null,,word,DINER,,,,,,,,,,,,
html-keyboard-response,680,5143207,null,"<div style=""font-size:42px;"">GUARD</div><img id = ""stim"" ><div class = green_square id = bottomsquare></div>",null,encoding,word_square,,,1,bottomsquare,32,true,,,GUARD,4,,,
html-keyboard-response,681,5143510,148.89999997615814,"<div style=""font-size:42px;"">GUARD</div>",32,,word,GUARD,,,,,,,,,,,,
html-keyboard-response,682,5145013,null,"",null,,word,GUARD,,,,,,,,,,,,
html-keyboard-response,683,5145215,null,"<div style=""font-size:42px;"">STAIRS</div><img id = ""stim"" ><div class = green_square id = topsquare></div>",null,encoding,word_square,,,1,topsquare,32,true,,,STAIRS,4,,,
html-keyboard-response,684,5145518,null,"<div style=""font-size:42px;"">STAIRS</div>",null,,word,STAIRS,,,,,,,,,,,,
html-keyboard-response,685,5147020,214.80000001192093,"",32,,word,STAIRS,,,,,,,,,,,,
html-keyboard-response,686,5147226,null,"<div style=""font-size:42px;"">PRIEST</div><img id = ""stim"" ><div class = red_square id = bottomsquare></div>",null,encoding,word_square,,,0,bottomsquare,none,true,,,PRIEST,4,,,
html-keyboard-response,687,5147532,null,"<div style=""font-size:42px;"">PRIEST</div>",null,,word,PRIEST,,,,,,,,,,,,
html-keyboard-response,688,5149033,null,"",null,,word,PRIEST,,,,,,,,,,,,
html-keyboard-response,689,5149239,null,"<div style=""font-size:42px;"">RACKET</div><img id = ""stim"" ><div class = red_square id = topsquare></div>",null,encoding,word_square,,,0,topsquare,none,true,,,RACKET,4,,,
html-keyboard-response,690,5149544,null,"<div style=""font-size:42px;"">RACKET</div>",null,,word,RACKET,,,,,,,,,,,,
html-keyboard-response,691,5151046,null,"",null,,word,RACKET,,,,,,,,,,,,
html-keyboard-response,692,5151251,null,"<div style=""font-size:42px;"">COCKTAIL</div><img id = ""stim"" ><div class = green_square id = bottomsquare></div>",null,encoding,word_square,,,1,bottomsquare,32,true,,,COCKTAIL,4,,,
html-keyboard-response,693,5151555,null,"<div style=""font-size:42px;"">COCKTAIL</div>",null,,word,COCKTAIL,,,,,,,,,,,,
html-keyboard-response,694,5153057,4.199999988079071,"",32,,word,COCKTAIL,,,,,,,,,,,,
html-keyboard-response,695,5153261,null,"<div style=""font-size:42px;"">DONKEY</div><img id = ""stim"" ><div class = green_square id = topsquare></div>",null,encoding,word_square,,,1,topsquare,32,true,,,DONKEY,4,,,
html-keyboard-response,696,5153564,165.39999997615814,"<div style=""font-size:42px;"">DONKEY</div>",32,,word,DONKEY,,,,,,,,,,,,
html-keyboard-response,697,5155067,null,"",null,,word,DONKEY,,,,,,,,,,,,
html-keyboard-response,698,5155272,null,"<div style=""font-size:42px;"">PATROL</div><img id = ""stim"" ><div class = red_square id = bottomsquare></div>",null,encoding,word_square,,,0,bottomsquare,none,true,,,PATROL,4,,,
html-keyboard-response,699,5155579,null,"<div style=""font-size:42px;"">PATROL</div>",null,,word,PATROL,,,,,,,,,,,,
html-keyboard-response,700,5157081,null,"",null,,word,PATROL,,,,,,,,,,,,
html-keyboard-response,701,5157285,null,"<div style=""font-size:42px;"">CANYON</div><img id = ""stim"" ><div class = green_square id = bottomsquare></div>",null,encoding,word_square,,,1,bottomsquare,32,true,,,CANYON,4,,,
html-keyboard-response,702,5157588,229.39999997615814,"<div style=""font-size:42px;"">CANYON</div>",32,,word,CANYON,,,,,,,,,,,,
html-keyboard-response,703,5159093,null,"",null,,word,CANYON,,,,,,,,,,,,
html-keyboard-response,704,5159299,null,"<div style=""font-size:42px;"">LADY</div><img id = ""stim"" ><div class = red_square id = topsquare></div>",null,encoding,word_square,,,0,topsquare,none,true,,,LADY,4,,,
html-keyboard-response,705,5159602,null,"<div style=""font-size:42px;"">LADY</div>",null,,word,LADY,,,,,,,,,,,,
html-keyboard-response,706,5161104,null,"",null,,word,LADY,,,,,,,,,,,,
html-keyboard-response,707,5161307,null,"<div style=""font-size:42px;"">REBEL</div><img id = ""stim"" ><div class = red_square id = bottomsquare></div>",null,encoding,word_square,,,0,bottomsquare,none,true,,,REBEL,4,,,
html-keyboard-response,708,5161610,null,"<div style=""font-size:42px;"">REBEL</div>",null,,word,REBEL,,,,,,,,,,,,
html-keyboard-response,709,5163114,null,"",null,,word,REBEL,,,,,,,,,,,,
html-keyboard-response,710,5163316,null,"<div style=""font-size:42px;"">BRANCH</div><img id = ""stim"" ><div class = green_square id = topsquare></div>",null,encoding,word_square,,,1,topsquare,32,true,,,BRANCH,4,,,
html-keyboard-response,711,5163618,170.89999997615814,"<div style=""font-size:42px;"">BRANCH</div>",32,,word,BRANCH,,,,,,,,,,,,
html-keyboard-response,712,5165120,null,"",null,,word,BRANCH,,,,,,,,,,,,
html-keyboard-response,713,5165323,null,"<div style=""font-size:42px;"">TWIG</div><img id = ""stim"" ><div class = red_square id = topsquare></div>",null,encoding,word_square,,,0,topsquare,none,true,,,TWIG,4,,,
html-keyboard-response,714,5165627,null,"<div style=""font-size:42px;"">TWIG</div>",null,,word,TWIG,,,,,,,,,,,,
html-keyboard-response,715,5167129,null,"",null,,word,TWIG,,,,,,,,,,,,
html-keyboard-response,716,5167333,null,"<div style=""font-size:42px;"">PORPOISE</div><img id = ""stim"" ><div class = green_square id = bottomsquare></div>",null,encoding,word_square,,,1,bottomsquare,32,true,,,PORPOISE,4,,,
html-keyboard-response,717,5167635,null,"<div style=""font-size:42px;"">PORPOISE</div>",null,,word,PORPOISE,,,,,,,,,,,,
html-keyboard-response,718,5169137,375.80000001192093,"",32,,word,PORPOISE,,,,,,,,,,,,
call-function,719,5169138,,"",,,,,,,,,,,,,,,,
html-keyboard-response,720,5169243,null,"",null,,,,,,,,,,,,,,,
math-period,721,5172315,4907.199999928474,"",,,,,,,,,,,0,,,,,
html-keyboard-response,722,5172418,null,"",null,,,,,,,,,,,,,,,
math-period,723,5174432,3400.399999976158,"",,,,,,,,,,,4,,,,,
html-keyboard-response,724,5174534,null,"",null,,,,,,,,,,,,,,,
math-period,725,5175762,2271.9999999403954,"",,,,,,,,,,,4,,,,,
html-keyboard-response,726,5175867,null,"",null,,,,,,,,,,,,,,,
math-period,727,5177111,2404.599999964237,"",,,,,,,,,,,5,,,,,
html-keyboard-response,728,5177217,null,"",null,,,,,,,,,,,,,,,
math-period,729,5178110,1755.300000011921,"",,,,,,,,,,,4,,,,,
html-keyboard-response,730,5178212,null,"",null,,,,,,,,,,,,,,,
math-period,731,5179344,2197.399999976158,"",,,,,,,,,,,5,,,,,
html-keyboard-response,732,5179449,null,"",null,,,,,,,,,,,,,,,
math-period,733,5180587,2199.199999988079,"",,,,,,,,,,,4,,,,,
html-keyboard-response,734,5180688,null,"",null,,,,,,,,,,,,,,,
math-period,735,5182329,3186.100000023842,"",,,,,,,,,,,6,,,,,
html-keyboard-response,736,5182431,null,"",null,,,,,,,,,,,,,,,
math-period,737,5184226,3263.599999964237,"",,,,,,,,,,,3,,,,,
html-keyboard-response,738,5184330,null,"",null,,,,,,,,,,,,,,,
math-period,739,5185248,1752.199999988079,"",,,,,,,,,,,4,,,,,
html-keyboard-response,740,5185352,null,"",null,,,,,,,,,,,,,,,
math-period,741,5186133,1532.199999988079,"",,,,,,,,,,,4,,,,,
html-keyboard-response,742,5186234,null,"",null,,,,,,,,,,,,,,,
math-period,743,5187467,2403.899999976158,"",,,,,,,,,,,2,,,,,
html-keyboard-response,744,5187572,null,"",null,,,,,,,,,,,,,,,
math-period,745,5188544,1869.800000011921,"",,,,,,,,,,,2,,,,,
html-keyboard-response,746,5188649,null,"",null,,,,,,,,,,,,,,,
math-period,747,5190084,2804,"",,,,,,,,,,,1,,,,,
html-keyboard-response,748,5190186,null,"",null,,,,,,,,,,,,,,,
math-period,749,5192459,4473.200000047684,"",,,,,,,,,,,4,,,,,
html-keyboard-response,750,5192562,null,"",null,,,,,,,,,,,,,,,
math-period,751,5193143,null,"",,,,,,,,,,,,,,,,
html-keyboard-response,752,5194147,null,"Recall Period!",null,,,,,,,,,,,,,,,
call-function,753,5194148,,"",,,,,,,,,,,,,,,,
html-keyboard-response,754,5194252,null,"",null,,,,,,,,,,,,,,,
recall-period,755,5196121,8223.699999988079,"",,,,,,,,,,,guard,,,,,
html-keyboard-response,756,5196227,null,"",null,,,,,,,,,,,,,,,
recall-period,757,5198549,5894.399999856949,"",,,,,,,,,,,market,,,,,
html-keyboard-response,758,5198652,null,"",null,,,,,,,,,,,,,,,
recall-period,759,5201634,18252.299999952316,"",,,,,,,,,,,stairse,,,,,
html-keyboard-response,760,5201735,null,"",null,,,,,,,,,,,,,,,
recall-period,761,5219441,116249.7000001669,"",,,,,,,,,,,pirate,,,,,
html-keyboard-response,762,5219545,null,"",null,,,,,,,,,,,,,,,
recall-period,763,5221667,10672.299999892712,"",,,,,,,,,,,diner,,,,,
html-keyboard-response,764,5221768,null,"",null,,,,,,,,,,,,,,,
recall-period,765,5228116,58043.400000333786,"",,,,,,,,,,,priest,,,,,
html-keyboard-response,766,5228218,null,"",null,,,,,,,,,,,,,,,
recall-period,767,5231414,13430.599999845028,"",,,,,,,,,,,racket,,,,,
html-keyboard-response,768,5231516,null,"",null,,,,,,,,,,,,,,,
recall-period,769,5235343,16923.300000309944,"",,,,,,,,,,,cockdile,,,,,
html-keyboard-response,770,5235445,null,"",null,,,,,,,,,,,,,,,
recall-period,771,5237195,5953.599999904633,"",,,,,,,,,,,donkey,,,,,
html-keyboard-response,772,5237296,null,"",null,,,,,,,,,,,,,,,
recall-period,773,5240628,20678.699999690056,"",,,,,,,,,,,canyon,,,,,
html-keyboard-response,774,5240730,null,"",null,,,,,,,,,,,,,,,
recall-period,775,5241628,3202.400000154972,"",,,,,,,,,,,rebel,,,,,
html-keyboard-response,776,5241731,null,"",null,,,,,,,,,,,,,,,
recall-period,777,5244019,12314.700000166893,"",,,,,,,,,,,branch,,,,,
html-keyboard-response,778,5244120,null,"",null,,,,,,,,,,,,,,,
recall-period,779,5247322,8494.299999952316,"",,,,,,,,,,,twig,,,,,
html-keyboard-response,780,5247427,null,"",null,,,,,,,,,,,,,,,
recall-period,781,5269154,5599,"",,,,,,,,,,,,,,,,
html-keyboard-response,782,5269660,null,"Time's Up!",null,,,,,,,,,,,,,,,
html-keyboard-response,783,5315620,45958.39999997616,"<p> Good job! You have responded correctly to 98% of the trials. </p>
                      <p>Be sure to only press the spacebar if you see a GREEN square, and please keep your accuracy above 80%.</p>
                      <p> Press any key to continue the experiment. </p>",32,,,,,,,,,,,,,,,
html-keyboard-response,784,5323760,8137.900000035763,"<div style=""font-size:48px;"">Press any key to begin list 6 of 16 </div>",32,,,,,,,,,,,,,,,
html-keyboard-response,785,5326266,null,"<div style=""font-size:60px;"">+</div>",null,,,,,,,,,,,,,,,
html-keyboard-response,786,5326471,null,"<div style=""font-size:42px;"">ASIA</div><img id = ""stim"" ><div class = green_square id = bottomsquare></div>",null,encoding,word_square,,,1,bottomsquare,32,true,,,ASIA,5,,,
html-keyboard-response,787,5326775,null,"<div style=""font-size:42px;"">ASIA</div>",null,,word,ASIA,,,,,,,,,,,,
html-keyboard-response,788,5328278,1.5,"",32,,word,ASIA,,,,,,,,,,,,
html-keyboard-response,789,5328484,null,"<div style=""font-size:42px;"">COUNTRY</div><img id = ""stim"" ><div class = red_square id = topsquare></div>",null,encoding,word_square,,,0,topsquare,none,true,,,COUNTRY,5,,,
html-keyboard-response,790,5328790,null,"<div style=""font-size:42px;"">COUNTRY</div>",null,,word,COUNTRY,,,,,,,,,,,,
html-keyboard-response,791,5330294,null,"",null,,word,COUNTRY,,,,,,,,,,,,
html-keyboard-response,792,5330499,null,"<div style=""font-size:42px;"">FROST</div><img id = ""stim"" ><div class = green_square id = topsquare></div>",null,encoding,word_square,,,1,topsquare,32,true,,,FROST,5,,,
html-keyboard-response,793,5330805,177.79999995231628,"<div style=""font-size:42px;"">FROST</div>",32,,word,FROST,,,,,,,,,,,,
html-keyboard-response,794,5332308,null,"",null,,word,FROST,,,,,,,,,,,,
html-keyboard-response,795,5332514,null,"<div style=""font-size:42px;"">BLOSSOM</div><img id = ""stim"" ><div class = red_square id = bottomsquare></div>",null,encoding,word_square,,,0,bottomsquare,none,true,,,BLOSSOM,5,,,
html-keyboard-response,796,5332819,null,"<div style=""font-size:42px;"">BLOSSOM</div>",null,,word,BLOSSOM,,,,,,,,,,,,
html-keyboard-response,797,5334322,null,"",null,,word,BLOSSOM,,,,,,,,,,,,
html-keyboard-response,798,5334524,null,"<div style=""font-size:42px;"">COLESLAW</div><img id = ""stim"" ><div class = red_square id = topsquare></div>",null,encoding,word_square,,,0,topsquare,none,true,,,COLESLAW,5,,,
html-keyboard-response,799,5334828,null,"<div style=""font-size:42px;"">COLESLAW</div>",null,,word,COLESLAW,,,,,,,,,,,,
html-keyboard-response,800,5336329,null,"",null,,word,COLESLAW,,,,,,,,,,,,
html-keyboard-response,801,5336534,null,"<div style=""font-size:42px;"">KITTEN</div><img id = ""stim"" ><div class = green_square id = bottomsquare></div>",null,encoding,word_square,,,1,bottomsquare,32,true,,,KITTEN,5,,,
html-keyboard-response,802,5336836,163.9000000357628,"<div style=""font-size:42px;"">KITTEN</div>",32,,word,KITTEN,,,,,,,,,,,,
html-keyboard-response,803,5338339,null,"",null,,word,KITTEN,,,,,,,,,,,,
html-keyboard-response,804,5338546,null,"<div style=""font-size:42px;"">PORTRAIT</div><img id = ""stim"" ><div class = red_square id = bottomsquare></div>",null,encoding,word_square,,,0,bottomsquare,none,true,,,PORTRAIT,5,,,
html-keyboard-response,805,5338850,null,"<div style=""font-size:42px;"">PORTRAIT</div>",null,,word,PORTRAIT,,,,,,,,,,,,
html-keyboard-response,806,5340353,null,"",null,,word,PORTRAIT,,,,,,,,,,,,
html-keyboard-response,807,5340559,null,"<div style=""font-size:42px;"">MOTOR</div><img id = ""stim"" ><div class = green_square id = topsquare></div>",null,encoding,word_square,,,1,topsquare,32,true,,,MOTOR,5,,,
html-keyboard-response,808,5340866,146.79999995231628,"<div style=""font-size:42px;"">MOTOR</div>",32,,word,MOTOR,,,,,,,,,,,,
html-keyboard-response,809,5342368,null,"",null,,word,MOTOR,,,,,,,,,,,,
html-keyboard-response,810,5342574,null,"<div style=""font-size:42px;"">GRILL</div><img id = ""stim"" ><div class = green_square id = bottomsquare></div>",null,encoding,word_square,,,1,bottomsquare,32,true,,,GRILL,5,,,
html-keyboard-response,811,5342881,134.89999997615814,"<div style=""font-size:42px;"">GRILL</div>",32,,word,GRILL,,,,,,,,,,,,
html-keyboard-response,812,5344385,null,"",null,,word,GRILL,,,,,,,,,,,,
html-keyboard-response,813,5344592,null,"<div style=""font-size:42px;"">PAINTING</div><img id = ""stim"" ><div class = red_square id = topsquare></div>",null,encoding,word_square,,,0,topsquare,none,true,,,PAINTING,5,,,
html-keyboard-response,814,5344896,null,"<div style=""font-size:42px;"">PAINTING</div>",null,,word,PAINTING,,,,,,,,,,,,
html-keyboard-response,815,5346398,null,"",null,,word,PAINTING,,,,,,,,,,,,
html-keyboard-response,816,5346604,null,"<div style=""font-size:42px;"">LIVER</div><img id = ""stim"" ><div class = red_square id = bottomsquare></div>",null,encoding,word_square,,,0,bottomsquare,none,true,,,LIVER,5,,,
html-keyboard-response,817,5346907,null,"<div style=""font-size:42px;"">LIVER</div>",null,,word,LIVER,,,,,,,,,,,,
html-keyboard-response,818,5348410,null,"",null,,word,LIVER,,,,,,,,,,,,
html-keyboard-response,819,5348617,null,"<div style=""font-size:42px;"">BLACKBOARD</div><img id = ""stim"" ><div class = green_square id = topsquare></div>",null,encoding,word_square,,,1,topsquare,32,true,,,BLACKBOARD,5,,,
html-keyboard-response,820,5348919,130.4000000357628,"<div style=""font-size:42px;"">BLACKBOARD</div>",32,,word,BLACKBOARD,,,,,,,,,,,,
html-keyboard-response,821,5350422,null,"",null,,word,BLACKBOARD,,,,,,,,,,,,
html-keyboard-response,822,5350627,null,"<div style=""font-size:42px;"">RECEIPT</div><img id = ""stim"" ><div class = green_square id = bottomsquare></div>",null,encoding,word_square,,,1,bottomsquare,32,true,,,RECEIPT,5,,,
html-keyboard-response,823,5350928,133.69999998807907,"<div style=""font-size:42px;"">RECEIPT</div>",32,,word,RECEIPT,,,,,,,,,,,,
html-keyboard-response,824,5352435,null,"",null,,word,RECEIPT,,,,,,,,,,,,
html-keyboard-response,825,5352638,null,"<div style=""font-size:42px;"">CASTLE</div><img id = ""stim"" ><div class = red_square id = topsquare></div>",null,encoding,word_square,,,0,topsquare,none,true,,,CASTLE,5,,,
html-keyboard-response,826,5352941,null,"<div style=""font-size:42px;"">CASTLE</div>",null,,word,CASTLE,,,,,,,,,,,,
html-keyboard-response,827,5354443,null,"",null,,word,CASTLE,,,,,,,,,,,,
html-keyboard-response,828,5354646,null,"<div style=""font-size:42px;"">PEDAL</div><img id = ""stim"" ><div class = red_square id = bottomsquare></div>",null,encoding,word_square,,,0,bottomsquare,none,true,,,PEDAL,5,,,
html-keyboard-response,829,5354951,null,"<div style=""font-size:42px;"">PEDAL</div>",null,,word,PEDAL,,,,,,,,,,,,
html-keyboard-response,830,5356453,null,"",null,,word,PEDAL,,,,,,,,,,,,
html-keyboard-response,831,5356659,null,"<div style=""font-size:42px;"">TURNIP</div><img id = ""stim"" ><div class = green_square id = topsquare></div>",null,encoding,word_square,,,1,topsquare,32,true,,,TURNIP,5,,,
html-keyboard-response,832,5356962,null,"<div style=""font-size:42px;"">TURNIP</div>",null,,word,TURNIP,,,,,,,,,,,,
html-keyboard-response,833,5358466,93.29999995231628,"",32,,word,TURNIP,,,,,,,,,,,,
call-function,834,5358467,,"",,,,,,,,,,,,,,,,
html-keyboard-response,835,5358571,null,"",null,,,,,,,,,,,,,,,
math-period,836,5360619,3499.5,"",,,,,,,,,,,1,,,,,
html-keyboard-response,837,5360721,null,"",null,,,,,,,,,,,,,,,
math-period,838,5362277,2722.6000000834465,"",,,,,,,,,,,6,,,,,
html-keyboard-response,839,5362379,null,"",null,,,,,,,,,,,,,,,
math-period,840,5363452,2028.9000000357628,"",,,,,,,,,,,4,,,,,
html-keyboard-response,841,5363557,null,"",null,,,,,,,,,,,,,,,
math-period,842,5364484,1749.5,"",,,,,,,,,,,3,,,,,
html-keyboard-response,843,5364587,null,"",null,,,,,,,,,,,,,,,
math-period,844,5365779,2087.699999988079,"",,,,,,,,,,,1,,,,,
html-keyboard-response,845,5365881,null,"",null,,,,,,,,,,,,,,,
math-period,846,5367097,2296.800000011921,"",,,,,,,,,,,1,,,,,
html-keyboard-response,847,5367203,null,"",null,,,,,,,,,,,,,,,
math-period,848,5369563,4574.700000047684,"",,,,,,,,,,,5,,,,,
html-keyboard-response,849,5369668,null,"",null,,,,,,,,,,,,,,,
math-period,850,5370895,2356.4999999403954,"",,,,,,,,,,,2,,,,,
html-keyboard-response,851,5370997,null,"",null,,,,,,,,,,,,,,,
math-period,852,5372060,2036.699999988079,"",,,,,,,,,,,1,,,,,
html-keyboard-response,853,5372163,null,"",null,,,,,,,,,,,,,,,
math-period,854,5373280,2154.100000023842,"",,,,,,,,,,,2,,,,,
html-keyboard-response,855,5373382,null,"",null,,,,,,,,,,,,,,,
math-period,856,5374357,1898.7000000476837,"",,,,,,,,,,,4,,,,,
html-keyboard-response,857,5374458,null,"",null,,,,,,,,,,,,,,,
math-period,858,5376776,4522.800000071526,"",,,,,,,,,,,1,,,,,
html-keyboard-response,859,5376880,null,"",null,,,,,,,,,,,,,,,
math-period,860,5377765,1697.2999999523163,"",,,,,,,,,,,3,,,,,
html-keyboard-response,861,5377867,null,"",null,,,,,,,,,,,,,,,
math-period,862,5380159,4184.800000011921,"",,,,,,,,,,,0,,,,,
html-keyboard-response,863,5380264,null,"",null,,,,,,,,,,,,,,,
math-period,864,5381317,2019.699999988079,"",,,,,,,,,,,2,,,,,
html-keyboard-response,865,5381422,null,"",null,,,,,,,,,,,,,,,
math-period,866,5382470,null,"",,,,,,,,,,,,,,,,
html-keyboard-response,867,5383477,null,"Recall Period!",null,,,,,,,,,,,,,,,
call-function,868,5383478,,"",,,,,,,,,,,,,,,,
html-keyboard-response,869,5383582,null,"",null,,,,,,,,,,,,,,,
recall-period,870,5389439,50930.90000021458,"",,,,,,,,,,,blackboard,,,,,
html-keyboard-response,871,5389544,null,"",null,,,,,,,,,,,,,,,
recall-period,872,5399168,46709.699999928474,"",,,,,,,,,,,asia,,,,,
html-keyboard-response,873,5399269,null,"",null,,,,,,,,,,,,,,,
recall-period,874,5401720,14315,"",,,,,,,,,,,country,,,,,
html-keyboard-response,875,5401822,null,"",null,,,,,,,,,,,,,,,
recall-period,876,5403348,6487.399999976158,"",,,,,,,,,,,frost,,,,,
html-keyboard-response,877,5403450,null,"",null,,,,,,,,,,,,,,,
recall-period,878,5406144,14992.700000047684,"",,,,,,,,,,,blossom,,,,,
html-keyboard-response,879,5406247,null,"",null,,,,,,,,,,,,,,,
recall-period,880,5408241,11729.5,"",,,,,,,,,,,coleslaw,,,,,
html-keyboard-response,881,5408346,null,"",null,,,,,,,,,,,,,,,
recall-period,882,5411488,19747.79999989271,"",,,,,,,,,,,kitten,,,,,
html-keyboard-response,883,5411591,null,"",null,,,,,,,,,,,,,,,
recall-period,884,5412907,5817.199999928474,"",,,,,,,,,,,portair,,,,,
html-keyboard-response,885,5413011,null,"",null,,,,,,,,,,,,,,,
recall-period,886,5416859,31965.299999833107,"",,,,,,,,,,,grill,,,,,
html-keyboard-response,887,5416963,null,"",null,,,,,,,,,,,,,,,
recall-period,888,5419496,12937.600000083447,"",,,,,,,,,,,liver,,,,,
html-keyboard-response,889,5419598,null,"",null,,,,,,,,,,,,,,,
recall-period,890,5426165,45316.7000002861,"",,,,,,,,,,,receipt,,,,,
html-keyboard-response,891,5426267,null,"",null,,,,,,,,,,,,,,,
recall-period,892,5428059,10081.900000214577,"",,,,,,,,,,,castale,,,,,
html-keyboard-response,893,5428163,null,"",null,,,,,,,,,,,,,,,
recall-period,894,5432627,32369.200000226498,"",,,,,,,,,,,pedall,,,,,
html-keyboard-response,895,5432728,null,"",null,,,,,,,,,,,,,,,
recall-period,896,5434440,7162.800000190735,"",,,,,,,,,,,castle,,,,,
html-keyboard-response,897,5434545,null,"",null,,,,,,,,,,,,,,,
recall-period,898,5458481,null,"",,,,,,,,,,,,,,,,
html-keyboard-response,899,5458987,null,"Time's Up!",null,,,,,,,,,,,,,,,
html-keyboard-response,900,5502775,43785.80000001192,"<p> Good job! You have responded correctly to 98% of the trials. </p>
                      <p>Be sure to only press the spacebar if you see a GREEN square, and please keep your accuracy above 80%.</p>
                      <p> Press any key to continue the experiment. </p>",32,,,,,,,,,,,,,,,
html-keyboard-response,901,5505990,3214,"<div style=""font-size:48px;"">Press any key to begin list 7 of 16 </div>",32,,,,,,,,,,,,,,,
html-keyboard-response,902,5508498,null,"<div style=""font-size:60px;"">+</div>",null,,,,,,,,,,,,,,,
html-keyboard-response,903,5508703,null,"<div style=""font-size:42px;"">HEART</div><img id = ""stim"" ><div class = red_square id = bottomsquare></div>",null,encoding,word_square,,,0,bottomsquare,none,true,,,HEART,6,,,
html-keyboard-response,904,5509009,null,"<div style=""font-size:42px;"">HEART</div>",null,,word,HEART,,,,,,,,,,,,
html-keyboard-response,905,5510513,null,"",null,,word,HEART,,,,,,,,,,,,
html-keyboard-response,906,5510716,null,"<div style=""font-size:42px;"">TRANSPLANT</div><img id = ""stim"" ><div class = green_square id = topsquare></div>",null,encoding,word_square,,,1,topsquare,32,true,,,TRANSPLANT,6,,,
html-keyboard-response,907,5511018,224.89999997615814,"<div style=""font-size:42px;"">TRANSPLANT</div>",32,,word,TRANSPLANT,,,,,,,,,,,,
html-keyboard-response,908,5512520,null,"",null,,word,TRANSPLANT,,,,,,,,,,,,
html-keyboard-response,909,5512725,null,"<div style=""font-size:42px;"">SLUG</div><img id = ""stim"" ><div class = green_square id = bottomsquare></div>",null,encoding,word_square,,,1,bottomsquare,32,true,,,SLUG,6,,,
html-keyboard-response,910,5513030,null,"<div style=""font-size:42px;"">SLUG</div>",null,,word,SLUG,,,,,,,,,,,,
html-keyboard-response,911,5514533,12,"",32,,word,SLUG,,,,,,,,,,,,
html-keyboard-response,912,5514737,null,"<div style=""font-size:42px;"">LION</div><img id = ""stim"" ><div class = red_square id = topsquare></div>",null,encoding,word_square,,,0,topsquare,none,true,,,LION,6,,,
html-keyboard-response,913,5515041,null,"<div style=""font-size:42px;"">LION</div>",null,,word,LION,,,,,,,,,,,,
html-keyboard-response,914,5516544,null,"",null,,word,LION,,,,,,,,,,,,
html-keyboard-response,915,5516748,null,"<div style=""font-size:42px;"">GLASSES</div><img id = ""stim"" ><div class = red_square id = bottomsquare></div>",null,encoding,word_square,,,0,bottomsquare,none,true,,,GLASSES,6,,,
html-keyboard-response,916,5517055,null,"<div style=""font-size:42px;"">GLASSES</div>",null,,word,GLASSES,,,,,,,,,,,,
html-keyboard-response,917,5518557,null,"",null,,word,GLASSES,,,,,,,,,,,,
html-keyboard-response,918,5518763,null,"<div style=""font-size:42px;"">SUITCASE</div><img id = ""stim"" ><div class = green_square id = topsquare></div>",null,encoding,word_square,,,1,topsquare,32,true,,,SUITCASE,6,,,
html-keyboard-response,919,5519069,120.5,"<div style=""font-size:42px;"">SUITCASE</div>",32,,word,SUITCASE,,,,,,,,,,,,
html-keyboard-response,920,5520571,null,"",null,,word,SUITCASE,,,,,,,,,,,,
html-keyboard-response,921,5520776,null,"<div style=""font-size:42px;"">PANTHER</div><img id = ""stim"" ><div class = green_square id = bottomsquare></div>",null,encoding,word_square,,,1,bottomsquare,32,true,,,PANTHER,6,,,
html-keyboard-response,922,5521082,219.70000004768372,"<div style=""font-size:42px;"">PANTHER</div>",32,,word,PANTHER,,,,,,,,,,,,
html-keyboard-response,923,5522584,null,"",null,,word,PANTHER,,,,,,,,,,,,
html-keyboard-response,924,5522790,null,"<div style=""font-size:42px;"">MAPLE</div><img id = ""stim"" ><div class = red_square id = topsquare></div>",null,encoding,word_square,,,0,topsquare,none,true,,,MAPLE,6,,,
html-keyboard-response,925,5523095,null,"<div style=""font-size:42px;"">MAPLE</div>",null,,word,MAPLE,,,,,,,,,,,,
html-keyboard-response,926,5524598,null,"",null,,word,MAPLE,,,,,,,,,,,,
html-keyboard-response,927,5524804,null,"<div style=""font-size:42px;"">PATIENT</div><img id = ""stim"" ><div class = red_square id = bottomsquare></div>",null,encoding,word_square,,,0,bottomsquare,none,true,,,PATIENT,6,,,
html-keyboard-response,928,5525110,null,"<div style=""font-size:42px;"">PATIENT</div>",null,,word,PATIENT,,,,,,,,,,,,
html-keyboard-response,929,5526613,null,"",null,,word,PATIENT,,,,,,,,,,,,
html-keyboard-response,930,5526819,null,"<div style=""font-size:42px;"">VIRUS</div><img id = ""stim"" ><div class = green_square id = topsquare></div>",null,encoding,word_square,,,1,topsquare,32,true,,,VIRUS,6,,,
html-keyboard-response,931,5527121,195,"<div style=""font-size:42px;"">VIRUS</div>",32,,word,VIRUS,,,,,,,,,,,,
html-keyboard-response,932,5528625,117,"",32,,word,VIRUS,,,,,,,,,,,,
html-keyboard-response,933,5528829,null,"<div style=""font-size:42px;"">BEDROOM</div><img id = ""stim"" ><div class = red_square id = topsquare></div>",null,encoding,word_square,,,0,topsquare,none,true,,,BEDROOM,6,,,
html-keyboard-response,934,5529132,null,"<div style=""font-size:42px;"">BEDROOM</div>",null,,word,BEDROOM,,,,,,,,,,,,
html-keyboard-response,935,5530635,null,"",null,,word,BEDROOM,,,,,,,,,,,,
html-keyboard-response,936,5530840,null,"<div style=""font-size:42px;"">LUGGAGE</div><img id = ""stim"" ><div class = green_square id = bottomsquare></div>",null,encoding,word_square,,,1,bottomsquare,32,true,,,LUGGAGE,6,,,
html-keyboard-response,937,5531143,211.4000000357628,"<div style=""font-size:42px;"">LUGGAGE</div>",32,,word,LUGGAGE,,,,,,,,,,,,
html-keyboard-response,938,5532648,null,"",null,,word,LUGGAGE,,,,,,,,,,,,
html-keyboard-response,939,5532853,null,"<div style=""font-size:42px;"">BRUNETTE</div><img id = ""stim"" ><div class = green_square id = topsquare></div>",null,encoding,word_square,,,1,topsquare,32,true,,,BRUNETTE,6,,,
html-keyboard-response,940,5533158,260.5,"<div style=""font-size:42px;"">BRUNETTE</div>",32,,word,BRUNETTE,,,,,,,,,,,,
html-keyboard-response,941,5534661,null,"",null,,word,BRUNETTE,,,,,,,,,,,,
html-keyboard-response,942,5534865,null,"<div style=""font-size:42px;"">SNOB</div><img id = ""stim"" ><div class = red_square id = bottomsquare></div>",null,encoding,word_square,,,0,bottomsquare,none,true,,,SNOB,6,,,
html-keyboard-response,943,5535171,null,"<div style=""font-size:42px;"">SNOB</div>",null,,word,SNOB,,,,,,,,,,,,
html-keyboard-response,944,5536674,null,"",null,,word,SNOB,,,,,,,,,,,,
html-keyboard-response,945,5536881,null,"<div style=""font-size:42px;"">VICTIM</div><img id = ""stim"" ><div class = green_square id = bottomsquare></div>",null,encoding,word_square,,,1,bottomsquare,32,true,,,VICTIM,6,,,
html-keyboard-response,946,5537187,264,"<div style=""font-size:42px;"">VICTIM</div>",32,,word,VICTIM,,,,,,,,,,,,
html-keyboard-response,947,5538690,null,"",null,,word,VICTIM,,,,,,,,,,,,
html-keyboard-response,948,5538893,null,"<div style=""font-size:42px;"">SWORD</div><img id = ""stim"" ><div class = red_square id = topsquare></div>",null,encoding,word_square,,,0,topsquare,none,true,,,SWORD,6,,,
html-keyboard-response,949,5539198,null,"<div style=""font-size:42px;"">SWORD</div>",null,,word,SWORD,,,,,,,,,,,,
html-keyboard-response,950,5540700,null,"",null,,word,SWORD,,,,,,,,,,,,
call-function,951,5540701,,"",,,,,,,,,,,,,,,,
html-keyboard-response,952,5540806,null,"",null,,,,,,,,,,,,,,,
math-period,953,5542874,3283.399999976158,"",,,,,,,,,,,4,,,,,
html-keyboard-response,954,5542976,null,"",null,,,,,,,,,,,,,,,
math-period,955,5545015,2995.800000011921,"",,,,,,,,,,,3,,,,,
html-keyboard-response,956,5545117,null,"",null,,,,,,,,,,,,,,,
math-period,957,5547970,5044.600000023842,"",,,,,,,,,,,2,,,,,
html-keyboard-response,958,5548071,null,"",null,,,,,,,,,,,,,,,
math-period,959,5549234,2186.7000000476837,"",,,,,,,,,,,1,,,,,
html-keyboard-response,960,5549336,null,"",null,,,,,,,,,,,,,,,
math-period,961,5550144,1553.1999999284744,"",,,,,,,,,,,3,,,,,
html-keyboard-response,962,5550250,null,"",null,,,,,,,,,,,,,,,
math-period,963,5551327,2007.8000000715256,"",,,,,,,,,,,1,,,,,
html-keyboard-response,964,5551430,null,"",null,,,,,,,,,,,,,,,
math-period,965,5552328,1678.3000000715256,"",,,,,,,,,,,3,,,,,
html-keyboard-response,966,5552433,null,"",null,,,,,,,,,,,,,,,
math-period,967,5553827,2657.899999976158,"",,,,,,,,,,,1,,,,,
html-keyboard-response,968,5553930,null,"",null,,,,,,,,,,,,,,,
math-period,969,5554888,1828.4999999403954,"",,,,,,,,,,,4,,,,,
html-keyboard-response,970,5554993,null,"",null,,,,,,,,,,,,,,,
math-period,971,5556051,1994.9999999403954,"",,,,,,,,,,,2,,,,,
html-keyboard-response,972,5556153,null,"",null,,,,,,,,,,,,,,,
math-period,973,5557596,2560.3999999165535,"",,,,,,,,,,,5,,,,,
html-keyboard-response,974,5557697,null,"",null,,,,,,,,,,,,,,,
math-period,975,5558528,1605.5999999642372,"",,,,,,,,,,,3,,,,,
html-keyboard-response,976,5558631,null,"",null,,,,,,,,,,,,,,,
math-period,977,5560656,4011.5,"",,,,,,,,,,,3,,,,,
html-keyboard-response,978,5560759,null,"",null,,,,,,,,,,,,,,,
math-period,979,5561618,1642.4000000357628,"",,,,,,,,,,,3,,,,,
html-keyboard-response,980,5561720,null,"",null,,,,,,,,,,,,,,,
math-period,981,5562888,2103.900000035763,"",,,,,,,,,,,2,,,,,
html-keyboard-response,982,5562993,null,"",null,,,,,,,,,,,,,,,
math-period,983,5564310,2552.2999999523163,"",,,,,,,,,,,2,,,,,
html-keyboard-response,984,5564413,null,"",null,,,,,,,,,,,,,,,
math-period,985,5564705,null,"",,,,,,,,,,,,,,,,
html-keyboard-response,986,5565709,null,"Recall Period!",null,,,,,,,,,,,,,,,
call-function,987,5565710,,"",,,,,,,,,,,,,,,,
html-keyboard-response,988,5565815,null,"",null,,,,,,,,,,,,,,,
recall-period,989,5568149,11383.5,"",,,,,,,,,,,heart,,,,,
html-keyboard-response,990,5568256,null,"",null,,,,,,,,,,,,,,,
recall-period,991,5570088,9086.199999988079,"",,,,,,,,,,,patient,,,,,
html-keyboard-response,992,5570190,null,"",null,,,,,,,,,,,,,,,
recall-period,993,5573330,25271.100000023842,"",,,,,,,,,,,transplant,,,,,
html-keyboard-response,994,5573432,null,"",null,,,,,,,,,,,,,,,
recall-period,995,5574739,3408.5999999046326,"",,,,,,,,,,,snob,,,,,
html-keyboard-response,996,5574840,null,"",null,,,,,,,,,,,,,,,
recall-period,997,5577253,12662.100000202656,"",,,,,,,,,,,victim,,,,,
html-keyboard-response,998,5577355,null,"",null,,,,,,,,,,,,,,,
recall-period,999,5587801,103243.7000002861,"",,,,,,,,,,,transplant,,,,,
html-keyboard-response,1000,5587903,null,"",null,,,,,,,,,,,,,,,
recall-period,1001,5588795,2090.699999988079,"",,,,,,,,,,,slug,,,,,
