trial_type,trial_index,time_elapsed,rt,stimulus,key_press,exp_phase,test_part,word,task,targ_cond,sq_pos,correctKeyCode,correct,value,response,Word,List,RecResp,serial_pos,colorChosen
pavlovia,0,2702,,"",,,,,,,,,,,,,,,,
external-html,1,12277,9420,"",,,,,,,,,,,,,,,,
html-keyboard-response,2,15241,2945.0999999996275,"Welcome to the experiment. Press any key to begin.",72,,,,,,,,,,,,,,,
html-keyboard-response,3,28287,13035.60000000149,"<p>You will see a list of words and colored squares in the following task.<p><p>Press the spacebar whenever you see a GREEN square.<p><p>Do not press a key if the square is RED.<p><p>Press the spacebar to continue.</p>",32,,,,,,,,,,,,,,,
html-keyboard-response,4,41803,13006.299999998882,"<p>Please try to remember as many of the words as you can, and try to think about the meaning of each word as it appears.<p><p>After the detection and encoding task you will be asked to solve some math problems for 24 seconds.<p> Please solve as many problems as you can in the time given. <p><p><p>Press the spacebar to continue.</p>",32,,,,,,,,,,,,,,,
html-keyboard-response,5,54793,12484.099999999627,"After solving the math problems, you will be asked to type in as many words <p>from the previous list as you can remember for 75 seconds.<p> If you finish recalling before the 75 seconds are up,<p> just sit tight and try to think of any more words you could have missed. <p><p><p>Press the spacebar to continue.</p>",32,,,,,,,,,,,,,,,
html-keyboard-response,6,63120,7817.800000000745,"There will be 16 lists of words and recall, followed  by<p><p> a recognition phase. The experiment is expected to take up to 90 minutes.<p>We will begin with a brief practice session.<p>Press the spacebar to begin the practice.</p>",32,,,,,,,,,,,,,,,
html-keyboard-response,7,65625,null,"<div style=""font-size:60px;"">+</div>",null,,,,,,,,,,,,,,,
html-keyboard-response,8,65831,null,"<div style=""font-size:42px;"">HAPPY</div><img id = ""stim"" ><div class = red_square id = ""bottomsquare"" ></div>",null,practice,word_square,HAPPY,prac_response,0,Bottom,none,true,,,,,,,
html-keyboard-response,9,66152,null,"<div style=""font-size:42px;"">HAPPY</div>",null,,word,HAPPY,,,,,,,,,,,,
html-keyboard-response,10,67657,null,"",null,,word,HAPPY,,,,,,,,,,,,
html-keyboard-response,11,67863,null,"<div style=""font-size:42px;"">COLD</div><img id = ""stim"" ><div class = green_square id = ""bottomsquare"" ></div>",null,practice,word_square,COLD,prac_response,1,Bottom,32,true,,,,,,,
html-keyboard-response,12,68167,157.19999999925494,"<div style=""font-size:42px;"">COLD</div>",32,,word,COLD,,,,,,,,,,,,
html-keyboard-response,13,69672,null,"",null,,word,COLD,,,,,,,,,,,,
html-keyboard-response,14,69878,null,"<div style=""font-size:42px;"">HEAVY</div><img id = ""stim"" ><div class = green_square id = ""topsquare"" ></div>",null,practice,word_square,HEAVY,prac_response,1,Top,32,true,,,,,,,
html-keyboard-response,15,70184,264.30000000074506,"<div style=""font-size:42px;"">HEAVY</div>",32,,word,HEAVY,,,,,,,,,,,,
html-keyboard-response,16,71691,null,"",null,,word,HEAVY,,,,,,,,,,,,
html-keyboard-response,17,71895,null,"<div style=""font-size:42px;"">FUNNY</div><img id = ""stim"" ><div class = red_square id = ""topsquare"" ></div>",null,practice,word_square,FUNNY,prac_response,0,Top,none,true,,,,,,,
html-keyboard-response,18,72200,null,"<div style=""font-size:42px;"">FUNNY</div>",null,,word,FUNNY,,,,,,,,,,,,
html-keyboard-response,19,73704,null,"",null,,word,FUNNY,,,,,,,,,,,,
html-keyboard-response,20,73909,null,"<div style=""font-size:42px;"">SCARY</div><img id = ""stim"" ><div class = green_square id = ""bottomsquare"" ></div>",null,practice,word_square,SCARY,prac_response,1,Bottom,32,true,,,,,,,
html-keyboard-response,21,74214,238.5,"<div style=""font-size:42px;"">SCARY</div>",32,,word,SCARY,,,,,,,,,,,,
html-keyboard-response,22,75719,null,"",null,,word,SCARY,,,,,,,,,,,,
html-keyboard-response,23,75924,null,"<div style=""font-size:42px;"">PEACEFUL</div><img id = ""stim"" ><div class = green_square id = ""topsquare"" ></div>",null,practice,word_square,PEACEFUL,prac_response,1,Top,32,true,,,,,,,
html-keyboard-response,24,76230,177.2999999988824,"<div style=""font-size:42px;"">PEACEFUL</div>",32,,word,PEACEFUL,,,,,,,,,,,,
html-keyboard-response,25,77735,null,"",null,,word,PEACEFUL,,,,,,,,,,,,
html-keyboard-response,26,77940,null,"<div style=""font-size:42px;"">LITTLE</div><img id = ""stim"" ><div class = red_square id = ""bottomsquare"" ></div>",null,practice,word_square,LITTLE,prac_response,0,Bottom,none,true,,,,,,,
html-keyboard-response,27,78246,null,"<div style=""font-size:42px;"">LITTLE</div>",null,,word,LITTLE,,,,,,,,,,,,
html-keyboard-response,28,79751,null,"",null,,word,LITTLE,,,,,,,,,,,,
html-keyboard-response,29,79956,null,"<div style=""font-size:42px;"">TIRED</div><img id = ""stim"" ><div class = red_square id = ""topsquare"" ></div>",null,practice,word_square,TIRED,prac_response,0,Top,none,false,,,,,,,
html-keyboard-response,30,80262,204.2000000011176,"<div style=""font-size:42px;"">TIRED</div>",32,,word,TIRED,,,,,,,,,,,,
html-keyboard-response,31,81769,null,"",null,,word,TIRED,,,,,,,,,,,,
html-keyboard-response,32,81973,null,"<div style=""font-size:42px;"">ENTERTAINING</div><img id = ""stim"" ><div class = red_square id = ""bottomsquare"" ></div>",null,practice,word_square,ENTERTAINING,prac_response,0,Bottom,none,true,,,,,,,
html-keyboard-response,33,82282,null,"<div style=""font-size:42px;"">ENTERTAINING</div>",null,,word,ENTERTAINING,,,,,,,,,,,,
html-keyboard-response,34,83790,null,"",null,,word,ENTERTAINING,,,,,,,,,,,,
html-keyboard-response,35,83994,null,"<div style=""font-size:42px;"">GRATEFUL</div><img id = ""stim"" ><div class = green_square id = ""bottomsquare"" ></div>",null,practice,word_square,GRATEFUL,prac_response,1,Bottom,32,true,,,,,,,
html-keyboard-response,36,84299,148.69999999925494,"<div style=""font-size:42px;"">GRATEFUL</div>",32,,word,GRATEFUL,,,,,,,,,,,,
html-keyboard-response,37,85805,null,"",null,,word,GRATEFUL,,,,,,,,,,,,
html-keyboard-response,38,86009,null,"<div style=""font-size:42px;"">LOUD</div><img id = ""stim"" ><div class = red_square id = ""topsquare"" ></div>",null,practice,word_square,LOUD,prac_response,0,Top,none,true,,,,,,,
html-keyboard-response,39,86317,null,"<div style=""font-size:42px;"">LOUD</div>",null,,word,LOUD,,,,,,,,,,,,
html-keyboard-response,40,87825,null,"",null,,word,LOUD,,,,,,,,,,,,
html-keyboard-response,41,88029,null,"<div style=""font-size:42px;"">SMART</div><img id = ""stim"" ><div class = green_square id = ""topsquare"" ></div>",null,practice,word_square,SMART,prac_response,1,Top,32,true,,,,,,,
html-keyboard-response,42,88336,138.90000000037253,"<div style=""font-size:42px;"">SMART</div>",32,,word,SMART,,,,,,,,,,,,
html-keyboard-response,43,89842,null,"",null,,word,SMART,,,,,,,,,,,,
html-keyboard-response,44,90048,null,"<div style=""font-size:42px;"">SMOOTH</div><img id = ""stim"" ><div class = green_square id = ""bottomsquare"" ></div>",null,practice,word_square,SMOOTH,prac_response,1,Bottom,32,true,,,,,,,
html-keyboard-response,45,90356,175.5,"<div style=""font-size:42px;"">SMOOTH</div>",32,,word,SMOOTH,,,,,,,,,,,,
html-keyboard-response,46,91865,null,"",null,,word,SMOOTH,,,,,,,,,,,,
html-keyboard-response,47,92070,null,"<div style=""font-size:42px;"">DISHONEST</div><img id = ""stim"" ><div class = red_square id = ""bottomsquare"" ></div>",null,practice,word_square,DISHONEST,prac_response,0,Bottom,none,true,,,,,,,
html-keyboard-response,48,92374,null,"<div style=""font-size:42px;"">DISHONEST</div>",null,,word,DISHONEST,,,,,,,,,,,,
html-keyboard-response,49,93879,null,"",null,,word,DISHONEST,,,,,,,,,,,,
html-keyboard-response,50,94084,null,"<div style=""font-size:42px;"">WEALTHY</div><img id = ""stim"" ><div class = green_square id = ""topsquare"" ></div>",null,practice,word_square,WEALTHY,prac_response,1,Top,32,true,,,,,,,
html-keyboard-response,51,94392,210.90000000037253,"<div style=""font-size:42px;"">WEALTHY</div>",32,,word,WEALTHY,,,,,,,,,,,,
html-keyboard-response,52,95898,null,"",null,,word,WEALTHY,,,,,,,,,,,,
html-keyboard-response,53,96102,null,"<div style=""font-size:42px;"">BEAUTIFUL</div><img id = ""stim"" ><div class = red_square id = ""topsquare"" ></div>",null,practice,word_square,BEAUTIFUL,prac_response,0,Top,none,true,,,,,,,
html-keyboard-response,54,96410,null,"<div style=""font-size:42px;"">BEAUTIFUL</div>",null,,word,BEAUTIFUL,,,,,,,,,,,,
html-keyboard-response,55,97916,null,"",null,,word,BEAUTIFUL,,,,,,,,,,,,
html-keyboard-response,56,106160,8237.699999999255,"<p> Good job! You responded correctly to 94% of the trials. </p>
                  <p>Be sure to only press the spacebar if you see a GREEN square, and please keep your accuracy above 80%.</p>
                  <p>We're going to try once more to make sure you understand the task. press any key to continue. </p>",32,,,,,,,,,,,,,,,
html-keyboard-response,57,108310,2144.9000000003725,"<p>You will see a list of words and colored squares in the following task.<p><p>Press the spacebar whenever you see a GREEN square.<p><p>Do not press a key if the square is RED<p><p>Press the spacebar to continue.</p>",32,,,,,,,,,,,,,,,
html-keyboard-response,58,110818,null,"<div style=""font-size:60px;"">+</div>",null,,,,,,,,,,,,,,,
html-keyboard-response,59,111025,null,"<div style=""font-size:42px;"">HAPPY</div><img id = ""stim"" ><div class = red_square id = ""bottomsquare"" ></div>",null,practice2,word_square,HAPPY,prac_response,0,Bottom,none,true,,,,,,,
html-keyboard-response,60,111333,null,"<div style=""font-size:42px;"">HAPPY</div>",null,,word,HAPPY,,,,,,,,,,,,
html-keyboard-response,61,112842,null,"",null,,word,HAPPY,,,,,,,,,,,,
html-keyboard-response,62,113052,null,"<div style=""font-size:42px;"">COLD</div><img id = ""stim"" ><div class = green_square id = ""bottomsquare"" ></div>",null,practice2,word_square,,prac_response,1,Bottom,32,true,,,,,,,
html-keyboard-response,63,113360,null,"<div style=""font-size:42px;"">COLD</div>",null,,word,COLD,,,,,,,,,,,,
html-keyboard-response,64,114870,0.900000000372529,"",32,,word,COLD,,,,,,,,,,,,
html-keyboard-response,65,115078,null,"<div style=""font-size:42px;"">HEAVY</div><img id = ""stim"" ><div class = green_square id = ""topsquare"" ></div>",null,practice2,word_square,,prac_response,1,Top,32,true,,,,,,,
html-keyboard-response,66,115388,150.10000000149012,"<div style=""font-size:42px;"">HEAVY</div>",32,,word,HEAVY,,,,,,,,,,,,
html-keyboard-response,67,116904,null,"",null,,word,HEAVY,,,,,,,,,,,,
html-keyboard-response,68,117111,null,"<div style=""font-size:42px;"">FUNNY</div><img id = ""stim"" ><div class = red_square id = ""topsquare"" ></div>",null,practice2,word_square,,prac_response,0,Top,none,true,,,,,,,
html-keyboard-response,69,117416,null,"<div style=""font-size:42px;"">FUNNY</div>",null,,word,FUNNY,,,,,,,,,,,,
html-keyboard-response,70,118920,null,"",null,,word,FUNNY,,,,,,,,,,,,
html-keyboard-response,71,119125,null,"<div style=""font-size:42px;"">SCARY</div><img id = ""stim"" ><div class = green_square id = ""bottomsquare"" ></div>",null,practice2,word_square,,prac_response,1,Bottom,32,true,,,,,,,
html-keyboard-response,72,119430,105.5,"<div style=""font-size:42px;"">SCARY</div>",32,,word,SCARY,,,,,,,,,,,,
html-keyboard-response,73,120936,null,"",null,,word,SCARY,,,,,,,,,,,,
html-keyboard-response,74,121143,null,"<div style=""font-size:42px;"">PEACEFUL</div><img id = ""stim"" ><div class = green_square id = ""topsquare"" ></div>",null,practice2,word_square,,prac_response,1,Top,32,true,,,,,,,
html-keyboard-response,75,121452,175.40000000037253,"<div style=""font-size:42px;"">PEACEFUL</div>",32,,word,PEACEFUL,,,,,,,,,,,,
html-keyboard-response,76,122956,null,"",null,,word,PEACEFUL,,,,,,,,,,,,
html-keyboard-response,77,123163,null,"<div style=""font-size:42px;"">LITTLE</div><img id = ""stim"" ><div class = red_square id = ""bottomsquare"" ></div>",null,practice2,word_square,LITTLE,prac_response,0,Bottom,none,true,,,,,,,
html-keyboard-response,78,123473,null,"<div style=""font-size:42px;"">LITTLE</div>",null,,word,LITTLE,,,,,,,,,,,,
html-keyboard-response,79,124977,null,"",null,,word,LITTLE,,,,,,,,,,,,
html-keyboard-response,80,125184,null,"<div style=""font-size:42px;"">TIRED</div><img id = ""stim"" ><div class = red_square id = ""topsquare"" ></div>",null,practice2,word_square,,prac_response,0,Top,none,true,,,,,,,
html-keyboard-response,81,125490,null,"<div style=""font-size:42px;"">TIRED</div>",null,,word,TIRED,,,,,,,,,,,,
html-keyboard-response,82,126997,null,"",null,,word,TIRED,,,,,,,,,,,,
html-keyboard-response,83,127205,null,"<div style=""font-size:42px;"">ENTERTAINING</div><img id = ""stim"" ><div class = red_square id = ""bottomsquare"" ></div>",null,practice2,word_square,ENTERTAINING,prac_response,0,Bottom,none,true,,,,,,,
html-keyboard-response,84,127512,null,"<div style=""font-size:42px;"">ENTERTAINING</div>",null,,word,ENTERTAINING,,,,,,,,,,,,
html-keyboard-response,85,129018,null,"",null,,word,ENTERTAINING,,,,,,,,,,,,
html-keyboard-response,86,129223,null,"<div style=""font-size:42px;"">GRATEFUL</div><img id = ""stim"" ><div class = green_square id = ""bottomsquare"" ></div>",null,practice2,word_square,,prac_response,1,Bottom,32,true,,,,,,,
html-keyboard-response,87,129527,145.59999999962747,"<div style=""font-size:42px;"">GRATEFUL</div>",32,,word,GRATEFUL,,,,,,,,,,,,
html-keyboard-response,88,131034,null,"",null,,word,GRATEFUL,,,,,,,,,,,,
html-keyboard-response,89,131243,null,"<div style=""font-size:42px;"">LOUD</div><img id = ""stim"" ><div class = red_square id = ""topsquare"" ></div>",null,practice2,word_square,,prac_response,0,Top,none,true,,,,,,,
html-keyboard-response,90,131548,null,"<div style=""font-size:42px;"">LOUD</div>",null,,word,LOUD,,,,,,,,,,,,
html-keyboard-response,91,133054,null,"",null,,word,LOUD,,,,,,,,,,,,
html-keyboard-response,92,133262,null,"<div style=""font-size:42px;"">SMART</div><img id = ""stim"" ><div class = green_square id = ""topsquare"" ></div>",null,practice2,word_square,,prac_response,1,Top,32,true,,,,,,,
html-keyboard-response,93,133570,98.70000000111759,"<div style=""font-size:42px;"">SMART</div>",32,,word,SMART,,,,,,,,,,,,
html-keyboard-response,94,135077,null,"",null,,word,SMART,,,,,,,,,,,,
html-keyboard-response,95,135283,null,"<div style=""font-size:42px;"">SMOOTH</div><img id = ""stim"" ><div class = green_square id = ""bottomsquare"" ></div>",null,practice2,word_square,,prac_response,1,Bottom,32,true,,,,,,,
html-keyboard-response,96,135588,104.09999999962747,"<div style=""font-size:42px;"">SMOOTH</div>",32,,word,SMOOTH,,,,,,,,,,,,
html-keyboard-response,97,137093,null,"",null,,word,SMOOTH,,,,,,,,,,,,
html-keyboard-response,98,137297,null,"<div style=""font-size:42px;"">DISHONEST</div><img id = ""stim"" ><div class = red_square id = ""bottomsquare"" ></div>",null,practice2,word_square,DISHONEST,prac_response,0,Bottom,none,true,,,,,,,
html-keyboard-response,99,137606,null,"<div style=""font-size:42px;"">DISHONEST</div>",null,,word,DISHONEST,,,,,,,,,,,,
html-keyboard-response,100,139114,null,"",null,,word,DISHONEST,,,,,,,,,,,,
html-keyboard-response,101,139320,null,"<div style=""font-size:42px;"">WEALTHY</div><img id = ""stim"" ><div class = green_square id = ""topsquare"" ></div>",null,practice2,word_square,,prac_response,1,Top,32,true,,,,,,,
html-keyboard-response,102,139625,82.69999999925494,"<div style=""font-size:42px;"">WEALTHY</div>",32,,word,WEALTHY,,,,,,,,,,,,
html-keyboard-response,103,141130,null,"",null,,word,WEALTHY,,,,,,,,,,,,
html-keyboard-response,104,141337,null,"<div style=""font-size:42px;"">BEAUTIFUL</div><img id = ""stim"" ><div class = red_square id = ""topsquare"" ></div>",null,practice2,word_square,,prac_response,0,Top,none,false,,,,,,,
html-keyboard-response,105,141644,null,"<div style=""font-size:42px;"">BEAUTIFUL</div>",null,,word,BEAUTIFUL,,,,,,,,,,,,
html-keyboard-response,106,143153,null,"",null,,word,BEAUTIFUL,,,,,,,,,,,,
html-keyboard-response,107,147236,4074.5999999996275,"<p> Good job! You responded correctly to 100% of the trials. </p>
                    <p>Be sure to only press the spacebar if you see a GREEN square, and please keep your accuracy above 80%.</p>
                    <p>Press any key to begin the math and recall sections. Thank you! </p>",32,,,,,,,,,,,,,,,
call-function,108,147240,,"",,,,,,,,,,,,,,,,
html-keyboard-response,109,147348,null,"",null,,,,,,,,,,,,,,,
math-period,110,151477,7260.39999999851,"",,,,,,,,,,,4,,,,,
html-keyboard-response,111,151588,null,"",null,,,,,,,,,,,,,,,
math-period,112,155605,7586.10000000149,"",,,,,,,,,,,2,,,,,
html-keyboard-response,113,155710,null,"",null,,,,,,,,,,,,,,,
math-period,114,158800,5573.299999998882,"",,,,,,,,,,,3,,,,,
html-keyboard-response,115,158906,null,"",null,,,,,,,,,,,,,,,
math-period,116,161596,4817.4000000003725,"",,,,,,,,,,,4,,,,,
html-keyboard-response,117,161700,null,"",null,,,,,,,,,,,,,,,
math-period,118,163873,3744.099999997765,"",,,,,,,,,,,6,,,,,
html-keyboard-response,119,163978,null,"",null,,,,,,,,,,,,,,,
math-period,120,165665,2916.89999999851,"",,,,,,,,,,,3,,,,,
html-keyboard-response,121,165770,null,"",null,,,,,,,,,,,,,,,
math-period,122,167770,3492.800000000745,"",,,,,,,,,,,2,,,,,
html-keyboard-response,123,167875,null,"",null,,,,,,,,,,,,,,,
math-period,124,169519,2904,"",,,,,,,,,,,3,,,,,
html-keyboard-response,125,169624,null,"",null,,,,,,,,,,,,,,,
math-period,126,171166,2679.0999999996275,"",,,,,,,,,,,3,,,,,
html-keyboard-response,127,171272,null,"",null,,,,,,,,,,,,,,,
math-period,128,171278,null,"",,,,,,,,,,,,,,,,
html-keyboard-response,129,172282,null,"Recall Period!",null,,,,,,,,,,,,,,,
call-function,130,172286,,"",,,,,,,,,,,,,,,,
html-keyboard-response,131,172392,null,"",null,,,,,,,,,,,,,,,
recall-period,132,175294,14357.399999996647,"",,,,,,,,,,,happy,,,,,
html-keyboard-response,133,175398,null,"",null,,,,,,,,,,,,,,,
recall-period,134,178926,26770.800000002608,"",,,,,,,,,,,beautiful,,,,,
html-keyboard-response,135,179035,null,"",null,,,,,,,,,,,,,,,
recall-period,136,180354,4391.699999997392,"",,,,,,,,,,,smart,,,,,
html-keyboard-response,137,180461,null,"",null,,,,,,,,,,,,,,,
recall-period,138,182589,6508.300000002608,"",,,,,,,,,,,wealthy,,,,,
html-keyboard-response,139,182696,null,"",null,,,,,,,,,,,,,,,
recall-period,140,188304,42783.10000000708,"",,,,,,,,,,,grateful,,,,,
html-keyboard-response,141,188413,null,"",null,,,,,,,,,,,,,,,
recall-period,142,190756,11044.800000000745,"",,,,,,,,,,,smooth,,,,,
html-keyboard-response,143,190865,null,"",null,,,,,,,,,,,,,,,
recall-period,144,194183,14280,"",,,,,,,,,,,cold,,,,,
html-keyboard-response,145,194287,null,"",null,,,,,,,,,,,,,,,
recall-period,146,210110,164546.89999999106,"",,,,,,,,,,,entertaining,,,,,
html-keyboard-response,147,210215,null,"",null,,,,,,,,,,,,,,,
recall-period,148,217946,67528.80000000075,"",,,,,,,,,,,dishonest,,,,,
html-keyboard-response,149,218050,null,"",null,,,,,,,,,,,,,,,
recall-period,150,224288,47958,"",,,,,,,,,,,peaceful,,,,,
html-keyboard-response,151,224395,null,"",null,,,,,,,,,,,,,,,
recall-period,152,247290,null,"",,,,,,,,,,,,,,,,
html-keyboard-response,153,247798,null,"Time's Up!",null,,,,,,,,,,,,,,,
html-keyboard-response,154,252490,4685.799999998882,"<p>We will now begin the experiment!<p><p>Please try to remember all words from each list.<p><p>Press the spacebar whenever you see a GREEN square.<p><p><p><p>Press the spacebar to begin.</p>",32,,,,,,,,,,,,,,,
html-keyboard-response,155,255900,2905.9000000003725,"<div style=""font-size:48px;"">Press any key to begin list 1 of 16 </div>",32,,,,,,,,,,,,,,,
html-keyboard-response,156,258404,null,"<div style=""font-size:60px;"">+</div>",null,,,,,,,,,,,,,,,
html-keyboard-response,157,258611,null,"<div style=""font-size:42px;"">PIRATE</div><img id = ""stim"" ><div class = green_square id = topsquare></div>",null,encoding,word_square,,,1,topsquare,32,true,,,PIRATE,0,,,
html-keyboard-response,158,258918,144.59999999962747,"<div style=""font-size:42px;"">PIRATE</div>",32,,word,PIRATE,,,,,,,,,,,,
html-keyboard-response,159,260430,null,"",null,,word,PIRATE,,,,,,,,,,,,
html-keyboard-response,160,260637,null,"<div style=""font-size:42px;"">SHELTER</div><img id = ""stim"" ><div class = red_square id = bottomsquare></div>",null,encoding,word_square,,,0,bottomsquare,none,true,,,SHELTER,0,,,
html-keyboard-response,161,260942,138.5,"<div style=""font-size:42px;"">SHELTER</div>",32,,word,SHELTER,,,,,,,,,,,,
html-keyboard-response,162,262451,null,"",null,,word,SHELTER,,,,,,,,,,,,
html-keyboard-response,163,262660,null,"<div style=""font-size:42px;"">WOLF</div><img id = ""stim"" ><div class = red_square id = topsquare></div>",null,encoding,word_square,,,0,topsquare,none,true,,,WOLF,0,,,
html-keyboard-response,164,262966,null,"<div style=""font-size:42px;"">WOLF</div>",null,,word,WOLF,,,,,,,,,,,,
html-keyboard-response,165,264472,null,"",null,,word,WOLF,,,,,,,,,,,,
html-keyboard-response,166,264678,null,"<div style=""font-size:42px;"">CLOUD</div><img id = ""stim"" ><div class = green_square id = bottomsquare></div>",null,encoding,word_square,,,1,bottomsquare,32,true,,,CLOUD,0,,,
html-keyboard-response,167,264986,142.59999999962747,"<div style=""font-size:42px;"">CLOUD</div>",32,,word,CLOUD,,,,,,,,,,,,
html-keyboard-response,168,266491,null,"",null,,word,CLOUD,,,,,,,,,,,,
html-keyboard-response,169,266696,null,"<div style=""font-size:42px;"">COMET</div><img id = ""stim"" ><div class = red_square id = bottomsquare></div>",null,encoding,word_square,,,0,bottomsquare,none,true,,,COMET,0,,,
html-keyboard-response,170,267002,null,"<div style=""font-size:42px;"">COMET</div>",null,,word,COMET,,,,,,,,,,,,
html-keyboard-response,171,268509,null,"",null,,word,COMET,,,,,,,,,,,,
html-keyboard-response,172,268714,null,"<div style=""font-size:42px;"">JAR</div><img id = ""stim"" ><div class = green_square id = topsquare></div>",null,encoding,word_square,,,1,topsquare,32,true,,,JAR,0,,,
html-keyboard-response,173,269018,163.40000000037253,"<div style=""font-size:42px;"">JAR</div>",32,,word,JAR,,,,,,,,,,,,
html-keyboard-response,174,270523,null,"",null,,word,JAR,,,,,,,,,,,,
html-keyboard-response,175,270728,null,"<div style=""font-size:42px;"">BEAVER</div><img id = ""stim"" ><div class = red_square id = topsquare></div>",null,encoding,word_square,,,0,topsquare,none,true,,,BEAVER,0,,,
html-keyboard-response,176,271034,null,"<div style=""font-size:42px;"">BEAVER</div>",null,,word,BEAVER,,,,,,,,,,,,
html-keyboard-response,177,272541,null,"",null,,word,BEAVER,,,,,,,,,,,,
html-keyboard-response,178,272751,null,"<div style=""font-size:42px;"">WASHER</div><img id = ""stim"" ><div class = red_square id = bottomsquare></div>",null,encoding,word_square,,,0,bottomsquare,none,true,,,WASHER,0,,,
html-keyboard-response,179,273062,null,"<div style=""font-size:42px;"">WASHER</div>",null,,word,WASHER,,,,,,,,,,,,
html-keyboard-response,180,274571,null,"",null,,word,WASHER,,,,,,,,,,,,
html-keyboard-response,181,274782,null,"<div style=""font-size:42px;"">SWAMP</div><img id = ""stim"" ><div class = green_square id = bottomsquare></div>",null,encoding,word_square,,,1,bottomsquare,32,true,,,SWAMP,0,,,
html-keyboard-response,182,275091,171.09999999962747,"<div style=""font-size:42px;"">SWAMP</div>",32,,word,SWAMP,,,,,,,,,,,,
html-keyboard-response,183,276600,null,"",null,,word,SWAMP,,,,,,,,,,,,
html-keyboard-response,184,276811,null,"<div style=""font-size:42px;"">COOKBOOK</div><img id = ""stim"" ><div class = red_square id = topsquare></div>",null,encoding,word_square,,,0,topsquare,none,true,,,COOKBOOK,0,,,
html-keyboard-response,185,277122,null,"<div style=""font-size:42px;"">COOKBOOK</div>",null,,word,COOKBOOK,,,,,,,,,,,,
html-keyboard-response,186,278630,null,"",null,,word,COOKBOOK,,,,,,,,,,,,
html-keyboard-response,187,278837,null,"<div style=""font-size:42px;"">TURTLE</div><img id = ""stim"" ><div class = green_square id = topsquare></div>",null,encoding,word_square,,,1,topsquare,32,true,,,TURTLE,0,,,
html-keyboard-response,188,279144,147.7000000011176,"<div style=""font-size:42px;"">TURTLE</div>",32,,word,TURTLE,,,,,,,,,,,,
html-keyboard-response,189,280652,null,"",null,,word,TURTLE,,,,,,,,,,,,
html-keyboard-response,190,280863,null,"<div style=""font-size:42px;"">SLUG</div><img id = ""stim"" ><div class = green_square id = bottomsquare></div>",null,encoding,word_square,,,1,bottomsquare,32,true,,,SLUG,0,,,
html-keyboard-response,191,281173,217.7999999988824,"<div style=""font-size:42px;"">SLUG</div>",32,,word,SLUG,,,,,,,,,,,,
html-keyboard-response,192,282683,null,"",null,,word,SLUG,,,,,,,,,,,,
html-keyboard-response,193,282895,null,"<div style=""font-size:42px;"">CURTAIN</div><img id = ""stim"" ><div class = red_square id = bottomsquare></div>",null,encoding,word_square,,,0,bottomsquare,none,true,,,CURTAIN,0,,,
html-keyboard-response,194,283203,null,"<div style=""font-size:42px;"">CURTAIN</div>",null,,word,CURTAIN,,,,,,,,,,,,
html-keyboard-response,195,284712,null,"",null,,word,CURTAIN,,,,,,,,,,,,
html-keyboard-response,196,284918,null,"<div style=""font-size:42px;"">IDOL</div><img id = ""stim"" ><div class = red_square id = topsquare></div>",null,encoding,word_square,,,0,topsquare,none,true,,,IDOL,0,,,
html-keyboard-response,197,285226,null,"<div style=""font-size:42px;"">IDOL</div>",null,,word,IDOL,,,,,,,,,,,,
html-keyboard-response,198,286739,null,"",null,,word,IDOL,,,,,,,,,,,,
html-keyboard-response,199,286950,null,"<div style=""font-size:42px;"">HANDCUFFS</div><img id = ""stim"" ><div class = green_square id = topsquare></div>",null,encoding,word_square,,,1,topsquare,32,true,,,HANDCUFFS,0,,,
html-keyboard-response,200,287260,149.09999999962747,"<div style=""font-size:42px;"">HANDCUFFS</div>",32,,word,HANDCUFFS,,,,,,,,,,,,
html-keyboard-response,201,288770,null,"",null,,word,HANDCUFFS,,,,,,,,,,,,
html-keyboard-response,202,288981,null,"<div style=""font-size:42px;"">ZIPPER</div><img id = ""stim"" ><div class = green_square id = bottomsquare></div>",null,encoding,word_square,,,1,bottomsquare,32,true,,,ZIPPER,0,,,
html-keyboard-response,203,289290,191.40000000037253,"<div style=""font-size:42px;"">ZIPPER</div>",32,,word,ZIPPER,,,,,,,,,,,,
html-keyboard-response,204,290797,null,"",null,,word,ZIPPER,,,,,,,,,,,,
call-function,205,290801,,"",,,,,,,,,,,,,,,,
html-keyboard-response,206,290905,null,"",null,,,,,,,,,,,,,,,
math-period,207,293183,3891.89999999851,"",,,,,,,,,,,3,,,,,
html-keyboard-response,208,293292,null,"",null,,,,,,,,,,,,,,,
math-period,209,294598,2175.3000000026077,"",,,,,,,,,,,3,,,,,
html-keyboard-response,210,294707,null,"",null,,,,,,,,,,,,,,,
math-period,211,295826,1937.300000000745,"",,,,,,,,,,,3,,,,,
html-keyboard-response,212,295932,null,"",null,,,,,,,,,,,,,,,
math-period,213,297326,2223.5,"",,,,,,,,,,,2,,,,,
html-keyboard-response,214,297431,null,"",null,,,,,,,,,,,,,,,
math-period,215,298831,2427.2999999970198,"",,,,,,,,,,,4,,,,,
html-keyboard-response,216,298939,null,"",null,,,,,,,,,,,,,,,
math-period,217,300271,2313.599999997765,"",,,,,,,,,,,3,,,,,
html-keyboard-response,218,300375,null,"",null,,,,,,,,,,,,,,,
math-period,219,301581,2043.5,"",,,,,,,,,,,2,,,,,
html-keyboard-response,220,301690,null,"",null,,,,,,,,,,,,,,,
math-period,221,303633,3582.300000000745,"",,,,,,,,,,,1,,,,,
html-keyboard-response,222,303739,null,"",null,,,,,,,,,,,,,,,
math-period,223,304897,1975.9000000022352,"",,,,,,,,,,,2,,,,,
html-keyboard-response,224,305004,null,"",null,,,,,,,,,,,,,,,
math-period,225,306391,2497.699999999255,"",,,,,,,,,,,1,,,,,
html-keyboard-response,226,306499,null,"",null,,,,,,,,,,,,,,,
math-period,227,307512,1748.7999999988824,"",,,,,,,,,,,2,,,,,
html-keyboard-response,228,307618,null,"",null,,,,,,,,,,,,,,,
math-period,229,310258,4867,"",,,,,,,,,,,5,,,,,
html-keyboard-response,230,310365,null,"",null,,,,,,,,,,,,,,,
math-period,231,312345,3566.199999999255,"",,,,,,,,,,,4,,,,,
html-keyboard-response,232,312453,null,"",null,,,,,,,,,,,,,,,
math-period,233,313744,2157.0000000018626,"",,,,,,,,,,,3,,,,,
html-keyboard-response,234,313849,null,"",null,,,,,,,,,,,,,,,
math-period,235,314806,null,"",,,,,,,,,,,,,,,,
html-keyboard-response,236,315813,null,"Recall Period!",null,,,,,,,,,,,,,,,
call-function,237,315817,,"",,,,,,,,,,,,,,,,
html-keyboard-response,238,315920,null,"",null,,,,,,,,,,,,,,,
recall-period,239,319574,15931.200000001118,"",,,,,,,,,,,swamp,,,,,
html-keyboard-response,240,319680,null,"",null,,,,,,,,,,,,,,,
recall-period,241,321585,9181.299999995157,"",,,,,,,,,,,turtle,,,,,
html-keyboard-response,242,321690,null,"",null,,,,,,,,,,,,,,,
recall-period,243,323383,4967.599999997765,"",,,,,,,,,,,slug,,,,,
html-keyboard-response,244,323489,null,"",null,,,,,,,,,,,,,,,
recall-period,245,327184,20953.200000001118,"",,,,,,,,,,,washer,,,,,
html-keyboard-response,246,327291,null,"",null,,,,,,,,,,,,,,,
recall-period,247,332264,30723.70000000298,"",,,,,,,,,,,beaver,,,,,
html-keyboard-response,248,332370,null,"",null,,,,,,,,,,,,,,,
recall-period,249,342288,65833.39999999478,"",,,,,,,,,,,pirate,,,,,
html-keyboard-response,250,342397,null,"",null,,,,,,,,,,,,,,,
recall-period,251,390818,null,"",,,,,,,,,,,,,,,,
html-keyboard-response,252,391324,null,"Time's Up!",null,,,,,,,,,,,,,,,
html-keyboard-response,253,396154,4823.60000000149,"<p> Good job! You have responded correctly to 100% of the trials. </p>
                      <p>Be sure to only press the spacebar if you see a GREEN square, and please keep your accuracy above 80%.</p>
                      <p> Press any key to continue the experiment. </p>",32,,,,,,,,,,,,,,,
html-keyboard-response,254,397735,1573.4000000003725,"<div style=""font-size:48px;"">Press any key to begin list 2 of 16 </div>",32,,,,,,,,,,,,,,,
html-keyboard-response,255,400244,null,"<div style=""font-size:60px;"">+</div>",null,,,,,,,,,,,,,,,
html-keyboard-response,256,400455,null,"<div style=""font-size:42px;"">SALMON</div><img id = ""stim"" ><div class = green_square id = bottomsquare></div>",null,encoding,word_square,,,1,bottomsquare,32,true,,,SALMON,1,,,
html-keyboard-response,257,400762,192.80000000074506,"<div style=""font-size:42px;"">SALMON</div>",32,,word,SALMON,,,,,,,,,,,,
html-keyboard-response,258,402269,null,"",null,,word,SALMON,,,,,,,,,,,,
html-keyboard-response,259,402475,null,"<div style=""font-size:42px;"">TAXI</div><img id = ""stim"" ><div class = green_square id = topsquare></div>",null,encoding,word_square,,,1,topsquare,32,true,,,TAXI,1,,,
html-keyboard-response,260,402780,238.2000000011176,"<div style=""font-size:42px;"">TAXI</div>",32,,word,TAXI,,,,,,,,,,,,
html-keyboard-response,261,404287,null,"",null,,word,TAXI,,,,,,,,,,,,
html-keyboard-response,262,404497,null,"<div style=""font-size:42px;"">RUST</div><img id = ""stim"" ><div class = red_square id = topsquare></div>",null,encoding,word_square,,,0,topsquare,none,true,,,RUST,1,,,
html-keyboard-response,263,404805,null,"<div style=""font-size:42px;"">RUST</div>",null,,word,RUST,,,,,,,,,,,,
html-keyboard-response,264,406312,null,"",null,,word,RUST,,,,,,,,,,,,
html-keyboard-response,265,406523,null,"<div style=""font-size:42px;"">BRICK</div><img id = ""stim"" ><div class = red_square id = bottomsquare></div>",null,encoding,word_square,,,0,bottomsquare,none,true,,,BRICK,1,,,
html-keyboard-response,266,406829,null,"<div style=""font-size:42px;"">BRICK</div>",null,,word,BRICK,,,,,,,,,,,,
html-keyboard-response,267,408336,null,"",null,,word,BRICK,,,,,,,,,,,,
html-keyboard-response,268,408543,null,"<div style=""font-size:42px;"">CORAL</div><img id = ""stim"" ><div class = green_square id = bottomsquare></div>",null,encoding,word_square,,,1,bottomsquare,32,true,,,CORAL,1,,,
html-keyboard-response,269,408851,202.40000000037253,"<div style=""font-size:42px;"">CORAL</div>",32,,word,CORAL,,,,,,,,,,,,
html-keyboard-response,270,410361,null,"",null,,word,CORAL,,,,,,,,,,,,
html-keyboard-response,271,410567,null,"<div style=""font-size:42px;"">ATTIRE</div><img id = ""stim"" ><div class = green_square id = topsquare></div>",null,encoding,word_square,,,1,topsquare,32,true,,,ATTIRE,1,,,
html-keyboard-response,272,410873,197,"<div style=""font-size:42px;"">ATTIRE</div>",32,,word,ATTIRE,,,,,,,,,,,,
html-keyboard-response,273,412380,null,"",null,,word,ATTIRE,,,,,,,,,,,,
html-keyboard-response,274,412590,null,"<div style=""font-size:42px;"">CRACKER</div><img id = ""stim"" ><div class = red_square id = topsquare></div>",null,encoding,word_square,,,0,topsquare,none,true,,,CRACKER,1,,,
html-keyboard-response,275,412895,null,"<div style=""font-size:42px;"">CRACKER</div>",null,,word,CRACKER,,,,,,,,,,,,
html-keyboard-response,276,414401,null,"",null,,word,CRACKER,,,,,,,,,,,,
html-keyboard-response,277,414609,null,"<div style=""font-size:42px;"">LETTER</div><img id = ""stim"" ><div class = green_square id = bottomsquare></div>",null,encoding,word_square,,,1,bottomsquare,32,true,,,LETTER,1,,,
html-keyboard-response,278,414915,198.69999999925494,"<div style=""font-size:42px;"">LETTER</div>",32,,word,LETTER,,,,,,,,,,,,
html-keyboard-response,279,416421,null,"",null,,word,LETTER,,,,,,,,,,,,
html-keyboard-response,280,416629,null,"<div style=""font-size:42px;"">BOYFRIEND</div><img id = ""stim"" ><div class = red_square id = bottomsquare></div>",null,encoding,word_square,,,0,bottomsquare,none,true,,,BOYFRIEND,1,,,
html-keyboard-response,281,416961,null,"<div style=""font-size:42px;"">BOYFRIEND</div>",null,,word,BOYFRIEND,,,,,,,,,,,,
html-keyboard-response,282,418481,null,"",null,,word,BOYFRIEND,,,,,,,,,,,,
html-keyboard-response,283,418688,null,"<div style=""font-size:42px;"">FLUTE</div><img id = ""stim"" ><div class = red_square id = topsquare></div>",null,encoding,word_square,,,0,topsquare,none,true,,,FLUTE,1,,,
html-keyboard-response,284,418995,null,"<div style=""font-size:42px;"">FLUTE</div>",null,,word,FLUTE,,,,,,,,,,,,
html-keyboard-response,285,420502,null,"",null,,word,FLUTE,,,,,,,,,,,,
html-keyboard-response,286,420708,null,"<div style=""font-size:42px;"">BANJO</div><img id = ""stim"" ><div class = green_square id = topsquare></div>",null,encoding,word_square,,,1,topsquare,32,true,,,BANJO,1,,,
html-keyboard-response,287,421014,266.90000000037253,"<div style=""font-size:42px;"">BANJO</div>",32,,word,BANJO,,,,,,,,,,,,
html-keyboard-response,288,422520,null,"",null,,word,BANJO,,,,,,,,,,,,
html-keyboard-response,289,422724,null,"<div style=""font-size:42px;"">RIVER</div><img id = ""stim"" ><div class = red_square id = bottomsquare></div>",null,encoding,word_square,,,0,bottomsquare,none,true,,,RIVER,1,,,
html-keyboard-response,290,423029,null,"<div style=""font-size:42px;"">RIVER</div>",null,,word,RIVER,,,,,,,,,,,,
html-keyboard-response,291,424536,null,"",null,,word,RIVER,,,,,,,,,,,,
html-keyboard-response,292,424743,null,"<div style=""font-size:42px;"">FOSSIL</div><img id = ""stim"" ><div class = green_square id = bottomsquare></div>",null,encoding,word_square,,,1,bottomsquare,32,true,,,FOSSIL,1,,,
html-keyboard-response,293,425047,113.5,"<div style=""font-size:42px;"">FOSSIL</div>",32,,word,FOSSIL,,,,,,,,,,,,
html-keyboard-response,294,426554,null,"",null,,word,FOSSIL,,,,,,,,,,,,
html-keyboard-response,295,426761,null,"<div style=""font-size:42px;"">FRAGRANCE</div><img id = ""stim"" ><div class = red_square id = topsquare></div>",null,encoding,word_square,,,0,topsquare,none,true,,,FRAGRANCE,1,,,
html-keyboard-response,296,427068,null,"<div style=""font-size:42px;"">FRAGRANCE</div>",null,,word,FRAGRANCE,,,,,,,,,,,,
html-keyboard-response,297,428575,null,"",null,,word,FRAGRANCE,,,,,,,,,,,,
html-keyboard-response,298,428785,null,"<div style=""font-size:42px;"">CABIN</div><img id = ""stim"" ><div class = red_square id = bottomsquare></div>",null,encoding,word_square,,,0,bottomsquare,none,true,,,CABIN,1,,,
html-keyboard-response,299,429090,null,"<div style=""font-size:42px;"">CABIN</div>",null,,word,CABIN,,,,,,,,,,,,
html-keyboard-response,300,430594,null,"",null,,word,CABIN,,,,,,,,,,,,
html-keyboard-response,301,430800,null,"<div style=""font-size:42px;"">BOXER</div><img id = ""stim"" ><div class = green_square id = topsquare></div>",null,encoding,word_square,,,1,topsquare,32,true,,,BOXER,1,,,
html-keyboard-response,302,431108,102.40000000037253,"<div style=""font-size:42px;"">BOXER</div>",32,,word,BOXER,,,,,,,,,,,,
html-keyboard-response,303,432613,null,"",null,,word,BOXER,,,,,,,,,,,,
call-function,304,432618,,"",,,,,,,,,,,,,,,,
html-keyboard-response,305,432721,null,"",null,,,,,,,,,,,,,,,
math-period,306,435095,4405.699999999255,"",,,,,,,,,,,1,,,,,
html-keyboard-response,307,435206,null,"",null,,,,,,,,,,,,,,,
math-period,308,436137,1625.2999999970198,"",,,,,,,,,,,2,,,,,
html-keyboard-response,309,436246,null,"",null,,,,,,,,,,,,,,,
math-period,310,438166,3594.10000000149,"",,,,,,,,,,,4,,,,,
html-keyboard-response,311,438273,null,"",null,,,,,,,,,,,,,,,
math-period,312,439972,3085,"",,,,,,,,,,,4,,,,,
html-keyboard-response,313,440079,null,"",null,,,,,,,,,,,,,,,
math-period,314,441525,2676.0999999996275,"",,,,,,,,,,,1,,,,,
html-keyboard-response,315,441630,null,"",null,,,,,,,,,,,,,,,
math-period,316,443000,2491.5,"",,,,,,,,,,,1,,,,,
html-keyboard-response,317,443105,null,"",null,,,,,,,,,,,,,,,
math-period,318,444937,3388.4000000003725,"",,,,,,,,,,,5,,,,,
html-keyboard-response,319,445045,null,"",null,,,,,,,,,,,,,,,
math-period,320,446305,2256.4000000003725,"",,,,,,,,,,,3,,,,,
html-keyboard-response,321,446413,null,"",null,,,,,,,,,,,,,,,
math-period,322,447700,2321.5,"",,,,,,,,,,,4,,,,,
html-keyboard-response,323,447806,null,"",null,,,,,,,,,,,,,,,
math-period,324,449081,2243.199999999255,"",,,,,,,,,,,3,,,,,
html-keyboard-response,325,449191,null,"",null,,,,,,,,,,,,,,,
math-period,326,451394,4113.5999999996275,"",,,,,,,,,,,2,,,,,
html-keyboard-response,327,451501,null,"",null,,,,,,,,,,,,,,,
math-period,328,452598,1930.5999999996275,"",,,,,,,,,,,3,,,,,
html-keyboard-response,329,452704,null,"",null,,,,,,,,,,,,,,,
math-period,330,454126,2604.7999999988824,"",,,,,,,,,,,2,,,,,
html-keyboard-response,331,454233,null,"",null,,,,,,,,,,,,,,,
math-period,332,455734,2766.199999999255,"",,,,,,,,,,,4,,,,,
html-keyboard-response,333,455840,null,"",null,,,,,,,,,,,,,,,
math-period,334,456620,null,"",,,,,,,,,,,,,,,,
html-keyboard-response,335,457625,null,"Recall Period!",null,,,,,,,,,,,,,,,
call-function,336,457628,,"",,,,,,,,,,,,,,,,
html-keyboard-response,337,457732,null,"",null,,,,,,,,,,,,,,,
recall-period,338,460113,8247.799999995157,"",,,,,,,,,,,boxer,,,,,
html-keyboard-response,339,460217,null,"",null,,,,,,,,,,,,,,,
recall-period,340,464537,18122.099999995902,"",,,,,,,,,,,cabin,,,,,
html-keyboard-response,341,464641,null,"",null,,,,,,,,,,,,,,,
recall-period,342,468534,29818.199999993667,"",,,,,,,,,,,boyfriend,,,,,
html-keyboard-response,343,468640,null,"",null,,,,,,,,,,,,,,,
recall-period,344,471898,13357.800000002608,"",,,,,,,,,,,fever,,,,,
html-keyboard-response,345,472003,null,"",null,,,,,,,,,,,,,,,
recall-period,346,478346,35260.400000002235,"",,,,,,,,,,,flute,,,,,
html-keyboard-response,347,478452,null,"",null,,,,,,,,,,,,,,,
recall-period,348,479938,5364.599999995902,"",,,,,,,,,,,banjo,,,,,
html-keyboard-response,349,480042,null,"",null,,,,,,,,,,,,,,,
recall-period,350,508470,138970.8000000026,"",,,,,,,,,,,wolf,,,,,
html-keyboard-response,351,508577,null,"",null,,,,,,,,,,,,,,,
recall-period,352,532634,null,"",,,,,,,,,,,,,,,,
html-keyboard-response,353,533145,null,"Time's Up!",null,,,,,,,,,,,,,,,
html-keyboard-response,354,535678,2525,"<p> Good job! You have responded correctly to 100% of the trials. </p>
                      <p>Be sure to only press the spacebar if you see a GREEN square, and please keep your accuracy above 80%.</p>
                      <p> Press any key to continue the experiment. </p>",32,,,,,,,,,,,,,,,
html-keyboard-response,355,536902,1217.5,"<div style=""font-size:48px;"">Press any key to begin list 3 of 16 </div>",32,,,,,,,,,,,,,,,
html-keyboard-response,356,539407,null,"<div style=""font-size:60px;"">+</div>",null,,,,,,,,,,,,,,,
html-keyboard-response,357,539612,null,"<div style=""font-size:42px;"">DAD</div><img id = ""stim"" ><div class = red_square id = bottomsquare></div>",null,encoding,word_square,,,0,bottomsquare,none,true,,,DAD,2,,,
html-keyboard-response,358,539917,null,"<div style=""font-size:42px;"">DAD</div>",null,,word,DAD,,,,,,,,,,,,
html-keyboard-response,359,541423,null,"",null,,word,DAD,,,,,,,,,,,,
html-keyboard-response,360,541630,null,"<div style=""font-size:42px;"">FLESH</div><img id = ""stim"" ><div class = green_square id = topsquare></div>",null,encoding,word_square,,,1,topsquare,32,true,,,FLESH,2,,,
html-keyboard-response,361,541935,135.30000000074506,"<div style=""font-size:42px;"">FLESH</div>",32,,word,FLESH,,,,,,,,,,,,
html-keyboard-response,362,543442,null,"",null,,word,FLESH,,,,,,,,,,,,
html-keyboard-response,363,543648,null,"<div style=""font-size:42px;"">LANDSCAPE</div><img id = ""stim"" ><div class = green_square id = bottomsquare></div>",null,encoding,word_square,,,1,bottomsquare,32,true,,,LANDSCAPE,2,,,
html-keyboard-response,364,543953,157.5,"<div style=""font-size:42px;"">LANDSCAPE</div>",32,,word,LANDSCAPE,,,,,,,,,,,,
html-keyboard-response,365,545460,null,"",null,,word,LANDSCAPE,,,,,,,,,,,,
html-keyboard-response,366,545666,null,"<div style=""font-size:42px;"">TOURIST</div><img id = ""stim"" ><div class = red_square id = topsquare></div>",null,encoding,word_square,,,0,topsquare,none,true,,,TOURIST,2,,,
html-keyboard-response,367,545971,259.1000000014901,"<div style=""font-size:42px;"">TOURIST</div>",32,,word,TOURIST,,,,,,,,,,,,
html-keyboard-response,368,547480,null,"",null,,word,TOURIST,,,,,,,,,,,,
html-keyboard-response,369,547685,null,"<div style=""font-size:42px;"">CHICKEN</div><img id = ""stim"" ><div class = green_square id = topsquare></div>",null,encoding,word_square,,,1,topsquare,32,true,,,CHICKEN,2,,,
html-keyboard-response,370,547999,266.5,"<div style=""font-size:42px;"">CHICKEN</div>",32,,word,CHICKEN,,,,,,,,,,,,
html-keyboard-response,371,549508,null,"",null,,word,CHICKEN,,,,,,,,,,,,
html-keyboard-response,372,549714,null,"<div style=""font-size:42px;"">COBWEB</div><img id = ""stim"" ><div class = red_square id = bottomsquare></div>",null,encoding,word_square,,,0,bottomsquare,none,true,,,COBWEB,2,,,
html-keyboard-response,373,550018,null,"<div style=""font-size:42px;"">COBWEB</div>",null,,word,COBWEB,,,,,,,,,,,,
html-keyboard-response,374,551529,null,"",null,,word,COBWEB,,,,,,,,,,,,
html-keyboard-response,375,551735,null,"<div style=""font-size:42px;"">KETCHUP</div><img id = ""stim"" ><div class = green_square id = bottomsquare></div>",null,encoding,word_square,,,1,bottomsquare,32,true,,,KETCHUP,2,,,
html-keyboard-response,376,552040,null,"<div style=""font-size:42px;"">KETCHUP</div>",null,,word,KETCHUP,,,,,,,,,,,,
html-keyboard-response,377,553546,16.5,"",32,,word,KETCHUP,,,,,,,,,,,,
html-keyboard-response,378,553753,null,"<div style=""font-size:42px;"">RELISH</div><img id = ""stim"" ><div class = green_square id = topsquare></div>",null,encoding,word_square,,,1,topsquare,32,true,,,RELISH,2,,,
html-keyboard-response,379,554059,138.2999999988824,"<div style=""font-size:42px;"">RELISH</div>",32,,word,RELISH,,,,,,,,,,,,
html-keyboard-response,380,555565,null,"",null,,word,RELISH,,,,,,,,,,,,
html-keyboard-response,381,555770,null,"<div style=""font-size:42px;"">CABBAGE</div><img id = ""stim"" ><div class = red_square id = topsquare></div>",null,encoding,word_square,,,0,topsquare,none,true,,,CABBAGE,2,,,
html-keyboard-response,382,556077,null,"<div style=""font-size:42px;"">CABBAGE</div>",null,,word,CABBAGE,,,,,,,,,,,,
html-keyboard-response,383,557586,null,"",null,,word,CABBAGE,,,,,,,,,,,,
html-keyboard-response,384,557797,null,"<div style=""font-size:42px;"">SCALLOP</div><img id = ""stim"" ><div class = green_square id = bottomsquare></div>",null,encoding,word_square,,,1,bottomsquare,32,true,,,SCALLOP,2,,,
html-keyboard-response,385,558101,211.59999999962747,"<div style=""font-size:42px;"">SCALLOP</div>",32,,word,SCALLOP,,,,,,,,,,,,
html-keyboard-response,386,559608,null,"",null,,word,SCALLOP,,,,,,,,,,,,
html-keyboard-response,387,559814,null,"<div style=""font-size:42px;"">SUITCASE</div><img id = ""stim"" ><div class = red_square id = bottomsquare></div>",null,encoding,word_square,,,0,bottomsquare,none,true,,,SUITCASE,2,,,
html-keyboard-response,388,560118,null,"<div style=""font-size:42px;"">SUITCASE</div>",null,,word,SUITCASE,,,,,,,,,,,,
html-keyboard-response,389,561623,null,"",null,,word,SUITCASE,,,,,,,,,,,,
html-keyboard-response,390,561830,null,"<div style=""font-size:42px;"">DASHBOARD</div><img id = ""stim"" ><div class = red_square id = topsquare></div>",null,encoding,word_square,,,0,topsquare,none,true,,,DASHBOARD,2,,,
html-keyboard-response,391,562136,null,"<div style=""font-size:42px;"">DASHBOARD</div>",null,,word,DASHBOARD,,,,,,,,,,,,
html-keyboard-response,392,563641,null,"",null,,word,DASHBOARD,,,,,,,,,,,,
html-keyboard-response,393,563851,null,"<div style=""font-size:42px;"">EYELASH</div><img id = ""stim"" ><div class = green_square id = topsquare></div>",null,encoding,word_square,,,1,topsquare,32,true,,,EYELASH,2,,,
html-keyboard-response,394,564157,130.60000000149012,"<div style=""font-size:42px;"">EYELASH</div>",32,,word,EYELASH,,,,,,,,,,,,
html-keyboard-response,395,565667,null,"",null,,word,EYELASH,,,,,,,,,,,,
html-keyboard-response,396,565879,null,"<div style=""font-size:42px;"">FRECKLE</div><img id = ""stim"" ><div class = green_square id = bottomsquare></div>",null,encoding,word_square,,,1,bottomsquare,32,true,,,FRECKLE,2,,,
html-keyboard-response,397,566191,223,"<div style=""font-size:42px;"">FRECKLE</div>",32,,word,FRECKLE,,,,,,,,,,,,
html-keyboard-response,398,567701,null,"",null,,word,FRECKLE,,,,,,,,,,,,
html-keyboard-response,399,567909,null,"<div style=""font-size:42px;"">INFANT</div><img id = ""stim"" ><div class = red_square id = bottomsquare></div>",null,encoding,word_square,,,0,bottomsquare,none,true,,,INFANT,2,,,
html-keyboard-response,400,568217,null,"<div style=""font-size:42px;"">INFANT</div>",null,,word,INFANT,,,,,,,,,,,,
html-keyboard-response,401,569727,null,"",null,,word,INFANT,,,,,,,,,,,,
html-keyboard-response,402,569933,null,"<div style=""font-size:42px;"">HAMPER</div><img id = ""stim"" ><div class = red_square id = topsquare></div>",null,encoding,word_square,,,0,topsquare,none,true,,,HAMPER,2,,,
html-keyboard-response,403,570241,null,"<div style=""font-size:42px;"">HAMPER</div>",null,,word,HAMPER,,,,,,,,,,,,
html-keyboard-response,404,571749,null,"",null,,word,HAMPER,,,,,,,,,,,,
call-function,405,571753,,"",,,,,,,,,,,,,,,,
html-keyboard-response,406,571858,null,"",null,,,,,,,,,,,,,,,
math-period,407,574260,4361.5999999996275,"",,,,,,,,,,,6,,,,,
html-keyboard-response,408,574368,null,"",null,,,,,,,,,,,,,,,
math-period,409,576709,4407.000000001863,"",,,,,,,,,,,2,,,,,
html-keyboard-response,410,576815,null,"",null,,,,,,,,,,,,,,,
math-period,411,578421,2958.400000002235,"",,,,,,,,,,,1,,,,,
html-keyboard-response,412,578527,null,"",null,,,,,,,,,,,,,,,
math-period,413,579564,1805.5,"",,,,,,,,,,,3,,,,,
html-keyboard-response,414,579669,null,"",null,,,,,,,,,,,,,,,
math-period,415,581411,3224.4000000003725,"",,,,,,,,,,,2,,,,,
html-keyboard-response,416,581520,null,"",null,,,,,,,,,,,,,,,
math-period,417,583148,3007.9000000003725,"",,,,,,,,,,,5,,,,,
html-keyboard-response,418,583256,null,"",null,,,,,,,,,,,,,,,
math-period,419,584351,1982.5999999996275,"",,,,,,,,,,,2,,,,,
html-keyboard-response,420,584457,null,"",null,,,,,,,,,,,,,,,
math-period,421,585871,2567.0000000018626,"",,,,,,,,,,,2,,,,,
html-keyboard-response,422,585978,null,"",null,,,,,,,,,,,,,,,
math-period,423,587029,1879.800000000745,"",,,,,,,,,,,2,,,,,
html-keyboard-response,424,587134,null,"",null,,,,,,,,,,,,,,,
math-period,425,588296,2087.599999997765,"",,,,,,,,,,,6,,,,,
html-keyboard-response,426,588405,null,"",null,,,,,,,,,,,,,,,
math-period,427,593218,9353.5,"",,,,,,,,,,,0,,,,,
html-keyboard-response,428,593325,null,"",null,,,,,,,,,,,,,,,
math-period,429,594868,2746.10000000149,"",,,,,,,,,,,5,,,,,
html-keyboard-response,430,594974,null,"",null,,,,,,,,,,,,,,,
math-period,431,595759,null,"",,,,,,,,,,,,,,,,
html-keyboard-response,432,596772,null,"Recall Period!",null,,,,,,,,,,,,,,,
call-function,433,596779,,"",,,,,,,,,,,,,,,,
html-keyboard-response,434,596883,null,"",null,,,,,,,,,,,,,,,
recall-period,435,599500,11513.299999993294,"",,,,,,,,,,,hamper,,,,,
html-keyboard-response,436,599607,null,"",null,,,,,,,,,,,,,,,
recall-period,437,600763,2737.9999999981374,"",,,,,,,,,,,dad,,,,,
html-keyboard-response,438,600869,null,"",null,,,,,,,,,,,,,,,
recall-period,439,602345,5562.999999996275,"",,,,,,,,,,,infant,,,,,
html-keyboard-response,440,602453,null,"",null,,,,,,,,,,,,,,,
recall-period,441,603711,4040.7999999988824,"",,,,,,,,,,,relish,,,,,
html-keyboard-response,442,603818,null,"",null,,,,,,,,,,,,,,,
recall-period,443,610637,59846.29999999702,"",,,,,,,,,,,fragrance,,,,,
html-keyboard-response,444,610743,null,"",null,,,,,,,,,,,,,,,
recall-period,445,622318,77004.89999999292,"",,,,,,,,,,,lettuce,,,,,
html-keyboard-response,446,622425,null,"",null,,,,,,,,,,,,,,,
recall-period,447,671781,null,"",,,,,,,,,,,,,,,,
html-keyboard-response,448,672293,null,"Time's Up!",null,,,,,,,,,,,,,,,
html-keyboard-response,449,675733,3428.89999999851,"<p> Good job! You have responded correctly to 100% of the trials. </p>
                      <p>Be sure to only press the spacebar if you see a GREEN square, and please keep your accuracy above 80%.</p>
                      <p> Press any key to continue the experiment. </p>",32,,,,,,,,,,,,,,,
html-keyboard-response,450,676481,743.2999999988824,"<div style=""font-size:48px;"">Press any key to begin list 4 of 16 </div>",32,,,,,,,,,,,,,,,
html-keyboard-response,451,678986,null,"<div style=""font-size:60px;"">+</div>",null,,,,,,,,,,,,,,,
html-keyboard-response,452,679196,null,"<div style=""font-size:42px;"">FLIPPER</div><img id = ""stim"" ><div class = red_square id = topsquare></div>",null,encoding,word_square,,,0,topsquare,none,true,,,FLIPPER,3,,,
html-keyboard-response,453,679502,null,"<div style=""font-size:42px;"">FLIPPER</div>",null,,word,FLIPPER,,,,,,,,,,,,
html-keyboard-response,454,681008,null,"",null,,word,FLIPPER,,,,,,,,,,,,
html-keyboard-response,455,681216,null,"<div style=""font-size:42px;"">YARD</div><img id = ""stim"" ><div class = red_square id = bottomsquare></div>",null,encoding,word_square,,,0,bottomsquare,none,true,,,YARD,3,,,
html-keyboard-response,456,681522,null,"<div style=""font-size:42px;"">YARD</div>",null,,word,YARD,,,,,,,,,,,,
html-keyboard-response,457,683028,null,"",null,,word,YARD,,,,,,,,,,,,
html-keyboard-response,458,683236,null,"<div style=""font-size:42px;"">CLAMP</div><img id = ""stim"" ><div class = green_square id = bottomsquare></div>",null,encoding,word_square,,,1,bottomsquare,32,true,,,CLAMP,3,,,
html-keyboard-response,459,683548,149,"<div style=""font-size:42px;"">CLAMP</div>",32,,word,CLAMP,,,,,,,,,,,,
html-keyboard-response,460,685056,null,"",null,,word,CLAMP,,,,,,,,,,,,
html-keyboard-response,461,685263,null,"<div style=""font-size:42px;"">PEPPER</div><img id = ""stim"" ><div class = green_square id = topsquare></div>",null,encoding,word_square,,,1,topsquare,32,true,,,PEPPER,3,,,
html-keyboard-response,462,685569,null,"<div style=""font-size:42px;"">PEPPER</div>",null,,word,PEPPER,,,,,,,,,,,,
html-keyboard-response,463,687077,0.8999999985098839,"",32,,word,PEPPER,,,,,,,,,,,,
html-keyboard-response,464,687284,null,"<div style=""font-size:42px;"">PARCEL</div><img id = ""stim"" ><div class = red_square id = topsquare></div>",null,encoding,word_square,,,0,topsquare,none,true,,,PARCEL,3,,,
html-keyboard-response,465,687594,null,"<div style=""font-size:42px;"">PARCEL</div>",null,,word,PARCEL,,,,,,,,,,,,
html-keyboard-response,466,689102,null,"",null,,word,PARCEL,,,,,,,,,,,,
html-keyboard-response,467,689311,null,"<div style=""font-size:42px;"">CLIFF</div><img id = ""stim"" ><div class = red_square id = bottomsquare></div>",null,encoding,word_square,,,0,bottomsquare,none,true,,,CLIFF,3,,,
html-keyboard-response,468,689621,null,"<div style=""font-size:42px;"">CLIFF</div>",null,,word,CLIFF,,,,,,,,,,,,
html-keyboard-response,469,691127,null,"",null,,word,CLIFF,,,,,,,,,,,,
html-keyboard-response,470,691332,null,"<div style=""font-size:42px;"">SKUNK</div><img id = ""stim"" ><div class = green_square id = bottomsquare></div>",null,encoding,word_square,,,1,bottomsquare,32,true,,,SKUNK,3,,,
html-keyboard-response,471,691640,147.69999999925494,"<div style=""font-size:42px;"">SKUNK</div>",32,,word,SKUNK,,,,,,,,,,,,
html-keyboard-response,472,693146,null,"",null,,word,SKUNK,,,,,,,,,,,,
html-keyboard-response,473,693354,null,"<div style=""font-size:42px;"">POSSUM</div><img id = ""stim"" ><div class = red_square id = topsquare></div>",null,encoding,word_square,,,0,topsquare,none,true,,,POSSUM,3,,,
html-keyboard-response,474,693663,null,"<div style=""font-size:42px;"">POSSUM</div>",null,,word,POSSUM,,,,,,,,,,,,
html-keyboard-response,475,695173,null,"",null,,word,POSSUM,,,,,,,,,,,,
html-keyboard-response,476,695380,null,"<div style=""font-size:42px;"">SUGAR</div><img id = ""stim"" ><div class = green_square id = topsquare></div>",null,encoding,word_square,,,1,topsquare,32,true,,,SUGAR,3,,,
html-keyboard-response,477,695688,null,"<div style=""font-size:42px;"">SUGAR</div>",null,,word,SUGAR,,,,,,,,,,,,
html-keyboard-response,478,697195,11.599999999627471,"",32,,word,SUGAR,,,,,,,,,,,,
html-keyboard-response,479,697404,null,"<div style=""font-size:42px;"">SKATE</div><img id = ""stim"" ><div class = green_square id = bottomsquare></div>",null,encoding,word_square,,,1,bottomsquare,32,true,,,SKATE,3,,,
html-keyboard-response,480,697714,146.90000000037253,"<div style=""font-size:42px;"">SKATE</div>",32,,word,SKATE,,,,,,,,,,,,
html-keyboard-response,481,699223,null,"",null,,word,SKATE,,,,,,,,,,,,
html-keyboard-response,482,699431,null,"<div style=""font-size:42px;"">TRUCK</div><img id = ""stim"" ><div class = red_square id = bottomsquare></div>",null,encoding,word_square,,,0,bottomsquare,none,true,,,TRUCK,3,,,
html-keyboard-response,483,699738,null,"<div style=""font-size:42px;"">TRUCK</div>",null,,word,TRUCK,,,,,,,,,,,,
html-keyboard-response,484,701245,null,"",null,,word,TRUCK,,,,,,,,,,,,
html-keyboard-response,485,701454,null,"<div style=""font-size:42px;"">HOOD</div><img id = ""stim"" ><div class = green_square id = topsquare></div>",null,encoding,word_square,,,1,topsquare,32,true,,,HOOD,3,,,
html-keyboard-response,486,701765,149.80000000074506,"<div style=""font-size:42px;"">HOOD</div>",32,,word,HOOD,,,,,,,,,,,,
html-keyboard-response,487,703274,null,"",null,,word,HOOD,,,,,,,,,,,,
html-keyboard-response,488,703483,null,"<div style=""font-size:42px;"">EUROPE</div><img id = ""stim"" ><div class = red_square id = topsquare></div>",null,encoding,word_square,,,0,topsquare,none,true,,,EUROPE,3,,,
html-keyboard-response,489,703793,null,"<div style=""font-size:42px;"">EUROPE</div>",null,,word,EUROPE,,,,,,,,,,,,
html-keyboard-response,490,705301,null,"",null,,word,EUROPE,,,,,,,,,,,,
html-keyboard-response,491,705510,null,"<div style=""font-size:42px;"">ASIA</div><img id = ""stim"" ><div class = green_square id = bottomsquare></div>",null,encoding,word_square,,,1,bottomsquare,32,true,,,ASIA,3,,,
html-keyboard-response,492,705821,222.90000000037253,"<div style=""font-size:42px;"">ASIA</div>",32,,word,ASIA,,,,,,,,,,,,
html-keyboard-response,493,707331,null,"",null,,word,ASIA,,,,,,,,,,,,
html-keyboard-response,494,707539,null,"<div style=""font-size:42px;"">BEAST</div><img id = ""stim"" ><div class = green_square id = topsquare></div>",null,encoding,word_square,,,1,topsquare,32,true,,,BEAST,3,,,
html-keyboard-response,495,707846,null,"<div style=""font-size:42px;"">BEAST</div>",null,,word,BEAST,,,,,,,,,,,,
html-keyboard-response,496,709353,54.69999999925494,"",32,,word,BEAST,,,,,,,,,,,,
html-keyboard-response,497,709560,null,"<div style=""font-size:42px;"">SHARK</div><img id = ""stim"" ><div class = red_square id = bottomsquare></div>",null,encoding,word_square,,,0,bottomsquare,none,true,,,SHARK,3,,,
html-keyboard-response,498,709868,null,"<div style=""font-size:42px;"">SHARK</div>",null,,word,SHARK,,,,,,,,,,,,
html-keyboard-response,499,711376,null,"",null,,word,SHARK,,,,,,,,,,,,
call-function,500,711381,,"",,,,,,,,,,,,,,,,
html-keyboard-response,501,711487,null,"",null,,,,,,,,,,,,,,,
math-period,502,716032,8660,"",,,,,,,,,,,3,,,,,
html-keyboard-response,503,716139,null,"",null,,,,,,,,,,,,,,,
math-period,504,717236,1947.0999999996275,"",,,,,,,,,,,3,,,,,
html-keyboard-response,505,717340,null,"",null,,,,,,,,,,,,,,,
math-period,506,718799,2619.5999999996275,"",,,,,,,,,,,5,,,,,
html-keyboard-response,507,718907,null,"",null,,,,,,,,,,,,,,,
math-period,508,720928,3821.800000000745,"",,,,,,,,,,,5,,,,,
html-keyboard-response,509,721033,null,"",null,,,,,,,,,,,,,,,
math-period,510,722246,2189.7000000029802,"",,,,,,,,,,,6,,,,,
html-keyboard-response,511,722353,null,"",null,,,,,,,,,,,,,,,
math-period,512,724177,3386.89999999851,"",,,,,,,,,,,4,,,,,
html-keyboard-response,513,724284,null,"",null,,,,,,,,,,,,,,,
math-period,514,725719,2637.39999999851,"",,,,,,,,,,,2,,,,,
html-keyboard-response,515,725830,null,"",null,,,,,,,,,,,,,,,
math-period,516,727092,2282.400000002235,"",,,,,,,,,,,5,,,,,
html-keyboard-response,517,727197,null,"",null,,,,,,,,,,,,,,,
math-period,518,728660,2711.10000000149,"",,,,,,,,,,,2,,,,,
html-keyboard-response,519,728765,null,"",null,,,,,,,,,,,,,,,
math-period,520,730397,2943.9000000003725,"",,,,,,,,,,,1,,,,,
html-keyboard-response,521,730502,null,"",null,,,,,,,,,,,,,,,
math-period,522,732022,2791.699999999255,"",,,,,,,,,,,1,,,,,
html-keyboard-response,523,732131,null,"",null,,,,,,,,,,,,,,,
math-period,524,734351,3955.9000000003725,"",,,,,,,,,,,0,,,,,
html-keyboard-response,525,734457,null,"",null,,,,,,,,,,,,,,,
math-period,526,735383,null,"",,,,,,,,,,,,,,,,
html-keyboard-response,527,736391,null,"Recall Period!",null,,,,,,,,,,,,,,,
call-function,528,736397,,"",,,,,,,,,,,,,,,,
html-keyboard-response,529,736501,null,"",null,,,,,,,,,,,,,,,
recall-period,530,738260,7558.300000002608,"",,,,,,,,,,,shark,,,,,
html-keyboard-response,531,738368,null,"",null,,,,,,,,,,,,,,,
recall-period,532,739634,3612.6000000033528,"",,,,,,,,,,,beast,,,,,
html-keyboard-response,533,739741,null,"",null,,,,,,,,,,,,,,,
recall-period,534,743563,20446.799999995157,"",,,,,,,,,,,europe,,,,,
html-keyboard-response,535,743668,null,"",null,,,,,,,,,,,,,,,
recall-period,536,744985,3365.10000000149,"",,,,,,,,,,,asia,,,,,
html-keyboard-response,537,745093,null,"",null,,,,,,,,,,,,,,,
recall-period,538,751538,32814.20000000484,"",,,,,,,,,,,skunk,,,,,
html-keyboard-response,539,751643,null,"",null,,,,,,,,,,,,,,,
recall-period,540,786436,270592.8999999948,"",,,,,,,,,,,flipper,,,,,
html-keyboard-response,541,786540,null,"",null,,,,,,,,,,,,,,,
recall-period,542,811399,null,"",,,,,,,,,,,,,,,,
html-keyboard-response,543,811908,null,"Time's Up!",null,,,,,,,,,,,,,,,
html-keyboard-response,544,813312,1396.7000000011176,"<p> Good job! You have responded correctly to 100% of the trials. </p>
                      <p>Be sure to only press the spacebar if you see a GREEN square, and please keep your accuracy above 80%.</p>
                      <p> Press any key to continue the experiment. </p>",32,,,,,,,,,,,,,,,
html-keyboard-response,545,814210,891.0999999996275,"<div style=""font-size:48px;"">Press any key to begin list 5 of 16 </div>",32,,,,,,,,,,,,,,,
html-keyboard-response,546,816717,null,"<div style=""font-size:60px;"">+</div>",null,,,,,,,,,,,,,,,
html-keyboard-response,547,816923,null,"<div style=""font-size:42px;"">SOFTBALL</div><img id = ""stim"" ><div class = green_square id = topsquare></div>",null,encoding,word_square,,,1,topsquare,32,true,,,SOFTBALL,4,,,
html-keyboard-response,548,817229,null,"<div style=""font-size:42px;"">SOFTBALL</div>",null,,word,SOFTBALL,,,,,,,,,,,,
html-keyboard-response,549,818735,66.29999999888241,"",32,,word,SOFTBALL,,,,,,,,,,,,
html-keyboard-response,550,818940,null,"<div style=""font-size:42px;"">HEADBAND</div><img id = ""stim"" ><div class = green_square id = bottomsquare></div>",null,encoding,word_square,,,1,bottomsquare,32,true,,,HEADBAND,4,,,
html-keyboard-response,551,819247,243.90000000037253,"<div style=""font-size:42px;"">HEADBAND</div>",32,,word,HEADBAND,,,,,,,,,,,,
html-keyboard-response,552,820762,null,"",null,,word,HEADBAND,,,,,,,,,,,,
html-keyboard-response,553,820968,null,"<div style=""font-size:42px;"">KIDNEY</div><img id = ""stim"" ><div class = red_square id = bottomsquare></div>",null,encoding,word_square,,,0,bottomsquare,none,true,,,KIDNEY,4,,,
html-keyboard-response,554,821273,null,"<div style=""font-size:42px;"">KIDNEY</div>",null,,word,KIDNEY,,,,,,,,,,,,
html-keyboard-response,555,822780,null,"",null,,word,KIDNEY,,,,,,,,,,,,
html-keyboard-response,556,822989,null,"<div style=""font-size:42px;"">DUNGEON</div><img id = ""stim"" ><div class = red_square id = topsquare></div>",null,encoding,word_square,,,0,topsquare,none,true,,,DUNGEON,4,,,
html-keyboard-response,557,823297,null,"<div style=""font-size:42px;"">DUNGEON</div>",null,,word,DUNGEON,,,,,,,,,,,,
html-keyboard-response,558,824806,null,"",null,,word,DUNGEON,,,,,,,,,,,,
html-keyboard-response,559,825014,null,"<div style=""font-size:42px;"">SERPENT</div><img id = ""stim"" ><div class = green_square id = topsquare></div>",null,encoding,word_square,,,1,topsquare,32,true,,,SERPENT,4,,,
html-keyboard-response,560,825323,204.5,"<div style=""font-size:42px;"">SERPENT</div>",32,,word,SERPENT,,,,,,,,,,,,
html-keyboard-response,561,826832,null,"",null,,word,SERPENT,,,,,,,,,,,,
html-keyboard-response,562,827038,null,"<div style=""font-size:42px;"">SUNSET</div><img id = ""stim"" ><div class = red_square id = bottomsquare></div>",null,encoding,word_square,,,0,bottomsquare,none,true,,,SUNSET,4,,,
html-keyboard-response,563,827342,null,"<div style=""font-size:42px;"">SUNSET</div>",null,,word,SUNSET,,,,,,,,,,,,
html-keyboard-response,564,828849,null,"",null,,word,SUNSET,,,,,,,,,,,,
html-keyboard-response,565,829058,null,"<div style=""font-size:42px;"">BEAKER</div><img id = ""stim"" ><div class = red_square id = topsquare></div>",null,encoding,word_square,,,0,topsquare,none,true,,,BEAKER,4,,,
html-keyboard-response,566,829366,null,"<div style=""font-size:42px;"">BEAKER</div>",null,,word,BEAKER,,,,,,,,,,,,
html-keyboard-response,567,830875,null,"",null,,word,BEAKER,,,,,,,,,,,,
html-keyboard-response,568,831083,null,"<div style=""font-size:42px;"">LAMP</div><img id = ""stim"" ><div class = green_square id = bottomsquare></div>",null,encoding,word_square,,,1,bottomsquare,32,true,,,LAMP,4,,,
html-keyboard-response,569,831394,154.7999999988824,"<div style=""font-size:42px;"">LAMP</div>",32,,word,LAMP,,,,,,,,,,,,
html-keyboard-response,570,832902,null,"",null,,word,LAMP,,,,,,,,,,,,
html-keyboard-response,571,833107,null,"<div style=""font-size:42px;"">WIDOW</div><img id = ""stim"" ><div class = green_square id = topsquare></div>",null,encoding,word_square,,,1,topsquare,32,true,,,WIDOW,4,,,
html-keyboard-response,572,833415,205,"<div style=""font-size:42px;"">WIDOW</div>",32,,word,WIDOW,,,,,,,,,,,,
html-keyboard-response,573,834922,null,"",null,,word,WIDOW,,,,,,,,,,,,
html-keyboard-response,574,835127,null,"<div style=""font-size:42px;"">PEOPLE</div><img id = ""stim"" ><div class = red_square id = bottomsquare></div>",null,encoding,word_square,,,0,bottomsquare,none,false,,,PEOPLE,4,,,
html-keyboard-response,575,835435,null,"<div style=""font-size:42px;"">PEOPLE</div>",null,,word,PEOPLE,,,,,,,,,,,,
html-keyboard-response,576,836944,89.5,"",32,,word,PEOPLE,,,,,,,,,,,,
html-keyboard-response,577,837150,null,"<div style=""font-size:42px;"">CRICKET</div><img id = ""stim"" ><div class = green_square id = bottomsquare></div>",null,encoding,word_square,,,1,bottomsquare,32,true,,,CRICKET,4,,,
html-keyboard-response,578,837458,203.59999999962747,"<div style=""font-size:42px;"">CRICKET</div>",32,,word,CRICKET,,,,,,,,,,,,
html-keyboard-response,579,838968,null,"",null,,word,CRICKET,,,,,,,,,,,,
html-keyboard-response,580,839177,null,"<div style=""font-size:42px;"">BANDIT</div><img id = ""stim"" ><div class = red_square id = topsquare></div>",null,encoding,word_square,,,0,topsquare,none,true,,,BANDIT,4,,,
html-keyboard-response,581,839488,null,"<div style=""font-size:42px;"">BANDIT</div>",null,,word,BANDIT,,,,,,,,,,,,
html-keyboard-response,582,841009,null,"",null,,word,BANDIT,,,,,,,,,,,,
html-keyboard-response,583,841214,null,"<div style=""font-size:42px;"">SPHINX</div><img id = ""stim"" ><div class = red_square id = bottomsquare></div>",null,encoding,word_square,,,0,bottomsquare,none,true,,,SPHINX,4,,,
html-keyboard-response,584,841519,null,"<div style=""font-size:42px;"">SPHINX</div>",null,,word,SPHINX,,,,,,,,,,,,
html-keyboard-response,585,843027,null,"",null,,word,SPHINX,,,,,,,,,,,,
html-keyboard-response,586,843233,null,"<div style=""font-size:42px;"">PANTHER</div><img id = ""stim"" ><div class = green_square id = topsquare></div>",null,encoding,word_square,,,1,topsquare,32,true,,,PANTHER,4,,,
html-keyboard-response,587,843540,233.2000000011176,"<div style=""font-size:42px;"">PANTHER</div>",32,,word,PANTHER,,,,,,,,,,,,
html-keyboard-response,588,845048,null,"",null,,word,PANTHER,,,,,,,,,,,,
html-keyboard-response,589,845256,null,"<div style=""font-size:42px;"">BATHTUB</div><img id = ""stim"" ><div class = red_square id = topsquare></div>",null,encoding,word_square,,,0,topsquare,none,true,,,BATHTUB,4,,,
html-keyboard-response,590,845567,null,"<div style=""font-size:42px;"">BATHTUB</div>",null,,word,BATHTUB,,,,,,,,,,,,
html-keyboard-response,591,847078,null,"",null,,word,BATHTUB,,,,,,,,,,,,
html-keyboard-response,592,847288,null,"<div style=""font-size:42px;"">CANAL</div><img id = ""stim"" ><div class = green_square id = bottomsquare></div>",null,encoding,word_square,,,1,bottomsquare,32,true,,,CANAL,4,,,
html-keyboard-response,593,847598,275.2000000011176,"<div style=""font-size:42px;"">CANAL</div>",32,,word,CANAL,,,,,,,,,,,,
html-keyboard-response,594,849106,null,"",null,,word,CANAL,,,,,,,,,,,,
call-function,595,849111,,"",,,,,,,,,,,,,,,,
html-keyboard-response,596,849218,null,"",null,,,,,,,,,,,,,,,
math-period,597,851685,4522.60000000149,"",,,,,,,,,,,4,,,,,
html-keyboard-response,598,851794,null,"",null,,,,,,,,,,,,,,,
math-period,599,853003,2112.199999999255,"",,,,,,,,,,,6,,,,,
html-keyboard-response,600,853108,null,"",null,,,,,,,,,,,,,,,
math-period,601,854219,2009.4000000003725,"",,,,,,,,,,,3,,,,,
html-keyboard-response,602,854324,null,"",null,,,,,,,,,,,,,,,
math-period,603,856075,3191.39999999851,"",,,,,,,,,,,5,,,,,
html-keyboard-response,604,856184,null,"",null,,,,,,,,,,,,,,,
math-period,605,857455,2310.4999999981374,"",,,,,,,,,,,4,,,,,
html-keyboard-response,606,857564,null,"",null,,,,,,,,,,,,,,,
math-period,607,858913,2456.39999999851,"",,,,,,,,,,,1,,,,,
html-keyboard-response,608,859018,null,"",null,,,,,,,,,,,,,,,
math-period,609,860406,2563.5,"",,,,,,,,,,,2,,,,,
html-keyboard-response,610,860511,null,"",null,,,,,,,,,,,,,,,
math-period,611,863081,4808.699999999255,"",,,,,,,,,,,2,,,,,
html-keyboard-response,612,863190,null,"",null,,,,,,,,,,,,,,,
math-period,613,864324,2022.699999999255,"",,,,,,,,,,,3,,,,,
html-keyboard-response,614,864430,null,"",null,,,,,,,,,,,,,,,
math-period,615,866080,3068.8000000026077,"",,,,,,,,,,,1,,,,,
html-keyboard-response,616,866189,null,"",null,,,,,,,,,,,,,,,
math-period,617,868546,6873.39999999851,"",,,,,,,,,,,6,,,,,
html-keyboard-response,618,868651,null,"",null,,,,,,,,,,,,,,,
math-period,619,869939,2353.699999999255,"",,,,,,,,,,,1,,,,,
html-keyboard-response,620,870046,null,"",null,,,,,,,,,,,,,,,
math-period,621,871339,2286.699999999255,"",,,,,,,,,,,5,,,,,
html-keyboard-response,622,871448,null,"",null,,,,,,,,,,,,,,,
math-period,623,872723,2223.9999999981374,"",,,,,,,,,,,6,,,,,
html-keyboard-response,624,872830,null,"",null,,,,,,,,,,,,,,,
math-period,625,873117,null,"",,,,,,,,,,,,,,,,
html-keyboard-response,626,874123,null,"Recall Period!",null,,,,,,,,,,,,,,,
call-function,627,874127,,"",,,,,,,,,,,,,,,,
html-keyboard-response,628,874233,null,"",null,,,,,,,,,,,,,,,
recall-period,629,876471,7418.400000007823,"",,,,,,,,,,,panther,,,,,
html-keyboard-response,630,876576,null,"",null,,,,,,,,,,,,,,,
recall-period,631,877814,4277.80000000447,"",,,,,,,,,,,canal,,,,,
html-keyboard-response,632,877923,null,"",null,,,,,,,,,,,,,,,
recall-period,633,880923,14831.399999996647,"",,,,,,,,,,,beaker,,,,,
html-keyboard-response,634,881029,null,"",null,,,,,,,,,,,,,,,
recall-period,635,934537,419900.7999999933,"",,,,,,,,,,,serpent,,,,,
html-keyboard-response,636,934645,null,"",null,,,,,,,,,,,,,,,
recall-period,637,949128,null,"",,,,,,,,,,,,,,,,
html-keyboard-response,638,949641,null,"Time's Up!",null,,,,,,,,,,,,,,,
html-keyboard-response,639,954174,4523.9000000003725,"<p> Good job! You have responded correctly to 99% of the trials. </p>
                      <p>Be sure to only press the spacebar if you see a GREEN square, and please keep your accuracy above 80%.</p>
                      <p> Press any key to continue the experiment. </p>",32,,,,,,,,,,,,,,,
html-keyboard-response,640,955591,1411.800000000745,"<div style=""font-size:48px;"">Press any key to begin list 6 of 16 </div>",32,,,,,,,,,,,,,,,
html-keyboard-response,641,958100,null,"<div style=""font-size:60px;"">+</div>",null,,,,,,,,,,,,,,,
html-keyboard-response,642,958309,null,"<div style=""font-size:42px;"">GREASE</div><img id = ""stim"" ><div class = green_square id = bottomsquare></div>",null,encoding,word_square,,,1,bottomsquare,32,true,,,GREASE,5,,,
html-keyboard-response,643,958617,222.19999999925494,"<div style=""font-size:42px;"">GREASE</div>",32,,word,GREASE,,,,,,,,,,,,
html-keyboard-response,644,960123,null,"",null,,word,GREASE,,,,,,,,,,,,
html-keyboard-response,645,960332,null,"<div style=""font-size:42px;"">VALVE</div><img id = ""stim"" ><div class = red_square id = topsquare></div>",null,encoding,word_square,,,0,topsquare,none,true,,,VALVE,5,,,
html-keyboard-response,646,960640,null,"<div style=""font-size:42px;"">VALVE</div>",null,,word,VALVE,,,,,,,,,,,,
html-keyboard-response,647,962147,null,"",null,,word,VALVE,,,,,,,,,,,,
html-keyboard-response,648,962357,null,"<div style=""font-size:42px;"">SCOTCH</div><img id = ""stim"" ><div class = green_square id = topsquare></div>",null,encoding,word_square,,,1,topsquare,32,true,,,SCOTCH,5,,,
html-keyboard-response,649,962665,116.09999999962747,"<div style=""font-size:42px;"">SCOTCH</div>",32,,word,SCOTCH,,,,,,,,,,,,
html-keyboard-response,650,964173,null,"",null,,word,SCOTCH,,,,,,,,,,,,
html-keyboard-response,651,964383,null,"<div style=""font-size:42px;"">MONARCH</div><img id = ""stim"" ><div class = red_square id = bottomsquare></div>",null,encoding,word_square,,,0,bottomsquare,none,true,,,MONARCH,5,,,
html-keyboard-response,652,964691,null,"<div style=""font-size:42px;"">MONARCH</div>",null,,word,MONARCH,,,,,,,,,,,,
html-keyboard-response,653,966197,null,"",null,,word,MONARCH,,,,,,,,,,,,
html-keyboard-response,654,966406,null,"<div style=""font-size:42px;"">SCAPEGOAT</div><img id = ""stim"" ><div class = red_square id = topsquare></div>",null,encoding,word_square,,,0,topsquare,none,true,,,SCAPEGOAT,5,,,
html-keyboard-response,655,966715,null,"<div style=""font-size:42px;"">SCAPEGOAT</div>",null,,word,SCAPEGOAT,,,,,,,,,,,,
html-keyboard-response,656,968222,null,"",null,,word,SCAPEGOAT,,,,,,,,,,,,
html-keyboard-response,657,968428,null,"<div style=""font-size:42px;"">VIKING</div><img id = ""stim"" ><div class = green_square id = bottomsquare></div>",null,encoding,word_square,,,1,bottomsquare,32,true,,,VIKING,5,,,
html-keyboard-response,658,968736,200.89999999850988,"<div style=""font-size:42px;"">VIKING</div>",32,,word,VIKING,,,,,,,,,,,,
html-keyboard-response,659,970245,null,"",null,,word,VIKING,,,,,,,,,,,,
html-keyboard-response,660,970452,null,"<div style=""font-size:42px;"">DRINK</div><img id = ""stim"" ><div class = red_square id = bottomsquare></div>",null,encoding,word_square,,,0,bottomsquare,none,true,,,DRINK,5,,,
html-keyboard-response,661,970757,null,"<div style=""font-size:42px;"">DRINK</div>",null,,word,DRINK,,,,,,,,,,,,
html-keyboard-response,662,972266,null,"",null,,word,DRINK,,,,,,,,,,,,
html-keyboard-response,663,972476,null,"<div style=""font-size:42px;"">PEACH</div><img id = ""stim"" ><div class = green_square id = topsquare></div>",null,encoding,word_square,,,1,topsquare,32,true,,,PEACH,5,,,
html-keyboard-response,664,972785,161.2999999988824,"<div style=""font-size:42px;"">PEACH</div>",32,,word,PEACH,,,,,,,,,,,,
html-keyboard-response,665,974295,null,"",null,,word,PEACH,,,,,,,,,,,,
html-keyboard-response,666,974506,null,"<div style=""font-size:42px;"">NAPKIN</div><img id = ""stim"" ><div class = green_square id = bottomsquare></div>",null,encoding,word_square,,,1,bottomsquare,32,true,,,NAPKIN,5,,,
html-keyboard-response,667,974810,207.10000000149012,"<div style=""font-size:42px;"">NAPKIN</div>",32,,word,NAPKIN,,,,,,,,,,,,
html-keyboard-response,668,976317,null,"",null,,word,NAPKIN,,,,,,,,,,,,
html-keyboard-response,669,976524,null,"<div style=""font-size:42px;"">AUTHOR</div><img id = ""stim"" ><div class = red_square id = topsquare></div>",null,encoding,word_square,,,0,topsquare,none,true,,,AUTHOR,5,,,
html-keyboard-response,670,976830,null,"<div style=""font-size:42px;"">AUTHOR</div>",null,,word,AUTHOR,,,,,,,,,,,,
html-keyboard-response,671,978338,null,"",null,,word,AUTHOR,,,,,,,,,,,,
html-keyboard-response,672,978543,null,"<div style=""font-size:42px;"">NOVEL</div><img id = ""stim"" ><div class = red_square id = bottomsquare></div>",null,encoding,word_square,,,0,bottomsquare,none,true,,,NOVEL,5,,,
html-keyboard-response,673,978848,null,"<div style=""font-size:42px;"">NOVEL</div>",null,,word,NOVEL,,,,,,,,,,,,
html-keyboard-response,674,980357,null,"",null,,word,NOVEL,,,,,,,,,,,,
html-keyboard-response,675,980565,null,"<div style=""font-size:42px;"">HOUSE</div><img id = ""stim"" ><div class = green_square id = topsquare></div>",null,encoding,word_square,,,1,topsquare,32,true,,,HOUSE,5,,,
html-keyboard-response,676,980871,125.80000000074506,"<div style=""font-size:42px;"">HOUSE</div>",32,,word,HOUSE,,,,,,,,,,,,
html-keyboard-response,677,982376,null,"",null,,word,HOUSE,,,,,,,,,,,,
html-keyboard-response,678,982581,null,"<div style=""font-size:42px;"">RECORD</div><img id = ""stim"" ><div class = red_square id = topsquare></div>",null,encoding,word_square,,,0,topsquare,none,true,,,RECORD,5,,,
html-keyboard-response,679,982887,null,"<div style=""font-size:42px;"">RECORD</div>",null,,word,RECORD,,,,,,,,,,,,
html-keyboard-response,680,984396,null,"",null,,word,RECORD,,,,,,,,,,,,
html-keyboard-response,681,984606,null,"<div style=""font-size:42px;"">BUG</div><img id = ""stim"" ><div class = red_square id = bottomsquare></div>",null,encoding,word_square,,,0,bottomsquare,none,true,,,BUG,5,,,
html-keyboard-response,682,984915,null,"<div style=""font-size:42px;"">BUG</div>",null,,word,BUG,,,,,,,,,,,,
html-keyboard-response,683,986422,null,"",null,,word,BUG,,,,,,,,,,,,
html-keyboard-response,684,986629,null,"<div style=""font-size:42px;"">WASP</div><img id = ""stim"" ><div class = green_square id = bottomsquare></div>",null,encoding,word_square,,,1,bottomsquare,32,true,,,WASP,5,,,
html-keyboard-response,685,986935,248,"<div style=""font-size:42px;"">WASP</div>",32,,word,WASP,,,,,,,,,,,,
html-keyboard-response,686,988443,null,"",null,,word,WASP,,,,,,,,,,,,
html-keyboard-response,687,988650,null,"<div style=""font-size:42px;"">LODGE</div><img id = ""stim"" ><div class = green_square id = topsquare></div>",null,encoding,word_square,,,1,topsquare,32,true,,,LODGE,5,,,
html-keyboard-response,688,988954,297.40000000037253,"<div style=""font-size:42px;"">LODGE</div>",32,,word,LODGE,,,,,,,,,,,,
html-keyboard-response,689,990460,null,"",null,,word,LODGE,,,,,,,,,,,,
call-function,690,990466,,"",,,,,,,,,,,,,,,,
html-keyboard-response,691,990571,null,"",null,,,,,,,,,,,,,,,
math-period,692,992568,3452.699999999255,"",,,,,,,,,,,3,,,,,
html-keyboard-response,693,992673,null,"",null,,,,,,,,,,,,,,,
math-period,694,994076,2480.699999999255,"",,,,,,,,,,,4,,,,,
html-keyboard-response,695,994185,null,"",null,,,,,,,,,,,,,,,
math-period,696,995690,2649.10000000149,"",,,,,,,,,,,1,,,,,
html-keyboard-response,697,995798,null,"",null,,,,,,,,,,,,,,,
math-period,698,997076,2233.89999999851,"",,,,,,,,,,,3,,,,,
html-keyboard-response,699,997182,null,"",null,,,,,,,,,,,,,,,
math-period,700,998895,3141.9000000003725,"",,,,,,,,,,,1,,,,,
html-keyboard-response,701,999000,null,"",null,,,,,,,,,,,,,,,
math-period,702,1000172,2118.5999999996275,"",,,,,,,,,,,3,,,,,
html-keyboard-response,703,1000282,null,"",null,,,,,,,,,,,,,,,
math-period,704,1001852,2931.9999999981374,"",,,,,,,,,,,2,,,,,
html-keyboard-response,705,1001958,null,"",null,,,,,,,,,,,,,,,
math-period,706,1003163,2181.800000000745,"",,,,,,,,,,,6,,,,,
html-keyboard-response,707,1003271,null,"",null,,,,,,,,,,,,,,,
math-period,708,1004505,2277.89999999851,"",,,,,,,,,,,4,,,,,
html-keyboard-response,709,1004610,null,"",null,,,,,,,,,,,,,,,
math-period,710,1005728,2038.300000000745,"",,,,,,,,,,,1,,,,,
html-keyboard-response,711,1005838,null,"",null,,,,,,,,,,,,,,,
math-period,712,1006778,1717.5999999996275,"",,,,,,,,,,,3,,,,,
html-keyboard-response,713,1006883,null,"",null,,,,,,,,,,,,,,,
math-period,714,1008301,2657.2000000029802,"",,,,,,,,,,,2,,,,,
html-keyboard-response,715,1008415,null,"",null,,,,,,,,,,,,,,,
math-period,716,1009529,2031.8999999985099,"",,,,,,,,,,,3,,,,,
html-keyboard-response,717,1009637,null,"",null,,,,,,,,,,,,,,,
math-period,718,1010692,1888.5999999977648,"",,,,,,,,,,,2,,,,,
html-keyboard-response,719,1010797,null,"",null,,,,,,,,,,,,,,,
math-period,720,1012245,2690.5,"",,,,,,,,,,,4,,,,,
html-keyboard-response,721,1012351,null,"",null,,,,,,,,,,,,,,,
math-period,722,1013857,2801.7000000011176,"",,,,,,,,,,,4,,,,,
html-keyboard-response,723,1013964,null,"",null,,,,,,,,,,,,,,,
math-period,724,1014476,null,"",,,,,,,,,,,,,,,,
html-keyboard-response,725,1015481,null,"Recall Period!",null,,,,,,,,,,,,,,,
call-function,726,1015485,,"",,,,,,,,,,,,,,,,
html-keyboard-response,727,1015592,null,"",null,,,,,,,,,,,,,,,
recall-period,728,1017143,5406.4000000059605,"",,,,,,,,,,,viking,,,,,
html-keyboard-response,729,1017248,null,"",null,,,,,,,,,,,,,,,
recall-period,730,1018791,5007.300000000745,"",,,,,,,,,,,lodge,,,,,
html-keyboard-response,731,1018895,null,"",null,,,,,,,,,,,,,,,
recall-period,732,1020164,3170.6000000033528,"",,,,,,,,,,,wasp,,,,,
html-keyboard-response,733,1020273,null,"",null,,,,,,,,,,,,,,,
recall-period,734,1023444,18713.100000003353,"",,,,,,,,,,,record,,,,,
html-keyboard-response,735,1023554,null,"",null,,,,,,,,,,,,,,,
recall-period,736,1030186,36180.09999999404,"",,,,,,,,,,,drink,,,,,
html-keyboard-response,737,1030293,null,"",null,,,,,,,,,,,,,,,
recall-period,738,1037757,42212.00000000559,"",,,,,,,,,,,house,,,,,
html-keyboard-response,739,1037864,null,"",null,,,,,,,,,,,,,,,
recall-period,740,1050371,92440.70000000298,"",,,,,,,,,,,monarch,,,,,
html-keyboard-response,741,1050479,null,"",null,,,,,,,,,,,,,,,
recall-period,742,1090489,null,"",,,,,,,,,,,,,,,,
html-keyboard-response,743,1090995,null,"Time's Up!",null,,,,,,,,,,,,,,,
html-keyboard-response,744,1101034,10033.800000000745,"<p> Good job! You have responded correctly to 99% of the trials. </p>
                      <p>Be sure to only press the spacebar if you see a GREEN square, and please keep your accuracy above 80%.</p>
                      <p> Press any key to continue the experiment. </p>",32,,,,,,,,,,,,,,,
html-keyboard-response,745,1102133,1093.199999999255,"<div style=""font-size:48px;"">Press any key to begin list 7 of 16 </div>",32,,,,,,,,,,,,,,,
html-keyboard-response,746,1104640,null,"<div style=""font-size:60px;"">+</div>",null,,,,,,,,,,,,,,,
html-keyboard-response,747,1104849,null,"<div style=""font-size:42px;"">PENCIL</div><img id = ""stim"" ><div class = red_square id = bottomsquare></div>",null,encoding,word_square,,,0,bottomsquare,none,true,,,PENCIL,6,,,
html-keyboard-response,748,1105158,null,"<div style=""font-size:42px;"">PENCIL</div>",null,,word,PENCIL,,,,,,,,,,,,
html-keyboard-response,749,1106668,null,"",null,,word,PENCIL,,,,,,,,,,,,
html-keyboard-response,750,1106873,null,"<div style=""font-size:42px;"">TREAT</div><img id = ""stim"" ><div class = red_square id = topsquare></div>",null,encoding,word_square,,,0,topsquare,none,true,,,TREAT,6,,,
html-keyboard-response,751,1107178,null,"<div style=""font-size:42px;"">TREAT</div>",null,,word,TREAT,,,,,,,,,,,,
html-keyboard-response,752,1108684,null,"",null,,word,TREAT,,,,,,,,,,,,
html-keyboard-response,753,1108890,null,"<div style=""font-size:42px;"">FOX</div><img id = ""stim"" ><div class = green_square id = topsquare></div>",null,encoding,word_square,,,1,topsquare,32,true,,,FOX,6,,,
html-keyboard-response,754,1109196,null,"<div style=""font-size:42px;"">FOX</div>",null,,word,FOX,,,,,,,,,,,,
html-keyboard-response,755,1110706,81.80000000074506,"",32,,word,FOX,,,,,,,,,,,,
html-keyboard-response,756,1110914,null,"<div style=""font-size:42px;"">BRANDY</div><img id = ""stim"" ><div class = green_square id = bottomsquare></div>",null,encoding,word_square,,,1,bottomsquare,32,true,,,BRANDY,6,,,
html-keyboard-response,757,1111219,131.5,"<div style=""font-size:42px;"">BRANDY</div>",32,,word,BRANDY,,,,,,,,,,,,
html-keyboard-response,758,1112724,null,"",null,,word,BRANDY,,,,,,,,,,,,
html-keyboard-response,759,1112930,null,"<div style=""font-size:42px;"">BOARD</div><img id = ""stim"" ><div class = red_square id = bottomsquare></div>",null,encoding,word_square,,,0,bottomsquare,none,true,,,BOARD,6,,,
html-keyboard-response,760,1113239,null,"<div style=""font-size:42px;"">BOARD</div>",null,,word,BOARD,,,,,,,,,,,,
html-keyboard-response,761,1114749,null,"",null,,word,BOARD,,,,,,,,,,,,
html-keyboard-response,762,1114954,null,"<div style=""font-size:42px;"">BUTLER</div><img id = ""stim"" ><div class = green_square id = topsquare></div>",null,encoding,word_square,,,1,topsquare,32,true,,,BUTLER,6,,,
html-keyboard-response,763,1115262,156.40000000037253,"<div style=""font-size:42px;"">BUTLER</div>",32,,word,BUTLER,,,,,,,,,,,,
html-keyboard-response,764,1116771,null,"",null,,word,BUTLER,,,,,,,,,,,,
html-keyboard-response,765,1116977,null,"<div style=""font-size:42px;"">MOP</div><img id = ""stim"" ><div class = green_square id = bottomsquare></div>",null,encoding,word_square,,,1,bottomsquare,32,true,,,MOP,6,,,
html-keyboard-response,766,1117285,238,"<div style=""font-size:42px;"">MOP</div>",32,,word,MOP,,,,,,,,,,,,
html-keyboard-response,767,1118795,null,"",null,,word,MOP,,,,,,,,,,,,
html-keyboard-response,768,1119003,null,"<div style=""font-size:42px;"">RUG</div><img id = ""stim"" ><div class = red_square id = topsquare></div>",null,encoding,word_square,,,0,topsquare,none,true,,,RUG,6,,,
html-keyboard-response,769,1119311,null,"<div style=""font-size:42px;"">RUG</div>",null,,word,RUG,,,,,,,,,,,,
html-keyboard-response,770,1120821,null,"",null,,word,RUG,,,,,,,,,,,,
html-keyboard-response,771,1121028,null,"<div style=""font-size:42px;"">LITTER</div><img id = ""stim"" ><div class = red_square id = bottomsquare></div>",null,encoding,word_square,,,0,bottomsquare,none,true,,,LITTER,6,,,
html-keyboard-response,772,1121334,null,"<div style=""font-size:42px;"">LITTER</div>",null,,word,LITTER,,,,,,,,,,,,
html-keyboard-response,773,1122841,null,"",null,,word,LITTER,,,,,,,,,,,,
html-keyboard-response,774,1123047,null,"<div style=""font-size:42px;"">WRENCH</div><img id = ""stim"" ><div class = green_square id = topsquare></div>",null,encoding,word_square,,,1,topsquare,32,true,,,WRENCH,6,,,
html-keyboard-response,775,1123356,174.09999999962747,"<div style=""font-size:42px;"">WRENCH</div>",32,,word,WRENCH,,,,,,,,,,,,
html-keyboard-response,776,1124866,null,"",null,,word,WRENCH,,,,,,,,,,,,
html-keyboard-response,777,1125072,null,"<div style=""font-size:42px;"">COUNTRY</div><img id = ""stim"" ><div class = red_square id = topsquare></div>",null,encoding,word_square,,,0,topsquare,none,true,,,COUNTRY,6,,,
html-keyboard-response,778,1125376,null,"<div style=""font-size:42px;"">COUNTRY</div>",null,,word,COUNTRY,,,,,,,,,,,,
html-keyboard-response,779,1126883,null,"",null,,word,COUNTRY,,,,,,,,,,,,
html-keyboard-response,780,1127093,null,"<div style=""font-size:42px;"">JAPAN</div><img id = ""stim"" ><div class = green_square id = bottomsquare></div>",null,encoding,word_square,,,1,bottomsquare,32,true,,,JAPAN,6,,,
html-keyboard-response,781,1127401,169.60000000149012,"<div style=""font-size:42px;"">JAPAN</div>",32,,word,JAPAN,,,,,,,,,,,,
html-keyboard-response,782,1128911,null,"",null,,word,JAPAN,,,,,,,,,,,,
html-keyboard-response,783,1129118,null,"<div style=""font-size:42px;"">GAVEL</div><img id = ""stim"" ><div class = green_square id = topsquare></div>",null,encoding,word_square,,,1,topsquare,32,true,,,GAVEL,6,,,
html-keyboard-response,784,1129427,188.10000000149012,"<div style=""font-size:42px;"">GAVEL</div>",32,,word,GAVEL,,,,,,,,,,,,
html-keyboard-response,785,1130934,null,"",null,,word,GAVEL,,,,,,,,,,,,
html-keyboard-response,786,1131141,null,"<div style=""font-size:42px;"">CHAMPAGNE</div><img id = ""stim"" ><div class = red_square id = bottomsquare></div>",null,encoding,word_square,,,0,bottomsquare,none,true,,,CHAMPAGNE,6,,,
html-keyboard-response,787,1131448,null,"<div style=""font-size:42px;"">CHAMPAGNE</div>",null,,word,CHAMPAGNE,,,,,,,,,,,,
html-keyboard-response,788,1132958,null,"",null,,word,CHAMPAGNE,,,,,,,,,,,,
html-keyboard-response,789,1133167,null,"<div style=""font-size:42px;"">MILDEW</div><img id = ""stim"" ><div class = green_square id = bottomsquare></div>",null,encoding,word_square,,,1,bottomsquare,32,true,,,MILDEW,6,,,
html-keyboard-response,790,1133478,178.59999999962747,"<div style=""font-size:42px;"">MILDEW</div>",32,,word,MILDEW,,,,,,,,,,,,
html-keyboard-response,791,1134986,null,"",null,,word,MILDEW,,,,,,,,,,,,
html-keyboard-response,792,1135191,null,"<div style=""font-size:42px;"">VAGRANT</div><img id = ""stim"" ><div class = red_square id = topsquare></div>",null,encoding,word_square,,,0,topsquare,none,true,,,VAGRANT,6,,,
html-keyboard-response,793,1135499,null,"<div style=""font-size:42px;"">VAGRANT</div>",null,,word,VAGRANT,,,,,,,,,,,,
html-keyboard-response,794,1137008,null,"",null,,word,VAGRANT,,,,,,,,,,,,
call-function,795,1137013,,"",,,,,,,,,,,,,,,,
html-keyboard-response,796,1137119,null,"",null,,,,,,,,,,,,,,,
math-period,797,1139169,3709.89999999851,"",,,,,,,,,,,1,,,,,
html-keyboard-response,798,1139274,null,"",null,,,,,,,,,,,,,,,
math-period,799,1140659,2550.7000000011176,"",,,,,,,,,,,2,,,,,
html-keyboard-response,800,1140765,null,"",null,,,,,,,,,,,,,,,
math-period,801,1142120,2488.3000000026077,"",,,,,,,,,,,5,,,,,
html-keyboard-response,802,1142229,null,"",null,,,,,,,,,,,,,,,
math-period,803,1144308,3842.0000000018626,"",,,,,,,,,,,2,,,,,
html-keyboard-response,804,1144413,null,"",null,,,,,,,,,,,,,,,
math-period,805,1146289,3444.4000000003725,"",,,,,,,,,,,1,,,,,
html-keyboard-response,806,1146399,null,"",null,,,,,,,,,,,,,,,
math-period,807,1147603,2192.699999999255,"",,,,,,,,,,,4,,,,,
html-keyboard-response,808,1147708,null,"",null,,,,,,,,,,,,,,,
math-period,809,1148653,1672.9000000022352,"",,,,,,,,,,,2,,,,,
html-keyboard-response,810,1148765,null,"",null,,,,,,,,,,,,,,,
math-period,811,1150109,2469.4000000003725,"",,,,,,,,,,,6,,,,,
html-keyboard-response,812,1150214,null,"",null,,,,,,,,,,,,,,,
math-period,813,1151725,2823.0999999996275,"",,,,,,,,,,,1,,,,,
html-keyboard-response,814,1151831,null,"",null,,,,,,,,,,,,,,,
math-period,815,1153444,3018.5,"",,,,,,,,,,,2,,,,,
html-keyboard-response,816,1153555,null,"",null,,,,,,,,,,,,,,,
math-period,817,1154670,2017.2000000011176,"",,,,,,,,,,,4,,,,,
html-keyboard-response,818,1154777,null,"",null,,,,,,,,,,,,,,,
math-period,819,1155814,1872.8999999985099,"",,,,,,,,,,,6,,,,,
html-keyboard-response,820,1155919,null,"",null,,,,,,,,,,,,,,,
math-period,821,1157450,2851.9000000003725,"",,,,,,,,,,,1,,,,,
html-keyboard-response,822,1157556,null,"",null,,,,,,,,,,,,,,,
math-period,823,1158687,2048.2999999988824,"",,,,,,,,,,,6,,,,,
html-keyboard-response,824,1158797,null,"",null,,,,,,,,,,,,,,,
math-period,825,1161020,null,"",,,,,,,,,,,,,,,,
html-keyboard-response,826,1162027,null,"Recall Period!",null,,,,,,,,,,,,,,,
call-function,827,1162031,,"",,,,,,,,,,,,,,,,
html-keyboard-response,828,1162135,null,"",null,,,,,,,,,,,,,,,
recall-period,829,1164522,9367.300000002608,"",,,,,,,,,,,mildew,,,,,
html-keyboard-response,830,1164629,null,"",null,,,,,,,,,,,,,,,
recall-period,831,1166604,9535.89999999851,"",,,,,,,,,,,country,,,,,
html-keyboard-response,832,1166710,null,"",null,,,,,,,,,,,,,,,
recall-period,833,1169042,11331.299999998882,"",,,,,,,,,,,japan,,,,,
html-keyboard-response,834,1169148,null,"",null,,,,,,,,,,,,,,,
recall-period,835,1171848,11937.200000001118,"",,,,,,,,,,,brandy,,,,,
html-keyboard-response,836,1171954,null,"",null,,,,,,,,,,,,,,,
recall-period,837,1174077,10535.699999989942,"",,,,,,,,,,,champagne,,,,,
html-keyboard-response,838,1174183,null,"",null,,,,,,,,,,,,,,,
recall-period,839,1177999,13249.700000001118,"",,,,,,,,,,,rug,,,,,
html-keyboard-response,840,1178105,null,"",null,,,,,,,,,,,,,,,
recall-period,841,1181515,18405.400000000373,"",,,,,,,,,,,wrench,,,,,
html-keyboard-response,842,1181621,null,"",null,,,,,,,,,,,,,,,
recall-period,843,1237033,null,"",,,,,,,,,,,,,,,,
html-keyboard-response,844,1237543,null,"Time's Up!",null,,,,,,,,,,,,,,,
html-keyboard-response,845,1239240,1685.5,"<p> Good job! You have responded correctly to 99% of the trials. </p>
                      <p>Be sure to only press the spacebar if you see a GREEN square, and please keep your accuracy above 80%.</p>
                      <p> Press any key to continue the experiment. </p>",32,,,,,,,,,,,,,,,
html-keyboard-response,846,1241606,2357.300000000745,"<div style=""font-size:48px;"">Press any key to begin list 8 of 16 </div>",32,,,,,,,,,,,,,,,
html-keyboard-response,847,1244113,null,"<div style=""font-size:60px;"">+</div>",null,,,,,,,,,,,,,,,
html-keyboard-response,848,1244320,null,"<div style=""font-size:42px;"">VAMPIRE</div><img id = ""stim"" ><div class = red_square id = topsquare></div>",null,encoding,word_square,,,0,topsquare,none,true,,,VAMPIRE,7,,,
html-keyboard-response,849,1244627,null,"<div style=""font-size:42px;"">VAMPIRE</div>",null,,word,VAMPIRE,,,,,,,,,,,,
html-keyboard-response,850,1246135,null,"",null,,word,VAMPIRE,,,,,,,,,,,,
html-keyboard-response,851,1246349,null,"<div style=""font-size:42px;"">INSECT</div><img id = ""stim"" ><div class = green_square id = bottomsquare></div>",null,encoding,word_square,,,1,bottomsquare,32,true,,,INSECT,7,,,
html-keyboard-response,852,1246655,138.69999999925494,"<div style=""font-size:42px;"">INSECT</div>",32,,word,INSECT,,,,,,,,,,,,
html-keyboard-response,853,1248164,null,"",null,,word,INSECT,,,,,,,,,,,,
html-keyboard-response,854,1248370,null,"<div style=""font-size:42px;"">TWIG</div><img id = ""stim"" ><div class = red_square id = bottomsquare></div>",null,encoding,word_square,,,0,bottomsquare,none,true,,,TWIG,7,,,
html-keyboard-response,855,1248676,null,"<div style=""font-size:42px;"">TWIG</div>",null,,word,TWIG,,,,,,,,,,,,
html-keyboard-response,856,1250185,null,"",null,,word,TWIG,,,,,,,,,,,,
html-keyboard-response,857,1250394,null,"<div style=""font-size:42px;"">SHRUB</div><img id = ""stim"" ><div class = green_square id = topsquare></div>",null,encoding,word_square,,,1,topsquare,32,true,,,SHRUB,7,,,
html-keyboard-response,858,1250699,117.70000000111759,"<div style=""font-size:42px;"">SHRUB</div>",32,,word,SHRUB,,,,,,,,,,,,
html-keyboard-response,859,1252211,null,"",null,,word,SHRUB,,,,,,,,,,,,
html-keyboard-response,860,1252422,null,"<div style=""font-size:42px;"">DRILL</div><img id = ""stim"" ><div class = green_square id = bottomsquare></div>",null,encoding,word_square,,,1,bottomsquare,32,true,,,DRILL,7,,,
html-keyboard-response,861,1252728,177.30000000074506,"<div style=""font-size:42px;"">DRILL</div>",32,,word,DRILL,,,,,,,,,,,,
html-keyboard-response,862,1254239,null,"",null,,word,DRILL,,,,,,,,,,,,
html-keyboard-response,863,1254447,null,"<div style=""font-size:42px;"">DIVER</div><img id = ""stim"" ><div class = red_square id = topsquare></div>",null,encoding,word_square,,,0,topsquare,none,true,,,DIVER,7,,,
html-keyboard-response,864,1254752,null,"<div style=""font-size:42px;"">DIVER</div>",null,,word,DIVER,,,,,,,,,,,,
html-keyboard-response,865,1256262,null,"",null,,word,DIVER,,,,,,,,,,,,
html-keyboard-response,866,1256469,null,"<div style=""font-size:42px;"">BUBBLE</div><img id = ""stim"" ><div class = green_square id = topsquare></div>",null,encoding,word_square,,,1,topsquare,32,true,,,BUBBLE,7,,,
html-keyboard-response,867,1256776,132.40000000037253,"<div style=""font-size:42px;"">BUBBLE</div>",32,,word,BUBBLE,,,,,,,,,,,,
html-keyboard-response,868,1258282,null,"",null,,word,BUBBLE,,,,,,,,,,,,
html-keyboard-response,869,1258489,null,"<div style=""font-size:42px;"">BREAST</div><img id = ""stim"" ><div class = red_square id = bottomsquare></div>",null,encoding,word_square,,,0,bottomsquare,none,true,,,BREAST,7,,,
html-keyboard-response,870,1258794,null,"<div style=""font-size:42px;"">BREAST</div>",null,,word,BREAST,,,,,,,,,,,,
html-keyboard-response,871,1260303,null,"",null,,word,BREAST,,,,,,,,,,,,
html-keyboard-response,872,1260510,null,"<div style=""font-size:42px;"">CREVICE</div><img id = ""stim"" ><div class = red_square id = topsquare></div>",null,encoding,word_square,,,0,topsquare,none,true,,,CREVICE,7,,,
html-keyboard-response,873,1260816,null,"<div style=""font-size:42px;"">CREVICE</div>",null,,word,CREVICE,,,,,,,,,,,,
html-keyboard-response,874,1262326,null,"",null,,word,CREVICE,,,,,,,,,,,,
html-keyboard-response,875,1262534,null,"<div style=""font-size:42px;"">DRUG</div><img id = ""stim"" ><div class = green_square id = bottomsquare></div>",null,encoding,word_square,,,1,bottomsquare,32,true,,,DRUG,7,,,
html-keyboard-response,876,1262843,208.80000000074506,"<div style=""font-size:42px;"">DRUG</div>",32,,word,DRUG,,,,,,,,,,,,
html-keyboard-response,877,1264349,null,"",null,,word,DRUG,,,,,,,,,,,,
html-keyboard-response,878,1264558,null,"<div style=""font-size:42px;"">FIGHTER</div><img id = ""stim"" ><div class = green_square id = topsquare></div>",null,encoding,word_square,,,1,topsquare,32,true,,,FIGHTER,7,,,
html-keyboard-response,879,1264864,null,"<div style=""font-size:42px;"">FIGHTER</div>",null,,word,FIGHTER,,,,,,,,,,,,
html-keyboard-response,880,1266373,198.80000000074506,"",32,,word,FIGHTER,,,,,,,,,,,,
html-keyboard-response,881,1266583,null,"<div style=""font-size:42px;"">GRILL</div><img id = ""stim"" ><div class = red_square id = bottomsquare></div>",null,encoding,word_square,,,0,bottomsquare,none,true,,,GRILL,7,,,
html-keyboard-response,882,1266890,null,"<div style=""font-size:42px;"">GRILL</div>",null,,word,GRILL,,,,,,,,,,,,
html-keyboard-response,883,1268401,null,"",null,,word,GRILL,,,,,,,,,,,,
html-keyboard-response,884,1268609,null,"<div style=""font-size:42px;"">SHAMPOO</div><img id = ""stim"" ><div class = green_square id = bottomsquare></div>",null,encoding,word_square,,,1,bottomsquare,32,true,,,SHAMPOO,7,,,
html-keyboard-response,885,1268915,184.40000000037253,"<div style=""font-size:42px;"">SHAMPOO</div>",32,,word,SHAMPOO,,,,,,,,,,,,
html-keyboard-response,886,1270423,null,"",null,,word,SHAMPOO,,,,,,,,,,,,
html-keyboard-response,887,1270633,null,"<div style=""font-size:42px;"">SKILLET</div><img id = ""stim"" ><div class = green_square id = topsquare></div>",null,encoding,word_square,,,1,topsquare,32,true,,,SKILLET,7,,,
html-keyboard-response,888,1270938,146.5,"<div style=""font-size:42px;"">SKILLET</div>",32,,word,SKILLET,,,,,,,,,,,,
html-keyboard-response,889,1272448,null,"",null,,word,SKILLET,,,,,,,,,,,,
html-keyboard-response,890,1272654,null,"<div style=""font-size:42px;"">PUPIL</div><img id = ""stim"" ><div class = red_square id = topsquare></div>",null,encoding,word_square,,,0,topsquare,none,true,,,PUPIL,7,,,
html-keyboard-response,891,1272959,null,"<div style=""font-size:42px;"">PUPIL</div>",null,,word,PUPIL,,,,,,,,,,,,
html-keyboard-response,892,1274468,null,"",null,,word,PUPIL,,,,,,,,,,,,
html-keyboard-response,893,1274678,null,"<div style=""font-size:42px;"">FLOWER</div><img id = ""stim"" ><div class = red_square id = bottomsquare></div>",null,encoding,word_square,,,0,bottomsquare,none,true,,,FLOWER,7,,,
html-keyboard-response,894,1274983,null,"<div style=""font-size:42px;"">FLOWER</div>",null,,word,FLOWER,,,,,,,,,,,,
html-keyboard-response,895,1276492,null,"",null,,word,FLOWER,,,,,,,,,,,,
call-function,896,1276500,,"",,,,,,,,,,,,,,,,
html-keyboard-response,897,1276606,null,"",null,,,,,,,,,,,,,,,
math-period,898,1279781,5541.5999999996275,"",,,,,,,,,,,0,,,,,
html-keyboard-response,899,1279889,null,"",null,,,,,,,,,,,,,,,
math-period,900,1281367,2694.7000000011176,"",,,,,,,,,,,4,,,,,
html-keyboard-response,901,1281473,null,"",null,,,,,,,,,,,,,,,
math-period,902,1282922,2691.2999999988824,"",,,,,,,,,,,2,,,,,
html-keyboard-response,903,1283029,null,"",null,,,,,,,,,,,,,,,
math-period,904,1284216,2107.7000000011176,"",,,,,,,,,,,5,,,,,
html-keyboard-response,905,1284325,null,"",null,,,,,,,,,,,,,,,
math-period,906,1285461,2062.2999999988824,"",,,,,,,,,,,4,,,,,
html-keyboard-response,907,1285572,null,"",null,,,,,,,,,,,,,,,
math-period,908,1286917,2433.5999999996275,"",,,,,,,,,,,4,,,,,
html-keyboard-response,909,1287023,null,"",null,,,,,,,,,,,,,,,
math-period,910,1288538,2817.300000000745,"",,,,,,,,,,,2,,,,,
html-keyboard-response,911,1288643,null,"",null,,,,,,,,,,,,,,,
math-period,912,1289677,1857.0999999996275,"",,,,,,,,,,,3,,,,,
html-keyboard-response,913,1289789,null,"",null,,,,,,,,,,,,,,,
math-period,914,1290889,1957.3999999985099,"",,,,,,,,,,,3,,,,,
html-keyboard-response,915,1290995,null,"",null,,,,,,,,,,,,,,,
math-period,916,1292745,3283.2999999988824,"",,,,,,,,,,,4,,,,,
html-keyboard-response,917,1292855,null,"",null,,,,,,,,,,,,,,,
math-period,918,1293954,2008.5,"",,,,,,,,,,,3,,,,,
html-keyboard-response,919,1294061,null,"",null,,,,,,,,,,,,,,,
math-period,920,1296122,3117.7000000029802,"",,,,,,,,,,,5,,,,,
html-keyboard-response,921,1296231,null,"",null,,,,,,,,,,,,,,,
math-period,922,1297343,1914.699999999255,"",,,,,,,,,,,2,,,,,
html-keyboard-response,923,1297452,null,"",null,,,,,,,,,,,,,,,
math-period,924,1298893,2668.60000000149,"",,,,,,,,,,,2,,,,,
html-keyboard-response,925,1299000,null,"",null,,,,,,,,,,,,,,,
math-period,926,1300331,2432.199999999255,"",,,,,,,,,,,2,,,,,
html-keyboard-response,927,1300437,null,"",null,,,,,,,,,,,,,,,
math-period,928,1300506,null,"",,,,,,,,,,,,,,,,
html-keyboard-response,929,1301514,null,"Recall Period!",null,,,,,,,,,,,,,,,
call-function,930,1301519,,"",,,,,,,,,,,,,,,,
html-keyboard-response,931,1301626,null,"",null,,,,,,,,,,,,,,,
recall-period,932,1303545,8342.799999998882,"",,,,,,,,,,,vampire,,,,,
html-keyboard-response,933,1303654,null,"",null,,,,,,,,,,,,,,,
recall-period,934,1305345,5994.300000002608,"",,,,,,,,,,,pupil,,,,,
html-keyboard-response,935,1305452,null,"",null,,,,,,,,,,,,,,,
recall-period,936,1306957,5671.599999997765,"",,,,,,,,,,,shampoo,,,,,
html-keyboard-response,937,1307063,null,"",null,,,,,,,,,,,,,,,
recall-period,938,1310574,18618.799999998882,"",,,,,,,,,,,flower,,,,,
html-keyboard-response,939,1310683,null,"",null,,,,,,,,,,,,,,,
recall-period,940,1321175,75650.80000000075,"",,,,,,,,,,,skillet,,,,,
html-keyboard-response,941,1321282,null,"",null,,,,,,,,,,,,,,,
recall-period,942,1376522,null,"",,,,,,,,,,,,,,,,
html-keyboard-response,943,1377032,null,"Time's Up!",null,,,,,,,,,,,,,,,
html-keyboard-response,944,1379482,2440.9000000003725,"<p> Good job! You have responded correctly to 99% of the trials. </p>
                      <p>Be sure to only press the spacebar if you see a GREEN square, and please keep your accuracy above 80%.</p>
