trial_type,trial_index,time_elapsed,rt,stimulus,key_press,exp_phase,test_part,word,task,targ_cond,sq_pos,correctKeyCode,correct,value,response,Word,List,RecResp,serial_pos,colorChosen
pavlovia,0,2693,,"",,,,,,,,,,,,,,,,
external-html,1,8320,5428,"",,,,,,,,,,,,,,,,
html-keyboard-response,2,10629,2304,"Welcome to the experiment. Press any key to begin.",72,,,,,,,,,,,,,,,
html-keyboard-response,3,216167,205532,"<p>You will see a list of words and colored squares in the following task.<p><p>Press the spacebar whenever you see a GREEN square.<p><p>Do not press a key if the square is RED.<p><p>Press the spacebar to continue.</p>",32,,,,,,,,,,,,,,,
html-keyboard-response,4,245484,28806,"<p>Please try to remember as many of the words as you can, and try to think about the meaning of each word as it appears.<p><p>After the detection and encoding task you will be asked to solve some math problems for 24 seconds.<p> Please solve as many problems as you can in the time given. <p><p><p>Press the spacebar to continue.</p>",32,,,,,,,,,,,,,,,
html-keyboard-response,5,256692,10696,"After solving the math problems, you will be asked to type in as many words <p>from the previous list as you can remember for 75 seconds.<p> If you finish recalling before the 75 seconds are up,<p> just sit tight and try to think of any more words you could have missed. <p><p><p>Press the spacebar to continue.</p>",32,,,,,,,,,,,,,,,
html-keyboard-response,6,264852,7656,"There will be 16 lists of words and recall, followed  by<p><p> a recognition phase. The experiment is expected to take up to 90 minutes.<p>We will begin with a brief practice session.<p>Press the spacebar to begin the practice.</p>",32,,,,,,,,,,,,,,,
html-keyboard-response,7,267368,null,"<div style=""font-size:60px;"">+</div>",null,,,,,,,,,,,,,,,
html-keyboard-response,8,267578,null,"<div style=""font-size:42px;"">HAPPY</div><img id = ""stim"" ><div class = red_square id = ""bottomsquare"" ></div>",null,practice,word_square,HAPPY,prac_response,0,Bottom,none,true,,,,,,,
html-keyboard-response,9,267887,null,"<div style=""font-size:42px;"">HAPPY</div>",null,,word,HAPPY,,,,,,,,,,,,
html-keyboard-response,10,269398,null,"",null,,word,HAPPY,,,,,,,,,,,,
html-keyboard-response,11,269607,null,"<div style=""font-size:42px;"">COLD</div><img id = ""stim"" ><div class = green_square id = ""bottomsquare"" ></div>",null,practice,word_square,COLD,prac_response,1,Bottom,32,true,,,,,,,
html-keyboard-response,12,269918,211,"<div style=""font-size:42px;"">COLD</div>",32,,word,COLD,,,,,,,,,,,,
html-keyboard-response,13,271427,null,"",null,,word,COLD,,,,,,,,,,,,
html-keyboard-response,14,271638,null,"<div style=""font-size:42px;"">HEAVY</div><img id = ""stim"" ><div class = green_square id = ""topsquare"" ></div>",null,practice,word_square,HEAVY,prac_response,1,Top,32,true,,,,,,,
html-keyboard-response,15,271948,293,"<div style=""font-size:42px;"">HEAVY</div>",32,,word,HEAVY,,,,,,,,,,,,
html-keyboard-response,16,273458,null,"",null,,word,HEAVY,,,,,,,,,,,,
html-keyboard-response,17,273668,null,"<div style=""font-size:42px;"">FUNNY</div><img id = ""stim"" ><div class = red_square id = ""topsquare"" ></div>",null,practice,word_square,FUNNY,prac_response,0,Top,none,false,,,,,,,
html-keyboard-response,18,273978,172,"<div style=""font-size:42px;"">FUNNY</div>",32,,word,FUNNY,,,,,,,,,,,,
html-keyboard-response,19,275488,null,"",null,,word,FUNNY,,,,,,,,,,,,
html-keyboard-response,20,275698,null,"<div style=""font-size:42px;"">SCARY</div><img id = ""stim"" ><div class = green_square id = ""bottomsquare"" ></div>",null,practice,word_square,SCARY,prac_response,1,Bottom,32,true,,,,,,,
html-keyboard-response,21,276007,297,"<div style=""font-size:42px;"">SCARY</div>",32,,word,SCARY,,,,,,,,,,,,
html-keyboard-response,22,277517,null,"",null,,word,SCARY,,,,,,,,,,,,
html-keyboard-response,23,277728,null,"<div style=""font-size:42px;"">PEACEFUL</div><img id = ""stim"" ><div class = green_square id = ""topsquare"" ></div>",null,practice,word_square,PEACEFUL,prac_response,1,Top,32,true,,,,,,,
html-keyboard-response,24,278037,299,"<div style=""font-size:42px;"">PEACEFUL</div>",32,,word,PEACEFUL,,,,,,,,,,,,
html-keyboard-response,25,279547,null,"",null,,word,PEACEFUL,,,,,,,,,,,,
html-keyboard-response,26,279757,null,"<div style=""font-size:42px;"">LITTLE</div><img id = ""stim"" ><div class = red_square id = ""bottomsquare"" ></div>",null,practice,word_square,LITTLE,prac_response,0,Bottom,none,true,,,,,,,
html-keyboard-response,27,280068,null,"<div style=""font-size:42px;"">LITTLE</div>",null,,word,LITTLE,,,,,,,,,,,,
html-keyboard-response,28,281579,null,"",null,,word,LITTLE,,,,,,,,,,,,
html-keyboard-response,29,281789,null,"<div style=""font-size:42px;"">TIRED</div><img id = ""stim"" ><div class = red_square id = ""topsquare"" ></div>",null,practice,word_square,TIRED,prac_response,0,Top,none,true,,,,,,,
html-keyboard-response,30,282099,null,"<div style=""font-size:42px;"">TIRED</div>",null,,word,TIRED,,,,,,,,,,,,
html-keyboard-response,31,283609,null,"",null,,word,TIRED,,,,,,,,,,,,
html-keyboard-response,32,283818,null,"<div style=""font-size:42px;"">ENTERTAINING</div><img id = ""stim"" ><div class = red_square id = ""bottomsquare"" ></div>",null,practice,word_square,ENTERTAINING,prac_response,0,Bottom,none,true,,,,,,,
html-keyboard-response,33,284129,null,"<div style=""font-size:42px;"">ENTERTAINING</div>",null,,word,ENTERTAINING,,,,,,,,,,,,
html-keyboard-response,34,285638,null,"",null,,word,ENTERTAINING,,,,,,,,,,,,
html-keyboard-response,35,285850,null,"<div style=""font-size:42px;"">GRATEFUL</div><img id = ""stim"" ><div class = green_square id = ""bottomsquare"" ></div>",null,practice,word_square,GRATEFUL,prac_response,1,Bottom,32,true,,,,,,,
html-keyboard-response,36,286158,120,"<div style=""font-size:42px;"">GRATEFUL</div>",32,,word,GRATEFUL,,,,,,,,,,,,
html-keyboard-response,37,287668,null,"",null,,word,GRATEFUL,,,,,,,,,,,,
html-keyboard-response,38,287879,null,"<div style=""font-size:42px;"">LOUD</div><img id = ""stim"" ><div class = red_square id = ""topsquare"" ></div>",null,practice,word_square,LOUD,prac_response,0,Top,none,true,,,,,,,
html-keyboard-response,39,288189,null,"<div style=""font-size:42px;"">LOUD</div>",null,,word,LOUD,,,,,,,,,,,,
html-keyboard-response,40,289699,null,"",null,,word,LOUD,,,,,,,,,,,,
html-keyboard-response,41,289908,null,"<div style=""font-size:42px;"">SMART</div><img id = ""stim"" ><div class = green_square id = ""topsquare"" ></div>",null,practice,word_square,SMART,prac_response,1,Top,32,true,,,,,,,
html-keyboard-response,42,290219,212,"<div style=""font-size:42px;"">SMART</div>",32,,word,SMART,,,,,,,,,,,,
html-keyboard-response,43,291729,null,"",null,,word,SMART,,,,,,,,,,,,
html-keyboard-response,44,291938,null,"<div style=""font-size:42px;"">SMOOTH</div><img id = ""stim"" ><div class = green_square id = ""bottomsquare"" ></div>",null,practice,word_square,SMOOTH,prac_response,1,Bottom,32,true,,,,,,,
html-keyboard-response,45,292248,254,"<div style=""font-size:42px;"">SMOOTH</div>",32,,word,SMOOTH,,,,,,,,,,,,
html-keyboard-response,46,293758,null,"",null,,word,SMOOTH,,,,,,,,,,,,
html-keyboard-response,47,293968,null,"<div style=""font-size:42px;"">DISHONEST</div><img id = ""stim"" ><div class = red_square id = ""bottomsquare"" ></div>",null,practice,word_square,DISHONEST,prac_response,0,Bottom,none,true,,,,,,,
html-keyboard-response,48,294278,null,"<div style=""font-size:42px;"">DISHONEST</div>",null,,word,DISHONEST,,,,,,,,,,,,
html-keyboard-response,49,295788,null,"",null,,word,DISHONEST,,,,,,,,,,,,
html-keyboard-response,50,295998,null,"<div style=""font-size:42px;"">WEALTHY</div><img id = ""stim"" ><div class = green_square id = ""topsquare"" ></div>",null,practice,word_square,WEALTHY,prac_response,1,Top,32,true,,,,,,,
html-keyboard-response,51,296308,124,"<div style=""font-size:42px;"">WEALTHY</div>",32,,word,WEALTHY,,,,,,,,,,,,
html-keyboard-response,52,297818,null,"",null,,word,WEALTHY,,,,,,,,,,,,
html-keyboard-response,53,298029,null,"<div style=""font-size:42px;"">BEAUTIFUL</div><img id = ""stim"" ><div class = red_square id = ""topsquare"" ></div>",null,practice,word_square,BEAUTIFUL,prac_response,0,Top,none,true,,,,,,,
html-keyboard-response,54,298338,null,"<div style=""font-size:42px;"">BEAUTIFUL</div>",null,,word,BEAUTIFUL,,,,,,,,,,,,
html-keyboard-response,55,299850,null,"",null,,word,BEAUTIFUL,,,,,,,,,,,,
html-keyboard-response,56,310101,10249,"<p> Good job! You responded correctly to 94% of the trials. </p>
                  <p>Be sure to only press the spacebar if you see a GREEN square, and please keep your accuracy above 80%.</p>
                  <p>We're going to try once more to make sure you understand the task. press any key to continue. </p>",32,,,,,,,,,,,,,,,
html-keyboard-response,57,317836,7733,"<p>You will see a list of words and colored squares in the following task.<p><p>Press the spacebar whenever you see a GREEN square.<p><p>Do not press a key if the square is RED<p><p>Press the spacebar to continue.</p>",32,,,,,,,,,,,,,,,
html-keyboard-response,58,320344,null,"<div style=""font-size:60px;"">+</div>",null,,,,,,,,,,,,,,,
html-keyboard-response,59,320554,null,"<div style=""font-size:42px;"">HAPPY</div><img id = ""stim"" ><div class = red_square id = ""bottomsquare"" ></div>",null,practice2,word_square,HAPPY,prac_response,0,Bottom,none,true,,,,,,,
html-keyboard-response,60,320864,null,"<div style=""font-size:42px;"">HAPPY</div>",null,,word,HAPPY,,,,,,,,,,,,
html-keyboard-response,61,322374,null,"",null,,word,HAPPY,,,,,,,,,,,,
html-keyboard-response,62,322583,null,"<div style=""font-size:42px;"">COLD</div><img id = ""stim"" ><div class = green_square id = ""bottomsquare"" ></div>",null,practice2,word_square,,prac_response,1,Bottom,32,true,,,,,,,
html-keyboard-response,63,322894,90,"<div style=""font-size:42px;"">COLD</div>",32,,word,COLD,,,,,,,,,,,,
html-keyboard-response,64,324403,null,"",null,,word,COLD,,,,,,,,,,,,
html-keyboard-response,65,324615,null,"<div style=""font-size:42px;"">HEAVY</div><img id = ""stim"" ><div class = green_square id = ""topsquare"" ></div>",null,practice2,word_square,,prac_response,1,Top,32,true,,,,,,,
html-keyboard-response,66,324923,107,"<div style=""font-size:42px;"">HEAVY</div>",32,,word,HEAVY,,,,,,,,,,,,
html-keyboard-response,67,326433,null,"",null,,word,HEAVY,,,,,,,,,,,,
html-keyboard-response,68,326644,null,"<div style=""font-size:42px;"">FUNNY</div><img id = ""stim"" ><div class = red_square id = ""topsquare"" ></div>",null,practice2,word_square,,prac_response,0,Top,none,true,,,,,,,
html-keyboard-response,69,326953,null,"<div style=""font-size:42px;"">FUNNY</div>",null,,word,FUNNY,,,,,,,,,,,,
html-keyboard-response,70,328464,null,"",null,,word,FUNNY,,,,,,,,,,,,
html-keyboard-response,71,328674,null,"<div style=""font-size:42px;"">SCARY</div><img id = ""stim"" ><div class = green_square id = ""bottomsquare"" ></div>",null,practice2,word_square,,prac_response,1,Bottom,32,true,,,,,,,
html-keyboard-response,72,328983,183,"<div style=""font-size:42px;"">SCARY</div>",32,,word,SCARY,,,,,,,,,,,,
html-keyboard-response,73,330493,null,"",null,,word,SCARY,,,,,,,,,,,,
html-keyboard-response,74,330703,null,"<div style=""font-size:42px;"">PEACEFUL</div><img id = ""stim"" ><div class = green_square id = ""topsquare"" ></div>",null,practice2,word_square,,prac_response,1,Top,32,true,,,,,,,
html-keyboard-response,75,331014,226,"<div style=""font-size:42px;"">PEACEFUL</div>",32,,word,PEACEFUL,,,,,,,,,,,,
html-keyboard-response,76,332525,null,"",null,,word,PEACEFUL,,,,,,,,,,,,
html-keyboard-response,77,332733,null,"<div style=""font-size:42px;"">LITTLE</div><img id = ""stim"" ><div class = red_square id = ""bottomsquare"" ></div>",null,practice2,word_square,LITTLE,prac_response,0,Bottom,none,true,,,,,,,
html-keyboard-response,78,333044,null,"<div style=""font-size:42px;"">LITTLE</div>",null,,word,LITTLE,,,,,,,,,,,,
html-keyboard-response,79,334553,null,"",null,,word,LITTLE,,,,,,,,,,,,
html-keyboard-response,80,334763,null,"<div style=""font-size:42px;"">TIRED</div><img id = ""stim"" ><div class = red_square id = ""topsquare"" ></div>",null,practice2,word_square,,prac_response,0,Top,none,true,,,,,,,
html-keyboard-response,81,335073,null,"<div style=""font-size:42px;"">TIRED</div>",null,,word,TIRED,,,,,,,,,,,,
html-keyboard-response,82,336584,null,"",null,,word,TIRED,,,,,,,,,,,,
html-keyboard-response,83,336795,null,"<div style=""font-size:42px;"">ENTERTAINING</div><img id = ""stim"" ><div class = red_square id = ""bottomsquare"" ></div>",null,practice2,word_square,ENTERTAINING,prac_response,0,Bottom,none,true,,,,,,,
html-keyboard-response,84,337104,null,"<div style=""font-size:42px;"">ENTERTAINING</div>",null,,word,ENTERTAINING,,,,,,,,,,,,
html-keyboard-response,85,338615,null,"",null,,word,ENTERTAINING,,,,,,,,,,,,
html-keyboard-response,86,338824,null,"<div style=""font-size:42px;"">GRATEFUL</div><img id = ""stim"" ><div class = green_square id = ""bottomsquare"" ></div>",null,practice2,word_square,,prac_response,1,Bottom,32,true,,,,,,,
html-keyboard-response,87,339134,129,"<div style=""font-size:42px;"">GRATEFUL</div>",32,,word,GRATEFUL,,,,,,,,,,,,
html-keyboard-response,88,340644,null,"",null,,word,GRATEFUL,,,,,,,,,,,,
html-keyboard-response,89,340857,null,"<div style=""font-size:42px;"">LOUD</div><img id = ""stim"" ><div class = red_square id = ""topsquare"" ></div>",null,practice2,word_square,,prac_response,0,Top,none,true,,,,,,,
html-keyboard-response,90,341165,null,"<div style=""font-size:42px;"">LOUD</div>",null,,word,LOUD,,,,,,,,,,,,
html-keyboard-response,91,342674,null,"",null,,word,LOUD,,,,,,,,,,,,
html-keyboard-response,92,342885,null,"<div style=""font-size:42px;"">SMART</div><img id = ""stim"" ><div class = green_square id = ""topsquare"" ></div>",null,practice2,word_square,,prac_response,1,Top,32,true,,,,,,,
html-keyboard-response,93,343194,133,"<div style=""font-size:42px;"">SMART</div>",32,,word,SMART,,,,,,,,,,,,
html-keyboard-response,94,344704,null,"",null,,word,SMART,,,,,,,,,,,,
html-keyboard-response,95,344914,null,"<div style=""font-size:42px;"">SMOOTH</div><img id = ""stim"" ><div class = green_square id = ""bottomsquare"" ></div>",null,practice2,word_square,,prac_response,1,Bottom,32,true,,,,,,,
html-keyboard-response,96,345224,120,"<div style=""font-size:42px;"">SMOOTH</div>",32,,word,SMOOTH,,,,,,,,,,,,
html-keyboard-response,97,346735,null,"",null,,word,SMOOTH,,,,,,,,,,,,
html-keyboard-response,98,346944,null,"<div style=""font-size:42px;"">DISHONEST</div><img id = ""stim"" ><div class = red_square id = ""bottomsquare"" ></div>",null,practice2,word_square,DISHONEST,prac_response,0,Bottom,none,true,,,,,,,
html-keyboard-response,99,347255,null,"<div style=""font-size:42px;"">DISHONEST</div>",null,,word,DISHONEST,,,,,,,,,,,,
html-keyboard-response,100,348765,null,"",null,,word,DISHONEST,,,,,,,,,,,,
html-keyboard-response,101,348976,null,"<div style=""font-size:42px;"">WEALTHY</div><img id = ""stim"" ><div class = green_square id = ""topsquare"" ></div>",null,practice2,word_square,,prac_response,1,Top,32,true,,,,,,,
html-keyboard-response,102,349285,194,"<div style=""font-size:42px;"">WEALTHY</div>",32,,word,WEALTHY,,,,,,,,,,,,
html-keyboard-response,103,350794,null,"",null,,word,WEALTHY,,,,,,,,,,,,
html-keyboard-response,104,351004,null,"<div style=""font-size:42px;"">BEAUTIFUL</div><img id = ""stim"" ><div class = red_square id = ""topsquare"" ></div>",null,practice2,word_square,,prac_response,0,Top,none,true,,,,,,,
html-keyboard-response,105,351315,null,"<div style=""font-size:42px;"">BEAUTIFUL</div>",null,,word,BEAUTIFUL,,,,,,,,,,,,
html-keyboard-response,106,352825,null,"",null,,word,BEAUTIFUL,,,,,,,,,,,,
html-keyboard-response,107,371572,18744,"<p> Good job! You responded correctly to 100% of the trials. </p>
                    <p>Be sure to only press the spacebar if you see a GREEN square, and please keep your accuracy above 80%.</p>
                    <p>Press any key to begin the math and recall sections. Thank you! </p>",32,,,,,,,,,,,,,,,
call-function,108,371574,,"",,,,,,,,,,,,,,,,
html-keyboard-response,109,371685,null,"",null,,,,,,,,,,,,,,,
math-period,110,376740,8864,"",,,,,,,,,,,3,,,,,
html-keyboard-response,111,376847,null,"",null,,,,,,,,,,,,,,,
math-period,112,383700,12934,"",,,,,,,,,,,2,,,,,
html-keyboard-response,113,383808,null,"",null,,,,,,,,,,,,,,,
math-period,114,386021,4163,"",,,,,,,,,,,6,,,,,
html-keyboard-response,115,386127,null,"",null,,,,,,,,,,,,,,,
math-period,116,392037,11357,"",,,,,,,,,,,1,,,,,
html-keyboard-response,117,392147,null,"",null,,,,,,,,,,,,,,,
math-period,118,395578,null,"",,,,,,,,,,,,,,,,
html-keyboard-response,119,396588,null,"Recall Period!",null,,,,,,,,,,,,,,,
call-function,120,396589,,"",,,,,,,,,,,,,,,,
html-keyboard-response,121,396698,null,"",null,,,,,,,,,,,,,,,
recall-period,122,403669,78104,"",,,,,,,,,,,wealthy,,,,,
html-keyboard-response,123,403779,null,"",null,,,,,,,,,,,,,,,
recall-period,124,405252,6100,"",,,,,,,,,,,happy,,,,,
html-keyboard-response,125,405359,null,"",null,,,,,,,,,,,,,,,
recall-period,126,406828,5350,"",,,,,,,,,,,funny,,,,,
html-keyboard-response,127,406939,null,"",null,,,,,,,,,,,,,,,
recall-period,128,408724,8669,"",,,,,,,,,,,smooth,,,,,
html-keyboard-response,129,408829,null,"",null,,,,,,,,,,,,,,,
recall-period,130,411692,10306,"",,,,,,,,,,,sad,,,,,
html-keyboard-response,131,411799,null,"",null,,,,,,,,,,,,,,,
recall-period,132,418141,59817,"",,,,,,,,,,,scary,,,,,
html-keyboard-response,133,418250,null,"",null,,,,,,,,,,,,,,,
recall-period,134,434717,16465,"",,,,,,,,,,,,,,,,
html-keyboard-response,135,434823,null,"",null,,,,,,,,,,,,,,,
recall-period,136,447269,71871,"",,,,,,,,,,,funny,,,,,
html-keyboard-response,137,447373,null,"",null,,,,,,,,,,,,,,,
recall-period,138,471595,null,"",,,,,,,,,,,,,,,,
html-keyboard-response,139,472105,null,"Time's Up!",null,,,,,,,,,,,,,,,
html-keyboard-response,140,476877,4769,"<p>We will now begin the experiment!<p><p>Please try to remember all words from each list.<p><p>Press the spacebar whenever you see a GREEN square.<p><p><p><p>Press the spacebar to begin.</p>",32,,,,,,,,,,,,,,,
html-keyboard-response,141,479828,2444,"<div style=""font-size:48px;"">Press any key to begin list 1 of 16 </div>",32,,,,,,,,,,,,,,,
html-keyboard-response,142,482345,null,"<div style=""font-size:60px;"">+</div>",null,,,,,,,,,,,,,,,
html-keyboard-response,143,482554,null,"<div style=""font-size:42px;"">BISCUIT</div><img id = ""stim"" ><div class = green_square id = topsquare></div>",null,encoding,word_square,,,1,topsquare,32,true,,,BISCUIT,0,,,
html-keyboard-response,144,482865,216,"<div style=""font-size:42px;"">BISCUIT</div>",32,,word,BISCUIT,,,,,,,,,,,,
html-keyboard-response,145,484375,null,"",null,,word,BISCUIT,,,,,,,,,,,,
html-keyboard-response,146,484586,null,"<div style=""font-size:42px;"">PORCH</div><img id = ""stim"" ><div class = green_square id = bottomsquare></div>",null,encoding,word_square,,,1,bottomsquare,32,true,,,PORCH,0,,,
html-keyboard-response,147,484896,153,"<div style=""font-size:42px;"">PORCH</div>",32,,word,PORCH,,,,,,,,,,,,
html-keyboard-response,148,486405,null,"",null,,word,PORCH,,,,,,,,,,,,
html-keyboard-response,149,486616,null,"<div style=""font-size:42px;"">COD</div><img id = ""stim"" ><div class = red_square id = bottomsquare></div>",null,encoding,word_square,,,0,bottomsquare,none,true,,,COD,0,,,
html-keyboard-response,150,486925,null,"<div style=""font-size:42px;"">COD</div>",null,,word,COD,,,,,,,,,,,,
html-keyboard-response,151,488436,null,"",null,,word,COD,,,,,,,,,,,,
html-keyboard-response,152,488646,null,"<div style=""font-size:42px;"">BANJO</div><img id = ""stim"" ><div class = red_square id = topsquare></div>",null,encoding,word_square,,,0,topsquare,none,true,,,BANJO,0,,,
html-keyboard-response,153,488956,null,"<div style=""font-size:42px;"">BANJO</div>",null,,word,BANJO,,,,,,,,,,,,
html-keyboard-response,154,490465,null,"",null,,word,BANJO,,,,,,,,,,,,
html-keyboard-response,155,490676,null,"<div style=""font-size:42px;"">FIREPLACE</div><img id = ""stim"" ><div class = green_square id = topsquare></div>",null,encoding,word_square,,,1,topsquare,32,true,,,FIREPLACE,0,,,
html-keyboard-response,156,490986,127,"<div style=""font-size:42px;"">FIREPLACE</div>",32,,word,FIREPLACE,,,,,,,,,,,,
html-keyboard-response,157,492495,null,"",null,,word,FIREPLACE,,,,,,,,,,,,
html-keyboard-response,158,492706,null,"<div style=""font-size:42px;"">DOG</div><img id = ""stim"" ><div class = red_square id = bottomsquare></div>",null,encoding,word_square,,,0,bottomsquare,none,true,,,DOG,0,,,
html-keyboard-response,159,493015,null,"<div style=""font-size:42px;"">DOG</div>",null,,word,DOG,,,,,,,,,,,,
html-keyboard-response,160,494525,null,"",null,,word,DOG,,,,,,,,,,,,
html-keyboard-response,161,494735,null,"<div style=""font-size:42px;"">BURGLAR</div><img id = ""stim"" ><div class = green_square id = bottomsquare></div>",null,encoding,word_square,,,1,bottomsquare,32,true,,,BURGLAR,0,,,
html-keyboard-response,162,495046,267,"<div style=""font-size:42px;"">BURGLAR</div>",32,,word,BURGLAR,,,,,,,,,,,,
html-keyboard-response,163,496556,null,"",null,,word,BURGLAR,,,,,,,,,,,,
html-keyboard-response,164,496766,null,"<div style=""font-size:42px;"">SUSPECT</div><img id = ""stim"" ><div class = red_square id = topsquare></div>",null,encoding,word_square,,,0,topsquare,none,true,,,SUSPECT,0,,,
html-keyboard-response,165,497076,null,"<div style=""font-size:42px;"">SUSPECT</div>",null,,word,SUSPECT,,,,,,,,,,,,
html-keyboard-response,166,498586,null,"",null,,word,SUSPECT,,,,,,,,,,,,
html-keyboard-response,167,498796,null,"<div style=""font-size:42px;"">SCULPTURE</div><img id = ""stim"" ><div class = red_square id = bottomsquare></div>",null,encoding,word_square,,,0,bottomsquare,none,true,,,SCULPTURE,0,,,
html-keyboard-response,168,499105,null,"<div style=""font-size:42px;"">SCULPTURE</div>",null,,word,SCULPTURE,,,,,,,,,,,,
html-keyboard-response,169,500617,null,"",null,,word,SCULPTURE,,,,,,,,,,,,
html-keyboard-response,170,500825,null,"<div style=""font-size:42px;"">IDOL</div><img id = ""stim"" ><div class = green_square id = topsquare></div>",null,encoding,word_square,,,1,topsquare,32,true,,,IDOL,0,,,
html-keyboard-response,171,501137,144,"<div style=""font-size:42px;"">IDOL</div>",32,,word,IDOL,,,,,,,,,,,,
html-keyboard-response,172,502645,null,"",null,,word,IDOL,,,,,,,,,,,,
html-keyboard-response,173,502856,null,"<div style=""font-size:42px;"">SCALLOP</div><img id = ""stim"" ><div class = green_square id = bottomsquare></div>",null,encoding,word_square,,,1,bottomsquare,32,true,,,SCALLOP,0,,,
html-keyboard-response,174,503167,121,"<div style=""font-size:42px;"">SCALLOP</div>",32,,word,SCALLOP,,,,,,,,,,,,
html-keyboard-response,175,504676,null,"",null,,word,SCALLOP,,,,,,,,,,,,
html-keyboard-response,176,504887,null,"<div style=""font-size:42px;"">COWBOY</div><img id = ""stim"" ><div class = red_square id = topsquare></div>",null,encoding,word_square,,,0,topsquare,none,true,,,COWBOY,0,,,
html-keyboard-response,177,505196,null,"<div style=""font-size:42px;"">COWBOY</div>",null,,word,COWBOY,,,,,,,,,,,,
html-keyboard-response,178,506706,null,"",null,,word,COWBOY,,,,,,,,,,,,
html-keyboard-response,179,506917,null,"<div style=""font-size:42px;"">FIDDLE</div><img id = ""stim"" ><div class = green_square id = topsquare></div>",null,encoding,word_square,,,1,topsquare,32,true,,,FIDDLE,0,,,
html-keyboard-response,180,507227,206,"<div style=""font-size:42px;"">FIDDLE</div>",32,,word,FIDDLE,,,,,,,,,,,,
html-keyboard-response,181,508737,null,"",null,,word,FIDDLE,,,,,,,,,,,,
html-keyboard-response,182,508947,null,"<div style=""font-size:42px;"">ROBOT</div><img id = ""stim"" ><div class = green_square id = bottomsquare></div>",null,encoding,word_square,,,1,bottomsquare,32,true,,,ROBOT,0,,,
html-keyboard-response,183,509256,206,"<div style=""font-size:42px;"">ROBOT</div>",32,,word,ROBOT,,,,,,,,,,,,
html-keyboard-response,184,510767,null,"",null,,word,ROBOT,,,,,,,,,,,,
html-keyboard-response,185,510978,null,"<div style=""font-size:42px;"">ATTIRE</div><img id = ""stim"" ><div class = red_square id = bottomsquare></div>",null,encoding,word_square,,,0,bottomsquare,none,true,,,ATTIRE,0,,,
html-keyboard-response,186,511287,null,"<div style=""font-size:42px;"">ATTIRE</div>",null,,word,ATTIRE,,,,,,,,,,,,
html-keyboard-response,187,512797,null,"",null,,word,ATTIRE,,,,,,,,,,,,
html-keyboard-response,188,513007,null,"<div style=""font-size:42px;"">SHELTER</div><img id = ""stim"" ><div class = red_square id = topsquare></div>",null,encoding,word_square,,,0,topsquare,none,true,,,SHELTER,0,,,
html-keyboard-response,189,513316,null,"<div style=""font-size:42px;"">SHELTER</div>",null,,word,SHELTER,,,,,,,,,,,,
html-keyboard-response,190,514826,null,"",null,,word,SHELTER,,,,,,,,,,,,
call-function,191,514828,,"",,,,,,,,,,,,,,,,
html-keyboard-response,192,514937,null,"",null,,,,,,,,,,,,,,,
math-period,193,517588,4944,"",,,,,,,,,,,2,,,,,
html-keyboard-response,194,517697,null,"",null,,,,,,,,,,,,,,,
math-period,195,518988,2305,"",,,,,,,,,,,3,,,,,
html-keyboard-response,196,519097,null,"",null,,,,,,,,,,,,,,,
math-period,197,520573,2804,"",,,,,,,,,,,4,,,,,
html-keyboard-response,198,520677,null,"",null,,,,,,,,,,,,,,,
math-period,199,522460,3401,"",,,,,,,,,,,5,,,,,
html-keyboard-response,200,522568,null,"",null,,,,,,,,,,,,,,,
math-period,201,524517,3666,"",,,,,,,,,,,4,,,,,
html-keyboard-response,202,524628,null,"",null,,,,,,,,,,,,,,,
math-period,203,525884,2354,"",,,,,,,,,,,3,,,,,
html-keyboard-response,204,525988,null,"",null,,,,,,,,,,,,,,,
math-period,205,527565,2957,"",,,,,,,,,,,3,,,,,
html-keyboard-response,206,527668,null,"",null,,,,,,,,,,,,,,,
math-period,207,529245,3021,"",,,,,,,,,,,4,,,,,
html-keyboard-response,208,529348,null,"",null,,,,,,,,,,,,,,,
math-period,209,530732,2555,"",,,,,,,,,,,5,,,,,
html-keyboard-response,210,530837,null,"",null,,,,,,,,,,,,,,,
math-period,211,534980,8050,"",,,,,,,,,,,2,,,,,
html-keyboard-response,212,535088,null,"",null,,,,,,,,,,,,,,,
math-period,213,537748,5179,"",,,,,,,,,,,4,,,,,
html-keyboard-response,214,537858,null,"",null,,,,,,,,,,,,,,,
math-period,215,538838,null,"",,,,,,,,,,,,,,,,
html-keyboard-response,216,539849,null,"Recall Period!",null,,,,,,,,,,,,,,,
call-function,217,539851,,"",,,,,,,,,,,,,,,,
html-keyboard-response,218,539957,null,"",null,,,,,,,,,,,,,,,
recall-period,219,543524,22268,"",,,,,,,,,,,suspect,,,,,
html-keyboard-response,220,543628,null,"",null,,,,,,,,,,,,,,,
recall-period,221,545589,9619,"",,,,,,,,,,,burglar,,,,,
html-keyboard-response,222,545699,null,"",null,,,,,,,,,,,,,,,
recall-period,223,548077,13380,"",,,,,,,,,,,castle,,,,,
html-keyboard-response,224,548179,null,"",null,,,,,,,,,,,,,,,
recall-period,225,556693,60362,"",,,,,,,,,,,biscuit,,,,,
html-keyboard-response,226,556799,null,"",null,,,,,,,,,,,,,,,
recall-period,227,558421,6069,"",,,,,,,,,,,robot,,,,,
html-keyboard-response,228,558528,null,"",null,,,,,,,,,,,,,,,
recall-period,229,563781,28697,"",,,,,,,,,,,queen,,,,,
html-keyboard-response,230,563890,null,"",null,,,,,,,,,,,,,,,
recall-period,231,577988,103693,"",,,,,,,,,,,protect,,,,,
html-keyboard-response,232,578101,null,"",null,,,,,,,,,,,,,,,
recall-period,233,589284,42242,"",,,,,,,,,,,cat,,,,,
html-keyboard-response,234,589391,null,"",null,,,,,,,,,,,,,,,
recall-period,235,614853,null,"",,,,,,,,,,,,,,,,
html-keyboard-response,236,615363,null,"Time's Up!",null,,,,,,,,,,,,,,,
html-keyboard-response,237,632060,16695,"<p> Good job! You have responded correctly to 100% of the trials. </p>
                      <p>Be sure to only press the spacebar if you see a GREEN square, and please keep your accuracy above 80%.</p>
                      <p> Press any key to continue the experiment. </p>",32,,,,,,,,,,,,,,,
html-keyboard-response,238,633052,990,"<div style=""font-size:48px;"">Press any key to begin list 2 of 16 </div>",32,,,,,,,,,,,,,,,
html-keyboard-response,239,635563,null,"<div style=""font-size:60px;"">+</div>",null,,,,,,,,,,,,,,,
html-keyboard-response,240,635774,null,"<div style=""font-size:42px;"">BLUEPRINT</div><img id = ""stim"" ><div class = red_square id = topsquare></div>",null,encoding,word_square,,,0,topsquare,none,true,,,BLUEPRINT,1,,,
html-keyboard-response,241,636084,null,"<div style=""font-size:42px;"">BLUEPRINT</div>",null,,word,BLUEPRINT,,,,,,,,,,,,
html-keyboard-response,242,637594,null,"",null,,word,BLUEPRINT,,,,,,,,,,,,
html-keyboard-response,243,637804,null,"<div style=""font-size:42px;"">PICTURE</div><img id = ""stim"" ><div class = red_square id = bottomsquare></div>",null,encoding,word_square,,,0,bottomsquare,none,true,,,PICTURE,1,,,
html-keyboard-response,244,638114,null,"<div style=""font-size:42px;"">PICTURE</div>",null,,word,PICTURE,,,,,,,,,,,,
html-keyboard-response,245,639624,null,"",null,,word,PICTURE,,,,,,,,,,,,
html-keyboard-response,246,639833,null,"<div style=""font-size:42px;"">SURVEY</div><img id = ""stim"" ><div class = green_square id = bottomsquare></div>",null,encoding,word_square,,,1,bottomsquare,32,true,,,SURVEY,1,,,
html-keyboard-response,247,640144,120,"<div style=""font-size:42px;"">SURVEY</div>",32,,word,SURVEY,,,,,,,,,,,,
html-keyboard-response,248,641654,null,"",null,,word,SURVEY,,,,,,,,,,,,
html-keyboard-response,249,641864,null,"<div style=""font-size:42px;"">PAPER</div><img id = ""stim"" ><div class = green_square id = topsquare></div>",null,encoding,word_square,,,1,topsquare,32,true,,,PAPER,1,,,
html-keyboard-response,250,642174,129,"<div style=""font-size:42px;"">PAPER</div>",32,,word,PAPER,,,,,,,,,,,,
html-keyboard-response,251,643684,null,"",null,,word,PAPER,,,,,,,,,,,,
html-keyboard-response,252,643894,null,"<div style=""font-size:42px;"">SUPPER</div><img id = ""stim"" ><div class = red_square id = topsquare></div>",null,encoding,word_square,,,0,topsquare,none,true,,,SUPPER,1,,,
html-keyboard-response,253,644204,null,"<div style=""font-size:42px;"">SUPPER</div>",null,,word,SUPPER,,,,,,,,,,,,
html-keyboard-response,254,645714,null,"",null,,word,SUPPER,,,,,,,,,,,,
html-keyboard-response,255,645924,null,"<div style=""font-size:42px;"">BANQUET</div><img id = ""stim"" ><div class = green_square id = bottomsquare></div>",null,encoding,word_square,,,1,bottomsquare,32,true,,,BANQUET,1,,,
html-keyboard-response,256,646234,151,"<div style=""font-size:42px;"">BANQUET</div>",32,,word,BANQUET,,,,,,,,,,,,
html-keyboard-response,257,647744,null,"",null,,word,BANQUET,,,,,,,,,,,,
html-keyboard-response,258,647954,null,"<div style=""font-size:42px;"">BINDER</div><img id = ""stim"" ><div class = green_square id = topsquare></div>",null,encoding,word_square,,,1,topsquare,32,true,,,BINDER,1,,,
html-keyboard-response,259,648264,136,"<div style=""font-size:42px;"">BINDER</div>",32,,word,BINDER,,,,,,,,,,,,
html-keyboard-response,260,649774,null,"",null,,word,BINDER,,,,,,,,,,,,
html-keyboard-response,261,649984,null,"<div style=""font-size:42px;"">NEPHEW</div><img id = ""stim"" ><div class = red_square id = bottomsquare></div>",null,encoding,word_square,,,0,bottomsquare,none,true,,,NEPHEW,1,,,
html-keyboard-response,262,650294,null,"<div style=""font-size:42px;"">NEPHEW</div>",null,,word,NEPHEW,,,,,,,,,,,,
html-keyboard-response,263,651804,null,"",null,,word,NEPHEW,,,,,,,,,,,,
html-keyboard-response,264,652015,null,"<div style=""font-size:42px;"">DOCTOR</div><img id = ""stim"" ><div class = red_square id = topsquare></div>",null,encoding,word_square,,,0,topsquare,none,true,,,DOCTOR,1,,,
html-keyboard-response,265,652324,null,"<div style=""font-size:42px;"">DOCTOR</div>",null,,word,DOCTOR,,,,,,,,,,,,
html-keyboard-response,266,653835,null,"",null,,word,DOCTOR,,,,,,,,,,,,
html-keyboard-response,267,654044,null,"<div style=""font-size:42px;"">PIZZA</div><img id = ""stim"" ><div class = green_square id = bottomsquare></div>",null,encoding,word_square,,,1,bottomsquare,32,true,,,PIZZA,1,,,
html-keyboard-response,268,654354,165,"<div style=""font-size:42px;"">PIZZA</div>",32,,word,PIZZA,,,,,,,,,,,,
html-keyboard-response,269,655866,null,"",null,,word,PIZZA,,,,,,,,,,,,
html-keyboard-response,270,656075,null,"<div style=""font-size:42px;"">SAUSAGE</div><img id = ""stim"" ><div class = red_square id = bottomsquare></div>",null,encoding,word_square,,,0,bottomsquare,none,true,,,SAUSAGE,1,,,
html-keyboard-response,271,656385,null,"<div style=""font-size:42px;"">SAUSAGE</div>",null,,word,SAUSAGE,,,,,,,,,,,,
html-keyboard-response,272,657895,null,"",null,,word,SAUSAGE,,,,,,,,,,,,
html-keyboard-response,273,658105,null,"<div style=""font-size:42px;"">COMPASS</div><img id = ""stim"" ><div class = green_square id = topsquare></div>",null,encoding,word_square,,,1,topsquare,32,true,,,COMPASS,1,,,
html-keyboard-response,274,658415,161,"<div style=""font-size:42px;"">COMPASS</div>",32,,word,COMPASS,,,,,,,,,,,,
html-keyboard-response,275,659925,null,"",null,,word,COMPASS,,,,,,,,,,,,
html-keyboard-response,276,660134,null,"<div style=""font-size:42px;"">DRILL</div><img id = ""stim"" ><div class = red_square id = topsquare></div>",null,encoding,word_square,,,0,topsquare,none,true,,,DRILL,1,,,
html-keyboard-response,277,660444,null,"<div style=""font-size:42px;"">DRILL</div>",null,,word,DRILL,,,,,,,,,,,,
html-keyboard-response,278,661954,null,"",null,,word,DRILL,,,,,,,,,,,,
html-keyboard-response,279,662165,null,"<div style=""font-size:42px;"">MATCH</div><img id = ""stim"" ><div class = red_square id = bottomsquare></div>",null,encoding,word_square,,,0,bottomsquare,none,true,,,MATCH,1,,,
html-keyboard-response,280,662475,null,"<div style=""font-size:42px;"">MATCH</div>",null,,word,MATCH,,,,,,,,,,,,
html-keyboard-response,281,663985,null,"",null,,word,MATCH,,,,,,,,,,,,
html-keyboard-response,282,664195,null,"<div style=""font-size:42px;"">DOLPHIN</div><img id = ""stim"" ><div class = green_square id = bottomsquare></div>",null,encoding,word_square,,,1,bottomsquare,32,true,,,DOLPHIN,1,,,
html-keyboard-response,283,664505,167,"<div style=""font-size:42px;"">DOLPHIN</div>",32,,word,DOLPHIN,,,,,,,,,,,,
html-keyboard-response,284,666016,null,"",null,,word,DOLPHIN,,,,,,,,,,,,
html-keyboard-response,285,666225,null,"<div style=""font-size:42px;"">BELT</div><img id = ""stim"" ><div class = green_square id = topsquare></div>",null,encoding,word_square,,,1,topsquare,32,true,,,BELT,1,,,
html-keyboard-response,286,666534,null,"<div style=""font-size:42px;"">BELT</div>",null,,word,BELT,,,,,,,,,,,,
html-keyboard-response,287,668046,58,"",32,,word,BELT,,,,,,,,,,,,
call-function,288,668048,,"",,,,,,,,,,,,,,,,
html-keyboard-response,289,668156,null,"",null,,,,,,,,,,,,,,,
math-period,290,670864,4558,"",,,,,,,,,,,1,,,,,
html-keyboard-response,291,670965,null,"",null,,,,,,,,,,,,,,,
math-period,292,672485,2718,"",,,,,,,,,,,3,,,,,
html-keyboard-response,293,672588,null,"",null,,,,,,,,,,,,,,,
math-period,294,673900,2299,"",,,,,,,,,,,4,,,,,
html-keyboard-response,295,674008,null,"",null,,,,,,,,,,,,,,,
math-period,296,675309,2276,"",,,,,,,,,,,3,,,,,
html-keyboard-response,297,675419,null,"",null,,,,,,,,,,,,,,,
math-period,298,676693,2286,"",,,,,,,,,,,3,,,,,
html-keyboard-response,299,676798,null,"",null,,,,,,,,,,,,,,,
math-period,300,680878,12818,"",,,,,,,,,,,0,,,,,
html-keyboard-response,301,680988,null,"",null,,,,,,,,,,,,,,,
math-period,302,684317,6294,"",,,,,,,,,,,3,,,,,
html-keyboard-response,303,684427,null,"",null,,,,,,,,,,,,,,,
math-period,304,689940,10652,"",,,,,,,,,,,1,,,,,
html-keyboard-response,305,690050,null,"",null,,,,,,,,,,,,,,,
math-period,306,692049,null,"",,,,,,,,,,,,,,,,
html-keyboard-response,307,693059,null,"Recall Period!",null,,,,,,,,,,,,,,,
call-function,308,693060,,"",,,,,,,,,,,,,,,,
html-keyboard-response,309,693170,null,"",null,,,,,,,,,,,,,,,
recall-period,310,694989,8915,"",,,,,,,,,,,survey,,,,,
html-keyboard-response,311,695100,null,"",null,,,,,,,,,,,,,,,
recall-period,312,696509,5270,"",,,,,,,,,,,paper,,,,,
html-keyboard-response,313,696619,null,"",null,,,,,,,,,,,,,,,
recall-period,314,699124,14574,"",,,,,,,,,,,banquet,,,,,
html-keyboard-response,315,699229,null,"",null,,,,,,,,,,,,,,,
recall-period,316,701245,8743,"",,,,,,,,,,,nephew,,,,,
html-keyboard-response,317,701349,null,"",null,,,,,,,,,,,,,,,
recall-period,318,768072,null,"",,,,,,,,,,,,,,,,
html-keyboard-response,319,768583,null,"Time's Up!",null,,,,,,,,,,,,,,,
html-keyboard-response,320,769685,1100,"<p> Good job! You have responded correctly to 100% of the trials. </p>
                      <p>Be sure to only press the spacebar if you see a GREEN square, and please keep your accuracy above 80%.</p>
                      <p> Press any key to continue the experiment. </p>",32,,,,,,,,,,,,,,,
html-keyboard-response,321,770805,1117,"<div style=""font-size:48px;"">Press any key to begin list 3 of 16 </div>",32,,,,,,,,,,,,,,,
html-keyboard-response,322,773318,null,"<div style=""font-size:60px;"">+</div>",null,,,,,,,,,,,,,,,
html-keyboard-response,323,773528,null,"<div style=""font-size:42px;"">ROCKET</div><img id = ""stim"" ><div class = red_square id = bottomsquare></div>",null,encoding,word_square,,,0,bottomsquare,none,true,,,ROCKET,2,,,
html-keyboard-response,324,773839,null,"<div style=""font-size:42px;"">ROCKET</div>",null,,word,ROCKET,,,,,,,,,,,,
html-keyboard-response,325,775350,null,"",null,,word,ROCKET,,,,,,,,,,,,
html-keyboard-response,326,775560,null,"<div style=""font-size:42px;"">MISSILE</div><img id = ""stim"" ><div class = red_square id = topsquare></div>",null,encoding,word_square,,,0,topsquare,none,true,,,MISSILE,2,,,
html-keyboard-response,327,775870,null,"<div style=""font-size:42px;"">MISSILE</div>",null,,word,MISSILE,,,,,,,,,,,,
html-keyboard-response,328,777379,null,"",null,,word,MISSILE,,,,,,,,,,,,
html-keyboard-response,329,777589,null,"<div style=""font-size:42px;"">WIDOW</div><img id = ""stim"" ><div class = green_square id = topsquare></div>",null,encoding,word_square,,,1,topsquare,32,true,,,WIDOW,2,,,
html-keyboard-response,330,777898,173,"<div style=""font-size:42px;"">WIDOW</div>",32,,word,WIDOW,,,,,,,,,,,,
html-keyboard-response,331,779409,null,"",null,,word,WIDOW,,,,,,,,,,,,
html-keyboard-response,332,779620,null,"<div style=""font-size:42px;"">MILDEW</div><img id = ""stim"" ><div class = green_square id = bottomsquare></div>",null,encoding,word_square,,,1,bottomsquare,32,true,,,MILDEW,2,,,
html-keyboard-response,333,779929,null,"<div style=""font-size:42px;"">MILDEW</div>",null,,word,MILDEW,,,,,,,,,,,,
html-keyboard-response,334,781437,208,"",32,,word,MILDEW,,,,,,,,,,,,
html-keyboard-response,335,781652,null,"<div style=""font-size:42px;"">SPHINX</div><img id = ""stim"" ><div class = red_square id = bottomsquare></div>",null,encoding,word_square,,,0,bottomsquare,none,true,,,SPHINX,2,,,
html-keyboard-response,336,781957,null,"<div style=""font-size:42px;"">SPHINX</div>",null,,word,SPHINX,,,,,,,,,,,,
html-keyboard-response,337,783467,null,"",null,,word,SPHINX,,,,,,,,,,,,
html-keyboard-response,338,783677,null,"<div style=""font-size:42px;"">MARINE</div><img id = ""stim"" ><div class = green_square id = topsquare></div>",null,encoding,word_square,,,1,topsquare,32,true,,,MARINE,2,,,
html-keyboard-response,339,783987,133,"<div style=""font-size:42px;"">MARINE</div>",32,,word,MARINE,,,,,,,,,,,,
html-keyboard-response,340,785497,null,"",null,,word,MARINE,,,,,,,,,,,,
html-keyboard-response,341,785708,null,"<div style=""font-size:42px;"">STONE</div><img id = ""stim"" ><div class = red_square id = topsquare></div>",null,encoding,word_square,,,0,topsquare,none,true,,,STONE,2,,,
html-keyboard-response,342,786016,null,"<div style=""font-size:42px;"">STONE</div>",null,,word,STONE,,,,,,,,,,,,
html-keyboard-response,343,787528,null,"",null,,word,STONE,,,,,,,,,,,,
html-keyboard-response,344,787739,null,"<div style=""font-size:42px;"">ALMOND</div><img id = ""stim"" ><div class = green_square id = bottomsquare></div>",null,encoding,word_square,,,1,bottomsquare,32,true,,,ALMOND,2,,,
html-keyboard-response,345,788049,199,"<div style=""font-size:42px;"">ALMOND</div>",32,,word,ALMOND,,,,,,,,,,,,
html-keyboard-response,346,789559,null,"",null,,word,ALMOND,,,,,,,,,,,,
html-keyboard-response,347,789769,null,"<div style=""font-size:42px;"">CRYSTAL</div><img id = ""stim"" ><div class = green_square id = topsquare></div>",null,encoding,word_square,,,1,topsquare,32,true,,,CRYSTAL,2,,,
html-keyboard-response,348,790080,null,"<div style=""font-size:42px;"">CRYSTAL</div>",null,,word,CRYSTAL,,,,,,,,,,,,
html-keyboard-response,349,791589,50,"",32,,word,CRYSTAL,,,,,,,,,,,,
html-keyboard-response,350,791799,null,"<div style=""font-size:42px;"">LOVER</div><img id = ""stim"" ><div class = red_square id = bottomsquare></div>",null,encoding,word_square,,,0,bottomsquare,none,true,,,LOVER,2,,,
html-keyboard-response,351,792109,null,"<div style=""font-size:42px;"">LOVER</div>",null,,word,LOVER,,,,,,,,,,,,
html-keyboard-response,352,793619,null,"",null,,word,LOVER,,,,,,,,,,,,
html-keyboard-response,353,793829,null,"<div style=""font-size:42px;"">STOCKING</div><img id = ""stim"" ><div class = red_square id = topsquare></div>",null,encoding,word_square,,,0,topsquare,none,true,,,STOCKING,2,,,
html-keyboard-response,354,794139,null,"<div style=""font-size:42px;"">STOCKING</div>",null,,word,STOCKING,,,,,,,,,,,,
html-keyboard-response,355,795647,null,"",null,,word,STOCKING,,,,,,,,,,,,
html-keyboard-response,356,795857,null,"<div style=""font-size:42px;"">TAXI</div><img id = ""stim"" ><div class = green_square id = bottomsquare></div>",null,encoding,word_square,,,1,bottomsquare,32,true,,,TAXI,2,,,
html-keyboard-response,357,796167,184,"<div style=""font-size:42px;"">TAXI</div>",32,,word,TAXI,,,,,,,,,,,,
html-keyboard-response,358,797671,null,"",null,,word,TAXI,,,,,,,,,,,,
html-keyboard-response,359,797881,null,"<div style=""font-size:42px;"">HIKER</div><img id = ""stim"" ><div class = red_square id = bottomsquare></div>",null,encoding,word_square,,,0,bottomsquare,none,true,,,HIKER,2,,,
html-keyboard-response,360,798193,null,"<div style=""font-size:42px;"">HIKER</div>",null,,word,HIKER,,,,,,,,,,,,
html-keyboard-response,361,799704,null,"",null,,word,HIKER,,,,,,,,,,,,
html-keyboard-response,362,799913,null,"<div style=""font-size:42px;"">SATURN</div><img id = ""stim"" ><div class = red_square id = topsquare></div>",null,encoding,word_square,,,0,topsquare,none,true,,,SATURN,2,,,
html-keyboard-response,363,800223,null,"<div style=""font-size:42px;"">SATURN</div>",null,,word,SATURN,,,,,,,,,,,,
html-keyboard-response,364,801732,null,"",null,,word,SATURN,,,,,,,,,,,,
html-keyboard-response,365,801943,null,"<div style=""font-size:42px;"">SERPENT</div><img id = ""stim"" ><div class = green_square id = topsquare></div>",null,encoding,word_square,,,1,topsquare,32,true,,,SERPENT,2,,,
html-keyboard-response,366,802253,116,"<div style=""font-size:42px;"">SERPENT</div>",32,,word,SERPENT,,,,,,,,,,,,
html-keyboard-response,367,803763,null,"",null,,word,SERPENT,,,,,,,,,,,,
html-keyboard-response,368,803974,null,"<div style=""font-size:42px;"">EGYPT</div><img id = ""stim"" ><div class = green_square id = bottomsquare></div>",null,encoding,word_square,,,1,bottomsquare,32,true,,,EGYPT,2,,,
html-keyboard-response,369,804285,262,"<div style=""font-size:42px;"">EGYPT</div>",32,,word,EGYPT,,,,,,,,,,,,
html-keyboard-response,370,805797,null,"",null,,word,EGYPT,,,,,,,,,,,,
call-function,371,805800,,"",,,,,,,,,,,,,,,,
html-keyboard-response,372,805907,null,"",null,,,,,,,,,,,,,,,
math-period,373,807630,3166,"",,,,,,,,,,,5,,,,,
html-keyboard-response,374,807737,null,"",null,,,,,,,,,,,,,,,
math-period,375,809782,3692,"",,,,,,,,,,,2,,,,,
html-keyboard-response,376,809887,null,"",null,,,,,,,,,,,,,,,
math-period,377,812461,8344,"",,,,,,,,,,,5,,,,,
html-keyboard-response,378,812567,null,"",null,,,,,,,,,,,,,,,
math-period,379,815766,11359,"",,,,,,,,,,,5,,,,,
html-keyboard-response,380,815877,null,"",null,,,,,,,,,,,,,,,
math-period,381,817301,2673,"",,,,,,,,,,,3,,,,,
html-keyboard-response,382,817407,null,"",null,,,,,,,,,,,,,,,
math-period,383,818901,2709,"",,,,,,,,,,,4,,,,,
html-keyboard-response,384,819008,null,"",null,,,,,,,,,,,,,,,
math-period,385,820669,3181,"",,,,,,,,,,,3,,,,,
html-keyboard-response,386,820778,null,"",null,,,,,,,,,,,,,,,
math-period,387,821902,1999,"",,,,,,,,,,,2,,,,,
html-keyboard-response,388,822008,null,"",null,,,,,,,,,,,,,,,
math-period,389,823126,1940,"",,,,,,,,,,,3,,,,,
html-keyboard-response,390,823238,null,"",null,,,,,,,,,,,,,,,
math-period,391,824286,1856,"",,,,,,,,,,,2,,,,,
html-keyboard-response,392,824398,null,"",null,,,,,,,,,,,,,,,
math-period,393,826077,2791,"",,,,,,,,,,,4,,,,,
html-keyboard-response,394,826181,null,"",null,,,,,,,,,,,,,,,
math-period,395,827685,2858,"",,,,,,,,,,,4,,,,,
html-keyboard-response,396,827791,null,"",null,,,,,,,,,,,,,,,
math-period,397,828830,1880,"",,,,,,,,,,,4,,,,,
html-keyboard-response,398,828942,null,"",null,,,,,,,,,,,,,,,
math-period,399,829802,null,"",,,,,,,,,,,,,,,,
html-keyboard-response,400,830812,null,"Recall Period!",null,,,,,,,,,,,,,,,
call-function,401,830814,,"",,,,,,,,,,,,,,,,
html-keyboard-response,402,830922,null,"",null,,,,,,,,,,,,,,,
recall-period,403,832542,8166,"",,,,,,,,,,,rocket,,,,,
html-keyboard-response,404,832651,null,"",null,,,,,,,,,,,,,,,
recall-period,405,834270,8223,"",,,,,,,,,,,marine,,,,,
html-keyboard-response,406,834381,null,"",null,,,,,,,,,,,,,,,
recall-period,407,836446,8735,"",,,,,,,,,,,missile,,,,,
html-keyboard-response,408,836551,null,"",null,,,,,,,,,,,,,,,
recall-period,409,854286,118485,"",,,,,,,,,,,mildew,,,,,
html-keyboard-response,410,854398,null,"",null,,,,,,,,,,,,,,,
recall-period,411,897645,382882,"",,,,,,,,,,,stocking,,,,,
html-keyboard-response,412,897751,null,"",null,,,,,,,,,,,,,,,
recall-period,413,905820,null,"",,,,,,,,,,,,,,,,
html-keyboard-response,414,906332,null,"Time's Up!",null,,,,,,,,,,,,,,,
html-keyboard-response,415,918996,12662,"<p> Good job! You have responded correctly to 100% of the trials. </p>
                      <p>Be sure to only press the spacebar if you see a GREEN square, and please keep your accuracy above 80%.</p>
                      <p> Press any key to continue the experiment. </p>",32,,,,,,,,,,,,,,,
html-keyboard-response,416,920325,1325,"<div style=""font-size:48px;"">Press any key to begin list 4 of 16 </div>",32,,,,,,,,,,,,,,,
html-keyboard-response,417,922841,null,"<div style=""font-size:60px;"">+</div>",null,,,,,,,,,,,,,,,
html-keyboard-response,418,923052,null,"<div style=""font-size:42px;"">CYCLONE</div><img id = ""stim"" ><div class = green_square id = bottomsquare></div>",null,encoding,word_square,,,1,bottomsquare,32,true,,,CYCLONE,3,,,
html-keyboard-response,419,923361,null,"<div style=""font-size:42px;"">CYCLONE</div>",null,,word,CYCLONE,,,,,,,,,,,,
html-keyboard-response,420,924872,56,"",32,,word,CYCLONE,,,,,,,,,,,,
html-keyboard-response,421,925081,null,"<div style=""font-size:42px;"">CRITIC</div><img id = ""stim"" ><div class = green_square id = topsquare></div>",null,encoding,word_square,,,1,topsquare,32,true,,,CRITIC,3,,,
html-keyboard-response,422,925391,176,"<div style=""font-size:42px;"">CRITIC</div>",32,,word,CRITIC,,,,,,,,,,,,
html-keyboard-response,423,926902,null,"",null,,word,CRITIC,,,,,,,,,,,,
html-keyboard-response,424,927111,null,"<div style=""font-size:42px;"">SHELF</div><img id = ""stim"" ><div class = red_square id = topsquare></div>",null,encoding,word_square,,,0,topsquare,none,true,,,SHELF,3,,,
html-keyboard-response,425,927422,null,"<div style=""font-size:42px;"">SHELF</div>",null,,word,SHELF,,,,,,,,,,,,
html-keyboard-response,426,928931,null,"",null,,word,SHELF,,,,,,,,,,,,
html-keyboard-response,427,929141,null,"<div style=""font-size:42px;"">SUMMIT</div><img id = ""stim"" ><div class = red_square id = bottomsquare></div>",null,encoding,word_square,,,0,bottomsquare,none,true,,,SUMMIT,3,,,
html-keyboard-response,428,929452,null,"<div style=""font-size:42px;"">SUMMIT</div>",null,,word,SUMMIT,,,,,,,,,,,,
html-keyboard-response,429,930961,null,"",null,,word,SUMMIT,,,,,,,,,,,,
html-keyboard-response,430,931171,null,"<div style=""font-size:42px;"">BRAKE</div><img id = ""stim"" ><div class = green_square id = bottomsquare></div>",null,encoding,word_square,,,1,bottomsquare,32,true,,,BRAKE,3,,,
html-keyboard-response,431,931482,142,"<div style=""font-size:42px;"">BRAKE</div>",32,,word,BRAKE,,,,,,,,,,,,
html-keyboard-response,432,932991,null,"",null,,word,BRAKE,,,,,,,,,,,,
html-keyboard-response,433,933201,null,"<div style=""font-size:42px;"">COUSIN</div><img id = ""stim"" ><div class = red_square id = topsquare></div>",null,encoding,word_square,,,0,topsquare,none,true,,,COUSIN,3,,,
html-keyboard-response,434,933512,null,"<div style=""font-size:42px;"">COUSIN</div>",null,,word,COUSIN,,,,,,,,,,,,
html-keyboard-response,435,935022,null,"",null,,word,COUSIN,,,,,,,,,,,,
html-keyboard-response,436,935233,null,"<div style=""font-size:42px;"">POND</div><img id = ""stim"" ><div class = red_square id = bottomsquare></div>",null,encoding,word_square,,,0,bottomsquare,none,true,,,POND,3,,,
html-keyboard-response,437,935542,null,"<div style=""font-size:42px;"">POND</div>",null,,word,POND,,,,,,,,,,,,
html-keyboard-response,438,937052,null,"",null,,word,POND,,,,,,,,,,,,
html-keyboard-response,439,937263,null,"<div style=""font-size:42px;"">TIGER</div><img id = ""stim"" ><div class = green_square id = topsquare></div>",null,encoding,word_square,,,1,topsquare,32,true,,,TIGER,3,,,
html-keyboard-response,440,937572,122,"<div style=""font-size:42px;"">TIGER</div>",32,,word,TIGER,,,,,,,,,,,,
html-keyboard-response,441,939082,null,"",null,,word,TIGER,,,,,,,,,,,,
html-keyboard-response,442,939293,null,"<div style=""font-size:42px;"">JOKER</div><img id = ""stim"" ><div class = green_square id = bottomsquare></div>",null,encoding,word_square,,,1,bottomsquare,32,true,,,JOKER,3,,,
html-keyboard-response,443,939603,null,"<div style=""font-size:42px;"">JOKER</div>",null,,word,JOKER,,,,,,,,,,,,
html-keyboard-response,444,941112,407,"",32,,word,JOKER,,,,,,,,,,,,
html-keyboard-response,445,941323,null,"<div style=""font-size:42px;"">REINDEER</div><img id = ""stim"" ><div class = red_square id = topsquare></div>",null,encoding,word_square,,,0,topsquare,none,true,,,REINDEER,3,,,
html-keyboard-response,446,941632,null,"<div style=""font-size:42px;"">REINDEER</div>",null,,word,REINDEER,,,,,,,,,,,,
html-keyboard-response,447,943142,null,"",null,,word,REINDEER,,,,,,,,,,,,
html-keyboard-response,448,943352,null,"<div style=""font-size:42px;"">BUG</div><img id = ""stim"" ><div class = green_square id = topsquare></div>",null,encoding,word_square,,,1,topsquare,32,true,,,BUG,3,,,
html-keyboard-response,449,943663,218,"<div style=""font-size:42px;"">BUG</div>",32,,word,BUG,,,,,,,,,,,,
html-keyboard-response,450,945172,null,"",null,,word,BUG,,,,,,,,,,,,
html-keyboard-response,451,945383,null,"<div style=""font-size:42px;"">SPIDER</div><img id = ""stim"" ><div class = red_square id = bottomsquare></div>",null,encoding,word_square,,,0,bottomsquare,none,true,,,SPIDER,3,,,
html-keyboard-response,452,945692,null,"<div style=""font-size:42px;"">SPIDER</div>",null,,word,SPIDER,,,,,,,,,,,,
html-keyboard-response,453,947203,null,"",null,,word,SPIDER,,,,,,,,,,,,
html-keyboard-response,454,947413,null,"<div style=""font-size:42px;"">BROTHER</div><img id = ""stim"" ><div class = green_square id = bottomsquare></div>",null,encoding,word_square,,,1,bottomsquare,32,true,,,BROTHER,3,,,
html-keyboard-response,455,947723,221,"<div style=""font-size:42px;"">BROTHER</div>",32,,word,BROTHER,,,,,,,,,,,,
html-keyboard-response,456,949233,null,"",null,,word,BROTHER,,,,,,,,,,,,
html-keyboard-response,457,949443,null,"<div style=""font-size:42px;"">YARD</div><img id = ""stim"" ><div class = green_square id = topsquare></div>",null,encoding,word_square,,,1,topsquare,32,true,,,YARD,3,,,
html-keyboard-response,458,949753,183,"<div style=""font-size:42px;"">YARD</div>",32,,word,YARD,,,,,,,,,,,,
html-keyboard-response,459,951263,null,"",null,,word,YARD,,,,,,,,,,,,
html-keyboard-response,460,951472,null,"<div style=""font-size:42px;"">LONDON</div><img id = ""stim"" ><div class = red_square id = topsquare></div>",null,encoding,word_square,,,0,topsquare,none,true,,,LONDON,3,,,
html-keyboard-response,461,951783,null,"<div style=""font-size:42px;"">LONDON</div>",null,,word,LONDON,,,,,,,,,,,,
html-keyboard-response,462,953292,null,"",null,,word,LONDON,,,,,,,,,,,,
html-keyboard-response,463,953502,null,"<div style=""font-size:42px;"">SCISSORS</div><img id = ""stim"" ><div class = red_square id = bottomsquare></div>",null,encoding,word_square,,,0,bottomsquare,none,true,,,SCISSORS,3,,,
html-keyboard-response,464,953814,null,"<div style=""font-size:42px;"">SCISSORS</div>",null,,word,SCISSORS,,,,,,,,,,,,
html-keyboard-response,465,955324,null,"",null,,word,SCISSORS,,,,,,,,,,,,
call-function,466,955326,,"",,,,,,,,,,,,,,,,
html-keyboard-response,467,955433,null,"",null,,,,,,,,,,,,,,,
math-period,468,956900,2664,"",,,,,,,,,,,2,,,,,
html-keyboard-response,469,957003,null,"",null,,,,,,,,,,,,,,,
math-period,470,959453,4661,"",,,,,,,,,,,4,,,,,
html-keyboard-response,471,959564,null,"",null,,,,,,,,,,,,,,,
math-period,472,964036,8749,"",,,,,,,,,,,2,,,,,
html-keyboard-response,473,964144,null,"",null,,,,,,,,,,,,,,,
math-period,474,965333,2110,"",,,,,,,,,,,3,,,,,
html-keyboard-response,475,965443,null,"",null,,,,,,,,,,,,,,,
math-period,476,967644,4235,"",,,,,,,,,,,3,,,,,
html-keyboard-response,477,967754,null,"",null,,,,,,,,,,,,,,,
math-period,478,969141,2407,"",,,,,,,,,,,2,,,,,
html-keyboard-response,479,969243,null,"",null,,,,,,,,,,,,,,,
math-period,480,971988,8642,"",,,,,,,,,,,5,,,,,
html-keyboard-response,481,972093,null,"",null,,,,,,,,,,,,,,,
math-period,482,973900,3370,"",,,,,,,,,,,2,,,,,
html-keyboard-response,483,974005,null,"",null,,,,,,,,,,,,,,,
math-period,484,975772,3410,"",,,,,,,,,,,4,,,,,
html-keyboard-response,485,975876,null,"",null,,,,,,,,,,,,,,,
math-period,486,977068,2267,"",,,,,,,,,,,5,,,,,
html-keyboard-response,487,977174,null,"",null,,,,,,,,,,,,,,,
math-period,488,978316,2191,"",,,,,,,,,,,5,,,,,
html-keyboard-response,489,978425,null,"",null,,,,,,,,,,,,,,,
math-period,490,979334,null,"",,,,,,,,,,,,,,,,
html-keyboard-response,491,980345,null,"Recall Period!",null,,,,,,,,,,,,,,,
call-function,492,980346,,"",,,,,,,,,,,,,,,,
html-keyboard-response,493,980454,null,"",null,,,,,,,,,,,,,,,
recall-period,494,982276,9645,"",,,,,,,,,,,cyclone,,,,,
html-keyboard-response,495,982384,null,"",null,,,,,,,,,,,,,,,
recall-period,496,985580,23001,"",,,,,,,,,,,brake,,,,,
html-keyboard-response,497,985685,null,"",null,,,,,,,,,,,,,,,
recall-period,498,991950,35106,"",,,,,,,,,,,tiger,,,,,
html-keyboard-response,499,992054,null,"",null,,,,,,,,,,,,,,,
recall-period,500,993573,4514,"",,,,,,,,,,,pond,,,,,
html-keyboard-response,501,993675,null,"",null,,,,,,,,,,,,,,,
recall-period,502,1055352,null,"",,,,,,,,,,,,,,,,
html-keyboard-response,503,1055863,null,"Time's Up!",null,,,,,,,,,,,,,,,
html-keyboard-response,504,1057117,1251,"<p> Good job! You have responded correctly to 100% of the trials. </p>
                      <p>Be sure to only press the spacebar if you see a GREEN square, and please keep your accuracy above 80%.</p>
                      <p> Press any key to continue the experiment. </p>",32,,,,,,,,,,,,,,,
html-keyboard-response,505,1057917,796,"<div style=""font-size:48px;"">Press any key to begin list 5 of 16 </div>",32,,,,,,,,,,,,,,,
html-keyboard-response,506,1060433,null,"<div style=""font-size:60px;"">+</div>",null,,,,,,,,,,,,,,,
html-keyboard-response,507,1060644,null,"<div style=""font-size:42px;"">MOTHER</div><img id = ""stim"" ><div class = green_square id = topsquare></div>",null,encoding,word_square,,,1,topsquare,32,true,,,MOTHER,4,,,
html-keyboard-response,508,1060953,143,"<div style=""font-size:42px;"">MOTHER</div>",32,,word,MOTHER,,,,,,,,,,,,
html-keyboard-response,509,1062463,null,"",null,,word,MOTHER,,,,,,,,,,,,
html-keyboard-response,510,1062673,null,"<div style=""font-size:42px;"">POWDER</div><img id = ""stim"" ><div class = green_square id = bottomsquare></div>",null,encoding,word_square,,,1,bottomsquare,32,true,,,POWDER,4,,,
html-keyboard-response,511,1062983,193,"<div style=""font-size:42px;"">POWDER</div>",32,,word,POWDER,,,,,,,,,,,,
html-keyboard-response,512,1064492,null,"",null,,word,POWDER,,,,,,,,,,,,
html-keyboard-response,513,1064703,null,"<div style=""font-size:42px;"">QUARTER</div><img id = ""stim"" ><div class = red_square id = bottomsquare></div>",null,encoding,word_square,,,0,bottomsquare,none,true,,,QUARTER,4,,,
html-keyboard-response,514,1065012,null,"<div style=""font-size:42px;"">QUARTER</div>",null,,word,QUARTER,,,,,,,,,,,,
html-keyboard-response,515,1066523,null,"",null,,word,QUARTER,,,,,,,,,,,,
html-keyboard-response,516,1066733,null,"<div style=""font-size:42px;"">COIN</div><img id = ""stim"" ><div class = green_square id = topsquare></div>",null,encoding,word_square,,,1,topsquare,32,true,,,COIN,4,,,
html-keyboard-response,517,1067042,157,"<div style=""font-size:42px;"">COIN</div>",32,,word,COIN,,,,,,,,,,,,
html-keyboard-response,518,1068553,null,"",null,,word,COIN,,,,,,,,,,,,
html-keyboard-response,519,1068764,null,"<div style=""font-size:42px;"">REPORT</div><img id = ""stim"" ><div class = red_square id = topsquare></div>",null,encoding,word_square,,,0,topsquare,none,true,,,REPORT,4,,,
html-keyboard-response,520,1069073,null,"<div style=""font-size:42px;"">REPORT</div>",null,,word,REPORT,,,,,,,,,,,,
html-keyboard-response,521,1070583,null,"",null,,word,REPORT,,,,,,,,,,,,
html-keyboard-response,522,1070793,null,"<div style=""font-size:42px;"">MEAT</div><img id = ""stim"" ><div class = green_square id = bottomsquare></div>",null,encoding,word_square,,,1,bottomsquare,32,true,,,MEAT,4,,,
html-keyboard-response,523,1071104,104,"<div style=""font-size:42px;"">MEAT</div>",32,,word,MEAT,,,,,,,,,,,,
html-keyboard-response,524,1072614,null,"",null,,word,MEAT,,,,,,,,,,,,
html-keyboard-response,525,1072824,null,"<div style=""font-size:42px;"">LIVER</div><img id = ""stim"" ><div class = red_square id = bottomsquare></div>",null,encoding,word_square,,,0,bottomsquare,none,true,,,LIVER,4,,,
html-keyboard-response,526,1073134,null,"<div style=""font-size:42px;"">LIVER</div>",null,,word,LIVER,,,,,,,,,,,,
html-keyboard-response,527,1074643,null,"",null,,word,LIVER,,,,,,,,,,,,
html-keyboard-response,528,1074854,null,"<div style=""font-size:42px;"">FINGER</div><img id = ""stim"" ><div class = red_square id = topsquare></div>",null,encoding,word_square,,,0,topsquare,none,true,,,FINGER,4,,,
html-keyboard-response,529,1075163,null,"<div style=""font-size:42px;"">FINGER</div>",null,,word,FINGER,,,,,,,,,,,,
html-keyboard-response,530,1076673,null,"",null,,word,FINGER,,,,,,,,,,,,
html-keyboard-response,531,1076883,null,"<div style=""font-size:42px;"">MESSAGE</div><img id = ""stim"" ><div class = green_square id = topsquare></div>",null,encoding,word_square,,,1,topsquare,32,true,,,MESSAGE,4,,,
html-keyboard-response,532,1077194,110,"<div style=""font-size:42px;"">MESSAGE</div>",32,,word,MESSAGE,,,,,,,,,,,,
html-keyboard-response,533,1078704,null,"",null,,word,MESSAGE,,,,,,,,,,,,
html-keyboard-response,534,1078914,null,"<div style=""font-size:42px;"">SNOB</div><img id = ""stim"" ><div class = green_square id = bottomsquare></div>",null,encoding,word_square,,,1,bottomsquare,32,true,,,SNOB,4,,,
html-keyboard-response,535,1079223,136,"<div style=""font-size:42px;"">SNOB</div>",32,,word,SNOB,,,,,,,,,,,,
html-keyboard-response,536,1080733,null,"",null,,word,SNOB,,,,,,,,,,,,
html-keyboard-response,537,1080945,null,"<div style=""font-size:42px;"">CIGAR</div><img id = ""stim"" ><div class = red_square id = bottomsquare></div>",null,encoding,word_square,,,0,bottomsquare,none,true,,,CIGAR,4,,,
html-keyboard-response,538,1081254,null,"<div style=""font-size:42px;"">CIGAR</div>",null,,word,CIGAR,,,,,,,,,,,,
html-keyboard-response,539,1082763,null,"",null,,word,CIGAR,,,,,,,,,,,,
html-keyboard-response,540,1082975,null,"<div style=""font-size:42px;"">LIPSTICK</div><img id = ""stim"" ><div class = red_square id = topsquare></div>",null,encoding,word_square,,,0,topsquare,none,true,,,LIPSTICK,4,,,
html-keyboard-response,541,1083283,null,"<div style=""font-size:42px;"">LIPSTICK</div>",null,,word,LIPSTICK,,,,,,,,,,,,
html-keyboard-response,542,1084793,null,"",null,,word,LIPSTICK,,,,,,,,,,,,
html-keyboard-response,543,1085004,null,"<div style=""font-size:42px;"">RODENT</div><img id = ""stim"" ><div class = green_square id = topsquare></div>",null,encoding,word_square,,,1,topsquare,32,true,,,RODENT,4,,,
html-keyboard-response,544,1085314,206,"<div style=""font-size:42px;"">RODENT</div>",32,,word,RODENT,,,,,,,,,,,,
html-keyboard-response,545,1086824,null,"",null,,word,RODENT,,,,,,,,,,,,
html-keyboard-response,546,1087034,null,"<div style=""font-size:42px;"">NOTEBOOK</div><img id = ""stim"" ><div class = green_square id = bottomsquare></div>",null,encoding,word_square,,,1,bottomsquare,32,true,,,NOTEBOOK,4,,,
html-keyboard-response,547,1087344,null,"<div style=""font-size:42px;"">NOTEBOOK</div>",null,,word,NOTEBOOK,,,,,,,,,,,,
html-keyboard-response,548,1088856,115,"",32,,word,NOTEBOOK,,,,,,,,,,,,
html-keyboard-response,549,1089065,null,"<div style=""font-size:42px;"">GUARD</div><img id = ""stim"" ><div class = red_square id = bottomsquare></div>",null,encoding,word_square,,,0,bottomsquare,none,true,,,GUARD,4,,,
html-keyboard-response,550,1089375,null,"<div style=""font-size:42px;"">GUARD</div>",null,,word,GUARD,,,,,,,,,,,,
html-keyboard-response,551,1090884,null,"",null,,word,GUARD,,,,,,,,,,,,
html-keyboard-response,552,1091095,null,"<div style=""font-size:42px;"">ARMY</div><img id = ""stim"" ><div class = red_square id = topsquare></div>",null,encoding,word_square,,,0,topsquare,none,true,,,ARMY,4,,,
html-keyboard-response,553,1091404,null,"<div style=""font-size:42px;"">ARMY</div>",null,,word,ARMY,,,,,,,,,,,,
html-keyboard-response,554,1092916,null,"",null,,word,ARMY,,,,,,,,,,,,
call-function,555,1092918,,"",,,,,,,,,,,,,,,,
html-keyboard-response,556,1093024,null,"",null,,,,,,,,,,,,,,,
math-period,557,1095212,3963,"",,,,,,,,,,,5,,,,,
html-keyboard-response,558,1095325,null,"",null,,,,,,,,,,,,,,,
math-period,559,1099412,7916,"",,,,,,,,,,,2,,,,,
html-keyboard-response,560,1099524,null,"",null,,,,,,,,,,,,,,,
math-period,561,1101773,4234,"",,,,,,,,,,,3,,,,,
html-keyboard-response,562,1101885,null,"",null,,,,,,,,,,,,,,,
math-period,563,1103973,3928,"",,,,,,,,,,,4,,,,,
html-keyboard-response,564,1104085,null,"",null,,,,,,,,,,,,,,,
math-period,565,1105101,1796,"",,,,,,,,,,,4,,,,,
html-keyboard-response,566,1105205,null,"",null,,,,,,,,,,,,,,,
math-period,567,1106308,2008,"",,,,,,,,,,,5,,,,,
html-keyboard-response,568,1106415,null,"",null,,,,,,,,,,,,,,,
math-period,569,1108397,3591,"",,,,,,,,,,,4,,,,,
html-keyboard-response,570,1108505,null,"",null,,,,,,,,,,,,,,,
math-period,571,1114492,11722,"",,,,,,,,,,,3,,,,,
html-keyboard-response,572,1114595,null,"",null,,,,,,,,,,,,,,,
math-period,573,1116925,null,"",,,,,,,,,,,,,,,,
html-keyboard-response,574,1117936,null,"Recall Period!",null,,,,,,,,,,,,,,,
call-function,575,1117937,,"",,,,,,,,,,,,,,,,
html-keyboard-response,576,1118046,null,"",null,,,,,,,,,,,,,,,
recall-period,577,1119548,7671,"",,,,,,,,,,,mother,,,,,
html-keyboard-response,578,1119655,null,"",null,,,,,,,,,,,,,,,
recall-period,579,1121021,6722,"",,,,,,,,,,,powder,,,,,
html-keyboard-response,580,1121126,null,"",null,,,,,,,,,,,,,,,
recall-period,581,1123565,9905,"",,,,,,,,,,,coin,,,,,
html-keyboard-response,582,1123676,null,"",null,,,,,,,,,,,,,,,
recall-period,583,1135524,68321,"",,,,,,,,,,,guard,,,,,
html-keyboard-response,584,1135627,null,"",null,,,,,,,,,,,,,,,
recall-period,585,1192939,null,"",,,,,,,,,,,,,,,,
html-keyboard-response,586,1193449,null,"Time's Up!",null,,,,,,,,,,,,,,,
html-keyboard-response,587,1194428,978,"<p> Good job! You have responded correctly to 100% of the trials. </p>
                      <p>Be sure to only press the spacebar if you see a GREEN square, and please keep your accuracy above 80%.</p>
                      <p> Press any key to continue the experiment. </p>",32,,,,,,,,,,,,,,,
html-keyboard-response,588,1196764,2333,"<div style=""font-size:48px;"">Press any key to begin list 6 of 16 </div>",32,,,,,,,,,,,,,,,
html-keyboard-response,589,1199280,null,"<div style=""font-size:60px;"">+</div>",null,,,,,,,,,,,,,,,
html-keyboard-response,590,1199489,null,"<div style=""font-size:42px;"">OX</div><img id = ""stim"" ><div class = red_square id = topsquare></div>",null,encoding,word_square,,,0,topsquare,none,true,,,OX,5,,,
html-keyboard-response,591,1199799,null,"<div style=""font-size:42px;"">OX</div>",null,,word,OX,,,,,,,,,,,,
html-keyboard-response,592,1201309,null,"",null,,word,OX,,,,,,,,,,,,
html-keyboard-response,593,1201519,null,"<div style=""font-size:42px;"">CREATURE</div><img id = ""stim"" ><div class = red_square id = bottomsquare></div>",null,encoding,word_square,,,0,bottomsquare,none,true,,,CREATURE,5,,,
html-keyboard-response,594,1201829,null,"<div style=""font-size:42px;"">CREATURE</div>",null,,word,CREATURE,,,,,,,,,,,,
html-keyboard-response,595,1203339,null,"",null,,word,CREATURE,,,,,,,,,,,,
html-keyboard-response,596,1203549,null,"<div style=""font-size:42px;"">SUITCASE</div><img id = ""stim"" ><div class = green_square id = bottomsquare></div>",null,encoding,word_square,,,1,bottomsquare,32,true,,,SUITCASE,5,,,
html-keyboard-response,597,1203860,141,"<div style=""font-size:42px;"">SUITCASE</div>",32,,word,SUITCASE,,,,,,,,,,,,
html-keyboard-response,598,1205369,null,"",null,,word,SUITCASE,,,,,,,,,,,,
html-keyboard-response,599,1205579,null,"<div style=""font-size:42px;"">PUPPY</div><img id = ""stim"" ><div class = green_square id = topsquare></div>",null,encoding,word_square,,,1,topsquare,32,true,,,PUPPY,5,,,
html-keyboard-response,600,1205889,271,"<div style=""font-size:42px;"">PUPPY</div>",32,,word,PUPPY,,,,,,,,,,,,
html-keyboard-response,601,1207399,null,"",null,,word,PUPPY,,,,,,,,,,,,
html-keyboard-response,602,1207609,null,"<div style=""font-size:42px;"">PERSON</div><img id = ""stim"" ><div class = red_square id = topsquare></div>",null,encoding,word_square,,,0,topsquare,none,true,,,PERSON,5,,,
html-keyboard-response,603,1207919,null,"<div style=""font-size:42px;"">PERSON</div>",null,,word,PERSON,,,,,,,,,,,,
html-keyboard-response,604,1209429,null,"",null,,word,PERSON,,,,,,,,,,,,
html-keyboard-response,605,1209639,null,"<div style=""font-size:42px;"">STRANGER</div><img id = ""stim"" ><div class = red_square id = bottomsquare></div>",null,encoding,word_square,,,0,bottomsquare,none,true,,,STRANGER,5,,,
html-keyboard-response,606,1209949,null,"<div style=""font-size:42px;"">STRANGER</div>",null,,word,STRANGER,,,,,,,,,,,,
html-keyboard-response,607,1211460,null,"",null,,word,STRANGER,,,,,,,,,,,,
html-keyboard-response,608,1211670,null,"<div style=""font-size:42px;"">ATLAS</div><img id = ""stim"" ><div class = green_square id = bottomsquare></div>",null,encoding,word_square,,,1,bottomsquare,32,true,,,ATLAS,5,,,
html-keyboard-response,609,1211981,132,"<div style=""font-size:42px;"">ATLAS</div>",32,,word,ATLAS,,,,,,,,,,,,
html-keyboard-response,610,1213490,null,"",null,,word,ATLAS,,,,,,,,,,,,
html-keyboard-response,611,1213700,null,"<div style=""font-size:42px;"">HIGHWAY</div><img id = ""stim"" ><div class = green_square id = topsquare></div>",null,encoding,word_square,,,1,topsquare,32,true,,,HIGHWAY,5,,,
html-keyboard-response,612,1214010,null,"<div style=""font-size:42px;"">HIGHWAY</div>",null,,word,HIGHWAY,,,,,,,,,,,,
html-keyboard-response,613,1215520,23,"",32,,word,HIGHWAY,,,,,,,,,,,,
html-keyboard-response,614,1215729,null,"<div style=""font-size:42px;"">MUFFIN</div><img id = ""stim"" ><div class = red_square id = topsquare></div>",null,encoding,word_square,,,0,topsquare,none,true,,,MUFFIN,5,,,
html-keyboard-response,615,1216040,null,"<div style=""font-size:42px;"">MUFFIN</div>",null,,word,MUFFIN,,,,,,,,,,,,
html-keyboard-response,616,1217550,null,"",null,,word,MUFFIN,,,,,,,,,,,,
html-keyboard-response,617,1217760,null,"<div style=""font-size:42px;"">DRAWER</div><img id = ""stim"" ><div class = red_square id = bottomsquare></div>",null,encoding,word_square,,,0,bottomsquare,none,true,,,DRAWER,5,,,
html-keyboard-response,618,1218071,null,"<div style=""font-size:42px;"">DRAWER</div>",null,,word,DRAWER,,,,,,,,,,,,
html-keyboard-response,619,1219580,null,"",null,,word,DRAWER,,,,,,,,,,,,
html-keyboard-response,620,1219790,null,"<div style=""font-size:42px;"">PEACH</div><img id = ""stim"" ><div class = green_square id = bottomsquare></div>",null,encoding,word_square,,,1,bottomsquare,32,true,,,PEACH,5,,,
html-keyboard-response,621,1220100,190,"<div style=""font-size:42px;"">PEACH</div>",32,,word,PEACH,,,,,,,,,,,,
html-keyboard-response,622,1221610,null,"",null,,word,PEACH,,,,,,,,,,,,
html-keyboard-response,623,1221821,null,"<div style=""font-size:42px;"">CHECKERS</div><img id = ""stim"" ><div class = red_square id = topsquare></div>",null,encoding,word_square,,,0,topsquare,none,true,,,CHECKERS,5,,,
html-keyboard-response,624,1222130,null,"<div style=""font-size:42px;"">CHECKERS</div>",null,,word,CHECKERS,,,,,,,,,,,,
html-keyboard-response,625,1223640,null,"",null,,word,CHECKERS,,,,,,,,,,,,
html-keyboard-response,626,1223851,null,"<div style=""font-size:42px;"">STOMACH</div><img id = ""stim"" ><div class = green_square id = topsquare></div>",null,encoding,word_square,,,1,topsquare,32,true,,,STOMACH,5,,,
html-keyboard-response,627,1224161,159,"<div style=""font-size:42px;"">STOMACH</div>",32,,word,STOMACH,,,,,,,,,,,,
html-keyboard-response,628,1225670,null,"",null,,word,STOMACH,,,,,,,,,,,,
html-keyboard-response,629,1225880,null,"<div style=""font-size:42px;"">BELLY</div><img id = ""stim"" ><div class = red_square id = bottomsquare></div>",null,encoding,word_square,,,0,bottomsquare,none,true,,,BELLY,5,,,
html-keyboard-response,630,1226190,null,"<div style=""font-size:42px;"">BELLY</div>",null,,word,BELLY,,,,,,,,,,,,
html-keyboard-response,631,1227700,null,"",null,,word,BELLY,,,,,,,,,,,,
html-keyboard-response,632,1227910,null,"<div style=""font-size:42px;"">CURTAIN</div><img id = ""stim"" ><div class = green_square id = bottomsquare></div>",null,encoding,word_square,,,1,bottomsquare,32,true,,,CURTAIN,5,,,
html-keyboard-response,633,1228220,260,"<div style=""font-size:42px;"">CURTAIN</div>",32,,word,CURTAIN,,,,,,,,,,,,
html-keyboard-response,634,1229730,null,"",null,,word,CURTAIN,,,,,,,,,,,,
html-keyboard-response,635,1229941,null,"<div style=""font-size:42px;"">SURGEON</div><img id = ""stim"" ><div class = green_square id = topsquare></div>",null,encoding,word_square,,,1,topsquare,32,true,,,SURGEON,5,,,
html-keyboard-response,636,1230251,197,"<div style=""font-size:42px;"">SURGEON</div>",32,,word,SURGEON,,,,,,,,,,,,
html-keyboard-response,637,1231761,null,"",null,,word,SURGEON,,,,,,,,,,,,
call-function,638,1231762,,"",,,,,,,,,,,,,,,,
html-keyboard-response,639,1231871,null,"",null,,,,,,,,,,,,,,,
math-period,640,1233740,3389,"",,,,,,,,,,,3,,,,,
html-keyboard-response,641,1233852,null,"",null,,,,,,,,,,,,,,,
math-period,642,1235204,2435,"",,,,,,,,,,,3,,,,,
html-keyboard-response,643,1235311,null,"",null,,,,,,,,,,,,,,,
math-period,644,1238973,7087,"",,,,,,,,,,,0,,,,,
html-keyboard-response,645,1239080,null,"",null,,,,,,,,,,,,,,,
math-period,646,1242284,6235,"",,,,,,,,,,,4,,,,,
html-keyboard-response,647,1242392,null,"",null,,,,,,,,,,,,,,,
math-period,648,1244861,4774,"",,,,,,,,,,,4,,,,,
html-keyboard-response,649,1244972,null,"",null,,,,,,,,,,,,,,,
math-period,650,1246245,2355,"",,,,,,,,,,,4,,,,,
html-keyboard-response,651,1246351,null,"",null,,,,,,,,,,,,,,,
math-period,652,1247893,2925,"",,,,,,,,,,,2,,,,,
html-keyboard-response,653,1248001,null,"",null,,,,,,,,,,,,,,,
math-period,654,1250157,4130,"",,,,,,,,,,,4,,,,,
html-keyboard-response,655,1250262,null,"",null,,,,,,,,,,,,,,,
math-period,656,1251788,2849,"",,,,,,,,,,,4,,,,,
html-keyboard-response,657,1251892,null,"",null,,,,,,,,,,,,,,,
math-period,658,1254292,4579,"",,,,,,,,,,,3,,,,,
html-keyboard-response,659,1254402,null,"",null,,,,,,,,,,,,,,,
math-period,660,1255772,1288,"",,,,,,,,,,,2,,,,,
html-keyboard-response,661,1256782,null,"Recall Period!",null,,,,,,,,,,,,,,,
call-function,662,1256783,,"",,,,,,,,,,,,,,,,
html-keyboard-response,663,1256892,null,"",null,,,,,,,,,,,,,,,
recall-period,664,1258053,2724,"",,,,,,,,,,,ox,,,,,
html-keyboard-response,665,1258162,null,"",null,,,,,,,,,,,,,,,
recall-period,666,1259821,7789,"",,,,,,,,,,,person,,,,,
html-keyboard-response,667,1259932,null,"",null,,,,,,,,,,,,,,,
recall-period,668,1261653,7084,"",,,,,,,,,,,stomach,,,,,
html-keyboard-response,669,1261762,null,"",null,,,,,,,,,,,,,,,
recall-period,670,1263477,9100,"",,,,,,,,,,,suitcase,,,,,
html-keyboard-response,671,1263583,null,"",null,,,,,,,,,,,,,,,
recall-period,672,1266709,16176,"",,,,,,,,,,,belly,,,,,
html-keyboard-response,673,1266814,null,"",null,,,,,,,,,,,,,,,
recall-period,674,1270148,17047,"",,,,,,,,,,,puppy,,,,,
html-keyboard-response,675,1270253,null,"",null,,,,,,,,,,,,,,,
recall-period,676,1331820,null,"",,,,,,,,,,,,,,,,
html-keyboard-response,677,1332347,null,"Time's Up!",null,,,,,,,,,,,,,,,
html-keyboard-response,678,1340942,8591,"<p> Good job! You have responded correctly to 100% of the trials. </p>
                      <p>Be sure to only press the spacebar if you see a GREEN square, and please keep your accuracy above 80%.</p>
                      <p> Press any key to continue the experiment. </p>",32,,,,,,,,,,,,,,,
html-keyboard-response,679,1342020,1076,"<div style=""font-size:48px;"">Press any key to begin list 7 of 16 </div>",32,,,,,,,,,,,,,,,
html-keyboard-response,680,1344531,null,"<div style=""font-size:60px;"">+</div>",null,,,,,,,,,,,,,,,
html-keyboard-response,681,1344741,null,"<div style=""font-size:42px;"">COOK</div><img id = ""stim"" ><div class = red_square id = bottomsquare></div>",null,encoding,word_square,,,0,bottomsquare,none,true,,,COOK,6,,,
html-keyboard-response,682,1345051,null,"<div style=""font-size:42px;"">COOK</div>",null,,word,COOK,,,,,,,,,,,,
html-keyboard-response,683,1346561,null,"",null,,word,COOK,,,,,,,,,,,,
html-keyboard-response,684,1346771,null,"<div style=""font-size:42px;"">BACKBONE</div><img id = ""stim"" ><div class = red_square id = topsquare></div>",null,encoding,word_square,,,0,topsquare,none,true,,,BACKBONE,6,,,
html-keyboard-response,685,1347081,null,"<div style=""font-size:42px;"">BACKBONE</div>",null,,word,BACKBONE,,,,,,,,,,,,
html-keyboard-response,686,1348591,null,"",null,,word,BACKBONE,,,,,,,,,,,,
html-keyboard-response,687,1348801,null,"<div style=""font-size:42px;"">STAKE</div><img id = ""stim"" ><div class = green_square id = topsquare></div>",null,encoding,word_square,,,1,topsquare,32,true,,,STAKE,6,,,
html-keyboard-response,688,1349110,104,"<div style=""font-size:42px;"">STAKE</div>",32,,word,STAKE,,,,,,,,,,,,
html-keyboard-response,689,1350621,null,"",null,,word,STAKE,,,,,,,,,,,,
html-keyboard-response,690,1350831,null,"<div style=""font-size:42px;"">SENATE</div><img id = ""stim"" ><div class = red_square id = bottomsquare></div>",null,encoding,word_square,,,0,bottomsquare,none,true,,,SENATE,6,,,
html-keyboard-response,691,1351141,null,"<div style=""font-size:42px;"">SENATE</div>",null,,word,SENATE,,,,,,,,,,,,
html-keyboard-response,692,1352651,null,"",null,,word,SENATE,,,,,,,,,,,,
html-keyboard-response,693,1352862,null,"<div style=""font-size:42px;"">KNUCKLE</div><img id = ""stim"" ><div class = green_square id = bottomsquare></div>",null,encoding,word_square,,,1,bottomsquare,32,true,,,KNUCKLE,6,,,
html-keyboard-response,694,1353170,237,"<div style=""font-size:42px;"">KNUCKLE</div>",32,,word,KNUCKLE,,,,,,,,,,,,
html-keyboard-response,695,1354681,null,"",null,,word,KNUCKLE,,,,,,,,,,,,
html-keyboard-response,696,1354891,null,"<div style=""font-size:42px;"">TURTLE</div><img id = ""stim"" ><div class = red_square id = topsquare></div>",null,encoding,word_square,,,0,topsquare,none,true,,,TURTLE,6,,,
html-keyboard-response,697,1355201,null,"<div style=""font-size:42px;"">TURTLE</div>",null,,word,TURTLE,,,,,,,,,,,,
html-keyboard-response,698,1356711,null,"",null,,word,TURTLE,,,,,,,,,,,,
html-keyboard-response,699,1356921,null,"<div style=""font-size:42px;"">FLUTE</div><img id = ""stim"" ><div class = green_square id = topsquare></div>",null,encoding,word_square,,,1,topsquare,32,true,,,FLUTE,6,,,
html-keyboard-response,700,1357232,161,"<div style=""font-size:42px;"">FLUTE</div>",32,,word,FLUTE,,,,,,,,,,,,
html-keyboard-response,701,1358741,null,"",null,,word,FLUTE,,,,,,,,,,,,
html-keyboard-response,702,1358951,null,"<div style=""font-size:42px;"">WHISTLE</div><img id = ""stim"" ><div class = green_square id = bottomsquare></div>",null,encoding,word_square,,,1,bottomsquare,32,true,,,WHISTLE,6,,,
html-keyboard-response,703,1359261,null,"<div style=""font-size:42px;"">WHISTLE</div>",null,,word,WHISTLE,,,,,,,,,,,,
html-keyboard-response,704,1360771,77,"",32,,word,WHISTLE,,,,,,,,,,,,
html-keyboard-response,705,1360982,null,"<div style=""font-size:42px;"">SCAPEGOAT</div><img id = ""stim"" ><div class = red_square id = bottomsquare></div>",null,encoding,word_square,,,0,bottomsquare,none,true,,,SCAPEGOAT,6,,,
html-keyboard-response,706,1361291,null,"<div style=""font-size:42px;"">SCAPEGOAT</div>",null,,word,SCAPEGOAT,,,,,,,,,,,,
html-keyboard-response,707,1362802,null,"",null,,word,SCAPEGOAT,,,,,,,,,,,,
html-keyboard-response,708,1363011,null,"<div style=""font-size:42px;"">TURKEY</div><img id = ""stim"" ><div class = red_square id = topsquare></div>",null,encoding,word_square,,,0,topsquare,none,true,,,TURKEY,6,,,
html-keyboard-response,709,1363322,null,"<div style=""font-size:42px;"">TURKEY</div>",null,,word,TURKEY,,,,,,,,,,,,
html-keyboard-response,710,1364832,null,"",null,,word,TURKEY,,,,,,,,,,,,
html-keyboard-response,711,1365042,null,"<div style=""font-size:42px;"">NURSE</div><img id = ""stim"" ><div class = green_square id = topsquare></div>",null,encoding,word_square,,,1,topsquare,32,true,,,NURSE,6,,,
html-keyboard-response,712,1365352,288,"<div style=""font-size:42px;"">NURSE</div>",32,,word,NURSE,,,,,,,,,,,,
html-keyboard-response,713,1366862,null,"",null,,word,NURSE,,,,,,,,,,,,
html-keyboard-response,714,1367072,null,"<div style=""font-size:42px;"">MONKEY</div><img id = ""stim"" ><div class = green_square id = bottomsquare></div>",null,encoding,word_square,,,1,bottomsquare,32,true,,,MONKEY,6,,,
html-keyboard-response,715,1367382,161,"<div style=""font-size:42px;"">MONKEY</div>",32,,word,MONKEY,,,,,,,,,,,,
html-keyboard-response,716,1368892,null,"",null,,word,MONKEY,,,,,,,,,,,,
html-keyboard-response,717,1369102,null,"<div style=""font-size:42px;"">KITCHEN</div><img id = ""stim"" ><div class = red_square id = bottomsquare></div>",null,encoding,word_square,,,0,bottomsquare,none,true,,,KITCHEN,6,,,
html-keyboard-response,718,1369413,null,"<div style=""font-size:42px;"">KITCHEN</div>",null,,word,KITCHEN,,,,,,,,,,,,
html-keyboard-response,719,1370924,null,"",null,,word,KITCHEN,,,,,,,,,,,,
html-keyboard-response,720,1371134,null,"<div style=""font-size:42px;"">PEOPLE</div><img id = ""stim"" ><div class = red_square id = topsquare></div>",null,encoding,word_square,,,0,topsquare,none,true,,,PEOPLE,6,,,
html-keyboard-response,721,1371444,null,"<div style=""font-size:42px;"">PEOPLE</div>",null,,word,PEOPLE,,,,,,,,,,,,
html-keyboard-response,722,1372954,null,"",null,,word,PEOPLE,,,,,,,,,,,,
html-keyboard-response,723,1373164,null,"<div style=""font-size:42px;"">STAMP</div><img id = ""stim"" ><div class = green_square id = topsquare></div>",null,encoding,word_square,,,1,topsquare,32,true,,,STAMP,6,,,
html-keyboard-response,724,1373474,158,"<div style=""font-size:42px;"">STAMP</div>",32,,word,STAMP,,,,,,,,,,,,
html-keyboard-response,725,1374984,null,"",null,,word,STAMP,,,,,,,,,,,,
html-keyboard-response,726,1375194,null,"<div style=""font-size:42px;"">NIGHTGOWN</div><img id = ""stim"" ><div class = green_square id = bottomsquare></div>",null,encoding,word_square,,,1,bottomsquare,32,true,,,NIGHTGOWN,6,,,
html-keyboard-response,727,1375504,161,"<div style=""font-size:42px;"">NIGHTGOWN</div>",32,,word,NIGHTGOWN,,,,,,,,,,,,
html-keyboard-response,728,1377015,null,"",null,,word,NIGHTGOWN,,,,,,,,,,,,
call-function,729,1377017,,"",,,,,,,,,,,,,,,,
html-keyboard-response,730,1377124,null,"",null,,,,,,,,,,,,,,,
math-period,731,1380525,6572,"",,,,,,,,,,,1,,,,,
html-keyboard-response,732,1380634,null,"",null,,,,,,,,,,,,,,,
math-period,733,1382004,2568,"",,,,,,,,,,,4,,,,,
html-keyboard-response,734,1382115,null,"",null,,,,,,,,,,,,,,,
math-period,735,1385644,6796,"",,,,,,,,,,,2,,,,,
html-keyboard-response,736,1385756,null,"",null,,,,,,,,,,,,,,,
math-period,737,1387077,2452,"",,,,,,,,,,,3,,,,,
html-keyboard-response,738,1387186,null,"",null,,,,,,,,,,,,,,,
math-period,739,1388293,2071,"",,,,,,,,,,,4,,,,,
html-keyboard-response,740,1388397,null,"",null,,,,,,,,,,,,,,,
math-period,741,1391405,8699,"",,,,,,,,,,,2,,,,,
html-keyboard-response,742,1391517,null,"",null,,,,,,,,,,,,,,,
math-period,743,1394805,6394,"",,,,,,,,,,,2,,,,,
html-keyboard-response,744,1394916,null,"",null,,,,,,,,,,,,,,,
math-period,745,1396212,2411,"",,,,,,,,,,,3,,,,,
html-keyboard-response,746,1396316,null,"",null,,,,,,,,,,,,,,,
math-period,747,1398013,3170,"",,,,,,,,,,,6,,,,,
html-keyboard-response,748,1398116,null,"",null,,,,,,,,,,,,,,,
math-period,749,1399525,2506,"",,,,,,,,,,,2,,,,,
html-keyboard-response,750,1399636,null,"",null,,,,,,,,,,,,,,,
math-period,751,1401026,null,"",,,,,,,,,,,,,,,,
html-keyboard-response,752,1402037,null,"Recall Period!",null,,,,,,,,,,,,,,,
call-function,753,1402039,,"",,,,,,,,,,,,,,,,
html-keyboard-response,754,1402147,null,"",null,,,,,,,,,,,,,,,
recall-period,755,1403469,4601,"",,,,,,,,,,,cook,,,,,
html-keyboard-response,756,1403577,null,"",null,,,,,,,,,,,,,,,
recall-period,757,1405788,9346,"",,,,,,,,,,,stake,,,,,
html-keyboard-response,758,1405897,null,"",null,,,,,,,,,,,,,,,
recall-period,759,1408773,16189,"",,,,,,,,,,,senate,,,,,
html-keyboard-response,760,1408877,null,"",null,,,,,,,,,,,,,,,
recall-period,761,1410365,6681,"",,,,,,,,,,,people,,,,,
html-keyboard-response,762,1410468,null,"",null,,,,,,,,,,,,,,,
recall-period,763,1421637,84732,"",,,,,,,,,,,kitchen,,,,,
html-keyboard-response,764,1421748,null,"",null,,,,,,,,,,,,,,,
recall-period,765,1477051,null,"",,,,,,,,,,,,,,,,
html-keyboard-response,766,1477559,null,"Time's Up!",null,,,,,,,,,,,,,,,
html-keyboard-response,767,1593965,116403,"<p> Good job! You have responded correctly to 100% of the trials. </p>
                      <p>Be sure to only press the spacebar if you see a GREEN square, and please keep your accuracy above 80%.</p>
                      <p> Press any key to continue the experiment. </p>",32,,,,,,,,,,,,,,,
html-keyboard-response,768,1604784,10814,"<div style=""font-size:48px;"">Press any key to begin list 8 of 16 </div>",32,,,,,,,,,,,,,,,
html-keyboard-response,769,1607299,null,"<div style=""font-size:60px;"">+</div>",null,,,,,,,,,,,,,,,
html-keyboard-response,770,1607509,null,"<div style=""font-size:42px;"">FRUIT</div><img id = ""stim"" ><div class = green_square id = bottomsquare></div>",null,encoding,word_square,,,1,bottomsquare,32,true,,,FRUIT,7,,,
html-keyboard-response,771,1607819,133,"<div style=""font-size:42px;"">FRUIT</div>",32,,word,FRUIT,,,,,,,,,,,,
html-keyboard-response,772,1609328,null,"",null,,word,FRUIT,,,,,,,,,,,,
html-keyboard-response,773,1609539,null,"<div style=""font-size:42px;"">HAWK</div><img id = ""stim"" ><div class = green_square id = topsquare></div>",null,encoding,word_square,,,1,topsquare,32,true,,,HAWK,7,,,
html-keyboard-response,774,1609850,127,"<div style=""font-size:42px;"">HAWK</div>",32,,word,HAWK,,,,,,,,,,,,
html-keyboard-response,775,1611358,null,"",null,,word,HAWK,,,,,,,,,,,,
html-keyboard-response,776,1611570,null,"<div style=""font-size:42px;"">PIGEON</div><img id = ""stim"" ><div class = red_square id = topsquare></div>",null,encoding,word_square,,,0,topsquare,none,true,,,PIGEON,7,,,
html-keyboard-response,777,1611878,null,"<div style=""font-size:42px;"">PIGEON</div>",null,,word,PIGEON,,,,,,,,,,,,
html-keyboard-response,778,1613389,null,"",null,,word,PIGEON,,,,,,,,,,,,
html-keyboard-response,779,1613599,null,"<div style=""font-size:42px;"">SAILOR</div><img id = ""stim"" ><div class = red_square id = bottomsquare></div>",null,encoding,word_square,,,0,bottomsquare,none,true,,,SAILOR,7,,,
html-keyboard-response,780,1613909,null,"<div style=""font-size:42px;"">SAILOR</div>",null,,word,SAILOR,,,,,,,,,,,,
html-keyboard-response,781,1615419,null,"",null,,word,SAILOR,,,,,,,,,,,,
html-keyboard-response,782,1615629,null,"<div style=""font-size:42px;"">CASHIER</div><img id = ""stim"" ><div class = green_square id = bottomsquare></div>",null,encoding,word_square,,,1,bottomsquare,32,true,,,CASHIER,7,,,
html-keyboard-response,783,1615939,69,"<div style=""font-size:42px;"">CASHIER</div>",32,,word,CASHIER,,,,,,,,,,,,
html-keyboard-response,784,1617448,null,"",null,,word,CASHIER,,,,,,,,,,,,
html-keyboard-response,785,1617659,null,"<div style=""font-size:42px;"">BOYFRIEND</div><img id = ""stim"" ><div class = green_square id = topsquare></div>",null,encoding,word_square,,,1,topsquare,32,true,,,BOYFRIEND,7,,,
html-keyboard-response,786,1617969,262,"<div style=""font-size:42px;"">BOYFRIEND</div>",32,,word,BOYFRIEND,,,,,,,,,,,,
html-keyboard-response,787,1619478,null,"",null,,word,BOYFRIEND,,,,,,,,,,,,
html-keyboard-response,788,1619689,null,"<div style=""font-size:42px;"">ROOSTER</div><img id = ""stim"" ><div class = red_square id = topsquare></div>",null,encoding,word_square,,,0,topsquare,none,true,,,ROOSTER,7,,,
html-keyboard-response,789,1619998,null,"<div style=""font-size:42px;"">ROOSTER</div>",null,,word,ROOSTER,,,,,,,,,,,,
html-keyboard-response,790,1621509,null,"",null,,word,ROOSTER,,,,,,,,,,,,
html-keyboard-response,791,1621719,null,"<div style=""font-size:42px;"">COLUMN</div><img id = ""stim"" ><div class = red_square id = bottomsquare></div>",null,encoding,word_square,,,0,bottomsquare,none,true,,,COLUMN,7,,,
html-keyboard-response,792,1622029,null,"<div style=""font-size:42px;"">COLUMN</div>",null,,word,COLUMN,,,,,,,,,,,,
html-keyboard-response,793,1623541,null,"",null,,word,COLUMN,,,,,,,,,,,,
html-keyboard-response,794,1623751,null,"<div style=""font-size:42px;"">SLUG</div><img id = ""stim"" ><div class = green_square id = bottomsquare></div>",null,encoding,word_square,,,1,bottomsquare,32,true,,,SLUG,7,,,
html-keyboard-response,795,1624061,194,"<div style=""font-size:42px;"">SLUG</div>",32,,word,SLUG,,,,,,,,,,,,
html-keyboard-response,796,1625571,null,"",null,,word,SLUG,,,,,,,,,,,,
html-keyboard-response,797,1625781,null,"<div style=""font-size:42px;"">PLIERS</div><img id = ""stim"" ><div class = green_square id = topsquare></div>",null,encoding,word_square,,,1,topsquare,32,true,,,PLIERS,7,,,
html-keyboard-response,798,1626091,141,"<div style=""font-size:42px;"">PLIERS</div>",32,,word,PLIERS,,,,,,,,,,,,
html-keyboard-response,799,1627600,null,"",null,,word,PLIERS,,,,,,,,,,,,
html-keyboard-response,800,1627810,null,"<div style=""font-size:42px;"">TWEEZERS</div><img id = ""stim"" ><div class = red_square id = topsquare></div>",null,encoding,word_square,,,0,topsquare,none,true,,,TWEEZERS,7,,,
html-keyboard-response,801,1628121,null,"<div style=""font-size:42px;"">TWEEZERS</div>",null,,word,TWEEZERS,,,,,,,,,,,,
html-keyboard-response,802,1629631,null,"",null,,word,TWEEZERS,,,,,,,,,,,,
html-keyboard-response,803,1629841,null,"<div style=""font-size:42px;"">BANK</div><img id = ""stim"" ><div class = green_square id = bottomsquare></div>",null,encoding,word_square,,,1,bottomsquare,32,true,,,BANK,7,,,
html-keyboard-response,804,1630150,186,"<div style=""font-size:42px;"">BANK</div>",32,,word,BANK,,,,,,,,,,,,
html-keyboard-response,805,1631662,null,"",null,,word,BANK,,,,,,,,,,,,
html-keyboard-response,806,1631871,null,"<div style=""font-size:42px;"">BOXER</div><img id = ""stim"" ><div class = red_square id = bottomsquare></div>",null,encoding,word_square,,,0,bottomsquare,none,true,,,BOXER,7,,,
html-keyboard-response,807,1632181,null,"<div style=""font-size:42px;"">BOXER</div>",null,,word,BOXER,,,,,,,,,,,,
html-keyboard-response,808,1633691,null,"",null,,word,BOXER,,,,,,,,,,,,
html-keyboard-response,809,1633901,null,"<div style=""font-size:42px;"">OFFICE</div><img id = ""stim"" ><div class = green_square id = topsquare></div>",null,encoding,word_square,,,1,topsquare,32,true,,,OFFICE,7,,,
html-keyboard-response,810,1634211,124,"<div style=""font-size:42px;"">OFFICE</div>",32,,word,OFFICE,,,,,,,,,,,,
html-keyboard-response,811,1635721,null,"",null,,word,OFFICE,,,,,,,,,,,,
html-keyboard-response,812,1635931,null,"<div style=""font-size:42px;"">TERMITE</div><img id = ""stim"" ><div class = red_square id = topsquare></div>",null,encoding,word_square,,,0,topsquare,none,true,,,TERMITE,7,,,
html-keyboard-response,813,1636241,null,"<div style=""font-size:42px;"">TERMITE</div>",null,,word,TERMITE,,,,,,,,,,,,
html-keyboard-response,814,1637750,null,"",null,,word,TERMITE,,,,,,,,,,,,
html-keyboard-response,815,1637961,null,"<div style=""font-size:42px;"">MUMMY</div><img id = ""stim"" ><div class = red_square id = bottomsquare></div>",null,encoding,word_square,,,0,bottomsquare,none,true,,,MUMMY,7,,,
html-keyboard-response,816,1638270,null,"<div style=""font-size:42px;"">MUMMY</div>",null,,word,MUMMY,,,,,,,,,,,,
html-keyboard-response,817,1639781,null,"",null,,word,MUMMY,,,,,,,,,,,,
call-function,818,1639784,,"",,,,,,,,,,,,,,,,
html-keyboard-response,819,1639891,null,"",null,,,,,,,,,,,,,,,
math-period,820,1641573,3054,"",,,,,,,,,,,4,,,,,
html-keyboard-response,821,1641682,null,"",null,,,,,,,,,,,,,,,
math-period,822,1643134,2715,"",,,,,,,,,,,5,,,,,
html-keyboard-response,823,1643242,null,"",null,,,,,,,,,,,,,,,
math-period,824,1646181,5578,"",,,,,,,,,,,1,,,,,
html-keyboard-response,825,1646292,null,"",null,,,,,,,,,,,,,,,
math-period,826,1651173,9548,"",,,,,,,,,,,0,,,,,
html-keyboard-response,827,1651281,null,"",null,,,,,,,,,,,,,,,
math-period,828,1652773,2762,"",,,,,,,,,,,6,,,,,
html-keyboard-response,829,1652882,null,"",null,,,,,,,,,,,,,,,
math-period,830,1654164,2416,"",,,,,,,,,,,4,,,,,
html-keyboard-response,831,1654272,null,"",null,,,,,,,,,,,,,,,
math-period,832,1656804,4789,"",,,,,,,,,,,1,,,,,
html-keyboard-response,833,1656913,null,"",null,,,,,,,,,,,,,,,
math-period,834,1660396,6708,"",,,,,,,,,,,4,,,,,
html-keyboard-response,835,1660503,null,"",null,,,,,,,,,,,,,,,
math-period,836,1663421,5438,"",,,,,,,,,,,2,,,,,
html-keyboard-response,837,1663532,null,"",null,,,,,,,,,,,,,,,
math-period,838,1663793,null,"",,,,,,,,,,,,,,,,
html-keyboard-response,839,1664802,null,"Recall Period!",null,,,,,,,,,,,,,,,
call-function,840,1664804,,"",,,,,,,,,,,,,,,,
html-keyboard-response,841,1664913,null,"",null,,,,,,,,,,,,,,,
recall-period,842,1666333,5907,"",,,,,,,,,,,fruit,,,,,
html-keyboard-response,843,1666442,null,"",null,,,,,,,,,,,,,,,
recall-period,844,1667645,4014,"",,,,,,,,,,,hawk,,,,,
html-keyboard-response,845,1667753,null,"",null,,,,,,,,,,,,,,,
recall-period,846,1669373,8877,"",,,,,,,,,,,rooster,,,,,
html-keyboard-response,847,1669483,null,"",null,,,,,,,,,,,,,,,
recall-period,848,1671076,5998,"",,,,,,,,,,,bank,,,,,
html-keyboard-response,849,1671182,null,"",null,,,,,,,,,,,,,,,
recall-period,850,1672637,5152,"",,,,,,,,,,,pigeon,,,,,
html-keyboard-response,851,1672743,null,"",null,,,,,,,,,,,,,,,
recall-period,852,1739810,null,"",,,,,,,,,,,,,,,,
html-keyboard-response,853,1740320,null,"Time's Up!",null,,,,,,,,,,,,,,,
html-keyboard-response,854,1791893,51569,"<p> Good job! You have responded correctly to 100% of the trials. </p>
                      <p>Be sure to only press the spacebar if you see a GREEN square, and please keep your accuracy above 80%.</p>
                      <p> Press any key to continue the experiment. </p>",32,,,,,,,,,,,,,,,
html-keyboard-response,855,1793341,1446,"<div style=""font-size:48px;"">Press any key to begin list 9 of 16 </div>",32,,,,,,,,,,,,,,,
html-keyboard-response,856,1795862,null,"<div style=""font-size:60px;"">+</div>",null,,,,,,,,,,,,,,,
html-keyboard-response,857,1796071,null,"<div style=""font-size:42px;"">COFFEE</div><img id = ""stim"" ><div class = green_square id = topsquare></div>",null,encoding,word_square,,,1,topsquare,32,true,,,COFFEE,8,,,
html-keyboard-response,858,1796381,null,"<div style=""font-size:42px;"">COFFEE</div>",null,,word,COFFEE,,,,,,,,,,,,
html-keyboard-response,859,1797892,268,"",32,,word,COFFEE,,,,,,,,,,,,
html-keyboard-response,860,1798102,null,"<div style=""font-size:42px;"">DWARF</div><img id = ""stim"" ><div class = red_square id = bottomsquare></div>",null,encoding,word_square,,,0,bottomsquare,none,true,,,DWARF,8,,,
html-keyboard-response,861,1798413,null,"<div style=""font-size:42px;"">DWARF</div>",null,,word,DWARF,,,,,,,,,,,,
html-keyboard-response,862,1799921,null,"",null,,word,DWARF,,,,,,,,,,,,
html-keyboard-response,863,1800131,null,"<div style=""font-size:42px;"">BADGE</div><img id = ""stim"" ><div class = red_square id = topsquare></div>",null,encoding,word_square,,,0,topsquare,none,true,,,BADGE,8,,,
html-keyboard-response,864,1800441,null,"<div style=""font-size:42px;"">BADGE</div>",null,,word,BADGE,,,,,,,,,,,,
html-keyboard-response,865,1801952,null,"",null,,word,BADGE,,,,,,,,,,,,
html-keyboard-response,866,1802162,null,"<div style=""font-size:42px;"">AGENT</div><img id = ""stim"" ><div class = green_square id = bottomsquare></div>",null,encoding,word_square,,,1,bottomsquare,32,true,,,AGENT,8,,,
html-keyboard-response,867,1802471,127,"<div style=""font-size:42px;"">AGENT</div>",32,,word,AGENT,,,,,,,,,,,,
html-keyboard-response,868,1803983,null,"",null,,word,AGENT,,,,,,,,,,,,
html-keyboard-response,869,1804191,null,"<div style=""font-size:42px;"">EMPIRE</div><img id = ""stim"" ><div class = green_square id = topsquare></div>",null,encoding,word_square,,,1,topsquare,32,true,,,EMPIRE,8,,,
html-keyboard-response,870,1804501,null,"<div style=""font-size:42px;"">EMPIRE</div>",null,,word,EMPIRE,,,,,,,,,,,,
html-keyboard-response,871,1806012,236,"",32,,word,EMPIRE,,,,,,,,,,,,
html-keyboard-response,872,1806222,null,"<div style=""font-size:42px;"">SALT</div><img id = ""stim"" ><div class = red_square id = bottomsquare></div>",null,encoding,word_square,,,0,bottomsquare,none,true,,,SALT,8,,,
html-keyboard-response,873,1806532,null,"<div style=""font-size:42px;"">SALT</div>",null,,word,SALT,,,,,,,,,,,,
html-keyboard-response,874,1808042,null,"",null,,word,SALT,,,,,,,,,,,,
html-keyboard-response,875,1808252,null,"<div style=""font-size:42px;"">SUNRISE</div><img id = ""stim"" ><div class = red_square id = topsquare></div>",null,encoding,word_square,,,0,topsquare,none,true,,,SUNRISE,8,,,
html-keyboard-response,876,1808562,null,"<div style=""font-size:42px;"">SUNRISE</div>",null,,word,SUNRISE,,,,,,,,,,,,
html-keyboard-response,877,1810072,null,"",null,,word,SUNRISE,,,,,,,,,,,,
html-keyboard-response,878,1810282,null,"<div style=""font-size:42px;"">SUNSET</div><img id = ""stim"" ><div class = green_square id = bottomsquare></div>",null,encoding,word_square,,,1,bottomsquare,32,true,,,SUNSET,8,,,
html-keyboard-response,879,1810592,113,"<div style=""font-size:42px;"">SUNSET</div>",32,,word,SUNSET,,,,,,,,,,,,
html-keyboard-response,880,1812102,null,"",null,,word,SUNSET,,,,,,,,,,,,
html-keyboard-response,881,1812312,null,"<div style=""font-size:42px;"">BUGGY</div><img id = ""stim"" ><div class = green_square id = topsquare></div>",null,encoding,word_square,,,1,topsquare,32,true,,,BUGGY,8,,,
html-keyboard-response,882,1812622,null,"<div style=""font-size:42px;"">BUGGY</div>",null,,word,BUGGY,,,,,,,,,,,,
html-keyboard-response,883,1814133,44,"",32,,word,BUGGY,,,,,,,,,,,,
html-keyboard-response,884,1814342,null,"<div style=""font-size:42px;"">ASIA</div><img id = ""stim"" ><div class = red_square id = bottomsquare></div>",null,encoding,word_square,,,0,bottomsquare,none,true,,,ASIA,8,,,
html-keyboard-response,885,1814653,null,"<div style=""font-size:42px;"">ASIA</div>",null,,word,ASIA,,,,,,,,,,,,
html-keyboard-response,886,1816162,null,"",null,,word,ASIA,,,,,,,,,,,,
html-keyboard-response,887,1816372,null,"<div style=""font-size:42px;"">DART</div><img id = ""stim"" ><div class = red_square id = topsquare></div>",null,encoding,word_square,,,0,topsquare,none,true,,,DART,8,,,
html-keyboard-response,888,1816682,null,"<div style=""font-size:42px;"">DART</div>",null,,word,DART,,,,,,,,,,,,
html-keyboard-response,889,1818192,null,"",null,,word,DART,,,,,,,,,,,,
html-keyboard-response,890,1818402,null,"<div style=""font-size:42px;"">SPINACH</div><img id = ""stim"" ><div class = green_square id = bottomsquare></div>",null,encoding,word_square,,,1,bottomsquare,32,true,,,SPINACH,8,,,
html-keyboard-response,891,1818712,null,"<div style=""font-size:42px;"">SPINACH</div>",null,,word,SPINACH,,,,,,,,,,,,
html-keyboard-response,892,1820222,242,"",32,,word,SPINACH,,,,,,,,,,,,
html-keyboard-response,893,1820432,null,"<div style=""font-size:42px;"">FRIES</div><img id = ""stim"" ><div class = green_square id = topsquare></div>",null,encoding,word_square,,,1,topsquare,32,true,,,FRIES,8,,,
html-keyboard-response,894,1820741,234,"<div style=""font-size:42px;"">FRIES</div>",32,,word,FRIES,,,,,,,,,,,,
html-keyboard-response,895,1822251,null,"",null,,word,FRIES,,,,,,,,,,,,
html-keyboard-response,896,1822462,null,"<div style=""font-size:42px;"">TAVERN</div><img id = ""stim"" ><div class = red_square id = bottomsquare></div>",null,encoding,word_square,,,0,bottomsquare,none,true,,,TAVERN,8,,,
html-keyboard-response,897,1822772,null,"<div style=""font-size:42px;"">TAVERN</div>",null,,word,TAVERN,,,,,,,,,,,,
html-keyboard-response,898,1824283,null,"",null,,word,TAVERN,,,,,,,,,,,,
html-keyboard-response,899,1824493,null,"<div style=""font-size:42px;"">BRANCH</div><img id = ""stim"" ><div class = green_square id = bottomsquare></div>",null,encoding,word_square,,,1,bottomsquare,32,true,,,BRANCH,8,,,
html-keyboard-response,900,1824802,116,"<div style=""font-size:42px;"">BRANCH</div>",32,,word,BRANCH,,,,,,,,,,,,
html-keyboard-response,901,1826313,null,"",null,,word,BRANCH,,,,,,,,,,,,
html-keyboard-response,902,1826523,null,"<div style=""font-size:42px;"">CLIMBER</div><img id = ""stim"" ><div class = red_square id = topsquare></div>",null,encoding,word_square,,,0,topsquare,none,true,,,CLIMBER,8,,,
html-keyboard-response,903,1826833,null,"<div style=""font-size:42px;"">CLIMBER</div>",null,,word,CLIMBER,,,,,,,,,,,,
html-keyboard-response,904,1828342,null,"",null,,word,CLIMBER,,,,,,,,,,,,
call-function,905,1828346,,"",,,,,,,,,,,,,,,,
html-keyboard-response,906,1828453,null,"",null,,,,,,,,,,,,,,,
math-period,907,1830148,3168,"",,,,,,,,,,,6,,,,,
html-keyboard-response,908,1830253,null,"",null,,,,,,,,,,,,,,,
math-period,909,1833900,7104,"",,,,,,,,,,,0,,,,,
html-keyboard-response,910,1834013,null,"",null,,,,,,,,,,,,,,,
math-period,911,1835372,2291,"",,,,,,,,,,,1,,,,,
html-keyboard-response,912,1835483,null,"",null,,,,,,,,,,,,,,,
math-period,913,1836933,2622,"",,,,,,,,,,,3,,,,,
html-keyboard-response,914,1837043,null,"",null,,,,,,,,,,,,,,,
math-period,915,1838460,2587,"",,,,,,,,,,,6,,,,,
html-keyboard-response,916,1838573,null,"",null,,,,,,,,,,,,,,,
math-period,917,1841149,4889,"",,,,,,,,,,,1,,,,,
html-keyboard-response,918,1841255,null,"",null,,,,,,,,,,,,,,,
math-period,919,1843901,5078,"",,,,,,,,,,,1,,,,,
html-keyboard-response,920,1844004,null,"",null,,,,,,,,,,,,,,,
math-period,921,1845500,2756,"",,,,,,,,,,,4,,,,,
html-keyboard-response,922,1845603,null,"",null,,,,,,,,,,,,,,,
math-period,923,1846765,2157,"",,,,,,,,,,,4,,,,,
html-keyboard-response,924,1846875,null,"",null,,,,,,,,,,,,,,,
math-period,925,1849893,5829,"",,,,,,,,,,,2,,,,,
html-keyboard-response,926,1850004,null,"",null,,,,,,,,,,,,,,,
math-period,927,1851636,3018,"",,,,,,,,,,,5,,,,,
html-keyboard-response,928,1851744,null,"",null,,,,,,,,,,,,,,,
math-period,929,1852354,null,"",,,,,,,,,,,,,,,,
html-keyboard-response,930,1853364,null,"Recall Period!",null,,,,,,,,,,,,,,,
