trial_type,trial_index,time_elapsed,rt,stimulus,key_press,exp_phase,test_part,word,task,targ_cond,sq_pos,correctKeyCode,correct,value,response,Word,List,RecResp,serial_pos,colorChosen
pavlovia,0,2605,,"",,,,,,,,,,,,,,,,
external-html,1,217102,214357.19999998808,"",,,,,,,,,,,,,,,,
html-keyboard-response,2,219346,2241,"Welcome to the experiment. Press any key to begin.",13,,,,,,,,,,,,,,,
html-keyboard-response,3,927695,708347.5,"<p>You will see a list of words and colored squares in the following task.<p><p>Press the spacebar whenever you see a red square.<p><p>Do not press a key if the square is green.<p><p>Press the spacebar to continue.</p>",32,,,,,,,,,,,,,,,
html-keyboard-response,4,932215,4019.300000011921,"<p>Please try to remember as many of the words as you can, and try to think about the meaning of each word as it appears.<p><p>After the detection and encoding task you will be asked to solve some math problems for 24 seconds.<p> Please solve as many problems as you can in the time given. <p><p><p>Press the spacebar to continue.</p>",32,,,,,,,,,,,,,,,
html-keyboard-response,5,937450,4733.600000023842,"After solving the math problems, you will be asked to type in as many words <p>from the previous list as you can remember for 75 seconds.<p> If you finish recalling before the 75 seconds are up,<p> just sit tight and try to think of any more words you could have missed. <p><p><p>Press the spacebar to continue.</p>",32,,,,,,,,,,,,,,,
html-keyboard-response,6,945055,7090.099999964237,"There will be 16 lists of words and recall, followed  by<p><p> a recognition phase. The experiment is expected to take up to 90 minutes.<p>We will begin with a brief practice session.<p>Press the spacebar to begin the practice.</p>",32,,,,,,,,,,,,,,,
html-keyboard-response,7,947559,null,"<div style=""font-size:60px;"">+</div>",null,,,,,,,,,,,,,,,
html-keyboard-response,8,947770,null,"<div style=""font-size:42px;"">HAPPY</div><img id = ""stim"" ><div class = green_square id = ""bottomsquare"" ></div>",null,practice,word_square,HAPPY,prac_response,0,Bottom,none,true,,,,,,,
html-keyboard-response,9,948084,null,"<div style=""font-size:42px;"">HAPPY</div>",null,,word,HAPPY,,,,,,,,,,,,
html-keyboard-response,10,949595,null,"",null,,word,HAPPY,,,,,,,,,,,,
html-keyboard-response,11,949807,null,"<div style=""font-size:42px;"">COLD</div><img id = ""stim"" ><div class = red_square id = ""bottomsquare"" ></div>",null,practice,word_square,COLD,prac_response,1,Bottom,32,true,,,,,,,
html-keyboard-response,12,950109,246.10000002384186,"<div style=""font-size:42px;"">COLD</div>",32,,word,COLD,,,,,,,,,,,,
html-keyboard-response,13,951610,null,"",null,,word,COLD,,,,,,,,,,,,
html-keyboard-response,14,951819,null,"<div style=""font-size:42px;"">HEAVY</div><img id = ""stim"" ><div class = red_square id = ""topsquare"" ></div>",null,practice,word_square,HEAVY,prac_response,1,Top,32,false,,,,,,,
html-keyboard-response,15,952121,null,"<div style=""font-size:42px;"">HEAVY</div>",null,,word,HEAVY,,,,,,,,,,,,
html-keyboard-response,16,953632,null,"",null,,word,HEAVY,,,,,,,,,,,,
html-keyboard-response,17,953843,null,"<div style=""font-size:42px;"">FUNNY</div><img id = ""stim"" ><div class = green_square id = ""topsquare"" ></div>",null,practice,word_square,FUNNY,prac_response,0,Top,none,true,,,,,,,
html-keyboard-response,18,954152,null,"<div style=""font-size:42px;"">FUNNY</div>",null,,word,FUNNY,,,,,,,,,,,,
html-keyboard-response,19,955654,null,"",null,,word,FUNNY,,,,,,,,,,,,
html-keyboard-response,20,955862,null,"<div style=""font-size:42px;"">SCARY</div><img id = ""stim"" ><div class = red_square id = ""bottomsquare"" ></div>",null,practice,word_square,SCARY,prac_response,1,Bottom,32,false,,,,,,,
html-keyboard-response,21,956176,null,"<div style=""font-size:42px;"">SCARY</div>",null,,word,SCARY,,,,,,,,,,,,
html-keyboard-response,22,957679,null,"",null,,word,SCARY,,,,,,,,,,,,
html-keyboard-response,23,957882,null,"<div style=""font-size:42px;"">PEACEFUL</div><img id = ""stim"" ><div class = red_square id = ""topsquare"" ></div>",null,practice,word_square,PEACEFUL,prac_response,1,Top,32,false,,,,,,,
html-keyboard-response,24,958197,null,"<div style=""font-size:42px;"">PEACEFUL</div>",null,,word,PEACEFUL,,,,,,,,,,,,
html-keyboard-response,25,959712,null,"",null,,word,PEACEFUL,,,,,,,,,,,,
html-keyboard-response,26,959915,null,"<div style=""font-size:42px;"">LITTLE</div><img id = ""stim"" ><div class = green_square id = ""bottomsquare"" ></div>",null,practice,word_square,LITTLE,prac_response,0,Bottom,none,true,,,,,,,
html-keyboard-response,27,960226,null,"<div style=""font-size:42px;"">LITTLE</div>",null,,word,LITTLE,,,,,,,,,,,,
html-keyboard-response,28,961731,null,"",null,,word,LITTLE,,,,,,,,,,,,
html-keyboard-response,29,961945,null,"<div style=""font-size:42px;"">TIRED</div><img id = ""stim"" ><div class = green_square id = ""topsquare"" ></div>",null,practice,word_square,TIRED,prac_response,0,Top,none,true,,,,,,,
html-keyboard-response,30,962257,null,"<div style=""font-size:42px;"">TIRED</div>",null,,word,TIRED,,,,,,,,,,,,
html-keyboard-response,31,963767,null,"",null,,word,TIRED,,,,,,,,,,,,
html-keyboard-response,32,963973,null,"<div style=""font-size:42px;"">ENTERTAINING</div><img id = ""stim"" ><div class = green_square id = ""bottomsquare"" ></div>",null,practice,word_square,ENTERTAINING,prac_response,0,Bottom,none,true,,,,,,,
html-keyboard-response,33,964285,null,"<div style=""font-size:42px;"">ENTERTAINING</div>",null,,word,ENTERTAINING,,,,,,,,,,,,
html-keyboard-response,34,965786,null,"",null,,word,ENTERTAINING,,,,,,,,,,,,
html-keyboard-response,35,965991,null,"<div style=""font-size:42px;"">GRATEFUL</div><img id = ""stim"" ><div class = red_square id = ""bottomsquare"" ></div>",null,practice,word_square,GRATEFUL,prac_response,1,Bottom,32,true,,,,,,,
html-keyboard-response,36,966302,null,"<div style=""font-size:42px;"">GRATEFUL</div>",null,,word,GRATEFUL,,,,,,,,,,,,
html-keyboard-response,37,967804,383.2999999523163,"",32,,word,GRATEFUL,,,,,,,,,,,,
html-keyboard-response,38,968011,null,"<div style=""font-size:42px;"">LOUD</div><img id = ""stim"" ><div class = green_square id = ""topsquare"" ></div>",null,practice,word_square,LOUD,prac_response,0,Top,none,true,,,,,,,
html-keyboard-response,39,968316,null,"<div style=""font-size:42px;"">LOUD</div>",null,,word,LOUD,,,,,,,,,,,,
html-keyboard-response,40,969817,null,"",null,,word,LOUD,,,,,,,,,,,,
html-keyboard-response,41,970021,null,"<div style=""font-size:42px;"">SMART</div><img id = ""stim"" ><div class = red_square id = ""topsquare"" ></div>",null,practice,word_square,SMART,prac_response,1,Top,32,true,,,,,,,
html-keyboard-response,42,970324,null,"<div style=""font-size:42px;"">SMART</div>",null,,word,SMART,,,,,,,,,,,,
html-keyboard-response,43,971837,232.5,"",32,,word,SMART,,,,,,,,,,,,
html-keyboard-response,44,972049,null,"<div style=""font-size:42px;"">SMOOTH</div><img id = ""stim"" ><div class = red_square id = ""bottomsquare"" ></div>",null,practice,word_square,SMOOTH,prac_response,1,Bottom,32,false,,,,,,,
html-keyboard-response,45,972359,null,"<div style=""font-size:42px;"">SMOOTH</div>",null,,word,SMOOTH,,,,,,,,,,,,
html-keyboard-response,46,973873,null,"",null,,word,SMOOTH,,,,,,,,,,,,
html-keyboard-response,47,974083,null,"<div style=""font-size:42px;"">DISHONEST</div><img id = ""stim"" ><div class = green_square id = ""bottomsquare"" ></div>",null,practice,word_square,DISHONEST,prac_response,0,Bottom,none,true,,,,,,,
html-keyboard-response,48,974388,null,"<div style=""font-size:42px;"">DISHONEST</div>",null,,word,DISHONEST,,,,,,,,,,,,
html-keyboard-response,49,975895,null,"",null,,word,DISHONEST,,,,,,,,,,,,
html-keyboard-response,50,976110,null,"<div style=""font-size:42px;"">WEALTHY</div><img id = ""stim"" ><div class = red_square id = ""topsquare"" ></div>",null,practice,word_square,WEALTHY,prac_response,1,Top,32,true,,,,,,,
html-keyboard-response,51,976417,null,"<div style=""font-size:42px;"">WEALTHY</div>",null,,word,WEALTHY,,,,,,,,,,,,
html-keyboard-response,52,977937,165.5,"",32,,word,WEALTHY,,,,,,,,,,,,
html-keyboard-response,53,978157,null,"<div style=""font-size:42px;"">BEAUTIFUL</div><img id = ""stim"" ><div class = green_square id = ""topsquare"" ></div>",null,practice,word_square,BEAUTIFUL,prac_response,0,Top,none,false,,,,,,,
html-keyboard-response,54,978466,null,"<div style=""font-size:42px;"">BEAUTIFUL</div>",null,,word,BEAUTIFUL,,,,,,,,,,,,
html-keyboard-response,55,979977,168.5,"",32,,word,BEAUTIFUL,,,,,,,,,,,,
html-keyboard-response,56,984781,4802.400000035763,"<p> Uh oh. You responded correctly to only 69% of the trials. </p>
                  <p>Be sure to only press the spacebar if you see a red square, and please keep your accuracy above 80%.</p>
                  <p>We're going to try once more to make sure you understand the task. press any key to continue.</p>",32,,,,,,,,,,,,,,,
html-keyboard-response,57,998594,13811.5,"<p>You will see a list of words and colored squares in the following task.<p><p>Press the spacebar whenever you see a red square.<p><p>Do not press a key if the square is green<p><p>Press the spacebar to continue.</p>",86,,,,,,,,,,,,,,,
html-keyboard-response,58,1001117,null,"<div style=""font-size:60px;"">+</div>",null,,,,,,,,,,,,,,,
html-keyboard-response,59,1001337,null,"<div style=""font-size:42px;"">HAPPY</div><img id = ""stim"" ><div class = green_square id = ""bottomsquare"" ></div>",null,practice2,word_square,HAPPY,prac_response,0,Bottom,none,true,,,,,,,
html-keyboard-response,60,1001657,null,"<div style=""font-size:42px;"">HAPPY</div>",null,,word,HAPPY,,,,,,,,,,,,
html-keyboard-response,61,1003164,null,"",null,,word,HAPPY,,,,,,,,,,,,
html-keyboard-response,62,1003380,null,"<div style=""font-size:42px;"">COLD</div><img id = ""stim"" ><div class = red_square id = ""bottomsquare"" ></div>",null,practice2,word_square,,prac_response,1,Bottom,32,true,,,,,,,
html-keyboard-response,63,1003697,149.30000001192093,"<div style=""font-size:42px;"">COLD</div>",32,,word,COLD,,,,,,,,,,,,
html-keyboard-response,64,1005217,null,"",null,,word,COLD,,,,,,,,,,,,
html-keyboard-response,65,1005437,null,"<div style=""font-size:42px;"">HEAVY</div><img id = ""stim"" ><div class = red_square id = ""topsquare"" ></div>",null,practice2,word_square,,prac_response,1,Top,32,true,,,,,,,
html-keyboard-response,66,1005757,null,"<div style=""font-size:42px;"">HEAVY</div>",null,,word,HEAVY,,,,,,,,,,,,
html-keyboard-response,67,1007267,557,"",32,,word,HEAVY,,,,,,,,,,,,
html-keyboard-response,68,1007487,null,"<div style=""font-size:42px;"">FUNNY</div><img id = ""stim"" ><div class = green_square id = ""topsquare"" ></div>",null,practice2,word_square,,prac_response,0,Top,none,false,,,,,,,
html-keyboard-response,69,1007797,null,"<div style=""font-size:42px;"">FUNNY</div>",null,,word,FUNNY,,,,,,,,,,,,
html-keyboard-response,70,1009317,180.30000001192093,"",32,,word,FUNNY,,,,,,,,,,,,
html-keyboard-response,71,1009527,null,"<div style=""font-size:42px;"">SCARY</div><img id = ""stim"" ><div class = red_square id = ""bottomsquare"" ></div>",null,practice2,word_square,,prac_response,1,Bottom,32,true,,,,,,,
html-keyboard-response,72,1009837,null,"<div style=""font-size:42px;"">SCARY</div>",null,,word,SCARY,,,,,,,,,,,,
html-keyboard-response,73,1011347,386.10000002384186,"",32,,word,SCARY,,,,,,,,,,,,
html-keyboard-response,74,1011557,null,"<div style=""font-size:42px;"">PEACEFUL</div><img id = ""stim"" ><div class = red_square id = ""topsquare"" ></div>",null,practice2,word_square,,prac_response,1,Top,32,true,,,,,,,
html-keyboard-response,75,1011868,260.10000002384186,"<div style=""font-size:42px;"">PEACEFUL</div>",32,,word,PEACEFUL,,,,,,,,,,,,
html-keyboard-response,76,1013377,null,"",null,,word,PEACEFUL,,,,,,,,,,,,
html-keyboard-response,77,1013591,null,"<div style=""font-size:42px;"">LITTLE</div><img id = ""stim"" ><div class = green_square id = ""bottomsquare"" ></div>",null,practice2,word_square,LITTLE,prac_response,0,Bottom,none,false,,,,,,,
html-keyboard-response,78,1013907,null,"<div style=""font-size:42px;"">LITTLE</div>",null,,word,LITTLE,,,,,,,,,,,,
html-keyboard-response,79,1015418,199,"",32,,word,LITTLE,,,,,,,,,,,,
html-keyboard-response,80,1015621,null,"<div style=""font-size:42px;"">TIRED</div><img id = ""stim"" ><div class = green_square id = ""topsquare"" ></div>",null,practice2,word_square,,prac_response,0,Top,none,true,,,,,,,
html-keyboard-response,81,1015923,null,"<div style=""font-size:42px;"">TIRED</div>",null,,word,TIRED,,,,,,,,,,,,
html-keyboard-response,82,1017425,null,"",null,,word,TIRED,,,,,,,,,,,,
html-keyboard-response,83,1017635,null,"<div style=""font-size:42px;"">ENTERTAINING</div><img id = ""stim"" ><div class = green_square id = ""bottomsquare"" ></div>",null,practice2,word_square,ENTERTAINING,prac_response,0,Bottom,none,true,,,,,,,
html-keyboard-response,84,1017937,null,"<div style=""font-size:42px;"">ENTERTAINING</div>",null,,word,ENTERTAINING,,,,,,,,,,,,
html-keyboard-response,85,1019454,null,"",null,,word,ENTERTAINING,,,,,,,,,,,,
html-keyboard-response,86,1019658,null,"<div style=""font-size:42px;"">GRATEFUL</div><img id = ""stim"" ><div class = red_square id = ""bottomsquare"" ></div>",null,practice2,word_square,,prac_response,1,Bottom,32,true,,,,,,,
html-keyboard-response,87,1019971,null,"<div style=""font-size:42px;"">GRATEFUL</div>",null,,word,GRATEFUL,,,,,,,,,,,,
html-keyboard-response,88,1021473,139.10000002384186,"",32,,word,GRATEFUL,,,,,,,,,,,,
html-keyboard-response,89,1021684,null,"<div style=""font-size:42px;"">LOUD</div><img id = ""stim"" ><div class = green_square id = ""topsquare"" ></div>",null,practice2,word_square,,prac_response,0,Top,none,true,,,,,,,
html-keyboard-response,90,1021991,null,"<div style=""font-size:42px;"">LOUD</div>",null,,word,LOUD,,,,,,,,,,,,
html-keyboard-response,91,1023506,null,"",null,,word,LOUD,,,,,,,,,,,,
html-keyboard-response,92,1023712,null,"<div style=""font-size:42px;"">SMART</div><img id = ""stim"" ><div class = red_square id = ""topsquare"" ></div>",null,practice2,word_square,,prac_response,1,Top,32,true,,,,,,,
html-keyboard-response,93,1024017,277.0999999642372,"<div style=""font-size:42px;"">SMART</div>",32,,word,SMART,,,,,,,,,,,,
html-keyboard-response,94,1025522,null,"",null,,word,SMART,,,,,,,,,,,,
html-keyboard-response,95,1025730,null,"<div style=""font-size:42px;"">SMOOTH</div><img id = ""stim"" ><div class = red_square id = ""bottomsquare"" ></div>",null,practice2,word_square,,prac_response,1,Bottom,32,true,,,,,,,
html-keyboard-response,96,1026035,null,"<div style=""font-size:42px;"">SMOOTH</div>",null,,word,SMOOTH,,,,,,,,,,,,
html-keyboard-response,97,1027543,132,"",32,,word,SMOOTH,,,,,,,,,,,,
html-keyboard-response,98,1027754,null,"<div style=""font-size:42px;"">DISHONEST</div><img id = ""stim"" ><div class = green_square id = ""bottomsquare"" ></div>",null,practice2,word_square,DISHONEST,prac_response,0,Bottom,none,true,,,,,,,
html-keyboard-response,99,1028056,null,"<div style=""font-size:42px;"">DISHONEST</div>",null,,word,DISHONEST,,,,,,,,,,,,
html-keyboard-response,100,1029568,null,"",null,,word,DISHONEST,,,,,,,,,,,,
html-keyboard-response,101,1029774,null,"<div style=""font-size:42px;"">WEALTHY</div><img id = ""stim"" ><div class = red_square id = ""topsquare"" ></div>",null,practice2,word_square,,prac_response,1,Top,32,true,,,,,,,
html-keyboard-response,102,1030088,null,"<div style=""font-size:42px;"">WEALTHY</div>",null,,word,WEALTHY,,,,,,,,,,,,
html-keyboard-response,103,1031604,392.19999998807907,"",32,,word,WEALTHY,,,,,,,,,,,,
html-keyboard-response,104,1031811,null,"<div style=""font-size:42px;"">BEAUTIFUL</div><img id = ""stim"" ><div class = green_square id = ""topsquare"" ></div>",null,practice2,word_square,,prac_response,0,Top,none,true,,,,,,,
html-keyboard-response,105,1032126,null,"<div style=""font-size:42px;"">BEAUTIFUL</div>",null,,word,BEAUTIFUL,,,,,,,,,,,,
html-keyboard-response,106,1033636,null,"",null,,word,BEAUTIFUL,,,,,,,,,,,,
html-keyboard-response,107,1047246,13608.599999964237,"<p> Good job! You responded correctly to 88% of the trials. </p>
                    <p>Be sure to only press the spacebar if you see a red square, and please keep your accuracy above 80%.</p>
                    <p>Press any key to begin the math and recall sections. Thank you! </p>",32,,,,,,,,,,,,,,,
call-function,108,1047246,,"",,,,,,,,,,,,,,,,
html-keyboard-response,109,1047349,null,"",null,,,,,,,,,,,,,,,
math-period,110,1051106,6766.500000059605,"",,,,,,,,,,,3,,,,,
html-keyboard-response,111,1051207,null,"",null,,,,,,,,,,,,,,,
math-period,112,1055161,7200.399999976158,"",,,,,,,,,,,2,,,,,
html-keyboard-response,113,1055262,null,"",null,,,,,,,,,,,,,,,
math-period,114,1057620,3831.5,"",,,,,,,,,,,2,,,,,
html-keyboard-response,115,1057726,null,"",null,,,,,,,,,,,,,,,
math-period,116,1059236,2598.6000000834465,"",,,,,,,,,,,2,,,,,
html-keyboard-response,117,1059352,null,"",null,,,,,,,,,,,,,,,
math-period,118,1061420,3532.699999988079,"",,,,,,,,,,,4,,,,,
html-keyboard-response,119,1061524,null,"",null,,,,,,,,,,,,,,,
math-period,120,1065244,6797.299999952316,"",,,,,,,,,,,2,,,,,
html-keyboard-response,121,1065347,null,"",null,,,,,,,,,,,,,,,
math-period,122,1067883,4530.699999988079,"",,,,,,,,,,,0,,,,,
html-keyboard-response,123,1067994,null,"",null,,,,,,,,,,,,,,,
math-period,124,1069335,2311.400000035763,"",,,,,,,,,,,3,,,,,
html-keyboard-response,125,1069440,null,"",null,,,,,,,,,,,,,,,
math-period,126,1071251,null,"",,,,,,,,,,,,,,,,
html-keyboard-response,127,1072256,null,"Recall Period!",null,,,,,,,,,,,,,,,
call-function,128,1072256,,"",,,,,,,,,,,,,,,,
html-keyboard-response,129,1072359,null,"",null,,,,,,,,,,,,,,,
recall-period,130,1074674,2313.5,"",,,,,,,,,,,,,,,,
html-keyboard-response,131,1074778,null,"",null,,,,,,,,,,,,,,,
recall-period,132,1079526,21386.800000071526,"",,,,,,,,,,,cold,,,,,
html-keyboard-response,133,1079629,null,"",null,,,,,,,,,,,,,,,
recall-period,134,1083345,18835.100000083447,"",,,,,,,,,,,happy,,,,,
html-keyboard-response,135,1083462,null,"",null,,,,,,,,,,,,,,,
recall-period,136,1088450,30004.899999976158,"",,,,,,,,,,,smooth,,,,,
html-keyboard-response,137,1088551,null,"",null,,,,,,,,,,,,,,,
recall-period,138,1098267,164092.79999947548,"",,,,,,,,,,,heavy,,,,,
html-keyboard-response,139,1098378,null,"",null,,,,,,,,,,,,,,,
recall-period,140,1099812,5440.199999988079,"",,,,,,,,,,,scary,,,,,
html-keyboard-response,141,1099917,null,"",null,,,,,,,,,,,,,,,
recall-period,142,1101882,9911.500000059605,"",,,,,,,,,,,little,,,,,
html-keyboard-response,143,1101991,null,"",null,,,,,,,,,,,,,,,
recall-period,144,1105477,18815.199999928474,"",,,,,,,,,,,smart,,,,,
html-keyboard-response,145,1105579,null,"",null,,,,,,,,,,,,,,,
recall-period,146,1108361,10051.700000047684,"",,,,,,,,,,,smooth,,,,,
html-keyboard-response,147,1108475,null,"",null,,,,,,,,,,,,,,,
recall-period,148,1112774,43084.40000021458,"",,,,,,,,,,,beautiful,,,,,
html-keyboard-response,149,1112889,null,"",null,,,,,,,,,,,,,,,
recall-period,150,1147263,null,"",,,,,,,,,,,,,,,,
html-keyboard-response,151,1147766,null,"Time's Up!",null,,,,,,,,,,,,,,,
html-keyboard-response,152,1157879,10111.799999952316,"<p>We will now begin the experiment!<p><p>Please try to remember all words from each list.<p><p>Press the spacebar whenever you see a red square.<p><p><p><p>Press the spacebar to begin.</p>",32,,,,,,,,,,,,,,,
html-keyboard-response,153,1160762,2381,"<div style=""font-size:48px;"">Press any key to begin list 1 of 16 </div>",32,,,,,,,,,,,,,,,
html-keyboard-response,154,1163282,null,"<div style=""font-size:60px;"">+</div>",null,,,,,,,,,,,,,,,
html-keyboard-response,155,1163487,null,"<div style=""font-size:42px;"">ATOM</div><img id = ""stim"" ><div class = red_square id = topsquare></div>",null,encoding,word_square,,,1,topsquare,32,true,,,ATOM,0,,,
html-keyboard-response,156,1163793,null,"<div style=""font-size:42px;"">ATOM</div>",null,,word,ATOM,,,,,,,,,,,,
html-keyboard-response,157,1165298,112.79999995231628,"",32,,word,ATOM,,,,,,,,,,,,
html-keyboard-response,158,1165516,null,"<div style=""font-size:42px;"">TROUT</div><img id = ""stim"" ><div class = green_square id = bottomsquare></div>",null,encoding,word_square,,,0,bottomsquare,none,true,,,TROUT,0,,,
html-keyboard-response,159,1165830,null,"<div style=""font-size:42px;"">TROUT</div>",null,,word,TROUT,,,,,,,,,,,,
html-keyboard-response,160,1167331,null,"",null,,word,TROUT,,,,,,,,,,,,
html-keyboard-response,161,1167542,null,"<div style=""font-size:42px;"">MAMMAL</div><img id = ""stim"" ><div class = green_square id = topsquare></div>",null,encoding,word_square,,,0,topsquare,none,true,,,MAMMAL,0,,,
html-keyboard-response,162,1167856,null,"<div style=""font-size:42px;"">MAMMAL</div>",null,,word,MAMMAL,,,,,,,,,,,,
html-keyboard-response,163,1169357,null,"",null,,word,MAMMAL,,,,,,,,,,,,
html-keyboard-response,164,1169560,null,"<div style=""font-size:42px;"">EARRING</div><img id = ""stim"" ><div class = red_square id = bottomsquare></div>",null,encoding,word_square,,,1,bottomsquare,32,true,,,EARRING,0,,,
html-keyboard-response,165,1169862,228.19999998807907,"<div style=""font-size:42px;"">EARRING</div>",32,,word,EARRING,,,,,,,,,,,,
html-keyboard-response,166,1171368,null,"",null,,word,EARRING,,,,,,,,,,,,
html-keyboard-response,167,1171572,null,"<div style=""font-size:42px;"">AUTHOR</div><img id = ""stim"" ><div class = red_square id = topsquare></div>",null,encoding,word_square,,,1,topsquare,32,true,,,AUTHOR,0,,,
html-keyboard-response,168,1171876,null,"<div style=""font-size:42px;"">AUTHOR</div>",null,,word,AUTHOR,,,,,,,,,,,,
html-keyboard-response,169,1173387,37,"",32,,word,AUTHOR,,,,,,,,,,,,
html-keyboard-response,170,1173591,null,"<div style=""font-size:42px;"">PEANUT</div><img id = ""stim"" ><div class = red_square id = bottomsquare></div>",null,encoding,word_square,,,1,bottomsquare,32,true,,,PEANUT,0,,,
html-keyboard-response,171,1173903,null,"<div style=""font-size:42px;"">PEANUT</div>",null,,word,PEANUT,,,,,,,,,,,,
html-keyboard-response,172,1175407,82.19999998807907,"",32,,word,PEANUT,,,,,,,,,,,,
html-keyboard-response,173,1175615,null,"<div style=""font-size:42px;"">IDOL</div><img id = ""stim"" ><div class = green_square id = bottomsquare></div>",null,encoding,word_square,,,0,bottomsquare,none,true,,,IDOL,0,,,
html-keyboard-response,174,1175919,null,"<div style=""font-size:42px;"">IDOL</div>",null,,word,IDOL,,,,,,,,,,,,
html-keyboard-response,175,1177421,null,"",null,,word,IDOL,,,,,,,,,,,,
html-keyboard-response,176,1177631,null,"<div style=""font-size:42px;"">WOLF</div><img id = ""stim"" ><div class = green_square id = topsquare></div>",null,encoding,word_square,,,0,topsquare,none,true,,,WOLF,0,,,
html-keyboard-response,177,1177940,null,"<div style=""font-size:42px;"">WOLF</div>",null,,word,WOLF,,,,,,,,,,,,
html-keyboard-response,178,1179447,null,"",null,,word,WOLF,,,,,,,,,,,,
html-keyboard-response,179,1179650,null,"<div style=""font-size:42px;"">ARTIST</div><img id = ""stim"" ><div class = red_square id = topsquare></div>",null,encoding,word_square,,,1,topsquare,32,true,,,ARTIST,0,,,
html-keyboard-response,180,1179952,null,"<div style=""font-size:42px;"">ARTIST</div>",null,,word,ARTIST,,,,,,,,,,,,
html-keyboard-response,181,1181459,13.099999964237213,"",32,,word,ARTIST,,,,,,,,,,,,
html-keyboard-response,182,1181664,null,"<div style=""font-size:42px;"">ANKLE</div><img id = ""stim"" ><div class = green_square id = bottomsquare></div>",null,encoding,word_square,,,0,bottomsquare,none,true,,,ANKLE,0,,,
html-keyboard-response,183,1181968,null,"<div style=""font-size:42px;"">ANKLE</div>",null,,word,ANKLE,,,,,,,,,,,,
html-keyboard-response,184,1183471,null,"",null,,word,ANKLE,,,,,,,,,,,,
html-keyboard-response,185,1183678,null,"<div style=""font-size:42px;"">SEAGULL</div><img id = ""stim"" ><div class = red_square id = bottomsquare></div>",null,encoding,word_square,,,1,bottomsquare,32,true,,,SEAGULL,0,,,
html-keyboard-response,186,1183980,null,"<div style=""font-size:42px;"">SEAGULL</div>",null,,word,SEAGULL,,,,,,,,,,,,
html-keyboard-response,187,1185494,54.39999997615814,"",32,,word,SEAGULL,,,,,,,,,,,,
html-keyboard-response,188,1185701,null,"<div style=""font-size:42px;"">OX</div><img id = ""stim"" ><div class = green_square id = topsquare></div>",null,encoding,word_square,,,0,topsquare,none,true,,,OX,0,,,
html-keyboard-response,189,1186004,null,"<div style=""font-size:42px;"">OX</div>",null,,word,OX,,,,,,,,,,,,
html-keyboard-response,190,1187513,null,"",null,,word,OX,,,,,,,,,,,,
html-keyboard-response,191,1187728,null,"<div style=""font-size:42px;"">CATTLE</div><img id = ""stim"" ><div class = green_square id = bottomsquare></div>",null,encoding,word_square,,,0,bottomsquare,none,true,,,CATTLE,0,,,
html-keyboard-response,192,1188030,null,"<div style=""font-size:42px;"">CATTLE</div>",null,,word,CATTLE,,,,,,,,,,,,
html-keyboard-response,193,1189541,null,"",null,,word,CATTLE,,,,,,,,,,,,
html-keyboard-response,194,1189743,null,"<div style=""font-size:42px;"">CREVICE</div><img id = ""stim"" ><div class = red_square id = topsquare></div>",null,encoding,word_square,,,1,topsquare,32,true,,,CREVICE,0,,,
html-keyboard-response,195,1190045,null,"<div style=""font-size:42px;"">CREVICE</div>",null,,word,CREVICE,,,,,,,,,,,,
html-keyboard-response,196,1191551,80.5,"",32,,word,CREVICE,,,,,,,,,,,,
html-keyboard-response,197,1191752,null,"<div style=""font-size:42px;"">SHERIFF</div><img id = ""stim"" ><div class = green_square id = topsquare></div>",null,encoding,word_square,,,0,topsquare,none,true,,,SHERIFF,0,,,
html-keyboard-response,198,1192060,null,"<div style=""font-size:42px;"">SHERIFF</div>",null,,word,SHERIFF,,,,,,,,,,,,
html-keyboard-response,199,1193561,null,"",null,,word,SHERIFF,,,,,,,,,,,,
html-keyboard-response,200,1193773,null,"<div style=""font-size:42px;"">AGENT</div><img id = ""stim"" ><div class = red_square id = bottomsquare></div>",null,encoding,word_square,,,1,bottomsquare,32,true,,,AGENT,0,,,
html-keyboard-response,201,1194074,198.79999995231628,"<div style=""font-size:42px;"">AGENT</div>",32,,word,AGENT,,,,,,,,,,,,
html-keyboard-response,202,1195586,null,"",null,,word,AGENT,,,,,,,,,,,,
call-function,203,1195586,,"",,,,,,,,,,,,,,,,
html-keyboard-response,204,1195688,null,"",null,,,,,,,,,,,,,,,
math-period,205,1198330,4982.699999988079,"",,,,,,,,,,,2,,,,,
html-keyboard-response,206,1198432,null,"",null,,,,,,,,,,,,,,,
math-period,207,1199783,2583.400000035763,"",,,,,,,,,,,4,,,,,
html-keyboard-response,208,1199888,null,"",null,,,,,,,,,,,,,,,
math-period,209,1200978,1981.5,"",,,,,,,,,,,3,,,,,
html-keyboard-response,210,1201080,null,"",null,,,,,,,,,,,,,,,
math-period,211,1202390,2491.100000023842,"",,,,,,,,,,,4,,,,,
html-keyboard-response,212,1202496,null,"",null,,,,,,,,,,,,,,,
math-period,213,1203994,2850.100000023842,"",,,,,,,,,,,1,,,,,
html-keyboard-response,214,1204097,null,"",null,,,,,,,,,,,,,,,
math-period,215,1205325,2366.399999976158,"",,,,,,,,,,,3,,,,,
html-keyboard-response,216,1205427,null,"",null,,,,,,,,,,,,,,,
math-period,217,1207058,3121.2999999523163,"",,,,,,,,,,,5,,,,,
html-keyboard-response,218,1207163,null,"",null,,,,,,,,,,,,,,,
math-period,219,1208326,2216.900000035763,"",,,,,,,,,,,4,,,,,
html-keyboard-response,220,1208432,null,"",null,,,,,,,,,,,,,,,
math-period,221,1210215,3425.0999999046326,"",,,,,,,,,,,1,,,,,
html-keyboard-response,222,1210327,null,"",null,,,,,,,,,,,,,,,
math-period,223,1211531,2296.5,"",,,,,,,,,,,1,,,,,
html-keyboard-response,224,1211632,null,"",null,,,,,,,,,,,,,,,
math-period,225,1212846,2341.300000011921,"",,,,,,,,,,,4,,,,,
html-keyboard-response,226,1212952,null,"",null,,,,,,,,,,,,,,,
math-period,227,1214286,2544.3000000715256,"",,,,,,,,,,,2,,,,,
html-keyboard-response,228,1214397,null,"",null,,,,,,,,,,,,,,,
math-period,229,1216379,3862.9999999403954,"",,,,,,,,,,,0,,,,,
html-keyboard-response,230,1216480,null,"",null,,,,,,,,,,,,,,,
math-period,231,1217658,2246.699999988079,"",,,,,,,,,,,1,,,,,
html-keyboard-response,232,1217759,null,"",null,,,,,,,,,,,,,,,
math-period,233,1219093,2584.199999988079,"",,,,,,,,,,,1,,,,,
html-keyboard-response,234,1219204,null,"",null,,,,,,,,,,,,,,,
math-period,235,1219595,null,"",,,,,,,,,,,,,,,,
html-keyboard-response,236,1220598,null,"Recall Period!",null,,,,,,,,,,,,,,,
call-function,237,1220598,,"",,,,,,,,,,,,,,,,
html-keyboard-response,238,1220703,null,"",null,,,,,,,,,,,,,,,
recall-period,239,1229811,43887.7999997735,"",,,,,,,,,,,atom,,,,,
html-keyboard-response,240,1229924,null,"",null,,,,,,,,,,,,,,,
recall-period,241,1233175,16254.199999988079,"",,,,,,,,,,,trout,,,,,
html-keyboard-response,242,1233278,null,"",null,,,,,,,,,,,,,,,
recall-period,243,1242212,60153.09999990463,"",,,,,,,,,,,author,,,,,
html-keyboard-response,244,1242321,null,"",null,,,,,,,,,,,,,,,
recall-period,245,1244089,10127.100000143051,"",,,,,,,,,,,peanut,,,,,
html-keyboard-response,246,1244195,null,"",null,,,,,,,,,,,,,,,
recall-period,247,1247679,14831.800000011921,"",,,,,,,,,,,wolf,,,,,
html-keyboard-response,248,1247789,null,"",null,,,,,,,,,,,,,,,
recall-period,249,1249191,3939.4999998807907,"",,,,,,,,,,,cold,,,,,
html-keyboard-response,250,1249303,null,"",null,,,,,,,,,,,,,,,
recall-period,251,1251522,11596.699999988079,"",,,,,,,,,,,agent,,,,,
html-keyboard-response,252,1251625,null,"",null,,,,,,,,,,,,,,,
recall-period,253,1257419,42607.199999928474,"",,,,,,,,,,,seagull,,,,,
html-keyboard-response,254,1257521,null,"",null,,,,,,,,,,,,,,,
recall-period,255,1259115,8190.499999880791,"",,,,,,,,,,,artist,,,,,
html-keyboard-response,256,1259228,null,"",null,,,,,,,,,,,,,,,
recall-period,257,1264329,22951.700000166893,"",,,,,,,,,,,mamml,,,,,
html-keyboard-response,258,1264445,null,"",null,,,,,,,,,,,,,,,
recall-period,259,1266979,20978.100000202656,"",,,,,,,,,,,mammal,,,,,
html-keyboard-response,260,1267081,null,"",null,,,,,,,,,,,,,,,
recall-period,261,1281698,71373.90000003576,"",,,,,,,,,,,idol,,,,,
html-keyboard-response,262,1281811,null,"",null,,,,,,,,,,,,,,,
recall-period,263,1295599,null,"",,,,,,,,,,,,,,,,
html-keyboard-response,264,1296101,null,"Time's Up!",null,,,,,,,,,,,,,,,
html-keyboard-response,265,1309354,13251.599999964237,"<p> Good job! You have responded correctly to 100% of the trials. </p>
                      <p>Be sure to only press the spacebar if you see a red square, and please keep your accuracy above 80%.</p>
                      <p> Press any key to continue the experiment. </p>",32,,,,,,,,,,,,,,,
html-keyboard-response,266,1310302,947.3999999761581,"<div style=""font-size:48px;"">Press any key to begin list 2 of 16 </div>",32,,,,,,,,,,,,,,,
html-keyboard-response,267,1312807,null,"<div style=""font-size:60px;"">+</div>",null,,,,,,,,,,,,,,,
html-keyboard-response,268,1313015,null,"<div style=""font-size:42px;"">COURSE</div><img id = ""stim"" ><div class = red_square id = bottomsquare></div>",null,encoding,word_square,,,1,bottomsquare,32,true,,,COURSE,1,,,
html-keyboard-response,269,1313317,237.30000001192093,"<div style=""font-size:42px;"">COURSE</div>",32,,word,COURSE,,,,,,,,,,,,
html-keyboard-response,270,1314820,null,"",null,,word,COURSE,,,,,,,,,,,,
html-keyboard-response,271,1315029,null,"<div style=""font-size:42px;"">SAUSAGE</div><img id = ""stim"" ><div class = green_square id = topsquare></div>",null,encoding,word_square,,,0,topsquare,none,true,,,SAUSAGE,1,,,
html-keyboard-response,272,1315341,null,"<div style=""font-size:42px;"">SAUSAGE</div>",null,,word,SAUSAGE,,,,,,,,,,,,
html-keyboard-response,273,1316844,null,"",null,,word,SAUSAGE,,,,,,,,,,,,
html-keyboard-response,274,1317060,null,"<div style=""font-size:42px;"">PARTNER</div><img id = ""stim"" ><div class = red_square id = topsquare></div>",null,encoding,word_square,,,1,topsquare,32,true,,,PARTNER,1,,,
html-keyboard-response,275,1317362,201,"<div style=""font-size:42px;"">PARTNER</div>",32,,word,PARTNER,,,,,,,,,,,,
html-keyboard-response,276,1318871,null,"",null,,word,PARTNER,,,,,,,,,,,,
html-keyboard-response,277,1319081,null,"<div style=""font-size:42px;"">BOYFRIEND</div><img id = ""stim"" ><div class = green_square id = bottomsquare></div>",null,encoding,word_square,,,0,bottomsquare,none,true,,,BOYFRIEND,1,,,
html-keyboard-response,278,1319395,null,"<div style=""font-size:42px;"">BOYFRIEND</div>",null,,word,BOYFRIEND,,,,,,,,,,,,
html-keyboard-response,279,1320899,null,"",null,,word,BOYFRIEND,,,,,,,,,,,,
html-keyboard-response,280,1321102,null,"<div style=""font-size:42px;"">CREATURE</div><img id = ""stim"" ><div class = green_square id = topsquare></div>",null,encoding,word_square,,,0,topsquare,none,false,,,CREATURE,1,,,
html-keyboard-response,281,1321407,null,"<div style=""font-size:42px;"">CREATURE</div>",null,,word,CREATURE,,,,,,,,,,,,
html-keyboard-response,282,1322923,286.80000001192093,"",32,,word,CREATURE,,,,,,,,,,,,
html-keyboard-response,283,1323138,null,"<div style=""font-size:42px;"">COLUMN</div><img id = ""stim"" ><div class = red_square id = bottomsquare></div>",null,encoding,word_square,,,1,bottomsquare,32,true,,,COLUMN,1,,,
html-keyboard-response,284,1323442,null,"<div style=""font-size:42px;"">COLUMN</div>",null,,word,COLUMN,,,,,,,,,,,,
html-keyboard-response,285,1324950,27.19999998807907,"",32,,word,COLUMN,,,,,,,,,,,,
html-keyboard-response,286,1325161,null,"<div style=""font-size:42px;"">DRIVER</div><img id = ""stim"" ><div class = green_square id = bottomsquare></div>",null,encoding,word_square,,,0,bottomsquare,none,true,,,DRIVER,1,,,
html-keyboard-response,287,1325475,null,"<div style=""font-size:42px;"">DRIVER</div>",null,,word,DRIVER,,,,,,,,,,,,
html-keyboard-response,288,1326984,null,"",null,,word,DRIVER,,,,,,,,,,,,
html-keyboard-response,289,1327192,null,"<div style=""font-size:42px;"">TRUCK</div><img id = ""stim"" ><div class = red_square id = topsquare></div>",null,encoding,word_square,,,1,topsquare,32,true,,,TRUCK,1,,,
html-keyboard-response,290,1327504,null,"<div style=""font-size:42px;"">TRUCK</div>",null,,word,TRUCK,,,,,,,,,,,,
html-keyboard-response,291,1329009,82.30000001192093,"",32,,word,TRUCK,,,,,,,,,,,,
html-keyboard-response,292,1329213,null,"<div style=""font-size:42px;"">RUBY</div><img id = ""stim"" ><div class = green_square id = topsquare></div>",null,encoding,word_square,,,0,topsquare,none,true,,,RUBY,1,,,
html-keyboard-response,293,1329516,null,"<div style=""font-size:42px;"">RUBY</div>",null,,word,RUBY,,,,,,,,,,,,
html-keyboard-response,294,1331018,null,"",null,,word,RUBY,,,,,,,,,,,,
html-keyboard-response,295,1331233,null,"<div style=""font-size:42px;"">WASP</div><img id = ""stim"" ><div class = green_square id = bottomsquare></div>",null,encoding,word_square,,,0,bottomsquare,none,true,,,WASP,1,,,
html-keyboard-response,296,1331539,null,"<div style=""font-size:42px;"">WASP</div>",null,,word,WASP,,,,,,,,,,,,
html-keyboard-response,297,1333041,null,"",null,,word,WASP,,,,,,,,,,,,
html-keyboard-response,298,1333243,null,"<div style=""font-size:42px;"">WHISKERS</div><img id = ""stim"" ><div class = red_square id = bottomsquare></div>",null,encoding,word_square,,,1,bottomsquare,32,true,,,WHISKERS,1,,,
html-keyboard-response,299,1333545,null,"<div style=""font-size:42px;"">WHISKERS</div>",null,,word,WHISKERS,,,,,,,,,,,,
html-keyboard-response,300,1335047,230,"",32,,word,WHISKERS,,,,,,,,,,,,
html-keyboard-response,301,1335258,null,"<div style=""font-size:42px;"">RAZOR</div><img id = ""stim"" ><div class = red_square id = topsquare></div>",null,encoding,word_square,,,1,topsquare,32,true,,,RAZOR,1,,,
html-keyboard-response,302,1335563,null,"<div style=""font-size:42px;"">RAZOR</div>",null,,word,RAZOR,,,,,,,,,,,,
html-keyboard-response,303,1337077,123.30000001192093,"",32,,word,RAZOR,,,,,,,,,,,,
html-keyboard-response,304,1337288,null,"<div style=""font-size:42px;"">CARPET</div><img id = ""stim"" ><div class = red_square id = bottomsquare></div>",null,encoding,word_square,,,1,bottomsquare,32,true,,,CARPET,1,,,
html-keyboard-response,305,1337590,236.29999995231628,"<div style=""font-size:42px;"">CARPET</div>",32,,word,CARPET,,,,,,,,,,,,
html-keyboard-response,306,1339100,null,"",null,,word,CARPET,,,,,,,,,,,,
html-keyboard-response,307,1339302,null,"<div style=""font-size:42px;"">TOOTHPASTE</div><img id = ""stim"" ><div class = green_square id = topsquare></div>",null,encoding,word_square,,,0,topsquare,none,true,,,TOOTHPASTE,1,,,
html-keyboard-response,308,1339607,null,"<div style=""font-size:42px;"">TOOTHPASTE</div>",null,,word,TOOTHPASTE,,,,,,,,,,,,
html-keyboard-response,309,1341116,null,"",null,,word,TOOTHPASTE,,,,,,,,,,,,
html-keyboard-response,310,1341320,null,"<div style=""font-size:42px;"">PAVEMENT</div><img id = ""stim"" ><div class = green_square id = bottomsquare></div>",null,encoding,word_square,,,0,bottomsquare,none,true,,,PAVEMENT,1,,,
html-keyboard-response,311,1341623,null,"<div style=""font-size:42px;"">PAVEMENT</div>",null,,word,PAVEMENT,,,,,,,,,,,,
html-keyboard-response,312,1343135,null,"",null,,word,PAVEMENT,,,,,,,,,,,,
html-keyboard-response,313,1343339,null,"<div style=""font-size:42px;"">RUG</div><img id = ""stim"" ><div class = red_square id = topsquare></div>",null,encoding,word_square,,,1,topsquare,32,true,,,RUG,1,,,
html-keyboard-response,314,1343648,null,"<div style=""font-size:42px;"">RUG</div>",null,,word,RUG,,,,,,,,,,,,
html-keyboard-response,315,1345152,144.80000001192093,"",32,,word,RUG,,,,,,,,,,,,
call-function,316,1345153,,"",,,,,,,,,,,,,,,,
html-keyboard-response,317,1345255,null,"",null,,,,,,,,,,,,,,,
math-period,318,1347333,3937.900000035763,"",,,,,,,,,,,1,,,,,
html-keyboard-response,319,1347451,null,"",null,,,,,,,,,,,,,,,
math-period,320,1348286,1557.7999999523163,"",,,,,,,,,,,2,,,,,
html-keyboard-response,321,1348389,null,"",null,,,,,,,,,,,,,,,
math-period,322,1349663,2114.4999999403954,"",,,,,,,,,,,3,,,,,
html-keyboard-response,323,1349779,null,"",null,,,,,,,,,,,,,,,
math-period,324,1350643,1526.0999999642372,"",,,,,,,,,,,3,,,,,
html-keyboard-response,325,1350749,null,"",null,,,,,,,,,,,,,,,
math-period,326,1351520,1433.6999999284744,"",,,,,,,,,,,3,,,,,
html-keyboard-response,327,1351625,null,"",null,,,,,,,,,,,,,,,
math-period,328,1352774,2206.600000023842,"",,,,,,,,,,,2,,,,,
html-keyboard-response,329,1352878,null,"",null,,,,,,,,,,,,,,,
math-period,330,1353686,1509.0000000596046,"",,,,,,,,,,,3,,,,,
html-keyboard-response,331,1353789,null,"",null,,,,,,,,,,,,,,,
math-period,332,1355698,3721.5,"",,,,,,,,,,,3,,,,,
html-keyboard-response,333,1355799,null,"",null,,,,,,,,,,,,,,,
math-period,334,1357680,3318.600000023842,"",,,,,,,,,,,5,,,,,
html-keyboard-response,335,1357791,null,"",null,,,,,,,,,,,,,,,
math-period,336,1359920,4178.700000047684,"",,,,,,,,,,,3,,,,,
html-keyboard-response,337,1360023,null,"",null,,,,,,,,,,,,,,,
math-period,338,1361373,2611.100000023842,"",,,,,,,,,,,5,,,,,
html-keyboard-response,339,1361475,null,"",null,,,,,,,,,,,,,,,
math-period,340,1362536,2033.4000000953674,"",,,,,,,,,,,3,,,,,
html-keyboard-response,341,1362639,null,"",null,,,,,,,,,,,,,,,
math-period,342,1364574,3793.900000035763,"",,,,,,,,,,,0,,,,,
html-keyboard-response,343,1364679,null,"",null,,,,,,,,,,,,,,,
math-period,344,1365804,2166.300000011921,"",,,,,,,,,,,5,,,,,
html-keyboard-response,345,1365910,null,"",null,,,,,,,,,,,,,,,
math-period,346,1367095,2310.0000000596046,"",,,,,,,,,,,5,,,,,
html-keyboard-response,347,1367198,null,"",null,,,,,,,,,,,,,,,
math-period,348,1368186,1852.5,"",,,,,,,,,,,5,,,,,
html-keyboard-response,349,1368288,null,"",null,,,,,,,,,,,,,,,
math-period,350,1369155,801.8000000119209,"",,,,,,,,,,,4,,,,,
html-keyboard-response,351,1370158,null,"Recall Period!",null,,,,,,,,,,,,,,,
call-function,352,1370159,,"",,,,,,,,,,,,,,,,
html-keyboard-response,353,1370262,null,"",null,,,,,,,,,,,,,,,
recall-period,354,1377393,46965.200000047684,"",,,,,,,,,,,carpet,,,,,
html-keyboard-response,355,1377503,null,"",null,,,,,,,,,,,,,,,
recall-period,356,1382133,16488.000000059605,"",,,,,,,,,,,rug,,,,,
html-keyboard-response,357,1382242,null,"",null,,,,,,,,,,,,,,,
recall-period,358,1392506,59419.60000008345,"",,,,,,,,,,,truck,,,,,
html-keyboard-response,359,1392621,null,"",null,,,,,,,,,,,,,,,
recall-period,360,1393921,5959.3999999165535,"",,,,,,,,,,,driver,,,,,
html-keyboard-response,361,1394026,null,"",null,,,,,,,,,,,,,,,
recall-period,362,1396815,18586.400000214577,"",,,,,,,,,,,partner,,,,,
html-keyboard-response,363,1396917,null,"",null,,,,,,,,,,,,,,,
recall-period,364,1398341,8774.900000095367,"",,,,,,,,,,,boyfriend,,,,,
html-keyboard-response,365,1398449,null,"",null,,,,,,,,,,,,,,,
recall-period,366,1400779,9941.699999988079,"",,,,,,,,,,,wasp,,,,,
html-keyboard-response,367,1400883,null,"",null,,,,,,,,,,,,,,,
recall-period,368,1401690,2547.3000000715256,"",,,,,,,,,,,ruby,,,,,
html-keyboard-response,369,1401792,null,"",null,,,,,,,,,,,,,,,
recall-period,370,1406570,20229.300000071526,"",,,,,,,,,,,sausage,,,,,
html-keyboard-response,371,1406677,null,"",null,,,,,,,,,,,,,,,
recall-period,372,1417409,62428.20000010729,"",,,,,,,,,,,razor,,,,,
html-keyboard-response,373,1417517,null,"",null,,,,,,,,,,,,,,,
recall-period,374,1445165,null,"",,,,,,,,,,,,,,,,
html-keyboard-response,375,1445670,null,"Time's Up!",null,,,,,,,,,,,,,,,
html-keyboard-response,376,1452790,7118.699999988079,"<p> Good job! You have responded correctly to 97% of the trials. </p>
                      <p>Be sure to only press the spacebar if you see a red square, and please keep your accuracy above 80%.</p>
                      <p> Press any key to continue the experiment. </p>",32,,,,,,,,,,,,,,,
html-keyboard-response,377,1483743,30952.19999998808,"<div style=""font-size:48px;"">Press any key to begin list 3 of 16 </div>",32,,,,,,,,,,,,,,,
html-keyboard-response,378,1486246,null,"<div style=""font-size:60px;"">+</div>",null,,,,,,,,,,,,,,,
html-keyboard-response,379,1486457,null,"<div style=""font-size:42px;"">VILLAGE</div><img id = ""stim"" ><div class = green_square id = bottomsquare></div>",null,encoding,word_square,,,0,bottomsquare,none,true,,,VILLAGE,2,,,
html-keyboard-response,380,1486767,null,"<div style=""font-size:42px;"">VILLAGE</div>",null,,word,VILLAGE,,,,,,,,,,,,
html-keyboard-response,381,1488279,null,"",null,,word,VILLAGE,,,,,,,,,,,,
html-keyboard-response,382,1488484,null,"<div style=""font-size:42px;"">LIGHTNING</div><img id = ""stim"" ><div class = red_square id = topsquare></div>",null,encoding,word_square,,,1,topsquare,32,true,,,LIGHTNING,2,,,
html-keyboard-response,383,1488800,null,"<div style=""font-size:42px;"">LIGHTNING</div>",null,,word,LIGHTNING,,,,,,,,,,,,
html-keyboard-response,384,1490311,44.80000001192093,"",32,,word,LIGHTNING,,,,,,,,,,,,
html-keyboard-response,385,1490515,null,"<div style=""font-size:42px;"">NECKLACE</div><img id = ""stim"" ><div class = red_square id = bottomsquare></div>",null,encoding,word_square,,,1,bottomsquare,32,true,,,NECKLACE,2,,,
html-keyboard-response,386,1490817,null,"<div style=""font-size:42px;"">NECKLACE</div>",null,,word,NECKLACE,,,,,,,,,,,,
html-keyboard-response,387,1492332,0.2999999523162842,"",32,,word,NECKLACE,,,,,,,,,,,,
html-keyboard-response,388,1492540,null,"<div style=""font-size:42px;"">MISTER</div><img id = ""stim"" ><div class = green_square id = topsquare></div>",null,encoding,word_square,,,0,topsquare,none,true,,,MISTER,2,,,
html-keyboard-response,389,1492845,null,"<div style=""font-size:42px;"">MISTER</div>",null,,word,MISTER,,,,,,,,,,,,
html-keyboard-response,390,1494362,null,"",null,,word,MISTER,,,,,,,,,,,,
html-keyboard-response,391,1494566,null,"<div style=""font-size:42px;"">NOMAD</div><img id = ""stim"" ><div class = green_square id = bottomsquare></div>",null,encoding,word_square,,,0,bottomsquare,none,true,,,NOMAD,2,,,
html-keyboard-response,392,1494872,null,"<div style=""font-size:42px;"">NOMAD</div>",null,,word,NOMAD,,,,,,,,,,,,
html-keyboard-response,393,1496386,null,"",null,,word,NOMAD,,,,,,,,,,,,
html-keyboard-response,394,1496602,null,"<div style=""font-size:42px;"">PERSON</div><img id = ""stim"" ><div class = green_square id = topsquare></div>",null,encoding,word_square,,,0,topsquare,none,true,,,PERSON,2,,,
html-keyboard-response,395,1496908,null,"<div style=""font-size:42px;"">PERSON</div>",null,,word,PERSON,,,,,,,,,,,,
html-keyboard-response,396,1498421,null,"",null,,word,PERSON,,,,,,,,,,,,
html-keyboard-response,397,1498628,null,"<div style=""font-size:42px;"">FLUTE</div><img id = ""stim"" ><div class = red_square id = topsquare></div>",null,encoding,word_square,,,1,topsquare,32,true,,,FLUTE,2,,,
html-keyboard-response,398,1498932,null,"<div style=""font-size:42px;"">FLUTE</div>",null,,word,FLUTE,,,,,,,,,,,,
html-keyboard-response,399,1500445,156.60000002384186,"",32,,word,FLUTE,,,,,,,,,,,,
html-keyboard-response,400,1500647,null,"<div style=""font-size:42px;"">ICING</div><img id = ""stim"" ><div class = red_square id = bottomsquare></div>",null,encoding,word_square,,,1,bottomsquare,32,true,,,ICING,2,,,
html-keyboard-response,401,1500950,null,"<div style=""font-size:42px;"">ICING</div>",null,,word,ICING,,,,,,,,,,,,
html-keyboard-response,402,1502463,66.40000003576279,"",32,,word,ICING,,,,,,,,,,,,
html-keyboard-response,403,1502666,null,"<div style=""font-size:42px;"">SLACKS</div><img id = ""stim"" ><div class = green_square id = bottomsquare></div>",null,encoding,word_square,,,0,bottomsquare,none,true,,,SLACKS,2,,,
html-keyboard-response,404,1502969,null,"<div style=""font-size:42px;"">SLACKS</div>",null,,word,SLACKS,,,,,,,,,,,,
html-keyboard-response,405,1504471,null,"",null,,word,SLACKS,,,,,,,,,,,,
html-keyboard-response,406,1504680,null,"<div style=""font-size:42px;"">TABLE</div><img id = ""stim"" ><div class = red_square id = topsquare></div>",null,encoding,word_square,,,1,topsquare,32,true,,,TABLE,2,,,
html-keyboard-response,407,1504982,284.69999998807907,"<div style=""font-size:42px;"">TABLE</div>",32,,word,TABLE,,,,,,,,,,,,
html-keyboard-response,408,1506487,null,"",null,,word,TABLE,,,,,,,,,,,,
html-keyboard-response,409,1506698,null,"<div style=""font-size:42px;"">COUCH</div><img id = ""stim"" ><div class = green_square id = topsquare></div>",null,encoding,word_square,,,0,topsquare,none,true,,,COUCH,2,,,
html-keyboard-response,410,1507001,null,"<div style=""font-size:42px;"">COUCH</div>",null,,word,COUCH,,,,,,,,,,,,
html-keyboard-response,411,1508506,null,"",null,,word,COUCH,,,,,,,,,,,,
html-keyboard-response,412,1508722,null,"<div style=""font-size:42px;"">BULLET</div><img id = ""stim"" ><div class = red_square id = bottomsquare></div>",null,encoding,word_square,,,1,bottomsquare,32,true,,,BULLET,2,,,
html-keyboard-response,413,1509024,297.19999998807907,"<div style=""font-size:42px;"">BULLET</div>",32,,word,BULLET,,,,,,,,,,,,
html-keyboard-response,414,1510533,null,"",null,,word,BULLET,,,,,,,,,,,,
html-keyboard-response,415,1510738,null,"<div style=""font-size:42px;"">FIDDLE</div><img id = ""stim"" ><div class = red_square id = topsquare></div>",null,encoding,word_square,,,1,topsquare,32,true,,,FIDDLE,2,,,
html-keyboard-response,416,1511043,null,"<div style=""font-size:42px;"">FIDDLE</div>",null,,word,FIDDLE,,,,,,,,,,,,
html-keyboard-response,417,1512548,500.89999997615814,"",32,,word,FIDDLE,,,,,,,,,,,,
html-keyboard-response,418,1512756,null,"<div style=""font-size:42px;"">THIEF</div><img id = ""stim"" ><div class = green_square id = bottomsquare></div>",null,encoding,word_square,,,0,bottomsquare,none,true,,,THIEF,2,,,
html-keyboard-response,419,1513068,null,"<div style=""font-size:42px;"">THIEF</div>",null,,word,THIEF,,,,,,,,,,,,
html-keyboard-response,420,1514583,null,"",null,,word,THIEF,,,,,,,,,,,,
html-keyboard-response,421,1514790,null,"<div style=""font-size:42px;"">VICTIM</div><img id = ""stim"" ><div class = red_square id = bottomsquare></div>",null,encoding,word_square,,,1,bottomsquare,32,true,,,VICTIM,2,,,
html-keyboard-response,422,1515093,196.5,"<div style=""font-size:42px;"">VICTIM</div>",32,,word,VICTIM,,,,,,,,,,,,
html-keyboard-response,423,1516597,null,"",null,,word,VICTIM,,,,,,,,,,,,
html-keyboard-response,424,1516807,null,"<div style=""font-size:42px;"">BARLEY</div><img id = ""stim"" ><div class = green_square id = topsquare></div>",null,encoding,word_square,,,0,topsquare,none,true,,,BARLEY,2,,,
html-keyboard-response,425,1517111,null,"<div style=""font-size:42px;"">BARLEY</div>",null,,word,BARLEY,,,,,,,,,,,,
html-keyboard-response,426,1518614,null,"",null,,word,BARLEY,,,,,,,,,,,,
call-function,427,1518615,,"",,,,,,,,,,,,,,,,
html-keyboard-response,428,1518718,null,"",null,,,,,,,,,,,,,,,
math-period,429,1520456,3345.6000000834465,"",,,,,,,,,,,2,,,,,
html-keyboard-response,430,1520569,null,"",null,,,,,,,,,,,,,,,
math-period,431,1521613,2018.300000011921,"",,,,,,,,,,,5,,,,,
html-keyboard-response,432,1521726,null,"",null,,,,,,,,,,,,,,,
math-period,433,1522720,1940.5,"",,,,,,,,,,,5,,,,,
html-keyboard-response,434,1522828,null,"",null,,,,,,,,,,,,,,,
math-period,435,1523914,2134.2000000476837,"",,,,,,,,,,,6,,,,,
html-keyboard-response,436,1524021,null,"",null,,,,,,,,,,,,,,,
math-period,437,1525202,2312.0999999046326,"",,,,,,,,,,,1,,,,,
html-keyboard-response,438,1525308,null,"",null,,,,,,,,,,,,,,,
math-period,439,1526277,1889,"",,,,,,,,,,,5,,,,,
html-keyboard-response,440,1526379,null,"",null,,,,,,,,,,,,,,,
math-period,441,1527451,2083.5,"",,,,,,,,,,,1,,,,,
html-keyboard-response,442,1527554,null,"",null,,,,,,,,,,,,,,,
math-period,443,1528632,2103.2000000476837,"",,,,,,,,,,,4,,,,,
html-keyboard-response,444,1528748,null,"",null,,,,,,,,,,,,,,,
math-period,445,1529943,2351.699999988079,"",,,,,,,,,,,1,,,,,
html-keyboard-response,446,1530056,null,"",null,,,,,,,,,,,,,,,
math-period,447,1531350,2530.300000011921,"",,,,,,,,,,,2,,,,,
html-keyboard-response,448,1531467,null,"",null,,,,,,,,,,,,,,,
math-period,449,1532631,2274.899999976158,"",,,,,,,,,,,2,,,,,
html-keyboard-response,450,1532732,null,"",null,,,,,,,,,,,,,,,
math-period,451,1534828,6700.799999952316,"",,,,,,,,,,,4,,,,,
html-keyboard-response,452,1534939,null,"",null,,,,,,,,,,,,,,,
math-period,453,1541294,69950.40000003576,"",,,,,,,,,,,1,,,,,
html-keyboard-response,454,1541401,null,"",null,,,,,,,,,,,,,,,
math-period,455,1542616,null,"",,,,,,,,,,,,,,,,
html-keyboard-response,456,1543619,null,"Recall Period!",null,,,,,,,,,,,,,,,
call-function,457,1543619,,"",,,,,,,,,,,,,,,,
html-keyboard-response,458,1543725,null,"",null,,,,,,,,,,,,,,,
recall-period,459,1560960,134932.79999995232,"",,,,,,,,,,,village,,,,,
html-keyboard-response,460,1561066,null,"",null,,,,,,,,,,,,,,,
recall-period,461,1564019,12215.399999916553,"",,,,,,,,,,,nomad,,,,,
html-keyboard-response,462,1564124,null,"",null,,,,,,,,,,,,,,,
recall-period,463,1568095,16360.300000011921,"",,,,,,,,,,,icing,,,,,
html-keyboard-response,464,1568210,null,"",null,,,,,,,,,,,,,,,
recall-period,465,1570688,13010.599999785423,"",,,,,,,,,,,couch,,,,,
html-keyboard-response,466,1570792,null,"",null,,,,,,,,,,,,,,,
recall-period,467,1571633,3472.6999999284744,"",,,,,,,,,,,table,,,,,
html-keyboard-response,468,1571744,null,"",null,,,,,,,,,,,,,,,
recall-period,469,1574923,18849.80000001192,"",,,,,,,,,,,victim,,,,,
html-keyboard-response,470,1575025,null,"",null,,,,,,,,,,,,,,,
recall-period,471,1577355,6303.19999986887,"",,,,,,,,,,,fiddle,,,,,
html-keyboard-response,472,1577462,null,"",null,,,,,,,,,,,,,,,
recall-period,473,1579345,7666.799999833107,"",,,,,,,,,,,bullet,,,,,
html-keyboard-response,474,1579461,null,"",null,,,,,,,,,,,,,,,
recall-period,475,1581513,5189.900000214577,"",,,,,,,,,,,flute,,,,,
html-keyboard-response,476,1581628,null,"",null,,,,,,,,,,,,,,,
recall-period,477,1618623,null,"",,,,,,,,,,,,,,,,
html-keyboard-response,478,1619140,null,"Time's Up!",null,,,,,,,,,,,,,,,
html-keyboard-response,479,1644946,25804.600000023842,"<p> Good job! You have responded correctly to 98% of the trials. </p>
                      <p>Be sure to only press the spacebar if you see a red square, and please keep your accuracy above 80%.</p>
                      <p> Press any key to continue the experiment. </p>",32,,,,,,,,,,,,,,,
html-keyboard-response,480,1669249,24302.5,"<div style=""font-size:48px;"">Press any key to begin list 4 of 16 </div>",32,,,,,,,,,,,,,,,
html-keyboard-response,481,1671756,null,"<div style=""font-size:60px;"">+</div>",null,,,,,,,,,,,,,,,
html-keyboard-response,482,1671959,null,"<div style=""font-size:42px;"">HAMMER</div><img id = ""stim"" ><div class = green_square id = topsquare></div>",null,encoding,word_square,,,0,topsquare,none,true,,,HAMMER,3,,,
html-keyboard-response,483,1672261,null,"<div style=""font-size:42px;"">HAMMER</div>",null,,word,HAMMER,,,,,,,,,,,,
html-keyboard-response,484,1673765,null,"",null,,word,HAMMER,,,,,,,,,,,,
html-keyboard-response,485,1673980,null,"<div style=""font-size:42px;"">TURTLE</div><img id = ""stim"" ><div class = red_square id = bottomsquare></div>",null,encoding,word_square,,,1,bottomsquare,32,true,,,TURTLE,3,,,
html-keyboard-response,486,1674289,196.39999997615814,"<div style=""font-size:42px;"">TURTLE</div>",32,,word,TURTLE,,,,,,,,,,,,
html-keyboard-response,487,1675802,113.60000002384186,"",32,,word,TURTLE,,,,,,,,,,,,
html-keyboard-response,488,1676006,null,"<div style=""font-size:42px;"">MAILMAN</div><img id = ""stim"" ><div class = green_square id = bottomsquare></div>",null,encoding,word_square,,,0,bottomsquare,none,true,,,MAILMAN,3,,,
html-keyboard-response,489,1676312,null,"<div style=""font-size:42px;"">MAILMAN</div>",null,,word,MAILMAN,,,,,,,,,,,,
html-keyboard-response,490,1677830,null,"",null,,word,MAILMAN,,,,,,,,,,,,
html-keyboard-response,491,1678032,null,"<div style=""font-size:42px;"">NICKEL</div><img id = ""stim"" ><div class = red_square id = topsquare></div>",null,encoding,word_square,,,1,topsquare,32,true,,,NICKEL,3,,,
html-keyboard-response,492,1678334,null,"<div style=""font-size:42px;"">NICKEL</div>",null,,word,NICKEL,,,,,,,,,,,,
html-keyboard-response,493,1679836,237.69999998807907,"",32,,word,NICKEL,,,,,,,,,,,,
html-keyboard-response,494,1680038,null,"<div style=""font-size:42px;"">MAILBOX</div><img id = ""stim"" ><div class = red_square id = bottomsquare></div>",null,encoding,word_square,,,1,bottomsquare,32,true,,,MAILBOX,3,,,
html-keyboard-response,495,1680340,null,"<div style=""font-size:42px;"">MAILBOX</div>",null,,word,MAILBOX,,,,,,,,,,,,
html-keyboard-response,496,1681857,331.5,"",32,,word,MAILBOX,,,,,,,,,,,,
html-keyboard-response,497,1682061,null,"<div style=""font-size:42px;"">STICKER</div><img id = ""stim"" ><div class = green_square id = topsquare></div>",null,encoding,word_square,,,0,topsquare,none,true,,,STICKER,3,,,
html-keyboard-response,498,1682363,null,"<div style=""font-size:42px;"">STICKER</div>",null,,word,STICKER,,,,,,,,,,,,
html-keyboard-response,499,1683878,null,"",null,,word,STICKER,,,,,,,,,,,,
html-keyboard-response,500,1684082,null,"<div style=""font-size:42px;"">SCALLOP</div><img id = ""stim"" ><div class = red_square id = topsquare></div>",null,encoding,word_square,,,1,topsquare,32,true,,,SCALLOP,3,,,
html-keyboard-response,501,1684384,null,"<div style=""font-size:42px;"">SCALLOP</div>",null,,word,SCALLOP,,,,,,,,,,,,
html-keyboard-response,502,1685895,4.900000035762787,"",32,,word,SCALLOP,,,,,,,,,,,,
html-keyboard-response,503,1686106,null,"<div style=""font-size:42px;"">SALT</div><img id = ""stim"" ><div class = green_square id = bottomsquare></div>",null,encoding,word_square,,,0,bottomsquare,none,true,,,SALT,3,,,
html-keyboard-response,504,1686409,null,"<div style=""font-size:42px;"">SALT</div>",null,,word,SALT,,,,,,,,,,,,
html-keyboard-response,505,1687922,null,"",null,,word,SALT,,,,,,,,,,,,
html-keyboard-response,506,1688124,null,"<div style=""font-size:42px;"">SHRUB</div><img id = ""stim"" ><div class = red_square id = bottomsquare></div>",null,encoding,word_square,,,1,bottomsquare,32,true,,,SHRUB,3,,,
html-keyboard-response,507,1688426,275.7000000476837,"<div style=""font-size:42px;"">SHRUB</div>",32,,word,SHRUB,,,,,,,,,,,,
html-keyboard-response,508,1689927,null,"",null,,word,SHRUB,,,,,,,,,,,,
html-keyboard-response,509,1690128,null,"<div style=""font-size:42px;"">CREEK</div><img id = ""stim"" ><div class = red_square id = topsquare></div>",null,encoding,word_square,,,1,topsquare,32,true,,,CREEK,3,,,
html-keyboard-response,510,1690438,null,"<div style=""font-size:42px;"">CREEK</div>",null,,word,CREEK,,,,,,,,,,,,
html-keyboard-response,511,1691941,241.89999997615814,"",32,,word,CREEK,,,,,,,,,,,,
html-keyboard-response,512,1692144,null,"<div style=""font-size:42px;"">MEAT</div><img id = ""stim"" ><div class = green_square id = topsquare></div>",null,encoding,word_square,,,0,topsquare,none,true,,,MEAT,3,,,
html-keyboard-response,513,1692445,null,"<div style=""font-size:42px;"">MEAT</div>",null,,word,MEAT,,,,,,,,,,,,
html-keyboard-response,514,1693949,null,"",null,,word,MEAT,,,,,,,,,,,,
html-keyboard-response,515,1694152,null,"<div style=""font-size:42px;"">BRIDE</div><img id = ""stim"" ><div class = green_square id = bottomsquare></div>",null,encoding,word_square,,,0,bottomsquare,none,true,,,BRIDE,3,,,
html-keyboard-response,516,1694454,null,"<div style=""font-size:42px;"">BRIDE</div>",null,,word,BRIDE,,,,,,,,,,,,
html-keyboard-response,517,1695970,null,"",null,,word,BRIDE,,,,,,,,,,,,
html-keyboard-response,518,1696173,null,"<div style=""font-size:42px;"">MOTOR</div><img id = ""stim"" ><div class = green_square id = topsquare></div>",null,encoding,word_square,,,0,topsquare,none,true,,,MOTOR,3,,,
html-keyboard-response,519,1696487,null,"<div style=""font-size:42px;"">MOTOR</div>",null,,word,MOTOR,,,,,,,,,,,,
html-keyboard-response,520,1697989,null,"",null,,word,MOTOR,,,,,,,,,,,,
html-keyboard-response,521,1698192,null,"<div style=""font-size:42px;"">VALVE</div><img id = ""stim"" ><div class = red_square id = bottomsquare></div>",null,encoding,word_square,,,1,bottomsquare,32,true,,,VALVE,3,,,
html-keyboard-response,522,1698504,null,"<div style=""font-size:42px;"">VALVE</div>",null,,word,VALVE,,,,,,,,,,,,
html-keyboard-response,523,1700021,145.69999998807907,"",32,,word,VALVE,,,,,,,,,,,,
html-keyboard-response,524,1700236,null,"<div style=""font-size:42px;"">BEEF</div><img id = ""stim"" ><div class = red_square id = topsquare></div>",null,encoding,word_square,,,1,topsquare,32,true,,,BEEF,3,,,
html-keyboard-response,525,1700537,null,"<div style=""font-size:42px;"">BEEF</div>",null,,word,BEEF,,,,,,,,,,,,
html-keyboard-response,526,1702052,594.5999999642372,"",32,,word,BEEF,,,,,,,,,,,,
html-keyboard-response,527,1702263,null,"<div style=""font-size:42px;"">HUMAN</div><img id = ""stim"" ><div class = green_square id = bottomsquare></div>",null,encoding,word_square,,,0,bottomsquare,none,true,,,HUMAN,3,,,
html-keyboard-response,528,1702565,null,"<div style=""font-size:42px;"">HUMAN</div>",null,,word,HUMAN,,,,,,,,,,,,
html-keyboard-response,529,1704075,null,"",null,,word,HUMAN,,,,,,,,,,,,
call-function,530,1704076,,"",,,,,,,,,,,,,,,,
html-keyboard-response,531,1704177,null,"",null,,,,,,,,,,,,,,,
math-period,532,1706636,4782.899999976158,"",,,,,,,,,,,4,,,,,
html-keyboard-response,533,1706748,null,"",null,,,,,,,,,,,,,,,
math-period,534,1707684,1729.8000000715256,"",,,,,,,,,,,3,,,,,
html-keyboard-response,535,1707797,null,"",null,,,,,,,,,,,,,,,
math-period,536,1708840,2012.3999999165535,"",,,,,,,,,,,6,,,,,
html-keyboard-response,537,1708945,null,"",null,,,,,,,,,,,,,,,
math-period,538,1709961,1952.8000000715256,"",,,,,,,,,,,4,,,,,
html-keyboard-response,539,1710066,null,"",null,,,,,,,,,,,,,,,
math-period,540,1711059,1911.4000000357628,"",,,,,,,,,,,6,,,,,
html-keyboard-response,541,1711161,null,"",null,,,,,,,,,,,,,,,
math-period,542,1713412,7877.000000059605,"",,,,,,,,,,,3,,,,,
html-keyboard-response,543,1713517,null,"",null,,,,,,,,,,,,,,,
math-period,544,1714705,2308,"",,,,,,,,,,,2,,,,,
html-keyboard-response,545,1714820,null,"",null,,,,,,,,,,,,,,,
math-period,546,1715912,2091.900000035763,"",,,,,,,,,,,1,,,,,
html-keyboard-response,547,1716015,null,"",null,,,,,,,,,,,,,,,
math-period,548,1717218,2336.6000000834465,"",,,,,,,,,,,4,,,,,
html-keyboard-response,549,1717323,null,"",null,,,,,,,,,,,,,,,
math-period,550,1718233,1745.1000000238419,"",,,,,,,,,,,4,,,,,
html-keyboard-response,551,1718344,null,"",null,,,,,,,,,,,,,,,
math-period,552,1719991,3215.699999988079,"",,,,,,,,,,,0,,,,,
html-keyboard-response,553,1720092,null,"",null,,,,,,,,,,,,,,,
math-period,554,1721049,1842.5,"",,,,,,,,,,,6,,,,,
html-keyboard-response,555,1721154,null,"",null,,,,,,,,,,,,,,,
math-period,556,1722279,2182.399999976158,"",,,,,,,,,,,5,,,,,
html-keyboard-response,557,1722392,null,"",null,,,,,,,,,,,,,,,
math-period,558,1723238,1620.8999999761581,"",,,,,,,,,,,2,,,,,
html-keyboard-response,559,1723351,null,"",null,,,,,,,,,,,,,,,
math-period,560,1724474,2182.3000000715256,"",,,,,,,,,,,4,,,,,
html-keyboard-response,561,1724579,null,"",null,,,,,,,,,,,,,,,
math-period,562,1725510,1786.8999999761581,"",,,,,,,,,,,1,,,,,
html-keyboard-response,563,1725612,null,"",null,,,,,,,,,,,,,,,
math-period,564,1726563,1817.699999988079,"",,,,,,,,,,,4,,,,,
html-keyboard-response,565,1726668,null,"",null,,,,,,,,,,,,,,,
math-period,566,1727878,2336.900000035763,"",,,,,,,,,,,5,,,,,
html-keyboard-response,567,1727986,null,"",null,,,,,,,,,,,,,,,
math-period,568,1728082,null,"",,,,,,,,,,,,,,,,
html-keyboard-response,569,1729085,null,"Recall Period!",null,,,,,,,,,,,,,,,
call-function,570,1729086,,"",,,,,,,,,,,,,,,,
html-keyboard-response,571,1729197,null,"",null,,,,,,,,,,,,,,,
recall-period,572,1738231,67560.90000015497,"",,,,,,,,,,,mailman,,,,,
html-keyboard-response,573,1738342,null,"",null,,,,,,,,,,,,,,,
recall-period,574,1740501,10616.499999940395,"",,,,,,,,,,,mailbox,,,,,
html-keyboard-response,575,1740604,null,"",null,,,,,,,,,,,,,,,
recall-period,576,1742305,7008.199999988079,"",,,,,,,,,,,salt,,,,,
html-keyboard-response,577,1742414,null,"",null,,,,,,,,,,,,,,,
recall-period,578,1743774,6575.80000013113,"",,,,,,,,,,,scallop,,,,,
html-keyboard-response,579,1743889,null,"",null,,,,,,,,,,,,,,,
recall-period,580,1744662,2711.4000000953674,"",,,,,,,,,,,meat,,,,,
html-keyboard-response,581,1744772,null,"",null,,,,,,,,,,,,,,,
recall-period,582,1746057,3687.6000000834465,"",,,,,,,,,,,beef,,,,,
html-keyboard-response,583,1746164,null,"",null,,,,,,,,,,,,,,,
recall-period,584,1768649,155638.30000019073,"",,,,,,,,,,,hammer,,,,,
html-keyboard-response,585,1768757,null,"",null,,,,,,,,,,,,,,,
recall-period,586,1769976,6533.30000013113,"",,,,,,,,,,,turtle,,,,,
html-keyboard-response,587,1770088,null,"",null,,,,,,,,,,,,,,,
recall-period,588,1804090,null,"",,,,,,,,,,,,,,,,
html-keyboard-response,589,1804593,null,"Time's Up!",null,,,,,,,,,,,,,,,
html-keyboard-response,590,1846335,41740.60000002384,"<p> Good job! You have responded correctly to 98% of the trials. </p>
                      <p>Be sure to only press the spacebar if you see a red square, and please keep your accuracy above 80%.</p>
                      <p> Press any key to continue the experiment. </p>",32,,,,,,,,,,,,,,,
html-keyboard-response,591,1847657,1321.0999999642372,"<div style=""font-size:48px;"">Press any key to begin list 5 of 16 </div>",32,,,,,,,,,,,,,,,
html-keyboard-response,592,1850163,null,"<div style=""font-size:60px;"">+</div>",null,,,,,,,,,,,,,,,
html-keyboard-response,593,1850367,null,"<div style=""font-size:42px;"">SHARK</div><img id = ""stim"" ><div class = red_square id = topsquare></div>",null,encoding,word_square,,,1,topsquare,32,true,,,SHARK,4,,,
html-keyboard-response,594,1850669,284.5999999642372,"<div style=""font-size:42px;"">SHARK</div>",32,,word,SHARK,,,,,,,,,,,,
html-keyboard-response,595,1852183,null,"",null,,word,SHARK,,,,,,,,,,,,
html-keyboard-response,596,1852394,null,"<div style=""font-size:42px;"">HOOK</div><img id = ""stim"" ><div class = red_square id = bottomsquare></div>",null,encoding,word_square,,,1,bottomsquare,32,true,,,HOOK,4,,,
html-keyboard-response,597,1852695,212.60000002384186,"<div style=""font-size:42px;"">HOOK</div>",32,,word,HOOK,,,,,,,,,,,,
html-keyboard-response,598,1854208,null,"",null,,word,HOOK,,,,,,,,,,,,
html-keyboard-response,599,1854411,null,"<div style=""font-size:42px;"">SPOON</div><img id = ""stim"" ><div class = green_square id = bottomsquare></div>",null,encoding,word_square,,,0,bottomsquare,none,true,,,SPOON,4,,,
html-keyboard-response,600,1854724,null,"<div style=""font-size:42px;"">SPOON</div>",null,,word,SPOON,,,,,,,,,,,,
html-keyboard-response,601,1856227,null,"",null,,word,SPOON,,,,,,,,,,,,
html-keyboard-response,602,1856429,null,"<div style=""font-size:42px;"">SCALPEL</div><img id = ""stim"" ><div class = red_square id = topsquare></div>",null,encoding,word_square,,,1,topsquare,32,true,,,SCALPEL,4,,,
html-keyboard-response,603,1856731,null,"<div style=""font-size:42px;"">SCALPEL</div>",null,,word,SCALPEL,,,,,,,,,,,,
html-keyboard-response,604,1858240,145.69999998807907,"",32,,word,SCALPEL,,,,,,,,,,,,
html-keyboard-response,605,1858456,null,"<div style=""font-size:42px;"">MONGOOSE</div><img id = ""stim"" ><div class = red_square id = bottomsquare></div>",null,encoding,word_square,,,1,bottomsquare,32,true,,,MONGOOSE,4,,,
html-keyboard-response,606,1858758,253.60000002384186,"<div style=""font-size:42px;"">MONGOOSE</div>",32,,word,MONGOOSE,,,,,,,,,,,,
html-keyboard-response,607,1860265,null,"",null,,word,MONGOOSE,,,,,,,,,,,,
html-keyboard-response,608,1860468,null,"<div style=""font-size:42px;"">CAFE</div><img id = ""stim"" ><div class = green_square id = topsquare></div>",null,encoding,word_square,,,0,topsquare,none,true,,,CAFE,4,,,
html-keyboard-response,609,1860770,null,"<div style=""font-size:42px;"">CAFE</div>",null,,word,CAFE,,,,,,,,,,,,
html-keyboard-response,610,1862284,null,"",null,,word,CAFE,,,,,,,,,,,,
html-keyboard-response,611,1862498,null,"<div style=""font-size:42px;"">PERCH</div><img id = ""stim"" ><div class = red_square id = topsquare></div>",null,encoding,word_square,,,1,topsquare,32,true,,,PERCH,4,,,
html-keyboard-response,612,1862811,null,"<div style=""font-size:42px;"">PERCH</div>",null,,word,PERCH,,,,,,,,,,,,
html-keyboard-response,613,1864315,125.09999996423721,"",32,,word,PERCH,,,,,,,,,,,,
html-keyboard-response,614,1864519,null,"<div style=""font-size:42px;"">LIST</div><img id = ""stim"" ><div class = green_square id = bottomsquare></div>",null,encoding,word_square,,,0,bottomsquare,none,true,,,LIST,4,,,
html-keyboard-response,615,1864827,null,"<div style=""font-size:42px;"">LIST</div>",null,,word,LIST,,,,,,,,,,,,
html-keyboard-response,616,1866330,null,"",null,,word,LIST,,,,,,,,,,,,
html-keyboard-response,617,1866531,null,"<div style=""font-size:42px;"">BLOCKADE</div><img id = ""stim"" ><div class = green_square id = topsquare></div>",null,encoding,word_square,,,0,topsquare,none,true,,,BLOCKADE,4,,,
html-keyboard-response,618,1866837,null,"<div style=""font-size:42px;"">BLOCKADE</div>",null,,word,BLOCKADE,,,,,,,,,,,,
html-keyboard-response,619,1868347,null,"",null,,word,BLOCKADE,,,,,,,,,,,,
html-keyboard-response,620,1868561,null,"<div style=""font-size:42px;"">DESSERT</div><img id = ""stim"" ><div class = red_square id = bottomsquare></div>",null,encoding,word_square,,,1,bottomsquare,32,true,,,DESSERT,4,,,
html-keyboard-response,621,1868863,226,"<div style=""font-size:42px;"">DESSERT</div>",32,,word,DESSERT,,,,,,,,,,,,
html-keyboard-response,622,1870369,null,"",null,,word,DESSERT,,,,,,,,,,,,
html-keyboard-response,623,1870577,null,"<div style=""font-size:42px;"">PIMPLE</div><img id = ""stim"" ><div class = green_square id = bottomsquare></div>",null,encoding,word_square,,,0,bottomsquare,none,true,,,PIMPLE,4,,,
html-keyboard-response,624,1870880,null,"<div style=""font-size:42px;"">PIMPLE</div>",null,,word,PIMPLE,,,,,,,,,,,,
html-keyboard-response,625,1872393,null,"",null,,word,PIMPLE,,,,,,,,,,,,
html-keyboard-response,626,1872596,null,"<div style=""font-size:42px;"">HOSTAGE</div><img id = ""stim"" ><div class = green_square id = topsquare></div>",null,encoding,word_square,,,0,topsquare,none,true,,,HOSTAGE,4,,,
html-keyboard-response,627,1872902,null,"<div style=""font-size:42px;"">HOSTAGE</div>",null,,word,HOSTAGE,,,,,,,,,,,,
html-keyboard-response,628,1874406,null,"",null,,word,HOSTAGE,,,,,,,,,,,,
html-keyboard-response,629,1874617,null,"<div style=""font-size:42px;"">CRITIC</div><img id = ""stim"" ><div class = red_square id = topsquare></div>",null,encoding,word_square,,,1,topsquare,32,true,,,CRITIC,4,,,
html-keyboard-response,630,1874919,208,"<div style=""font-size:42px;"">CRITIC</div>",32,,word,CRITIC,,,,,,,,,,,,
html-keyboard-response,631,1876424,null,"",null,,word,CRITIC,,,,,,,,,,,,
html-keyboard-response,632,1876628,null,"<div style=""font-size:42px;"">BACKBONE</div><img id = ""stim"" ><div class = red_square id = bottomsquare></div>",null,encoding,word_square,,,1,bottomsquare,32,true,,,BACKBONE,4,,,
html-keyboard-response,633,1876931,255.0999999642372,"<div style=""font-size:42px;"">BACKBONE</div>",32,,word,BACKBONE,,,,,,,,,,,,
html-keyboard-response,634,1878442,null,"",null,,word,BACKBONE,,,,,,,,,,,,
html-keyboard-response,635,1878649,null,"<div style=""font-size:42px;"">CHEST</div><img id = ""stim"" ><div class = green_square id = bottomsquare></div>",null,encoding,word_square,,,0,bottomsquare,none,true,,,CHEST,4,,,
html-keyboard-response,636,1878954,null,"<div style=""font-size:42px;"">CHEST</div>",null,,word,CHEST,,,,,,,,,,,,
html-keyboard-response,637,1880461,null,"",null,,word,CHEST,,,,,,,,,,,,
html-keyboard-response,638,1880666,null,"<div style=""font-size:42px;"">CLIFF</div><img id = ""stim"" ><div class = green_square id = topsquare></div>",null,encoding,word_square,,,0,topsquare,none,true,,,CLIFF,4,,,
html-keyboard-response,639,1880976,null,"<div style=""font-size:42px;"">CLIFF</div>",null,,word,CLIFF,,,,,,,,,,,,
html-keyboard-response,640,1882479,null,"",null,,word,CLIFF,,,,,,,,,,,,
call-function,641,1882480,,"",,,,,,,,,,,,,,,,
html-keyboard-response,642,1882581,null,"",null,,,,,,,,,,,,,,,
math-period,643,1884221,2933,"",,,,,,,,,,,4,,,,,
html-keyboard-response,644,1884322,null,"",null,,,,,,,,,,,,,,,
math-period,645,1885332,1911.6000000238419,"",,,,,,,,,,,5,,,,,
html-keyboard-response,646,1885438,null,"",null,,,,,,,,,,,,,,,
math-period,647,1886423,1894.8999999165535,"",,,,,,,,,,,6,,,,,
html-keyboard-response,648,1886524,null,"",null,,,,,,,,,,,,,,,
math-period,649,1887567,2021.699999988079,"",,,,,,,,,,,1,,,,,
html-keyboard-response,650,1887681,null,"",null,,,,,,,,,,,,,,,
math-period,651,1889024,2611.099999964237,"",,,,,,,,,,,3,,,,,
html-keyboard-response,652,1889138,null,"",null,,,,,,,,,,,,,,,
math-period,653,1890874,4141.800000011921,"",,,,,,,,,,,5,,,,,
html-keyboard-response,654,1890982,null,"",null,,,,,,,,,,,,,,,
math-period,655,1892465,2841.399999976158,"",,,,,,,,,,,3,,,,,
html-keyboard-response,656,1892567,null,"",null,,,,,,,,,,,,,,,
math-period,657,1893622,2045.0000000596046,"",,,,,,,,,,,6,,,,,
html-keyboard-response,658,1893735,null,"",null,,,,,,,,,,,,,,,
math-period,659,1894873,2207.5,"",,,,,,,,,,,4,,,,,
html-keyboard-response,660,1894978,null,"",null,,,,,,,,,,,,,,,
math-period,661,1895931,1831.4999999403954,"",,,,,,,,,,,3,,,,,
html-keyboard-response,662,1896041,null,"",null,,,,,,,,,,,,,,,
math-period,663,1897647,3136.9999999403954,"",,,,,,,,,,,0,,,,,
html-keyboard-response,664,1897753,null,"",null,,,,,,,,,,,,,,,
math-period,665,1898680,1764,"",,,,,,,,,,,2,,,,,
html-keyboard-response,666,1898791,null,"",null,,,,,,,,,,,,,,,
math-period,667,1900089,2254.5000000596046,"",,,,,,,,,,,4,,,,,
html-keyboard-response,668,1900190,null,"",null,,,,,,,,,,,,,,,
math-period,669,1901172,1889.5,"",,,,,,,,,,,1,,,,,
html-keyboard-response,670,1901284,null,"",null,,,,,,,,,,,,,,,
math-period,671,1902110,1565.9000000357628,"",,,,,,,,,,,3,,,,,
html-keyboard-response,672,1902220,null,"",null,,,,,,,,,,,,,,,
math-period,673,1903342,2146,"",,,,,,,,,,,2,,,,,
html-keyboard-response,674,1903443,null,"",null,,,,,,,,,,,,,,,
math-period,675,1904453,1939.4000000357628,"",,,,,,,,,,,1,,,,,
html-keyboard-response,676,1904558,null,"",null,,,,,,,,,,,,,,,
math-period,677,1905409,1555.199999988079,"",,,,,,,,,,,4,,,,,
html-keyboard-response,678,1905511,null,"",null,,,,,,,,,,,,,,,
math-period,679,1906405,1679.9999999403954,"",,,,,,,,,,,3,,,,,
html-keyboard-response,680,1906508,null,"",null,,,,,,,,,,,,,,,
math-period,681,1906511,null,"",,,,,,,,,,,,,,,,
html-keyboard-response,682,1907524,null,"Recall Period!",null,,,,,,,,,,,,,,,
call-function,683,1907525,,"",,,,,,,,,,,,,,,,
html-keyboard-response,684,1907626,null,"",null,,,,,,,,,,,,,,,
recall-period,685,1914398,38636.39999985695,"",,,,,,,,,,,shark,,,,,
html-keyboard-response,686,1914506,null,"",null,,,,,,,,,,,,,,,
recall-period,687,1916151,4468.599999964237,"",,,,,,,,,,,hook,,,,,
html-keyboard-response,688,1916256,null,"",null,,,,,,,,,,,,,,,
recall-period,689,1919237,25669.40000027418,"",,,,,,,,,,,spoon,,,,,
html-keyboard-response,690,1919346,null,"",null,,,,,,,,,,,,,,,
recall-period,691,1921127,9829.600000202656,"",,,,,,,,,,,scalpel,,,,,
html-keyboard-response,692,1921230,null,"",null,,,,,,,,,,,,,,,
recall-period,693,1922225,5540.39999973774,"",,,,,,,,,,,mongoose,,,,,
html-keyboard-response,694,1922338,null,"",null,,,,,,,,,,,,,,,
recall-period,695,1943385,164982.19999974966,"",,,,,,,,,,,dessert,,,,,
html-keyboard-response,696,1943495,null,"",null,,,,,,,,,,,,,,,
recall-period,697,1946644,17468.60000014305,"",,,,,,,,,,,chest,,,,,
html-keyboard-response,698,1946752,null,"",null,,,,,,,,,,,,,,,
recall-period,699,1947942,6927.899999856949,"",,,,,,,,,,,backbone,,,,,
html-keyboard-response,700,1948056,null,"",null,,,,,,,,,,,,,,,
recall-period,701,1953328,56268.10000002384,"",,,,,,,,,,,perch,,,,,
html-keyboard-response,702,1953429,null,"",null,,,,,,,,,,,,,,,
recall-period,703,1982532,null,"",,,,,,,,,,,,,,,,
html-keyboard-response,704,1983034,null,"Time's Up!",null,,,,,,,,,,,,,,,
html-keyboard-response,705,1987857,4821,"<p> Good job! You have responded correctly to 99% of the trials. </p>
                      <p>Be sure to only press the spacebar if you see a red square, and please keep your accuracy above 80%.</p>
                      <p> Press any key to continue the experiment. </p>",32,,,,,,,,,,,,,,,
html-keyboard-response,706,1991023,3165.199999988079,"<div style=""font-size:48px;"">Press any key to begin list 6 of 16 </div>",32,,,,,,,,,,,,,,,
html-keyboard-response,707,1993530,null,"<div style=""font-size:60px;"">+</div>",null,,,,,,,,,,,,,,,
html-keyboard-response,708,1993743,null,"<div style=""font-size:42px;"">DOUGHNUT</div><img id = ""stim"" ><div class = green_square id = topsquare></div>",null,encoding,word_square,,,0,topsquare,none,false,,,DOUGHNUT,5,,,
html-keyboard-response,709,1994046,null,"<div style=""font-size:42px;"">DOUGHNUT</div>",null,,word,DOUGHNUT,,,,,,,,,,,,
html-keyboard-response,710,1995560,116.30000001192093,"",32,,word,DOUGHNUT,,,,,,,,,,,,
html-keyboard-response,711,1995764,null,"<div style=""font-size:42px;"">SCULPTURE</div><img id = ""stim"" ><div class = green_square id = bottomsquare></div>",null,encoding,word_square,,,0,bottomsquare,none,true,,,SCULPTURE,5,,,
html-keyboard-response,712,1996073,null,"<div style=""font-size:42px;"">SCULPTURE</div>",null,,word,SCULPTURE,,,,,,,,,,,,
html-keyboard-response,713,1997579,null,"",null,,word,SCULPTURE,,,,,,,,,,,,
html-keyboard-response,714,1997784,null,"<div style=""font-size:42px;"">PLASTER</div><img id = ""stim"" ><div class = red_square id = bottomsquare></div>",null,encoding,word_square,,,1,bottomsquare,32,true,,,PLASTER,5,,,
html-keyboard-response,715,1998085,282,"<div style=""font-size:42px;"">PLASTER</div>",32,,word,PLASTER,,,,,,,,,,,,
html-keyboard-response,716,1999596,null,"",null,,word,PLASTER,,,,,,,,,,,,
html-keyboard-response,717,1999809,null,"<div style=""font-size:42px;"">LETTUCE</div><img id = ""stim"" ><div class = red_square id = topsquare></div>",null,encoding,word_square,,,1,topsquare,32,true,,,LETTUCE,5,,,
html-keyboard-response,718,2000110,285.7000000476837,"<div style=""font-size:42px;"">LETTUCE</div>",32,,word,LETTUCE,,,,,,,,,,,,
html-keyboard-response,719,2001626,null,"",null,,word,LETTUCE,,,,,,,,,,,,
html-keyboard-response,720,2001836,null,"<div style=""font-size:42px;"">BUTLER</div><img id = ""stim"" ><div class = green_square id = topsquare></div>",null,encoding,word_square,,,0,topsquare,none,true,,,BUTLER,5,,,
html-keyboard-response,721,2002137,null,"<div style=""font-size:42px;"">BUTLER</div>",null,,word,BUTLER,,,,,,,,,,,,
html-keyboard-response,722,2003651,null,"",null,,word,BUTLER,,,,,,,,,,,,
html-keyboard-response,723,2003863,null,"<div style=""font-size:42px;"">BANKER</div><img id = ""stim"" ><div class = green_square id = bottomsquare></div>",null,encoding,word_square,,,0,bottomsquare,none,true,,,BANKER,5,,,
html-keyboard-response,724,2004174,null,"<div style=""font-size:42px;"">BANKER</div>",null,,word,BANKER,,,,,,,,,,,,
html-keyboard-response,725,2005676,null,"",null,,word,BANKER,,,,,,,,,,,,
html-keyboard-response,726,2005880,null,"<div style=""font-size:42px;"">WALNUT</div><img id = ""stim"" ><div class = red_square id = bottomsquare></div>",null,encoding,word_square,,,1,bottomsquare,32,true,,,WALNUT,5,,,
html-keyboard-response,727,2006182,259.89999997615814,"<div style=""font-size:42px;"">WALNUT</div>",32,,word,WALNUT,,,,,,,,,,,,
html-keyboard-response,728,2007684,null,"",null,,word,WALNUT,,,,,,,,,,,,
html-keyboard-response,729,2007899,null,"<div style=""font-size:42px;"">POND</div><img id = ""stim"" ><div class = green_square id = topsquare></div>",null,encoding,word_square,,,0,topsquare,none,true,,,POND,5,,,
html-keyboard-response,730,2008207,null,"<div style=""font-size:42px;"">POND</div>",null,,word,POND,,,,,,,,,,,,
html-keyboard-response,731,2009712,null,"",null,,word,POND,,,,,,,,,,,,
html-keyboard-response,732,2009915,null,"<div style=""font-size:42px;"">DANDRUFF</div><img id = ""stim"" ><div class = green_square id = bottomsquare></div>",null,encoding,word_square,,,0,bottomsquare,none,true,,,DANDRUFF,5,,,
html-keyboard-response,733,2010216,null,"<div style=""font-size:42px;"">DANDRUFF</div>",null,,word,DANDRUFF,,,,,,,,,,,,
html-keyboard-response,734,2011718,null,"",null,,word,DANDRUFF,,,,,,,,,,,,
html-keyboard-response,735,2011933,null,"<div style=""font-size:42px;"">ZIPPER</div><img id = ""stim"" ><div class = red_square id = topsquare></div>",null,encoding,word_square,,,1,topsquare,32,true,,,ZIPPER,5,,,
html-keyboard-response,736,2012235,null,"<div style=""font-size:42px;"">ZIPPER</div>",null,,word,ZIPPER,,,,,,,,,,,,
html-keyboard-response,737,2013744,219.4000000357628,"",32,,word,ZIPPER,,,,,,,,,,,,
html-keyboard-response,738,2013947,null,"<div style=""font-size:42px;"">SHORTS</div><img id = ""stim"" ><div class = green_square id = topsquare></div>",null,encoding,word_square,,,0,topsquare,none,true,,,SHORTS,5,,,
html-keyboard-response,739,2014260,null,"<div style=""font-size:42px;"">SHORTS</div>",null,,word,SHORTS,,,,,,,,,,,,
html-keyboard-response,740,2015763,null,"",null,,word,SHORTS,,,,,,,,,,,,
html-keyboard-response,741,2015976,null,"<div style=""font-size:42px;"">YOLK</div><img id = ""stim"" ><div class = red_square id = bottomsquare></div>",null,encoding,word_square,,,1,bottomsquare,32,true,,,YOLK,5,,,
html-keyboard-response,742,2016281,null,"<div style=""font-size:42px;"">YOLK</div>",null,,word,YOLK,,,,,,,,,,,,
html-keyboard-response,743,2017784,395.19999998807907,"",32,,word,YOLK,,,,,,,,,,,,
html-keyboard-response,744,2017997,null,"<div style=""font-size:42px;"">ROOSTER</div><img id = ""stim"" ><div class = red_square id = topsquare></div>",null,encoding,word_square,,,1,topsquare,32,true,,,ROOSTER,5,,,
html-keyboard-response,745,2018298,null,"<div style=""font-size:42px;"">ROOSTER</div>",null,,word,ROOSTER,,,,,,,,,,,,
html-keyboard-response,746,2019812,141.89999997615814,"",32,,word,ROOSTER,,,,,,,,,,,,
html-keyboard-response,747,2020029,null,"<div style=""font-size:42px;"">TRENCH</div><img id = ""stim"" ><div class = green_square id = bottomsquare></div>",null,encoding,word_square,,,0,bottomsquare,none,true,,,TRENCH,5,,,
html-keyboard-response,748,2020330,null,"<div style=""font-size:42px;"">TRENCH</div>",null,,word,TRENCH,,,,,,,,,,,,
html-keyboard-response,749,2021841,null,"",null,,word,TRENCH,,,,,,,,,,,,
html-keyboard-response,750,2022044,null,"<div style=""font-size:42px;"">CANDY</div><img id = ""stim"" ><div class = red_square id = bottomsquare></div>",null,encoding,word_square,,,1,bottomsquare,32,true,,,CANDY,5,,,
html-keyboard-response,751,2022346,260.0999999642372,"<div style=""font-size:42px;"">CANDY</div>",32,,word,CANDY,,,,,,,,,,,,
html-keyboard-response,752,2023847,null,"",null,,word,CANDY,,,,,,,,,,,,
html-keyboard-response,753,2024051,null,"<div style=""font-size:42px;"">TROUSERS</div><img id = ""stim"" ><div class = red_square id = topsquare></div>",null,encoding,word_square,,,1,topsquare,32,true,,,TROUSERS,5,,,
html-keyboard-response,754,2024365,null,"<div style=""font-size:42px;"">TROUSERS</div>",null,,word,TROUSERS,,,,,,,,,,,,
html-keyboard-response,755,2025866,125.30000001192093,"",32,,word,TROUSERS,,,,,,,,,,,,
call-function,756,2025867,,"",,,,,,,,,,,,,,,,
html-keyboard-response,757,2025968,null,"",null,,,,,,,,,,,,,,,
math-period,758,2027697,3259.3000000715256,"",,,,,,,,,,,1,,,,,
html-keyboard-response,759,2027811,null,"",null,,,,,,,,,,,,,,,
math-period,760,2028867,2045.4000000357628,"",,,,,,,,,,,4,,,,,
html-keyboard-response,761,2028983,null,"",null,,,,,,,,,,,,,,,
math-period,762,2029818,1599.800000011921,"",,,,,,,,,,,5,,,,,
html-keyboard-response,763,2029920,null,"",null,,,,,,,,,,,,,,,
math-period,764,2030644,1363.9000000357628,"",,,,,,,,,,,2,,,,,
html-keyboard-response,765,2030755,null,"",null,,,,,,,,,,,,,,,
math-period,766,2031629,1694.9000000357628,"",,,,,,,,,,,1,,,,,
html-keyboard-response,767,2031730,null,"",null,,,,,,,,,,,,,,,
math-period,768,2033121,2719.2999999523163,"",,,,,,,,,,,2,,,,,
html-keyboard-response,769,2033224,null,"",null,,,,,,,,,,,,,,,
math-period,770,2034170,1818.300000011921,"",,,,,,,,,,,4,,,,,
html-keyboard-response,771,2034278,null,"",null,,,,,,,,,,,,,,,
math-period,772,2035084,1530.5,"",,,,,,,,,,,4,,,,,
html-keyboard-response,773,2035190,null,"",null,,,,,,,,,,,,,,,
math-period,774,2036059,1669.800000011921,"",,,,,,,,,,,1,,,,,
html-keyboard-response,775,2036175,null,"",null,,,,,,,,,,,,,,,
math-period,776,2036998,1532.6000000238419,"",,,,,,,,,,,5,,,,,
html-keyboard-response,777,2037113,null,"",null,,,,,,,,,,,,,,,
math-period,778,2038019,1715.4000000357628,"",,,,,,,,,,,3,,,,,
html-keyboard-response,779,2038126,null,"",null,,,,,,,,,,,,,,,
math-period,780,2039742,3156.0999999046326,"",,,,,,,,,,,0,,,,,
html-keyboard-response,781,2039844,null,"",null,,,,,,,,,,,,,,,
math-period,782,2040988,2203.0000000596046,"",,,,,,,,,,,2,,,,,
html-keyboard-response,783,2041095,null,"",null,,,,,,,,,,,,,,,
math-period,784,2042384,2507.900000035763,"",,,,,,,,,,,5,,,,,
html-keyboard-response,785,2042486,null,"",null,,,,,,,,,,,,,,,
math-period,786,2043500,1976.5,"",,,,,,,,,,,1,,,,,
html-keyboard-response,787,2043611,null,"",null,,,,,,,,,,,,,,,
math-period,788,2044668,2050.7999999523163,"",,,,,,,,,,,2,,,,,
html-keyboard-response,789,2044779,null,"",null,,,,,,,,,,,,,,,
math-period,790,2045769,1894.4999999403954,"",,,,,,,,,,,4,,,,,
html-keyboard-response,791,2045880,null,"",null,,,,,,,,,,,,,,,
math-period,792,2046746,1657.9999999403954,"",,,,,,,,,,,3,,,,,
html-keyboard-response,793,2046851,null,"",null,,,,,,,,,,,,,,,
math-period,794,2047725,1668.3999999761581,"",,,,,,,,,,,3,,,,,
html-keyboard-response,795,2047830,null,"",null,,,,,,,,,,,,,,,
math-period,796,2048607,1479,"",,,,,,,,,,,3,,,,,
html-keyboard-response,797,2048712,null,"",null,,,,,,,,,,,,,,,
math-period,798,2049575,1617.9000000357628,"",,,,,,,,,,,4,,,,,
html-keyboard-response,799,2049677,null,"",null,,,,,,,,,,,,,,,
math-period,800,2049872,null,"",,,,,,,,,,,,,,,,
html-keyboard-response,801,2050876,null,"Recall Period!",null,,,,,,,,,,,,,,,
call-function,802,2050877,,"",,,,,,,,,,,,,,,,
html-keyboard-response,803,2050980,null,"",null,,,,,,,,,,,,,,,
recall-period,804,2054617,27354.999999821186,"",,,,,,,,,,,doughnut,,,,,
html-keyboard-response,805,2054732,null,"",null,,,,,,,,,,,,,,,
recall-period,806,2056857,14770.400000274181,"",,,,,,,,,,,plaster,,,,,
html-keyboard-response,807,2056958,null,"",null,,,,,,,,,,,,,,,
recall-period,808,2058208,4488.700000166893,"",,,,,,,,,,,lettuce,,,,,
html-keyboard-response,809,2058311,null,"",null,,,,,,,,,,,,,,,
recall-period,810,2060007,9686.600000023842,"",,,,,,,,,,,banker,,,,,
html-keyboard-response,811,2060109,null,"",null,,,,,,,,,,,,,,,
recall-period,812,2061154,5527.499999880791,"",,,,,,,,,,,dandruff,,,,,
html-keyboard-response,813,2061259,null,"",null,,,,,,,,,,,,,,,
recall-period,814,2064066,19331.30000013113,"",,,,,,,,,,,zipper,,,,,
html-keyboard-response,815,2064168,null,"",null,,,,,,,,,,,,,,,
recall-period,816,2064886,2268.700000166893,"",,,,,,,,,,,yolk,,,,,
html-keyboard-response,817,2064996,null,"",null,,,,,,,,,,,,,,,
recall-period,818,2076415,54221.499999940395,"",,,,,,,,,,,yolk,,,,,
html-keyboard-response,819,2076517,null,"",null,,,,,,,,,,,,,,,
recall-period,820,2078915,7142.599999964237,"",,,,,,,,,,,candy,,,,,
html-keyboard-response,821,2079018,null,"",null,,,,,,,,,,,,,,,
recall-period,822,2082454,17706,"",,,,,,,,,,,rooster,,,,,
html-keyboard-response,823,2082557,null,"",null,,,,,,,,,,,,,,,
recall-period,824,2086175,16255.800000071526,"",,,,,,,,,,,spoon,,,,,
html-keyboard-response,825,2086278,null,"",null,,,,,,,,,,,,,,,
recall-period,826,2125881,null,"",,,,,,,,,,,,,,,,
html-keyboard-response,827,2126384,null,"Time's Up!",null,,,,,,,,,,,,,,,
html-keyboard-response,828,2132792,6406.300000011921,"<p> Good job! You have responded correctly to 98% of the trials. </p>
                      <p>Be sure to only press the spacebar if you see a red square, and please keep your accuracy above 80%.</p>
                      <p> Press any key to continue the experiment. </p>",32,,,,,,,,,,,,,,,
html-keyboard-response,829,2134079,1285.9000000357628,"<div style=""font-size:48px;"">Press any key to begin list 7 of 16 </div>",32,,,,,,,,,,,,,,,
html-keyboard-response,830,2136594,null,"<div style=""font-size:60px;"">+</div>",null,,,,,,,,,,,,,,,
html-keyboard-response,831,2136810,null,"<div style=""font-size:42px;"">VENUS</div><img id = ""stim"" ><div class = green_square id = bottomsquare></div>",null,encoding,word_square,,,0,bottomsquare,none,true,,,VENUS,6,,,
html-keyboard-response,832,2137113,null,"<div style=""font-size:42px;"">VENUS</div>",null,,word,VENUS,,,,,,,,,,,,
html-keyboard-response,833,2138616,null,"",null,,word,VENUS,,,,,,,,,,,,
html-keyboard-response,834,2138824,null,"<div style=""font-size:42px;"">PIZZA</div><img id = ""stim"" ><div class = green_square id = topsquare></div>",null,encoding,word_square,,,0,topsquare,none,true,,,PIZZA,6,,,
html-keyboard-response,835,2139134,null,"<div style=""font-size:42px;"">PIZZA</div>",null,,word,PIZZA,,,,,,,,,,,,
html-keyboard-response,836,2140637,null,"",null,,word,PIZZA,,,,,,,,,,,,
html-keyboard-response,837,2140845,null,"<div style=""font-size:42px;"">FOLDER</div><img id = ""stim"" ><div class = red_square id = topsquare></div>",null,encoding,word_square,,,1,topsquare,32,true,,,FOLDER,6,,,
html-keyboard-response,838,2141146,298.5999999642372,"<div style=""font-size:42px;"">FOLDER</div>",32,,word,FOLDER,,,,,,,,,,,,
html-keyboard-response,839,2142657,null,"",null,,word,FOLDER,,,,,,,,,,,,
html-keyboard-response,840,2142859,null,"<div style=""font-size:42px;"">ORANGE</div><img id = ""stim"" ><div class = green_square id = bottomsquare></div>",null,encoding,word_square,,,0,bottomsquare,none,true,,,ORANGE,6,,,
html-keyboard-response,841,2143175,null,"<div style=""font-size:42px;"">ORANGE</div>",null,,word,ORANGE,,,,,,,,,,,,
html-keyboard-response,842,2144686,null,"",null,,word,ORANGE,,,,,,,,,,,,
html-keyboard-response,843,2144888,null,"<div style=""font-size:42px;"">BATHTUB</div><img id = ""stim"" ><div class = green_square id = topsquare></div>",null,encoding,word_square,,,0,topsquare,none,true,,,BATHTUB,6,,,
html-keyboard-response,844,2145190,null,"<div style=""font-size:42px;"">BATHTUB</div>",null,,word,BATHTUB,,,,,,,,,,,,
html-keyboard-response,845,2146705,null,"",null,,word,BATHTUB,,,,,,,,,,,,
html-keyboard-response,846,2146909,null,"<div style=""font-size:42px;"">GARLIC</div><img id = ""stim"" ><div class = red_square id = bottomsquare></div>",null,encoding,word_square,,,1,bottomsquare,32,true,,,GARLIC,6,,,
html-keyboard-response,847,2147223,146.80000001192093,"<div style=""font-size:42px;"">GARLIC</div>",32,,word,GARLIC,,,,,,,,,,,,
html-keyboard-response,848,2148725,null,"",null,,word,GARLIC,,,,,,,,,,,,
html-keyboard-response,849,2148932,null,"<div style=""font-size:42px;"">TOOTHBRUSH</div><img id = ""stim"" ><div class = green_square id = bottomsquare></div>",null,encoding,word_square,,,0,bottomsquare,none,true,,,TOOTHBRUSH,6,,,
html-keyboard-response,850,2149246,null,"<div style=""font-size:42px;"">TOOTHBRUSH</div>",null,,word,TOOTHBRUSH,,,,,,,,,,,,
html-keyboard-response,851,2150748,null,"",null,,word,TOOTHBRUSH,,,,,,,,,,,,
html-keyboard-response,852,2150950,null,"<div style=""font-size:42px;"">FROG</div><img id = ""stim"" ><div class = red_square id = topsquare></div>",null,encoding,word_square,,,1,topsquare,32,true,,,FROG,6,,,
html-keyboard-response,853,2151252,256.10000002384186,"<div style=""font-size:42px;"">FROG</div>",32,,word,FROG,,,,,,,,,,,,
html-keyboard-response,854,2152755,null,"",null,,word,FROG,,,,,,,,,,,,
html-keyboard-response,855,2152956,null,"<div style=""font-size:42px;"">DAISY</div><img id = ""stim"" ><div class = red_square id = bottomsquare></div>",null,encoding,word_square,,,1,bottomsquare,32,true,,,DAISY,6,,,
html-keyboard-response,856,2153258,188.89999997615814,"<div style=""font-size:42px;"">DAISY</div>",32,,word,DAISY,,,,,,,,,,,,
html-keyboard-response,857,2154761,null,"",null,,word,DAISY,,,,,,,,,,,,
html-keyboard-response,858,2154963,null,"<div style=""font-size:42px;"">PISTON</div><img id = ""stim"" ><div class = green_square id = topsquare></div>",null,encoding,word_square,,,0,topsquare,none,true,,,PISTON,6,,,
html-keyboard-response,859,2155272,null,"<div style=""font-size:42px;"">PISTON</div>",null,,word,PISTON,,,,,,,,,,,,
html-keyboard-response,860,2156775,null,"",null,,word,PISTON,,,,,,,,,,,,
html-keyboard-response,861,2156979,null,"<div style=""font-size:42px;"">PIGMENT</div><img id = ""stim"" ><div class = red_square id = topsquare></div>",null,encoding,word_square,,,1,topsquare,32,true,,,PIGMENT,6,,,
html-keyboard-response,862,2157281,260.0999999642372,"<div style=""font-size:42px;"">PIGMENT</div>",32,,word,PIGMENT,,,,,,,,,,,,
html-keyboard-response,863,2158793,null,"",null,,word,PIGMENT,,,,,,,,,,,,
html-keyboard-response,864,2158998,null,"<div style=""font-size:42px;"">MARKER</div><img id = ""stim"" ><div class = red_square id = bottomsquare></div>",null,encoding,word_square,,,1,bottomsquare,32,true,,,MARKER,6,,,
html-keyboard-response,865,2159300,291.30000001192093,"<div style=""font-size:42px;"">MARKER</div>",32,,word,MARKER,,,,,,,,,,,,
html-keyboard-response,866,2160810,null,"",null,,word,MARKER,,,,,,,,,,,,
html-keyboard-response,867,2161014,null,"<div style=""font-size:42px;"">BRANCH</div><img id = ""stim"" ><div class = green_square id = bottomsquare></div>",null,encoding,word_square,,,0,bottomsquare,none,true,,,BRANCH,6,,,
html-keyboard-response,868,2161325,null,"<div style=""font-size:42px;"">BRANCH</div>",null,,word,BRANCH,,,,,,,,,,,,
html-keyboard-response,869,2162829,null,"",null,,word,BRANCH,,,,,,,,,,,,
html-keyboard-response,870,2163032,null,"<div style=""font-size:42px;"">KEYBOARD</div><img id = ""stim"" ><div class = green_square id = topsquare></div>",null,encoding,word_square,,,0,topsquare,none,true,,,KEYBOARD,6,,,
html-keyboard-response,871,2163334,null,"<div style=""font-size:42px;"">KEYBOARD</div>",null,,word,KEYBOARD,,,,,,,,,,,,
html-keyboard-response,872,2164836,null,"",null,,word,KEYBOARD,,,,,,,,,,,,
html-keyboard-response,873,2165047,null,"<div style=""font-size:42px;"">GRILL</div><img id = ""stim"" ><div class = red_square id = topsquare></div>",null,encoding,word_square,,,1,topsquare,32,true,,,GRILL,6,,,
html-keyboard-response,874,2165348,282,"<div style=""font-size:42px;"">GRILL</div>",32,,word,GRILL,,,,,,,,,,,,
html-keyboard-response,875,2166861,null,"",null,,word,GRILL,,,,,,,,,,,,
html-keyboard-response,876,2167072,null,"<div style=""font-size:42px;"">BOXER</div><img id = ""stim"" ><div class = red_square id = bottomsquare></div>",null,encoding,word_square,,,1,bottomsquare,32,true,,,BOXER,6,,,
html-keyboard-response,877,2167375,null,"<div style=""font-size:42px;"">BOXER</div>",null,,word,BOXER,,,,,,,,,,,,
html-keyboard-response,878,2168886,80.39999997615814,"",32,,word,BOXER,,,,,,,,,,,,
call-function,879,2168887,,"",,,,,,,,,,,,,,,,
html-keyboard-response,880,2168994,null,"",null,,,,,,,,,,,,,,,
math-period,881,2170663,2940.699999988079,"",,,,,,,,,,,2,,,,,
html-keyboard-response,882,2170770,null,"",null,,,,,,,,,,,,,,,
math-period,883,2171861,1090.300000011921,"",,,,,,,,,,,,,,,,
html-keyboard-response,884,2171974,null,"",null,,,,,,,,,,,,,,,
math-period,885,2173505,4289.500000059605,"",,,,,,,,,,,2,,,,,
html-keyboard-response,886,2173617,null,"",null,,,,,,,,,,,,,,,
math-period,887,2174526,1709.3999999761581,"",,,,,,,,,,,4,,,,,
html-keyboard-response,888,2174627,null,"",null,,,,,,,,,,,,,,,
math-period,889,2175643,1962.300000011921,"",,,,,,,,,,,2,,,,,
html-keyboard-response,890,2175754,null,"",null,,,,,,,,,,,,,,,
math-period,891,2176726,1869.0999999642372,"",,,,,,,,,,,5,,,,,
html-keyboard-response,892,2176837,null,"",null,,,,,,,,,,,,,,,
math-period,893,2177761,1773.6000000834465,"",,,,,,,,,,,2,,,,,
html-keyboard-response,894,2177864,null,"",null,,,,,,,,,,,,,,,
math-period,895,2179579,3367,"",,,,,,,,,,,2,,,,,
html-keyboard-response,896,2179690,null,"",null,,,,,,,,,,,,,,,
math-period,897,2180802,2166.3000000715256,"",,,,,,,,,,,4,,,,,
html-keyboard-response,898,2180903,null,"",null,,,,,,,,,,,,,,,
math-period,899,2181934,1960.1000000238419,"",,,,,,,,,,,5,,,,,
html-keyboard-response,900,2182036,null,"",null,,,,,,,,,,,,,,,
math-period,901,2182988,1811,"",,,,,,,,,,,3,,,,,
html-keyboard-response,902,2183092,null,"",null,,,,,,,,,,,,,,,
math-period,903,2184816,3357.2000000476837,"",,,,,,,,,,,4,,,,,
html-keyboard-response,904,2184919,null,"",null,,,,,,,,,,,,,,,
math-period,905,2185771,1602.199999988079,"",,,,,,,,,,,3,,,,,
html-keyboard-response,906,2185879,null,"",null,,,,,,,,,,,,,,,
math-period,907,2186734,1640.9999999403954,"",,,,,,,,,,,3,,,,,
html-keyboard-response,908,2186836,null,"",null,,,,,,,,,,,,,,,
math-period,909,2187674,1594.699999988079,"",,,,,,,,,,,4,,,,,
html-keyboard-response,910,2187781,null,"",null,,,,,,,,,,,,,,,
math-period,911,2188727,1817.4999999403954,"",,,,,,,,,,,3,,,,,
html-keyboard-response,912,2188841,null,"",null,,,,,,,,,,,,,,,
math-period,913,2190119,2208.7000000476837,"",,,,,,,,,,,5,,,,,
html-keyboard-response,914,2190222,null,"",null,,,,,,,,,,,,,,,
math-period,915,2191630,2751.2999999523163,"",,,,,,,,,,,1,,,,,
html-keyboard-response,916,2191740,null,"",null,,,,,,,,,,,,,,,
math-period,917,2192509,1440.0000000596046,"",,,,,,,,,,,2,,,,,
html-keyboard-response,918,2192614,null,"",null,,,,,,,,,,,,,,,
math-period,919,2192894,null,"",,,,,,,,,,,,,,,,
html-keyboard-response,920,2193900,null,"Recall Period!",null,,,,,,,,,,,,,,,
call-function,921,2193901,,"",,,,,,,,,,,,,,,,
html-keyboard-response,922,2194002,null,"",null,,,,,,,,,,,,,,,
recall-period,923,2201359,42188.10000002384,"",,,,,,,,,,,venus,,,,,
html-keyboard-response,924,2201470,null,"",null,,,,,,,,,,,,,,,
recall-period,925,2203926,10042.599999845028,"",,,,,,,,,,,pizza,,,,,
html-keyboard-response,926,2204036,null,"",null,,,,,,,,,,,,,,,
recall-period,927,2206033,15501.69999986887,"",,,,,,,,,,,garlic,,,,,
html-keyboard-response,928,2206136,null,"",null,,,,,,,,,,,,,,,
recall-period,929,2209015,18114.30000013113,"",,,,,,,,,,,orange,,,,,
html-keyboard-response,930,2209118,null,"",null,,,,,,,,,,,,,,,
recall-period,931,2224856,92666.20000010729,"",,,,,,,,,,,daisy,,,,,
html-keyboard-response,932,2224959,null,"",null,,,,,,,,,,,,,,,
recall-period,933,2226079,6483.100000202656,"",,,,,,,,,,,pigment,,,,,
html-keyboard-response,934,2226187,null,"",null,,,,,,,,,,,,,,,
recall-period,935,2226730,2203.30000013113,"",,,,,,,,,,,marker,,,,,
html-keyboard-response,936,2226832,null,"",null,,,,,,,,,,,,,,,
recall-period,937,2229850,22913.500000059605,"",,,,,,,,,,,keyboard,,,,,
html-keyboard-response,938,2229953,null,"",null,,,,,,,,,,,,,,,
recall-period,939,2250384,101015.59999996424,"",,,,,,,,,,,frog,,,,,
html-keyboard-response,940,2250491,null,"",null,,,,,,,,,,,,,,,
recall-period,941,2261857,108000.50000017881,"",,,,,,,,,,,bathtub,,,,,
html-keyboard-response,942,2261960,null,"",null,,,,,,,,,,,,,,,
recall-period,943,2268903,null,"",,,,,,,,,,,,,,,,
html-keyboard-response,944,2269411,null,"Time's Up!",null,,,,,,,,,,,,,,,
html-keyboard-response,945,2303730,34317.10000002384,"<p> Good job! You have responded correctly to 98% of the trials. </p>
                      <p>Be sure to only press the spacebar if you see a red square, and please keep your accuracy above 80%.</p>
                      <p> Press any key to continue the experiment. </p>",32,,,,,,,,,,,,,,,
html-keyboard-response,946,2309701,5970.100000023842,"<div style=""font-size:48px;"">Press any key to begin list 8 of 16 </div>",32,,,,,,,,,,,,,,,
html-keyboard-response,947,2312215,null,"<div style=""font-size:60px;"">+</div>",null,,,,,,,,,,,,,,,
html-keyboard-response,948,2312419,null,"<div style=""font-size:42px;"">OFFICE</div><img id = ""stim"" ><div class = red_square id = bottomsquare></div>",null,encoding,word_square,,,1,bottomsquare,32,true,,,OFFICE,7,,,
html-keyboard-response,949,2312720,null,"<div style=""font-size:42px;"">OFFICE</div>",null,,word,OFFICE,,,,,,,,,,,,
html-keyboard-response,950,2314228,35.30000001192093,"",32,,word,OFFICE,,,,,,,,,,,,
html-keyboard-response,951,2314440,null,"<div style=""font-size:42px;"">POSTAGE</div><img id = ""stim"" ><div class = red_square id = topsquare></div>",null,encoding,word_square,,,1,topsquare,32,true,,,POSTAGE,7,,,
html-keyboard-response,952,2314754,null,"<div style=""font-size:42px;"">POSTAGE</div>",null,,word,POSTAGE,,,,,,,,,,,,
html-keyboard-response,953,2316260,89.89999997615814,"",32,,word,POSTAGE,,,,,,,,,,,,
html-keyboard-response,954,2316463,null,"<div style=""font-size:42px;"">MOP</div><img id = ""stim"" ><div class = green_square id = topsquare></div>",null,encoding,word_square,,,0,topsquare,none,false,,,MOP,7,,,
html-keyboard-response,955,2316766,null,"<div style=""font-size:42px;"">MOP</div>",null,,word,MOP,,,,,,,,,,,,
html-keyboard-response,956,2318278,32.30000001192093,"",32,,word,MOP,,,,,,,,,,,,
html-keyboard-response,957,2318483,null,"<div style=""font-size:42px;"">REINDEER</div><img id = ""stim"" ><div class = green_square id = bottomsquare></div>",null,encoding,word_square,,,0,bottomsquare,none,true,,,REINDEER,7,,,
html-keyboard-response,958,2318788,null,"<div style=""font-size:42px;"">REINDEER</div>",null,,word,REINDEER,,,,,,,,,,,,
html-keyboard-response,959,2320292,null,"",null,,word,REINDEER,,,,,,,,,,,,
html-keyboard-response,960,2320497,null,"<div style=""font-size:42px;"">SERVANT</div><img id = ""stim"" ><div class = red_square id = bottomsquare></div>",null,encoding,word_square,,,1,bottomsquare,32,true,,,SERVANT,7,,,
html-keyboard-response,961,2320811,null,"<div style=""font-size:42px;"">SERVANT</div>",null,,word,SERVANT,,,,,,,,,,,,
html-keyboard-response,962,2322320,243.89999997615814,"",32,,word,SERVANT,,,,,,,,,,,,
html-keyboard-response,963,2322535,null,"<div style=""font-size:42px;"">VIKING</div><img id = ""stim"" ><div class = red_square id = topsquare></div>",null,encoding,word_square,,,1,topsquare,32,true,,,VIKING,7,,,
html-keyboard-response,964,2322846,null,"<div style=""font-size:42px;"">VIKING</div>",null,,word,VIKING,,,,,,,,,,,,
html-keyboard-response,965,2324350,612.5999999642372,"",32,,word,VIKING,,,,,,,,,,,,
html-keyboard-response,966,2324558,null,"<div style=""font-size:42px;"">PARTY</div><img id = ""stim"" ><div class = green_square id = topsquare></div>",null,encoding,word_square,,,0,topsquare,none,true,,,PARTY,7,,,
