trial_type,trial_index,time_elapsed,rt,stimulus,key_press,exp_phase,test_part,word,task,targ_cond,sq_pos,correctKeyCode,correct,value,response,Word,List,RecResp,serial_pos,colorChosen
pavlovia,0,3066,,"",,,,,,,,,,,,,,,,
external-html,1,38868,35578,"",,,,,,,,,,,,,,,,
html-keyboard-response,2,40499,1626,"Welcome to the experiment. Press any key to begin.",32,,,,,,,,,,,,,,,
html-keyboard-response,3,51536,11034,"<p>You will see a list of words and colored squares in the following task.<p><p>Press the spacebar whenever you see a GREEN square.<p><p>Do not press a key if the square is RED.<p><p>Press the spacebar to continue.</p>",32,,,,,,,,,,,,,,,
html-keyboard-response,4,61975,9924,"<p>Please try to remember as many of the words as you can, and try to think about the meaning of each word as it appears.<p><p>After the detection and encoding task you will be asked to solve some math problems for 24 seconds.<p> Please solve as many problems as you can in the time given. <p><p><p>Press the spacebar to continue.</p>",32,,,,,,,,,,,,,,,
html-keyboard-response,5,72605,10114,"After solving the math problems, you will be asked to type in as many words <p>from the previous list as you can remember for 75 seconds.<p> If you finish recalling before the 75 seconds are up,<p> just sit tight and try to think of any more words you could have missed. <p><p><p>Press the spacebar to continue.</p>",32,,,,,,,,,,,,,,,
html-keyboard-response,6,82361,9237,"There will be 16 lists of words and recall, followed  by<p><p> a recognition phase. The experiment is expected to take up to 90 minutes.<p>We will begin with a brief practice session.<p>Press the spacebar to begin the practice.</p>",32,,,,,,,,,,,,,,,
html-keyboard-response,7,84890,null,"<div style=""font-size:60px;"">+</div>",null,,,,,,,,,,,,,,,
html-keyboard-response,8,85109,null,"<div style=""font-size:42px;"">HAPPY</div><img id = ""stim"" ><div class = red_square id = ""bottomsquare"" ></div>",null,practice,word_square,HAPPY,prac_response,0,Bottom,none,true,,,,,,,
html-keyboard-response,9,85424,null,"<div style=""font-size:42px;"">HAPPY</div>",null,,word,HAPPY,,,,,,,,,,,,
html-keyboard-response,10,86938,null,"",null,,word,HAPPY,,,,,,,,,,,,
html-keyboard-response,11,87155,null,"<div style=""font-size:42px;"">COLD</div><img id = ""stim"" ><div class = green_square id = ""bottomsquare"" ></div>",null,practice,word_square,COLD,prac_response,1,Bottom,32,true,,,,,,,
html-keyboard-response,12,87466,256,"<div style=""font-size:42px;"">COLD</div>",32,,word,COLD,,,,,,,,,,,,
html-keyboard-response,13,88979,null,"",null,,word,COLD,,,,,,,,,,,,
html-keyboard-response,14,89190,null,"<div style=""font-size:42px;"">HEAVY</div><img id = ""stim"" ><div class = green_square id = ""topsquare"" ></div>",null,practice,word_square,HEAVY,prac_response,1,Top,32,true,,,,,,,
html-keyboard-response,15,89500,null,"<div style=""font-size:42px;"">HEAVY</div>",null,,word,HEAVY,,,,,,,,,,,,
html-keyboard-response,16,91015,199,"",32,,word,HEAVY,,,,,,,,,,,,
html-keyboard-response,17,91230,null,"<div style=""font-size:42px;"">FUNNY</div><img id = ""stim"" ><div class = red_square id = ""topsquare"" ></div>",null,practice,word_square,FUNNY,prac_response,0,Top,none,true,,,,,,,
html-keyboard-response,18,91540,null,"<div style=""font-size:42px;"">FUNNY</div>",null,,word,FUNNY,,,,,,,,,,,,
html-keyboard-response,19,93050,null,"",null,,word,FUNNY,,,,,,,,,,,,
html-keyboard-response,20,93264,null,"<div style=""font-size:42px;"">SCARY</div><img id = ""stim"" ><div class = green_square id = ""bottomsquare"" ></div>",null,practice,word_square,SCARY,prac_response,1,Bottom,32,true,,,,,,,
html-keyboard-response,21,93571,null,"<div style=""font-size:42px;"">SCARY</div>",null,,word,SCARY,,,,,,,,,,,,
html-keyboard-response,22,95085,213,"",32,,word,SCARY,,,,,,,,,,,,
html-keyboard-response,23,95291,null,"<div style=""font-size:42px;"">PEACEFUL</div><img id = ""stim"" ><div class = green_square id = ""topsquare"" ></div>",null,practice,word_square,PEACEFUL,prac_response,1,Top,32,true,,,,,,,
html-keyboard-response,24,95605,null,"<div style=""font-size:42px;"">PEACEFUL</div>",null,,word,PEACEFUL,,,,,,,,,,,,
html-keyboard-response,25,97116,133,"",32,,word,PEACEFUL,,,,,,,,,,,,
html-keyboard-response,26,97321,null,"<div style=""font-size:42px;"">LITTLE</div><img id = ""stim"" ><div class = red_square id = ""bottomsquare"" ></div>",null,practice,word_square,LITTLE,prac_response,0,Bottom,none,true,,,,,,,
html-keyboard-response,27,97640,null,"<div style=""font-size:42px;"">LITTLE</div>",null,,word,LITTLE,,,,,,,,,,,,
html-keyboard-response,28,99150,null,"",null,,word,LITTLE,,,,,,,,,,,,
html-keyboard-response,29,99355,null,"<div style=""font-size:42px;"">TIRED</div><img id = ""stim"" ><div class = red_square id = ""topsquare"" ></div>",null,practice,word_square,TIRED,prac_response,0,Top,none,true,,,,,,,
html-keyboard-response,30,99671,null,"<div style=""font-size:42px;"">TIRED</div>",null,,word,TIRED,,,,,,,,,,,,
html-keyboard-response,31,101185,null,"",null,,word,TIRED,,,,,,,,,,,,
html-keyboard-response,32,101400,null,"<div style=""font-size:42px;"">ENTERTAINING</div><img id = ""stim"" ><div class = red_square id = ""bottomsquare"" ></div>",null,practice,word_square,ENTERTAINING,prac_response,0,Bottom,none,true,,,,,,,
html-keyboard-response,33,101715,null,"<div style=""font-size:42px;"">ENTERTAINING</div>",null,,word,ENTERTAINING,,,,,,,,,,,,
html-keyboard-response,34,103226,null,"",null,,word,ENTERTAINING,,,,,,,,,,,,
html-keyboard-response,35,103435,null,"<div style=""font-size:42px;"">GRATEFUL</div><img id = ""stim"" ><div class = green_square id = ""bottomsquare"" ></div>",null,practice,word_square,GRATEFUL,prac_response,1,Bottom,32,true,,,,,,,
html-keyboard-response,36,103745,288,"<div style=""font-size:42px;"">GRATEFUL</div>",32,,word,GRATEFUL,,,,,,,,,,,,
html-keyboard-response,37,105258,null,"",null,,word,GRATEFUL,,,,,,,,,,,,
html-keyboard-response,38,105471,null,"<div style=""font-size:42px;"">LOUD</div><img id = ""stim"" ><div class = red_square id = ""topsquare"" ></div>",null,practice,word_square,LOUD,prac_response,0,Top,none,true,,,,,,,
html-keyboard-response,39,105775,null,"<div style=""font-size:42px;"">LOUD</div>",null,,word,LOUD,,,,,,,,,,,,
html-keyboard-response,40,107280,null,"",null,,word,LOUD,,,,,,,,,,,,
html-keyboard-response,41,107491,null,"<div style=""font-size:42px;"">SMART</div><img id = ""stim"" ><div class = green_square id = ""topsquare"" ></div>",null,practice,word_square,SMART,prac_response,1,Top,32,true,,,,,,,
html-keyboard-response,42,107795,null,"<div style=""font-size:42px;"">SMART</div>",null,,word,SMART,,,,,,,,,,,,
html-keyboard-response,43,109307,318,"",32,,word,SMART,,,,,,,,,,,,
html-keyboard-response,44,109516,null,"<div style=""font-size:42px;"">SMOOTH</div><img id = ""stim"" ><div class = green_square id = ""bottomsquare"" ></div>",null,practice,word_square,SMOOTH,prac_response,1,Bottom,32,true,,,,,,,
html-keyboard-response,45,109829,295,"<div style=""font-size:42px;"">SMOOTH</div>",32,,word,SMOOTH,,,,,,,,,,,,
html-keyboard-response,46,111339,null,"",null,,word,SMOOTH,,,,,,,,,,,,
html-keyboard-response,47,111557,null,"<div style=""font-size:42px;"">DISHONEST</div><img id = ""stim"" ><div class = red_square id = ""bottomsquare"" ></div>",null,practice,word_square,DISHONEST,prac_response,0,Bottom,none,false,,,,,,,
html-keyboard-response,48,111861,null,"<div style=""font-size:42px;"">DISHONEST</div>",null,,word,DISHONEST,,,,,,,,,,,,
html-keyboard-response,49,113369,208,"",32,,word,DISHONEST,,,,,,,,,,,,
html-keyboard-response,50,113585,null,"<div style=""font-size:42px;"">WEALTHY</div><img id = ""stim"" ><div class = green_square id = ""topsquare"" ></div>",null,practice,word_square,WEALTHY,prac_response,1,Top,32,true,,,,,,,
html-keyboard-response,51,113889,243,"<div style=""font-size:42px;"">WEALTHY</div>",32,,word,WEALTHY,,,,,,,,,,,,
html-keyboard-response,52,115395,null,"",null,,word,WEALTHY,,,,,,,,,,,,
html-keyboard-response,53,115605,null,"<div style=""font-size:42px;"">BEAUTIFUL</div><img id = ""stim"" ><div class = red_square id = ""topsquare"" ></div>",null,practice,word_square,BEAUTIFUL,prac_response,0,Top,none,true,,,,,,,
html-keyboard-response,54,115919,null,"<div style=""font-size:42px;"">BEAUTIFUL</div>",null,,word,BEAUTIFUL,,,,,,,,,,,,
html-keyboard-response,55,117435,null,"",null,,word,BEAUTIFUL,,,,,,,,,,,,
html-keyboard-response,56,129327,11890,"<p> Good job! You responded correctly to 94% of the trials. </p>
                  <p>Be sure to only press the spacebar if you see a GREEN square, and please keep your accuracy above 80%.</p>
                  <p>We're going to try once more to make sure you understand the task. press any key to continue. </p>",32,,,,,,,,,,,,,,,
html-keyboard-response,57,134281,4951,"<p>You will see a list of words and colored squares in the following task.<p><p>Press the spacebar whenever you see a GREEN square.<p><p>Do not press a key if the square is RED<p><p>Press the spacebar to continue.</p>",32,,,,,,,,,,,,,,,
html-keyboard-response,58,136797,null,"<div style=""font-size:60px;"">+</div>",null,,,,,,,,,,,,,,,
html-keyboard-response,59,137000,null,"<div style=""font-size:42px;"">HAPPY</div><img id = ""stim"" ><div class = red_square id = ""bottomsquare"" ></div>",null,practice2,word_square,HAPPY,prac_response,0,Bottom,none,true,,,,,,,
html-keyboard-response,60,137313,null,"<div style=""font-size:42px;"">HAPPY</div>",null,,word,HAPPY,,,,,,,,,,,,
html-keyboard-response,61,138829,null,"",null,,word,HAPPY,,,,,,,,,,,,
html-keyboard-response,62,139044,null,"<div style=""font-size:42px;"">COLD</div><img id = ""stim"" ><div class = green_square id = ""bottomsquare"" ></div>",null,practice2,word_square,,prac_response,1,Bottom,32,true,,,,,,,
html-keyboard-response,63,139359,292,"<div style=""font-size:42px;"">COLD</div>",32,,word,COLD,,,,,,,,,,,,
html-keyboard-response,64,140875,null,"",null,,word,COLD,,,,,,,,,,,,
html-keyboard-response,65,141090,null,"<div style=""font-size:42px;"">HEAVY</div><img id = ""stim"" ><div class = green_square id = ""topsquare"" ></div>",null,practice2,word_square,,prac_response,1,Top,32,true,,,,,,,
html-keyboard-response,66,141405,301,"<div style=""font-size:42px;"">HEAVY</div>",32,,word,HEAVY,,,,,,,,,,,,
html-keyboard-response,67,142920,null,"",null,,word,HEAVY,,,,,,,,,,,,
html-keyboard-response,68,143135,null,"<div style=""font-size:42px;"">FUNNY</div><img id = ""stim"" ><div class = red_square id = ""topsquare"" ></div>",null,practice2,word_square,,prac_response,0,Top,none,true,,,,,,,
html-keyboard-response,69,143448,null,"<div style=""font-size:42px;"">FUNNY</div>",null,,word,FUNNY,,,,,,,,,,,,
html-keyboard-response,70,144965,null,"",null,,word,FUNNY,,,,,,,,,,,,
html-keyboard-response,71,145171,null,"<div style=""font-size:42px;"">SCARY</div><img id = ""stim"" ><div class = green_square id = ""bottomsquare"" ></div>",null,practice2,word_square,,prac_response,1,Bottom,32,true,,,,,,,
html-keyboard-response,72,145474,285,"<div style=""font-size:42px;"">SCARY</div>",32,,word,SCARY,,,,,,,,,,,,
html-keyboard-response,73,146989,null,"",null,,word,SCARY,,,,,,,,,,,,
html-keyboard-response,74,147201,null,"<div style=""font-size:42px;"">PEACEFUL</div><img id = ""stim"" ><div class = green_square id = ""topsquare"" ></div>",null,practice2,word_square,,prac_response,1,Top,32,true,,,,,,,
html-keyboard-response,75,147504,267,"<div style=""font-size:42px;"">PEACEFUL</div>",32,,word,PEACEFUL,,,,,,,,,,,,
html-keyboard-response,76,149014,null,"",null,,word,PEACEFUL,,,,,,,,,,,,
html-keyboard-response,77,149228,null,"<div style=""font-size:42px;"">LITTLE</div><img id = ""stim"" ><div class = red_square id = ""bottomsquare"" ></div>",null,practice2,word_square,LITTLE,prac_response,0,Bottom,none,true,,,,,,,
html-keyboard-response,78,149535,null,"<div style=""font-size:42px;"">LITTLE</div>",null,,word,LITTLE,,,,,,,,,,,,
html-keyboard-response,79,151046,null,"",null,,word,LITTLE,,,,,,,,,,,,
html-keyboard-response,80,151252,null,"<div style=""font-size:42px;"">TIRED</div><img id = ""stim"" ><div class = red_square id = ""topsquare"" ></div>",null,practice2,word_square,,prac_response,0,Top,none,true,,,,,,,
html-keyboard-response,81,151556,null,"<div style=""font-size:42px;"">TIRED</div>",null,,word,TIRED,,,,,,,,,,,,
html-keyboard-response,82,153060,null,"",null,,word,TIRED,,,,,,,,,,,,
html-keyboard-response,83,153266,null,"<div style=""font-size:42px;"">ENTERTAINING</div><img id = ""stim"" ><div class = red_square id = ""bottomsquare"" ></div>",null,practice2,word_square,ENTERTAINING,prac_response,0,Bottom,none,true,,,,,,,
html-keyboard-response,84,153579,null,"<div style=""font-size:42px;"">ENTERTAINING</div>",null,,word,ENTERTAINING,,,,,,,,,,,,
html-keyboard-response,85,155086,null,"",null,,word,ENTERTAINING,,,,,,,,,,,,
html-keyboard-response,86,155295,null,"<div style=""font-size:42px;"">GRATEFUL</div><img id = ""stim"" ><div class = green_square id = ""bottomsquare"" ></div>",null,practice2,word_square,,prac_response,1,Bottom,32,true,,,,,,,
html-keyboard-response,87,155604,null,"<div style=""font-size:42px;"">GRATEFUL</div>",null,,word,GRATEFUL,,,,,,,,,,,,
html-keyboard-response,88,157115,0,"",32,,word,GRATEFUL,,,,,,,,,,,,
html-keyboard-response,89,157324,null,"<div style=""font-size:42px;"">LOUD</div><img id = ""stim"" ><div class = red_square id = ""topsquare"" ></div>",null,practice2,word_square,,prac_response,0,Top,none,true,,,,,,,
html-keyboard-response,90,157630,null,"<div style=""font-size:42px;"">LOUD</div>",null,,word,LOUD,,,,,,,,,,,,
html-keyboard-response,91,159142,null,"",null,,word,LOUD,,,,,,,,,,,,
html-keyboard-response,92,159350,null,"<div style=""font-size:42px;"">SMART</div><img id = ""stim"" ><div class = green_square id = ""topsquare"" ></div>",null,practice2,word_square,,prac_response,1,Top,32,true,,,,,,,
html-keyboard-response,93,159662,null,"<div style=""font-size:42px;"">SMART</div>",null,,word,SMART,,,,,,,,,,,,
html-keyboard-response,94,161175,128,"",32,,word,SMART,,,,,,,,,,,,
html-keyboard-response,95,161393,null,"<div style=""font-size:42px;"">SMOOTH</div><img id = ""stim"" ><div class = green_square id = ""bottomsquare"" ></div>",null,practice2,word_square,,prac_response,1,Bottom,32,true,,,,,,,
html-keyboard-response,96,161705,null,"<div style=""font-size:42px;"">SMOOTH</div>",null,,word,SMOOTH,,,,,,,,,,,,
html-keyboard-response,97,163223,214,"",32,,word,SMOOTH,,,,,,,,,,,,
html-keyboard-response,98,163441,null,"<div style=""font-size:42px;"">DISHONEST</div><img id = ""stim"" ><div class = red_square id = ""bottomsquare"" ></div>",null,practice2,word_square,DISHONEST,prac_response,0,Bottom,none,true,,,,,,,
html-keyboard-response,99,163754,null,"<div style=""font-size:42px;"">DISHONEST</div>",null,,word,DISHONEST,,,,,,,,,,,,
html-keyboard-response,100,165264,null,"",null,,word,DISHONEST,,,,,,,,,,,,
html-keyboard-response,101,165483,null,"<div style=""font-size:42px;"">WEALTHY</div><img id = ""stim"" ><div class = green_square id = ""topsquare"" ></div>",null,practice2,word_square,,prac_response,1,Top,32,true,,,,,,,
html-keyboard-response,102,165793,null,"<div style=""font-size:42px;"">WEALTHY</div>",null,,word,WEALTHY,,,,,,,,,,,,
html-keyboard-response,103,167296,94,"",32,,word,WEALTHY,,,,,,,,,,,,
html-keyboard-response,104,167500,null,"<div style=""font-size:42px;"">BEAUTIFUL</div><img id = ""stim"" ><div class = red_square id = ""topsquare"" ></div>",null,practice2,word_square,,prac_response,0,Top,none,true,,,,,,,
html-keyboard-response,105,167814,null,"<div style=""font-size:42px;"">BEAUTIFUL</div>",null,,word,BEAUTIFUL,,,,,,,,,,,,
html-keyboard-response,106,169331,null,"",null,,word,BEAUTIFUL,,,,,,,,,,,,
html-keyboard-response,107,173637,4302,"<p> Good job! You responded correctly to 100% of the trials. </p>
                    <p>Be sure to only press the spacebar if you see a GREEN square, and please keep your accuracy above 80%.</p>
                    <p>Press any key to begin the math and recall sections. Thank you! </p>",32,,,,,,,,,,,,,,,
call-function,108,173638,,"",,,,,,,,,,,,,,,,
html-keyboard-response,109,173751,null,"",null,,,,,,,,,,,,,,,
math-period,110,177418,6282,"",,,,,,,,,,,5,,,,,
html-keyboard-response,111,177520,null,"",null,,,,,,,,,,,,,,,
math-period,112,178908,2449,"",,,,,,,,,,,5,,,,,
html-keyboard-response,113,179025,null,"",null,,,,,,,,,,,,,,,
math-period,114,183025,7345,"",,,,,,,,,,,1,,,,,
html-keyboard-response,115,183139,null,"",null,,,,,,,,,,,,,,,
math-period,116,186623,6541,"",,,,,,,,,,,2,,,,,
html-keyboard-response,117,186733,null,"",null,,,,,,,,,,,,,,,
math-period,118,189851,5921,"",,,,,,,,,,,5,,,,,
html-keyboard-response,119,189967,null,"",null,,,,,,,,,,,,,,,
math-period,120,192001,3756,"",,,,,,,,,,,3,,,,,
html-keyboard-response,121,192104,null,"",null,,,,,,,,,,,,,,,
math-period,122,193771,3132,"",,,,,,,,,,,4,,,,,
html-keyboard-response,123,193873,null,"",null,,,,,,,,,,,,,,,
math-period,124,195205,2412,"",,,,,,,,,,,3,,,,,
html-keyboard-response,125,195310,null,"",null,,,,,,,,,,,,,,,
math-period,126,197514,4136,"",,,,,,,,,,,5,,,,,
html-keyboard-response,127,197620,null,"",null,,,,,,,,,,,,,,,
math-period,128,197648,null,"",,,,,,,,,,,,,,,,
html-keyboard-response,129,198664,null,"Recall Period!",null,,,,,,,,,,,,,,,
call-function,130,198665,,"",,,,,,,,,,,,,,,,
html-keyboard-response,131,198770,null,"",null,,,,,,,,,,,,,,,
recall-period,132,205533,58086,"",,,,,,,,,,,dishonest,,,,,
html-keyboard-response,133,205645,null,"",null,,,,,,,,,,,,,,,
recall-period,134,208122,8105,"",,,,,,,,,,,wealth,,,,,
html-keyboard-response,135,208228,null,"",null,,,,,,,,,,,,,,,
recall-period,136,218078,73687,"",,,,,,,,,,,feeling,,,,,
html-keyboard-response,137,218179,null,"",null,,,,,,,,,,,,,,,
recall-period,138,223134,37468,"",,,,,,,,,,,feather,,,,,
html-keyboard-response,139,223250,null,"",null,,,,,,,,,,,,,,,
recall-period,140,242391,112011,"",,,,,,,,,,,funny,,,,,
html-keyboard-response,141,242494,null,"",null,,,,,,,,,,,,,,,
recall-period,142,273680,12196,"",,,,,,,,,,,,,,,,
html-keyboard-response,143,274183,null,"Time's Up!",null,,,,,,,,,,,,,,,
html-keyboard-response,144,285870,11684,"<p>We will now begin the experiment!<p><p>Please try to remember all words from each list.<p><p>Press the spacebar whenever you see a GREEN square.<p><p><p><p>Press the spacebar to begin.</p>",32,,,,,,,,,,,,,,,
html-keyboard-response,145,288438,2055,"<div style=""font-size:48px;"">Press any key to begin list 1 of 16 </div>",32,,,,,,,,,,,,,,,
html-keyboard-response,146,290961,null,"<div style=""font-size:60px;"">+</div>",null,,,,,,,,,,,,,,,
html-keyboard-response,147,291165,null,"<div style=""font-size:42px;"">BISCUIT</div><img id = ""stim"" ><div class = green_square id = topsquare></div>",null,encoding,word_square,,,1,topsquare,32,true,,,BISCUIT,0,,,
html-keyboard-response,148,291479,null,"<div style=""font-size:42px;"">BISCUIT</div>",null,,word,BISCUIT,,,,,,,,,,,,
html-keyboard-response,149,292994,171,"",32,,word,BISCUIT,,,,,,,,,,,,
html-keyboard-response,150,293202,null,"<div style=""font-size:42px;"">PORCH</div><img id = ""stim"" ><div class = green_square id = bottomsquare></div>",null,encoding,word_square,,,1,bottomsquare,32,true,,,PORCH,0,,,
html-keyboard-response,151,293515,null,"<div style=""font-size:42px;"">PORCH</div>",null,,word,PORCH,,,,,,,,,,,,
html-keyboard-response,152,295020,36,"",32,,word,PORCH,,,,,,,,,,,,
html-keyboard-response,153,295229,null,"<div style=""font-size:42px;"">COD</div><img id = ""stim"" ><div class = red_square id = bottomsquare></div>",null,encoding,word_square,,,0,bottomsquare,none,true,,,COD,0,,,
html-keyboard-response,154,295535,null,"<div style=""font-size:42px;"">COD</div>",null,,word,COD,,,,,,,,,,,,
html-keyboard-response,155,297041,null,"",null,,word,COD,,,,,,,,,,,,
html-keyboard-response,156,297244,null,"<div style=""font-size:42px;"">BANJO</div><img id = ""stim"" ><div class = green_square id = topsquare></div>",null,encoding,word_square,,,1,topsquare,32,true,,,BANJO,0,,,
html-keyboard-response,157,297555,null,"<div style=""font-size:42px;"">BANJO</div>",null,,word,BANJO,,,,,,,,,,,,
html-keyboard-response,158,299070,151,"",32,,word,BANJO,,,,,,,,,,,,
html-keyboard-response,159,299278,null,"<div style=""font-size:42px;"">FIREPLACE</div><img id = ""stim"" ><div class = red_square id = topsquare></div>",null,encoding,word_square,,,0,topsquare,none,true,,,FIREPLACE,0,,,
html-keyboard-response,160,299589,null,"<div style=""font-size:42px;"">FIREPLACE</div>",null,,word,FIREPLACE,,,,,,,,,,,,
html-keyboard-response,161,301105,null,"",null,,word,FIREPLACE,,,,,,,,,,,,
html-keyboard-response,162,301321,null,"<div style=""font-size:42px;"">DOG</div><img id = ""stim"" ><div class = red_square id = bottomsquare></div>",null,encoding,word_square,,,0,bottomsquare,none,true,,,DOG,0,,,
html-keyboard-response,163,301637,null,"<div style=""font-size:42px;"">DOG</div>",null,,word,DOG,,,,,,,,,,,,
html-keyboard-response,164,303140,null,"",null,,word,DOG,,,,,,,,,,,,
html-keyboard-response,165,303353,null,"<div style=""font-size:42px;"">BURGLAR</div><img id = ""stim"" ><div class = green_square id = bottomsquare></div>",null,encoding,word_square,,,1,bottomsquare,32,true,,,BURGLAR,0,,,
html-keyboard-response,166,303661,null,"<div style=""font-size:42px;"">BURGLAR</div>",null,,word,BURGLAR,,,,,,,,,,,,
html-keyboard-response,167,305176,127,"",32,,word,BURGLAR,,,,,,,,,,,,
html-keyboard-response,168,305389,null,"<div style=""font-size:42px;"">SUSPECT</div><img id = ""stim"" ><div class = red_square id = topsquare></div>",null,encoding,word_square,,,0,topsquare,none,true,,,SUSPECT,0,,,
html-keyboard-response,169,305694,null,"<div style=""font-size:42px;"">SUSPECT</div>",null,,word,SUSPECT,,,,,,,,,,,,
html-keyboard-response,170,307205,null,"",null,,word,SUSPECT,,,,,,,,,,,,
html-keyboard-response,171,307409,null,"<div style=""font-size:42px;"">SCULPTURE</div><img id = ""stim"" ><div class = red_square id = bottomsquare></div>",null,encoding,word_square,,,0,bottomsquare,none,true,,,SCULPTURE,0,,,
html-keyboard-response,172,307715,null,"<div style=""font-size:42px;"">SCULPTURE</div>",null,,word,SCULPTURE,,,,,,,,,,,,
html-keyboard-response,173,309220,null,"",null,,word,SCULPTURE,,,,,,,,,,,,
html-keyboard-response,174,309424,null,"<div style=""font-size:42px;"">IDOL</div><img id = ""stim"" ><div class = green_square id = topsquare></div>",null,encoding,word_square,,,1,topsquare,32,true,,,IDOL,0,,,
html-keyboard-response,175,309731,null,"<div style=""font-size:42px;"">IDOL</div>",null,,word,IDOL,,,,,,,,,,,,
html-keyboard-response,176,311238,75,"",32,,word,IDOL,,,,,,,,,,,,
html-keyboard-response,177,311444,null,"<div style=""font-size:42px;"">SCALLOP</div><img id = ""stim"" ><div class = green_square id = bottomsquare></div>",null,encoding,word_square,,,1,bottomsquare,32,true,,,SCALLOP,0,,,
html-keyboard-response,178,311752,null,"<div style=""font-size:42px;"">SCALLOP</div>",null,,word,SCALLOP,,,,,,,,,,,,
html-keyboard-response,179,313269,73,"",32,,word,SCALLOP,,,,,,,,,,,,
html-keyboard-response,180,313480,null,"<div style=""font-size:42px;"">COWBOY</div><img id = ""stim"" ><div class = green_square id = topsquare></div>",null,encoding,word_square,,,1,topsquare,32,true,,,COWBOY,0,,,
html-keyboard-response,181,313796,null,"<div style=""font-size:42px;"">COWBOY</div>",null,,word,COWBOY,,,,,,,,,,,,
html-keyboard-response,182,315301,265,"",32,,word,COWBOY,,,,,,,,,,,,
html-keyboard-response,183,315509,null,"<div style=""font-size:42px;"">FIDDLE</div><img id = ""stim"" ><div class = red_square id = topsquare></div>",null,encoding,word_square,,,0,topsquare,none,true,,,FIDDLE,0,,,
html-keyboard-response,184,315821,null,"<div style=""font-size:42px;"">FIDDLE</div>",null,,word,FIDDLE,,,,,,,,,,,,
html-keyboard-response,185,317336,null,"",null,,word,FIDDLE,,,,,,,,,,,,
html-keyboard-response,186,317549,null,"<div style=""font-size:42px;"">ROBOT</div><img id = ""stim"" ><div class = red_square id = bottomsquare></div>",null,encoding,word_square,,,0,bottomsquare,none,true,,,ROBOT,0,,,
html-keyboard-response,187,317853,null,"<div style=""font-size:42px;"">ROBOT</div>",null,,word,ROBOT,,,,,,,,,,,,
html-keyboard-response,188,319365,null,"",null,,word,ROBOT,,,,,,,,,,,,
html-keyboard-response,189,319569,null,"<div style=""font-size:42px;"">ATTIRE</div><img id = ""stim"" ><div class = green_square id = bottomsquare></div>",null,encoding,word_square,,,1,bottomsquare,32,true,,,ATTIRE,0,,,
html-keyboard-response,190,319874,null,"<div style=""font-size:42px;"">ATTIRE</div>",null,,word,ATTIRE,,,,,,,,,,,,
html-keyboard-response,191,321390,41,"",32,,word,ATTIRE,,,,,,,,,,,,
html-keyboard-response,192,321611,null,"<div style=""font-size:42px;"">SHELTER</div><img id = ""stim"" ><div class = red_square id = topsquare></div>",null,encoding,word_square,,,0,topsquare,none,false,,,SHELTER,0,,,
html-keyboard-response,193,321930,null,"<div style=""font-size:42px;"">SHELTER</div>",null,,word,SHELTER,,,,,,,,,,,,
html-keyboard-response,194,323440,194,"",32,,word,SHELTER,,,,,,,,,,,,
call-function,195,323442,,"",,,,,,,,,,,,,,,,
html-keyboard-response,196,323550,null,"",null,,,,,,,,,,,,,,,
math-period,197,326855,9196,"",,,,,,,,,,,5',,,,,
html-keyboard-response,198,326968,null,"",null,,,,,,,,,,,,,,,
math-period,199,328671,2985,"",,,,,,,,,,,4,,,,,
html-keyboard-response,200,328777,null,"",null,,,,,,,,,,,,,,,
math-period,201,330930,3979,"",,,,,,,,,,,1,,,,,
html-keyboard-response,202,331035,null,"",null,,,,,,,,,,,,,,,
math-period,203,332597,2877,"",,,,,,,,,,,2,,,,,
html-keyboard-response,204,332715,null,"",null,,,,,,,,,,,,,,,
math-period,205,334047,2435,"",,,,,,,,,,,3,,,,,
html-keyboard-response,206,334154,null,"",null,,,,,,,,,,,,,,,
math-period,207,336953,9045,"",,,,,,,,,,,4,,,,,
html-keyboard-response,208,337059,null,"",null,,,,,,,,,,,,,,,
math-period,209,342528,10668,"",,,,,,,,,,,3,,,,,
html-keyboard-response,210,342640,null,"",null,,,,,,,,,,,,,,,
math-period,211,345353,5205,"",,,,,,,,,,,2,,,,,
html-keyboard-response,212,345465,null,"",null,,,,,,,,,,,,,,,
math-period,213,347086,3042,"",,,,,,,,,,,5,,,,,
html-keyboard-response,214,347200,null,"",null,,,,,,,,,,,,,,,
math-period,215,347449,null,"",,,,,,,,,,,,,,,,
html-keyboard-response,216,348455,null,"Recall Period!",null,,,,,,,,,,,,,,,
call-function,217,348456,,"",,,,,,,,,,,,,,,,
html-keyboard-response,218,348566,null,"",null,,,,,,,,,,,,,,,
recall-period,219,352181,26106,"",,,,,,,,,,,attire,,,,,
html-keyboard-response,220,352294,null,"",null,,,,,,,,,,,,,,,
recall-period,221,353960,8317,"",,,,,,,,,,,shelter,,,,,
html-keyboard-response,222,354073,null,"",null,,,,,,,,,,,,,,,
recall-period,223,354742,1276,"",,,,,,,,,,,dog,,,,,
html-keyboard-response,224,354849,null,"",null,,,,,,,,,,,,,,,
recall-period,225,360694,39936,"",,,,,,,,,,,burglar,,,,,
html-keyboard-response,226,360806,null,"",null,,,,,,,,,,,,,,,
recall-period,227,362298,5697,"",,,,,,,,,,,suspect,,,,,
html-keyboard-response,228,362406,null,"",null,,,,,,,,,,,,,,,
recall-period,229,367626,19567,"",,,,,,,,,,,cod,,,,,
html-keyboard-response,230,367738,null,"",null,,,,,,,,,,,,,,,
recall-period,231,372871,39135,"",,,,,,,,,,,suitcase,,,,,
html-keyboard-response,232,372985,null,"",null,,,,,,,,,,,,,,,
recall-period,233,380691,43333,"",,,,,,,,,,,banjo,,,,,
html-keyboard-response,234,380799,null,"",null,,,,,,,,,,,,,,,
recall-period,235,423469,null,"",,,,,,,,,,,,,,,,
html-keyboard-response,236,423974,null,"Time's Up!",null,,,,,,,,,,,,,,,
html-keyboard-response,237,427513,3535,"<p> Good job! You have responded correctly to 94% of the trials. </p>
                      <p>Be sure to only press the spacebar if you see a GREEN square, and please keep your accuracy above 80%.</p>
                      <p> Press any key to continue the experiment. </p>",32,,,,,,,,,,,,,,,
html-keyboard-response,238,428272,756,"<div style=""font-size:48px;"">Press any key to begin list 2 of 16 </div>",32,,,,,,,,,,,,,,,
html-keyboard-response,239,430791,null,"<div style=""font-size:60px;"">+</div>",null,,,,,,,,,,,,,,,
html-keyboard-response,240,431002,null,"<div style=""font-size:42px;"">BLUEPRINT</div><img id = ""stim"" ><div class = red_square id = topsquare></div>",null,encoding,word_square,,,0,topsquare,none,true,,,BLUEPRINT,1,,,
html-keyboard-response,241,431310,null,"<div style=""font-size:42px;"">BLUEPRINT</div>",null,,word,BLUEPRINT,,,,,,,,,,,,
html-keyboard-response,242,432821,null,"",null,,word,BLUEPRINT,,,,,,,,,,,,
html-keyboard-response,243,433031,null,"<div style=""font-size:42px;"">PICTURE</div><img id = ""stim"" ><div class = green_square id = bottomsquare></div>",null,encoding,word_square,,,1,bottomsquare,32,true,,,PICTURE,1,,,
html-keyboard-response,244,433335,null,"<div style=""font-size:42px;"">PICTURE</div>",null,,word,PICTURE,,,,,,,,,,,,
html-keyboard-response,245,434840,54,"",32,,word,PICTURE,,,,,,,,,,,,
html-keyboard-response,246,435055,null,"<div style=""font-size:42px;"">SURVEY</div><img id = ""stim"" ><div class = red_square id = bottomsquare></div>",null,encoding,word_square,,,0,bottomsquare,none,true,,,SURVEY,1,,,
html-keyboard-response,247,435358,null,"<div style=""font-size:42px;"">SURVEY</div>",null,,word,SURVEY,,,,,,,,,,,,
html-keyboard-response,248,436869,null,"",null,,word,SURVEY,,,,,,,,,,,,
html-keyboard-response,249,437075,null,"<div style=""font-size:42px;"">PAPER</div><img id = ""stim"" ><div class = red_square id = topsquare></div>",null,encoding,word_square,,,0,topsquare,none,true,,,PAPER,1,,,
html-keyboard-response,250,437385,null,"<div style=""font-size:42px;"">PAPER</div>",null,,word,PAPER,,,,,,,,,,,,
html-keyboard-response,251,438894,null,"",null,,word,PAPER,,,,,,,,,,,,
html-keyboard-response,252,439110,null,"<div style=""font-size:42px;"">SUPPER</div><img id = ""stim"" ><div class = green_square id = topsquare></div>",null,encoding,word_square,,,1,topsquare,32,true,,,SUPPER,1,,,
html-keyboard-response,253,439424,241,"<div style=""font-size:42px;"">SUPPER</div>",32,,word,SUPPER,,,,,,,,,,,,
html-keyboard-response,254,440941,null,"",null,,word,SUPPER,,,,,,,,,,,,
html-keyboard-response,255,441145,null,"<div style=""font-size:42px;"">BANQUET</div><img id = ""stim"" ><div class = green_square id = bottomsquare></div>",null,encoding,word_square,,,1,bottomsquare,32,true,,,BANQUET,1,,,
html-keyboard-response,256,441459,null,"<div style=""font-size:42px;"">BANQUET</div>",null,,word,BANQUET,,,,,,,,,,,,
html-keyboard-response,257,442964,161,"",32,,word,BANQUET,,,,,,,,,,,,
html-keyboard-response,258,443182,null,"<div style=""font-size:42px;"">BINDER</div><img id = ""stim"" ><div class = green_square id = topsquare></div>",null,encoding,word_square,,,1,topsquare,32,true,,,BINDER,1,,,
html-keyboard-response,259,443494,null,"<div style=""font-size:42px;"">BINDER</div>",null,,word,BINDER,,,,,,,,,,,,
html-keyboard-response,260,445010,111,"",32,,word,BINDER,,,,,,,,,,,,
html-keyboard-response,261,445219,null,"<div style=""font-size:42px;"">NEPHEW</div><img id = ""stim"" ><div class = red_square id = bottomsquare></div>",null,encoding,word_square,,,0,bottomsquare,none,true,,,NEPHEW,1,,,
html-keyboard-response,262,445525,null,"<div style=""font-size:42px;"">NEPHEW</div>",null,,word,NEPHEW,,,,,,,,,,,,
html-keyboard-response,263,447029,null,"",null,,word,NEPHEW,,,,,,,,,,,,
html-keyboard-response,264,447245,null,"<div style=""font-size:42px;"">DOCTOR</div><img id = ""stim"" ><div class = red_square id = topsquare></div>",null,encoding,word_square,,,0,topsquare,none,true,,,DOCTOR,1,,,
html-keyboard-response,265,447550,null,"<div style=""font-size:42px;"">DOCTOR</div>",null,,word,DOCTOR,,,,,,,,,,,,
html-keyboard-response,266,449065,null,"",null,,word,DOCTOR,,,,,,,,,,,,
html-keyboard-response,267,449279,null,"<div style=""font-size:42px;"">PIZZA</div><img id = ""stim"" ><div class = green_square id = bottomsquare></div>",null,encoding,word_square,,,1,bottomsquare,32,true,,,PIZZA,1,,,
html-keyboard-response,268,449591,null,"<div style=""font-size:42px;"">PIZZA</div>",null,,word,PIZZA,,,,,,,,,,,,
html-keyboard-response,269,451103,52,"",32,,word,PIZZA,,,,,,,,,,,,
html-keyboard-response,270,451309,null,"<div style=""font-size:42px;"">SAUSAGE</div><img id = ""stim"" ><div class = red_square id = bottomsquare></div>",null,encoding,word_square,,,0,bottomsquare,none,true,,,SAUSAGE,1,,,
html-keyboard-response,271,451621,null,"<div style=""font-size:42px;"">SAUSAGE</div>",null,,word,SAUSAGE,,,,,,,,,,,,
html-keyboard-response,272,453130,null,"",null,,word,SAUSAGE,,,,,,,,,,,,
html-keyboard-response,273,453335,null,"<div style=""font-size:42px;"">COMPASS</div><img id = ""stim"" ><div class = red_square id = topsquare></div>",null,encoding,word_square,,,0,topsquare,none,true,,,COMPASS,1,,,
html-keyboard-response,274,453644,null,"<div style=""font-size:42px;"">COMPASS</div>",null,,word,COMPASS,,,,,,,,,,,,
html-keyboard-response,275,455156,null,"",null,,word,COMPASS,,,,,,,,,,,,
html-keyboard-response,276,455364,null,"<div style=""font-size:42px;"">DRILL</div><img id = ""stim"" ><div class = green_square id = topsquare></div>",null,encoding,word_square,,,1,topsquare,32,true,,,DRILL,1,,,
html-keyboard-response,277,455680,null,"<div style=""font-size:42px;"">DRILL</div>",null,,word,DRILL,,,,,,,,,,,,
html-keyboard-response,278,457183,157,"",32,,word,DRILL,,,,,,,,,,,,
html-keyboard-response,279,457390,null,"<div style=""font-size:42px;"">MATCH</div><img id = ""stim"" ><div class = red_square id = bottomsquare></div>",null,encoding,word_square,,,0,bottomsquare,none,true,,,MATCH,1,,,
html-keyboard-response,280,457695,null,"<div style=""font-size:42px;"">MATCH</div>",null,,word,MATCH,,,,,,,,,,,,
html-keyboard-response,281,459199,null,"",null,,word,MATCH,,,,,,,,,,,,
html-keyboard-response,282,459414,null,"<div style=""font-size:42px;"">DOLPHIN</div><img id = ""stim"" ><div class = green_square id = bottomsquare></div>",null,encoding,word_square,,,1,bottomsquare,32,true,,,DOLPHIN,1,,,
html-keyboard-response,283,459728,299,"<div style=""font-size:42px;"">DOLPHIN</div>",32,,word,DOLPHIN,,,,,,,,,,,,
html-keyboard-response,284,461241,null,"",null,,word,DOLPHIN,,,,,,,,,,,,
html-keyboard-response,285,461444,null,"<div style=""font-size:42px;"">BELT</div><img id = ""stim"" ><div class = green_square id = topsquare></div>",null,encoding,word_square,,,1,topsquare,32,true,,,BELT,1,,,
html-keyboard-response,286,461749,null,"<div style=""font-size:42px;"">BELT</div>",null,,word,BELT,,,,,,,,,,,,
html-keyboard-response,287,463260,166,"",32,,word,BELT,,,,,,,,,,,,
call-function,288,463262,,"",,,,,,,,,,,,,,,,
html-keyboard-response,289,463369,null,"",null,,,,,,,,,,,,,,,
math-period,290,465520,3508,"",,,,,,,,,,,3,,,,,
html-keyboard-response,291,465629,null,"",null,,,,,,,,,,,,,,,
math-period,292,467590,3630,"",,,,,,,,,,,4,,,,,
html-keyboard-response,293,467704,null,"",null,,,,,,,,,,,,,,,
math-period,294,469536,3483,"",,,,,,,,,,,2,,,,,
html-keyboard-response,295,469645,null,"",null,,,,,,,,,,,,,,,
math-period,296,473256,7047,"",,,,,,,,,,,2,,,,,
html-keyboard-response,297,473360,null,"",null,,,,,,,,,,,,,,,
math-period,298,474851,2813,"",,,,,,,,,,,4,,,,,
html-keyboard-response,299,474959,null,"",null,,,,,,,,,,,,,,,
math-period,300,477207,4223,"",,,,,,,,,,,2,,,,,
html-keyboard-response,301,477316,null,"",null,,,,,,,,,,,,,,,
math-period,302,478666,2484,"",,,,,,,,,,,2,,,,,
html-keyboard-response,303,478773,null,"",null,,,,,,,,,,,,,,,
math-period,304,480204,2615,"",,,,,,,,,,,5,,,,,
html-keyboard-response,305,480319,null,"",null,,,,,,,,,,,,,,,
math-period,306,485876,10790,"",,,,,,,,,,,0,,,,,
html-keyboard-response,307,485988,null,"",null,,,,,,,,,,,,,,,
math-period,308,487265,null,"",,,,,,,,,,,,,,,,
html-keyboard-response,309,488275,null,"Recall Period!",null,,,,,,,,,,,,,,,
call-function,310,488277,,"",,,,,,,,,,,,,,,,
html-keyboard-response,311,488387,null,"",null,,,,,,,,,,,,,,,
recall-period,312,491271,17136,"",,,,,,,,,,,dolphin,,,,,
html-keyboard-response,313,491381,null,"",null,,,,,,,,,,,,,,,
recall-period,314,493156,4767,"",,,,,,,,,,,doctor,,,,,
html-keyboard-response,315,493265,null,"",null,,,,,,,,,,,,,,,
recall-period,316,494971,4603,"",,,,,,,,,,,belt,,,,,
html-keyboard-response,317,495073,null,"",null,,,,,,,,,,,,,,,
recall-period,318,498720,17930,"",,,,,,,,,,,pizza,,,,,
html-keyboard-response,319,498829,null,"",null,,,,,,,,,,,,,,,
recall-period,320,503860,43375,"",,,,,,,,,,,blueprint,,,,,
html-keyboard-response,321,503965,null,"",null,,,,,,,,,,,,,,,
recall-period,322,506820,7420,"",,,,,,,,,,,photo,,,,,
html-keyboard-response,323,506924,null,"",null,,,,,,,,,,,,,,,
recall-period,324,515302,53881,"",,,,,,,,,,,doctor,,,,,
html-keyboard-response,325,515410,null,"",null,,,,,,,,,,,,,,,
recall-period,326,524071,60172,"",,,,,,,,,,,sausage,,,,,
html-keyboard-response,327,524183,null,"",null,,,,,,,,,,,,,,,
recall-period,328,563286,null,"",,,,,,,,,,,,,,,,
html-keyboard-response,329,563798,null,"Time's Up!",null,,,,,,,,,,,,,,,
html-keyboard-response,330,566442,2640,"<p> Good job! You have responded correctly to 97% of the trials. </p>
                      <p>Be sure to only press the spacebar if you see a GREEN square, and please keep your accuracy above 80%.</p>
                      <p> Press any key to continue the experiment. </p>",32,,,,,,,,,,,,,,,
html-keyboard-response,331,567067,623,"<div style=""font-size:48px;"">Press any key to begin list 3 of 16 </div>",32,,,,,,,,,,,,,,,
html-keyboard-response,332,569590,null,"<div style=""font-size:60px;"">+</div>",null,,,,,,,,,,,,,,,
html-keyboard-response,333,569800,null,"<div style=""font-size:42px;"">ROCKET</div><img id = ""stim"" ><div class = red_square id = bottomsquare></div>",null,encoding,word_square,,,0,bottomsquare,none,true,,,ROCKET,2,,,
html-keyboard-response,334,570112,null,"<div style=""font-size:42px;"">ROCKET</div>",null,,word,ROCKET,,,,,,,,,,,,
html-keyboard-response,335,571625,null,"",null,,word,ROCKET,,,,,,,,,,,,
html-keyboard-response,336,571834,null,"<div style=""font-size:42px;"">MISSILE</div><img id = ""stim"" ><div class = red_square id = topsquare></div>",null,encoding,word_square,,,0,topsquare,none,true,,,MISSILE,2,,,
html-keyboard-response,337,572140,null,"<div style=""font-size:42px;"">MISSILE</div>",null,,word,MISSILE,,,,,,,,,,,,
html-keyboard-response,338,573644,null,"",null,,word,MISSILE,,,,,,,,,,,,
html-keyboard-response,339,573857,null,"<div style=""font-size:42px;"">WIDOW</div><img id = ""stim"" ><div class = green_square id = topsquare></div>",null,encoding,word_square,,,1,topsquare,32,true,,,WIDOW,2,,,
html-keyboard-response,340,574171,null,"<div style=""font-size:42px;"">WIDOW</div>",null,,word,WIDOW,,,,,,,,,,,,
html-keyboard-response,341,575684,12,"",32,,word,WIDOW,,,,,,,,,,,,
html-keyboard-response,342,575899,null,"<div style=""font-size:42px;"">MILDEW</div><img id = ""stim"" ><div class = red_square id = bottomsquare></div>",null,encoding,word_square,,,0,bottomsquare,none,true,,,MILDEW,2,,,
html-keyboard-response,343,576212,null,"<div style=""font-size:42px;"">MILDEW</div>",null,,word,MILDEW,,,,,,,,,,,,
html-keyboard-response,344,577730,null,"",null,,word,MILDEW,,,,,,,,,,,,
html-keyboard-response,345,577940,null,"<div style=""font-size:42px;"">SPHINX</div><img id = ""stim"" ><div class = green_square id = bottomsquare></div>",null,encoding,word_square,,,1,bottomsquare,32,true,,,SPHINX,2,,,
html-keyboard-response,346,578248,null,"<div style=""font-size:42px;"">SPHINX</div>",null,,word,SPHINX,,,,,,,,,,,,
html-keyboard-response,347,579764,170,"",32,,word,SPHINX,,,,,,,,,,,,
html-keyboard-response,348,579978,null,"<div style=""font-size:42px;"">MARINE</div><img id = ""stim"" ><div class = green_square id = topsquare></div>",null,encoding,word_square,,,1,topsquare,32,true,,,MARINE,2,,,
html-keyboard-response,349,580288,null,"<div style=""font-size:42px;"">MARINE</div>",null,,word,MARINE,,,,,,,,,,,,
html-keyboard-response,350,581804,87,"",32,,word,MARINE,,,,,,,,,,,,
html-keyboard-response,351,582009,null,"<div style=""font-size:42px;"">STONE</div><img id = ""stim"" ><div class = red_square id = topsquare></div>",null,encoding,word_square,,,0,topsquare,none,true,,,STONE,2,,,
html-keyboard-response,352,582317,null,"<div style=""font-size:42px;"">STONE</div>",null,,word,STONE,,,,,,,,,,,,
html-keyboard-response,353,583830,null,"",null,,word,STONE,,,,,,,,,,,,
html-keyboard-response,354,584047,null,"<div style=""font-size:42px;"">ALMOND</div><img id = ""stim"" ><div class = green_square id = bottomsquare></div>",null,encoding,word_square,,,1,bottomsquare,32,true,,,ALMOND,2,,,
html-keyboard-response,355,584354,null,"<div style=""font-size:42px;"">ALMOND</div>",null,,word,ALMOND,,,,,,,,,,,,
html-keyboard-response,356,585868,100,"",32,,word,ALMOND,,,,,,,,,,,,
html-keyboard-response,357,586078,null,"<div style=""font-size:42px;"">CRYSTAL</div><img id = ""stim"" ><div class = green_square id = topsquare></div>",null,encoding,word_square,,,1,topsquare,32,true,,,CRYSTAL,2,,,
html-keyboard-response,358,586384,null,"<div style=""font-size:42px;"">CRYSTAL</div>",null,,word,CRYSTAL,,,,,,,,,,,,
html-keyboard-response,359,587899,137,"",32,,word,CRYSTAL,,,,,,,,,,,,
html-keyboard-response,360,588114,null,"<div style=""font-size:42px;"">LOVER</div><img id = ""stim"" ><div class = red_square id = bottomsquare></div>",null,encoding,word_square,,,0,bottomsquare,none,false,,,LOVER,2,,,
html-keyboard-response,361,588422,null,"<div style=""font-size:42px;"">LOVER</div>",null,,word,LOVER,,,,,,,,,,,,
html-keyboard-response,362,589932,717,"",32,,word,LOVER,,,,,,,,,,,,
html-keyboard-response,363,590141,null,"<div style=""font-size:42px;"">STOCKING</div><img id = ""stim"" ><div class = red_square id = topsquare></div>",null,encoding,word_square,,,0,topsquare,none,true,,,STOCKING,2,,,
html-keyboard-response,364,590450,null,"<div style=""font-size:42px;"">STOCKING</div>",null,,word,STOCKING,,,,,,,,,,,,
html-keyboard-response,365,591959,null,"",null,,word,STOCKING,,,,,,,,,,,,
html-keyboard-response,366,592169,null,"<div style=""font-size:42px;"">TAXI</div><img id = ""stim"" ><div class = red_square id = bottomsquare></div>",null,encoding,word_square,,,0,bottomsquare,none,true,,,TAXI,2,,,
html-keyboard-response,367,592484,null,"<div style=""font-size:42px;"">TAXI</div>",null,,word,TAXI,,,,,,,,,,,,
html-keyboard-response,368,593988,null,"",null,,word,TAXI,,,,,,,,,,,,
html-keyboard-response,369,594199,null,"<div style=""font-size:42px;"">HIKER</div><img id = ""stim"" ><div class = green_square id = bottomsquare></div>",null,encoding,word_square,,,1,bottomsquare,32,true,,,HIKER,2,,,
html-keyboard-response,370,594504,null,"<div style=""font-size:42px;"">HIKER</div>",null,,word,HIKER,,,,,,,,,,,,
html-keyboard-response,371,596020,222,"",32,,word,HIKER,,,,,,,,,,,,
html-keyboard-response,372,596233,null,"<div style=""font-size:42px;"">SATURN</div><img id = ""stim"" ><div class = green_square id = topsquare></div>",null,encoding,word_square,,,1,topsquare,32,true,,,SATURN,2,,,
html-keyboard-response,373,596549,null,"<div style=""font-size:42px;"">SATURN</div>",null,,word,SATURN,,,,,,,,,,,,
html-keyboard-response,374,598056,202,"",32,,word,SATURN,,,,,,,,,,,,
html-keyboard-response,375,598262,null,"<div style=""font-size:42px;"">SERPENT</div><img id = ""stim"" ><div class = red_square id = topsquare></div>",null,encoding,word_square,,,0,topsquare,none,true,,,SERPENT,2,,,
html-keyboard-response,376,598565,null,"<div style=""font-size:42px;"">SERPENT</div>",null,,word,SERPENT,,,,,,,,,,,,
html-keyboard-response,377,600081,null,"",null,,word,SERPENT,,,,,,,,,,,,
html-keyboard-response,378,600288,null,"<div style=""font-size:42px;"">EGYPT</div><img id = ""stim"" ><div class = green_square id = bottomsquare></div>",null,encoding,word_square,,,1,bottomsquare,32,true,,,EGYPT,2,,,
html-keyboard-response,379,600599,null,"<div style=""font-size:42px;"">EGYPT</div>",null,,word,EGYPT,,,,,,,,,,,,
html-keyboard-response,380,602103,840,"",32,,word,EGYPT,,,,,,,,,,,,
call-function,381,602104,,"",,,,,,,,,,,,,,,,
html-keyboard-response,382,602214,null,"",null,,,,,,,,,,,,,,,
math-period,383,604425,3736,"",,,,,,,,,,,2,,,,,
html-keyboard-response,384,604533,null,"",null,,,,,,,,,,,,,,,
math-period,385,606381,3382,"",,,,,,,,,,,1,,,,,
html-keyboard-response,386,606492,null,"",null,,,,,,,,,,,,,,,
math-period,387,612168,11093,"",,,,,,,,,,,3,,,,,
html-keyboard-response,388,612287,null,"",null,,,,,,,,,,,,,,,
math-period,389,613753,2587,"",,,,,,,,,,,3,,,,,
html-keyboard-response,390,613859,null,"",null,,,,,,,,,,,,,,,
math-period,391,616402,4871,"",,,,,,,,,,,5,,,,,
html-keyboard-response,392,616514,null,"",null,,,,,,,,,,,,,,,
math-period,393,620173,6913,"",,,,,,,,,,,3,,,,,
html-keyboard-response,394,620283,null,"",null,,,,,,,,,,,,,,,
math-period,395,622177,3503,"",,,,,,,,,,,4,,,,,
html-keyboard-response,396,622284,null,"",null,,,,,,,,,,,,,,,
math-period,397,626115,null,"",,,,,,,,,,,,,,,,
html-keyboard-response,398,627120,null,"Recall Period!",null,,,,,,,,,,,,,,,
call-function,399,627123,,"",,,,,,,,,,,,,,,,
html-keyboard-response,400,627234,null,"",null,,,,,,,,,,,,,,,
recall-period,401,629384,10651,"",,,,,,,,,,,almond,,,,,
html-keyboard-response,402,629489,null,"",null,,,,,,,,,,,,,,,
recall-period,403,631439,7002,"",,,,,,,,,,,sphinx,,,,,
html-keyboard-response,404,631544,null,"",null,,,,,,,,,,,,,,,
recall-period,405,633705,10690,"",,,,,,,,,,,serpent,,,,,
html-keyboard-response,406,633821,null,"",null,,,,,,,,,,,,,,,
recall-period,407,636267,8658,"",,,,,,,,,,,egypt,,,,,
html-keyboard-response,408,636378,null,"",null,,,,,,,,,,,,,,,
recall-period,409,646240,64169,"",,,,,,,,,,,mildew,,,,,
html-keyboard-response,410,646350,null,"",null,,,,,,,,,,,,,,,
recall-period,411,660558,107730,"",,,,,,,,,,,crystal,,,,,
html-keyboard-response,412,660671,null,"",null,,,,,,,,,,,,,,,
recall-period,413,695574,341633,"",,,,,,,,,,,fireplace,,,,,
html-keyboard-response,414,695690,null,"",null,,,,,,,,,,,,,,,
recall-period,415,702135,null,"",,,,,,,,,,,,,,,,
html-keyboard-response,416,702645,null,"Time's Up!",null,,,,,,,,,,,,,,,
html-keyboard-response,417,705411,2763,"<p> Good job! You have responded correctly to 96% of the trials. </p>
                      <p>Be sure to only press the spacebar if you see a GREEN square, and please keep your accuracy above 80%.</p>
                      <p> Press any key to continue the experiment. </p>",32,,,,,,,,,,,,,,,
html-keyboard-response,418,708028,2614,"<div style=""font-size:48px;"">Press any key to begin list 4 of 16 </div>",32,,,,,,,,,,,,,,,
html-keyboard-response,419,710547,null,"<div style=""font-size:60px;"">+</div>",null,,,,,,,,,,,,,,,
html-keyboard-response,420,710761,null,"<div style=""font-size:42px;"">CYCLONE</div><img id = ""stim"" ><div class = green_square id = bottomsquare></div>",null,encoding,word_square,,,1,bottomsquare,32,true,,,CYCLONE,3,,,
html-keyboard-response,421,711066,null,"<div style=""font-size:42px;"">CYCLONE</div>",null,,word,CYCLONE,,,,,,,,,,,,
html-keyboard-response,422,712574,104,"",32,,word,CYCLONE,,,,,,,,,,,,
html-keyboard-response,423,712784,null,"<div style=""font-size:42px;"">CRITIC</div><img id = ""stim"" ><div class = red_square id = topsquare></div>",null,encoding,word_square,,,0,topsquare,none,true,,,CRITIC,3,,,
html-keyboard-response,424,713089,null,"<div style=""font-size:42px;"">CRITIC</div>",null,,word,CRITIC,,,,,,,,,,,,
html-keyboard-response,425,714601,null,"",null,,word,CRITIC,,,,,,,,,,,,
html-keyboard-response,426,714807,null,"<div style=""font-size:42px;"">SHELF</div><img id = ""stim"" ><div class = green_square id = topsquare></div>",null,encoding,word_square,,,1,topsquare,32,true,,,SHELF,3,,,
html-keyboard-response,427,715113,null,"<div style=""font-size:42px;"">SHELF</div>",null,,word,SHELF,,,,,,,,,,,,
html-keyboard-response,428,716623,165,"",32,,word,SHELF,,,,,,,,,,,,
html-keyboard-response,429,716831,null,"<div style=""font-size:42px;"">SUMMIT</div><img id = ""stim"" ><div class = green_square id = bottomsquare></div>",null,encoding,word_square,,,1,bottomsquare,32,true,,,SUMMIT,3,,,
html-keyboard-response,430,717139,null,"<div style=""font-size:42px;"">SUMMIT</div>",null,,word,SUMMIT,,,,,,,,,,,,
html-keyboard-response,431,718654,368,"",32,,word,SUMMIT,,,,,,,,,,,,
html-keyboard-response,432,718864,null,"<div style=""font-size:42px;"">BRAKE</div><img id = ""stim"" ><div class = red_square id = bottomsquare></div>",null,encoding,word_square,,,0,bottomsquare,none,true,,,BRAKE,3,,,
html-keyboard-response,433,719179,null,"<div style=""font-size:42px;"">BRAKE</div>",null,,word,BRAKE,,,,,,,,,,,,
html-keyboard-response,434,720694,null,"",null,,word,BRAKE,,,,,,,,,,,,
html-keyboard-response,435,720905,null,"<div style=""font-size:42px;"">COUSIN</div><img id = ""stim"" ><div class = red_square id = topsquare></div>",null,encoding,word_square,,,0,topsquare,none,true,,,COUSIN,3,,,
html-keyboard-response,436,721211,null,"<div style=""font-size:42px;"">COUSIN</div>",null,,word,COUSIN,,,,,,,,,,,,
html-keyboard-response,437,722720,null,"",null,,word,COUSIN,,,,,,,,,,,,
html-keyboard-response,438,722934,null,"<div style=""font-size:42px;"">POND</div><img id = ""stim"" ><div class = red_square id = bottomsquare></div>",null,encoding,word_square,,,0,bottomsquare,none,true,,,POND,3,,,
html-keyboard-response,439,723238,null,"<div style=""font-size:42px;"">POND</div>",null,,word,POND,,,,,,,,,,,,
html-keyboard-response,440,724754,null,"",null,,word,POND,,,,,,,,,,,,
html-keyboard-response,441,724965,null,"<div style=""font-size:42px;"">TIGER</div><img id = ""stim"" ><div class = green_square id = topsquare></div>",null,encoding,word_square,,,1,topsquare,32,true,,,TIGER,3,,,
html-keyboard-response,442,725279,null,"<div style=""font-size:42px;"">TIGER</div>",null,,word,TIGER,,,,,,,,,,,,
html-keyboard-response,443,726785,94,"",32,,word,TIGER,,,,,,,,,,,,
html-keyboard-response,444,726988,null,"<div style=""font-size:42px;"">JOKER</div><img id = ""stim"" ><div class = green_square id = bottomsquare></div>",null,encoding,word_square,,,1,bottomsquare,32,true,,,JOKER,3,,,
html-keyboard-response,445,727304,null,"<div style=""font-size:42px;"">JOKER</div>",null,,word,JOKER,,,,,,,,,,,,
html-keyboard-response,446,728819,222,"",32,,word,JOKER,,,,,,,,,,,,
html-keyboard-response,447,729025,null,"<div style=""font-size:42px;"">REINDEER</div><img id = ""stim"" ><div class = red_square id = topsquare></div>",null,encoding,word_square,,,0,topsquare,none,true,,,REINDEER,3,,,
html-keyboard-response,448,729335,null,"<div style=""font-size:42px;"">REINDEER</div>",null,,word,REINDEER,,,,,,,,,,,,
html-keyboard-response,449,730845,null,"",null,,word,REINDEER,,,,,,,,,,,,
html-keyboard-response,450,731054,null,"<div style=""font-size:42px;"">BUG</div><img id = ""stim"" ><div class = green_square id = topsquare></div>",null,encoding,word_square,,,1,topsquare,32,true,,,BUG,3,,,
html-keyboard-response,451,731369,null,"<div style=""font-size:42px;"">BUG</div>",null,,word,BUG,,,,,,,,,,,,
html-keyboard-response,452,732880,467,"",32,,word,BUG,,,,,,,,,,,,
html-keyboard-response,453,733094,null,"<div style=""font-size:42px;"">SPIDER</div><img id = ""stim"" ><div class = green_square id = bottomsquare></div>",null,encoding,word_square,,,1,bottomsquare,32,true,,,SPIDER,3,,,
html-keyboard-response,454,733409,null,"<div style=""font-size:42px;"">SPIDER</div>",null,,word,SPIDER,,,,,,,,,,,,
html-keyboard-response,455,734919,628,"",32,,word,SPIDER,,,,,,,,,,,,
html-keyboard-response,456,735129,null,"<div style=""font-size:42px;"">BROTHER</div><img id = ""stim"" ><div class = red_square id = bottomsquare></div>",null,encoding,word_square,,,0,bottomsquare,none,true,,,BROTHER,3,,,
html-keyboard-response,457,735438,null,"<div style=""font-size:42px;"">BROTHER</div>",null,,word,BROTHER,,,,,,,,,,,,
html-keyboard-response,458,736944,null,"",null,,word,BROTHER,,,,,,,,,,,,
html-keyboard-response,459,737160,null,"<div style=""font-size:42px;"">YARD</div><img id = ""stim"" ><div class = green_square id = topsquare></div>",null,encoding,word_square,,,1,topsquare,32,true,,,YARD,3,,,
html-keyboard-response,460,737464,null,"<div style=""font-size:42px;"">YARD</div>",null,,word,YARD,,,,,,,,,,,,
html-keyboard-response,461,738970,282,"",32,,word,YARD,,,,,,,,,,,,
html-keyboard-response,462,739176,null,"<div style=""font-size:42px;"">LONDON</div><img id = ""stim"" ><div class = red_square id = topsquare></div>",null,encoding,word_square,,,0,topsquare,none,true,,,LONDON,3,,,
html-keyboard-response,463,739491,null,"<div style=""font-size:42px;"">LONDON</div>",null,,word,LONDON,,,,,,,,,,,,
html-keyboard-response,464,741001,null,"",null,,word,LONDON,,,,,,,,,,,,
html-keyboard-response,465,741212,null,"<div style=""font-size:42px;"">SCISSORS</div><img id = ""stim"" ><div class = red_square id = bottomsquare></div>",null,encoding,word_square,,,0,bottomsquare,none,true,,,SCISSORS,3,,,
html-keyboard-response,466,741517,null,"<div style=""font-size:42px;"">SCISSORS</div>",null,,word,SCISSORS,,,,,,,,,,,,
html-keyboard-response,467,743024,null,"",null,,word,SCISSORS,,,,,,,,,,,,
call-function,468,743026,,"",,,,,,,,,,,,,,,,
html-keyboard-response,469,743139,null,"",null,,,,,,,,,,,,,,,
math-period,470,745206,3640,"",,,,,,,,,,,5,,,,,
html-keyboard-response,471,745321,null,"",null,,,,,,,,,,,,,,,
math-period,472,748653,6373,"",,,,,,,,,,,2,,,,,
html-keyboard-response,473,748770,null,"",null,,,,,,,,,,,,,,,
math-period,474,750327,2952,"",,,,,,,,,,,3,,,,,
html-keyboard-response,475,750431,null,"",null,,,,,,,,,,,,,,,
math-period,476,751615,2192,"",,,,,,,,,,,3,,,,,
html-keyboard-response,477,751723,null,"",null,,,,,,,,,,,,,,,
math-period,478,753712,3798,"",,,,,,,,,,,2,,,,,
html-keyboard-response,479,753818,null,"",null,,,,,,,,,,,,,,,
math-period,480,755362,2874,"",,,,,,,,,,,4,,,,,
html-keyboard-response,481,755473,null,"",null,,,,,,,,,,,,,,,
math-period,482,756717,2255,"",,,,,,,,,,,3,,,,,
html-keyboard-response,483,756818,null,"",null,,,,,,,,,,,,,,,
math-period,484,759177,4504,"",,,,,,,,,,,3,,,,,
html-keyboard-response,485,759290,null,"",null,,,,,,,,,,,,,,,
math-period,486,761942,4780,"",,,,,,,,,,,1,,,,,
html-keyboard-response,487,762050,null,"",null,,,,,,,,,,,,,,,
math-period,488,763493,2653,"",,,,,,,,,,,3,,,,,
html-keyboard-response,489,763600,null,"",null,,,,,,,,,,,,,,,
math-period,490,767029,null,"",,,,,,,,,,,,,,,,
html-keyboard-response,491,768034,null,"Recall Period!",null,,,,,,,,,,,,,,,
call-function,492,768035,,"",,,,,,,,,,,,,,,,
html-keyboard-response,493,768149,null,"",null,,,,,,,,,,,,,,,
recall-period,494,770483,13972,"",,,,,,,,,,,scissors,,,,,
html-keyboard-response,495,770589,null,"",null,,,,,,,,,,,,,,,
recall-period,496,771959,4462,"",,,,,,,,,,,london,,,,,
html-keyboard-response,497,772062,null,"",null,,,,,,,,,,,,,,,
recall-period,498,772894,2415,"",,,,,,,,,,,pond,,,,,
html-keyboard-response,499,773007,null,"",null,,,,,,,,,,,,,,,
recall-period,500,774132,3997,"",,,,,,,,,,,cousin,,,,,
html-keyboard-response,501,774244,null,"",null,,,,,,,,,,,,,,,
recall-period,502,775303,3131,"",,,,,,,,,,,brother,,,,,
html-keyboard-response,503,775413,null,"",null,,,,,,,,,,,,,,,
recall-period,504,776422,3549,"",,,,,,,,,,,spider,,,,,
html-keyboard-response,505,776530,null,"",null,,,,,,,,,,,,,,,
recall-period,506,777660,1939,"",,,,,,,,,,,bug,,,,,
html-keyboard-response,507,777763,null,"",null,,,,,,,,,,,,,,,
recall-period,508,783995,32109,"",,,,,,,,,,,shelf,,,,,
html-keyboard-response,509,784104,null,"",null,,,,,,,,,,,,,,,
recall-period,510,785472,6026,"",,,,,,,,,,,cyclone,,,,,
html-keyboard-response,511,785578,null,"",null,,,,,,,,,,,,,,,
recall-period,512,803949,89600,"",,,,,,,,,,,pond,,,,,
html-keyboard-response,513,804052,null,"",null,,,,,,,,,,,,,,,
recall-period,514,843047,null,"",,,,,,,,,,,,,,,,
html-keyboard-response,515,843563,null,"Time's Up!",null,,,,,,,,,,,,,,,
html-keyboard-response,516,848372,4805,"<p> Good job! You have responded correctly to 97% of the trials. </p>
                      <p>Be sure to only press the spacebar if you see a GREEN square, and please keep your accuracy above 80%.</p>
                      <p> Press any key to continue the experiment. </p>",32,,,,,,,,,,,,,,,
html-keyboard-response,517,849284,910,"<div style=""font-size:48px;"">Press any key to begin list 5 of 16 </div>",32,,,,,,,,,,,,,,,
html-keyboard-response,518,851800,null,"<div style=""font-size:60px;"">+</div>",null,,,,,,,,,,,,,,,
html-keyboard-response,519,852005,null,"<div style=""font-size:42px;"">MOTHER</div><img id = ""stim"" ><div class = green_square id = topsquare></div>",null,encoding,word_square,,,1,topsquare,32,true,,,MOTHER,4,,,
html-keyboard-response,520,852311,null,"<div style=""font-size:42px;"">MOTHER</div>",null,,word,MOTHER,,,,,,,,,,,,
html-keyboard-response,521,853818,27,"",32,,word,MOTHER,,,,,,,,,,,,
html-keyboard-response,522,854034,null,"<div style=""font-size:42px;"">POWDER</div><img id = ""stim"" ><div class = red_square id = bottomsquare></div>",null,encoding,word_square,,,0,bottomsquare,none,true,,,POWDER,4,,,
html-keyboard-response,523,854340,null,"<div style=""font-size:42px;"">POWDER</div>",null,,word,POWDER,,,,,,,,,,,,
html-keyboard-response,524,855851,null,"",null,,word,POWDER,,,,,,,,,,,,
html-keyboard-response,525,856064,null,"<div style=""font-size:42px;"">QUARTER</div><img id = ""stim"" ><div class = green_square id = bottomsquare></div>",null,encoding,word_square,,,1,bottomsquare,32,true,,,QUARTER,4,,,
html-keyboard-response,526,856369,277,"<div style=""font-size:42px;"">QUARTER</div>",32,,word,QUARTER,,,,,,,,,,,,
html-keyboard-response,527,857873,null,"",null,,word,QUARTER,,,,,,,,,,,,
html-keyboard-response,528,858089,null,"<div style=""font-size:42px;"">COIN</div><img id = ""stim"" ><div class = red_square id = topsquare></div>",null,encoding,word_square,,,0,topsquare,none,true,,,COIN,4,,,
html-keyboard-response,529,858404,null,"<div style=""font-size:42px;"">COIN</div>",null,,word,COIN,,,,,,,,,,,,
html-keyboard-response,530,859910,null,"",null,,word,COIN,,,,,,,,,,,,
html-keyboard-response,531,860120,null,"<div style=""font-size:42px;"">REPORT</div><img id = ""stim"" ><div class = red_square id = bottomsquare></div>",null,encoding,word_square,,,0,bottomsquare,none,true,,,REPORT,4,,,
html-keyboard-response,532,860425,null,"<div style=""font-size:42px;"">REPORT</div>",null,,word,REPORT,,,,,,,,,,,,
html-keyboard-response,533,861933,null,"",null,,word,REPORT,,,,,,,,,,,,
html-keyboard-response,534,862147,null,"<div style=""font-size:42px;"">MEAT</div><img id = ""stim"" ><div class = green_square id = topsquare></div>",null,encoding,word_square,,,1,topsquare,32,true,,,MEAT,4,,,
html-keyboard-response,535,862463,null,"<div style=""font-size:42px;"">MEAT</div>",null,,word,MEAT,,,,,,,,,,,,
html-keyboard-response,536,863980,34,"",32,,word,MEAT,,,,,,,,,,,,
html-keyboard-response,537,864193,null,"<div style=""font-size:42px;"">LIVER</div><img id = ""stim"" ><div class = green_square id = bottomsquare></div>",null,encoding,word_square,,,1,bottomsquare,32,true,,,LIVER,4,,,
html-keyboard-response,538,864499,null,"<div style=""font-size:42px;"">LIVER</div>",null,,word,LIVER,,,,,,,,,,,,
html-keyboard-response,539,866013,27,"",32,,word,LIVER,,,,,,,,,,,,
html-keyboard-response,540,866218,null,"<div style=""font-size:42px;"">FINGER</div><img id = ""stim"" ><div class = green_square id = topsquare></div>",null,encoding,word_square,,,1,topsquare,32,true,,,FINGER,4,,,
html-keyboard-response,541,866524,257,"<div style=""font-size:42px;"">FINGER</div>",32,,word,FINGER,,,,,,,,,,,,
html-keyboard-response,542,868030,null,"",null,,word,FINGER,,,,,,,,,,,,
html-keyboard-response,543,868234,null,"<div style=""font-size:42px;"">MESSAGE</div><img id = ""stim"" ><div class = green_square id = bottomsquare></div>",null,encoding,word_square,,,1,bottomsquare,32,true,,,MESSAGE,4,,,
html-keyboard-response,544,868544,null,"<div style=""font-size:42px;"">MESSAGE</div>",null,,word,MESSAGE,,,,,,,,,,,,
html-keyboard-response,545,870053,201,"",32,,word,MESSAGE,,,,,,,,,,,,
html-keyboard-response,546,870269,null,"<div style=""font-size:42px;"">SNOB</div><img id = ""stim"" ><div class = red_square id = topsquare></div>",null,encoding,word_square,,,0,topsquare,none,true,,,SNOB,4,,,
html-keyboard-response,547,870578,null,"<div style=""font-size:42px;"">SNOB</div>",null,,word,SNOB,,,,,,,,,,,,
html-keyboard-response,548,872084,null,"",null,,word,SNOB,,,,,,,,,,,,
html-keyboard-response,549,872293,null,"<div style=""font-size:42px;"">CIGAR</div><img id = ""stim"" ><div class = green_square id = topsquare></div>",null,encoding,word_square,,,1,topsquare,32,true,,,CIGAR,4,,,
html-keyboard-response,550,872600,null,"<div style=""font-size:42px;"">CIGAR</div>",null,,word,CIGAR,,,,,,,,,,,,
html-keyboard-response,551,874120,295,"",32,,word,CIGAR,,,,,,,,,,,,
html-keyboard-response,552,874340,null,"<div style=""font-size:42px;"">LIPSTICK</div><img id = ""stim"" ><div class = red_square id = bottomsquare></div>",null,encoding,word_square,,,0,bottomsquare,none,true,,,LIPSTICK,4,,,
html-keyboard-response,553,874660,null,"<div style=""font-size:42px;"">LIPSTICK</div>",null,,word,LIPSTICK,,,,,,,,,,,,
html-keyboard-response,554,876169,null,"",null,,word,LIPSTICK,,,,,,,,,,,,
html-keyboard-response,555,876392,null,"<div style=""font-size:42px;"">RODENT</div><img id = ""stim"" ><div class = red_square id = topsquare></div>",null,encoding,word_square,,,0,topsquare,none,true,,,RODENT,4,,,
html-keyboard-response,556,876711,null,"<div style=""font-size:42px;"">RODENT</div>",null,,word,RODENT,,,,,,,,,,,,
html-keyboard-response,557,878229,null,"",null,,word,RODENT,,,,,,,,,,,,
html-keyboard-response,558,878450,null,"<div style=""font-size:42px;"">NOTEBOOK</div><img id = ""stim"" ><div class = green_square id = bottomsquare></div>",null,encoding,word_square,,,1,bottomsquare,32,true,,,NOTEBOOK,4,,,
html-keyboard-response,559,878754,null,"<div style=""font-size:42px;"">NOTEBOOK</div>",null,,word,NOTEBOOK,,,,,,,,,,,,
html-keyboard-response,560,880258,73,"",32,,word,NOTEBOOK,,,,,,,,,,,,
html-keyboard-response,561,880474,null,"<div style=""font-size:42px;"">GUARD</div><img id = ""stim"" ><div class = red_square id = bottomsquare></div>",null,encoding,word_square,,,0,bottomsquare,none,true,,,GUARD,4,,,
html-keyboard-response,562,880790,null,"<div style=""font-size:42px;"">GUARD</div>",null,,word,GUARD,,,,,,,,,,,,
html-keyboard-response,563,882303,null,"",null,,word,GUARD,,,,,,,,,,,,
html-keyboard-response,564,882514,null,"<div style=""font-size:42px;"">ARMY</div><img id = ""stim"" ><div class = red_square id = topsquare></div>",null,encoding,word_square,,,0,topsquare,none,true,,,ARMY,4,,,
html-keyboard-response,565,882820,null,"<div style=""font-size:42px;"">ARMY</div>",null,,word,ARMY,,,,,,,,,,,,
html-keyboard-response,566,884334,null,"",null,,word,ARMY,,,,,,,,,,,,
call-function,567,884337,,"",,,,,,,,,,,,,,,,
html-keyboard-response,568,884449,null,"",null,,,,,,,,,,,,,,,
math-period,569,886035,2863,"",,,,,,,,,,,2,,,,,
html-keyboard-response,570,886151,null,"",null,,,,,,,,,,,,,,,
math-period,571,887330,2172,"",,,,,,,,,,,3,,,,,
html-keyboard-response,572,887443,null,"",null,,,,,,,,,,,,,,,
math-period,573,890582,6102,"",,,,,,,,,,,2,,,,,
html-keyboard-response,574,890693,null,"",null,,,,,,,,,,,,,,,
math-period,575,893856,6094,"",,,,,,,,,,,0,,,,,
html-keyboard-response,576,893960,null,"",null,,,,,,,,,,,,,,,
math-period,577,895289,2423,"",,,,,,,,,,,2,,,,,
html-keyboard-response,578,895403,null,"",null,,,,,,,,,,,,,,,
math-period,579,897320,3554,"",,,,,,,,,,,4,,,,,
html-keyboard-response,580,897435,null,"",null,,,,,,,,,,,,,,,
math-period,581,898998,2844,"",,,,,,,,,,,5,,,,,
html-keyboard-response,582,899111,null,"",null,,,,,,,,,,,,,,,
math-period,583,903858,8609,"",,,,,,,,,,,3,,,,,
html-keyboard-response,584,903968,null,"",null,,,,,,,,,,,,,,,
math-period,585,905468,2705,"",,,,,,,,,,,5,,,,,
html-keyboard-response,586,905583,null,"",null,,,,,,,,,,,,,,,
math-period,587,907107,2856,"",,,,,,,,,,,2,,,,,
html-keyboard-response,588,907219,null,"",null,,,,,,,,,,,,,,,
math-period,589,908347,null,"",,,,,,,,,,,,,,,,
html-keyboard-response,590,909363,null,"Recall Period!",null,,,,,,,,,,,,,,,
call-function,591,909366,,"",,,,,,,,,,,,,,,,
html-keyboard-response,592,909472,null,"",null,,,,,,,,,,,,,,,
recall-period,593,910697,6420,"",,,,,,,,,,,mother,,,,,
html-keyboard-response,594,910804,null,"",null,,,,,,,,,,,,,,,
recall-period,595,912129,3804,"",,,,,,,,,,,cigar,,,,,
html-keyboard-response,596,912238,null,"",null,,,,,,,,,,,,,,,
recall-period,597,914471,8721,"",,,,,,,,,,,army,,,,,
html-keyboard-response,598,914573,null,"",null,,,,,,,,,,,,,,,
recall-period,599,915769,3418,"",,,,,,,,,,,guard,,,,,
html-keyboard-response,600,915885,null,"",null,,,,,,,,,,,,,,,
recall-period,601,920234,21974,"",,,,,,,,,,,rodent,,,,,
html-keyboard-response,602,920338,null,"",null,,,,,,,,,,,,,,,
recall-period,603,921472,4116,"",,,,,,,,,,,coin,,,,,
html-keyboard-response,604,921576,null,"",null,,,,,,,,,,,,,,,
recall-period,605,923300,7092,"",,,,,,,,,,,quarter,,,,,
html-keyboard-response,606,923409,null,"",null,,,,,,,,,,,,,,,
recall-period,607,932198,70593,"",,,,,,,,,,,lipstick,,,,,
html-keyboard-response,608,932310,null,"",null,,,,,,,,,,,,,,,
recall-period,609,984375,null,"",,,,,,,,,,,,,,,,
html-keyboard-response,610,984889,null,"Time's Up!",null,,,,,,,,,,,,,,,
html-keyboard-response,611,993972,9080,"<p> Good job! You have responded correctly to 98% of the trials. </p>
                      <p>Be sure to only press the spacebar if you see a GREEN square, and please keep your accuracy above 80%.</p>
                      <p> Press any key to continue the experiment. </p>",32,,,,,,,,,,,,,,,
html-keyboard-response,612,997886,3910,"<div style=""font-size:48px;"">Press any key to begin list 6 of 16 </div>",32,,,,,,,,,,,,,,,
html-keyboard-response,613,1000404,null,"<div style=""font-size:60px;"">+</div>",null,,,,,,,,,,,,,,,
html-keyboard-response,614,1000614,null,"<div style=""font-size:42px;"">OX</div><img id = ""stim"" ><div class = red_square id = topsquare></div>",null,encoding,word_square,,,0,topsquare,none,true,,,OX,5,,,
html-keyboard-response,615,1000922,null,"<div style=""font-size:42px;"">OX</div>",null,,word,OX,,,,,,,,,,,,
html-keyboard-response,616,1002430,null,"",null,,word,OX,,,,,,,,,,,,
html-keyboard-response,617,1002638,null,"<div style=""font-size:42px;"">CREATURE</div><img id = ""stim"" ><div class = red_square id = bottomsquare></div>",null,encoding,word_square,,,0,bottomsquare,none,true,,,CREATURE,5,,,
html-keyboard-response,618,1002952,null,"<div style=""font-size:42px;"">CREATURE</div>",null,,word,CREATURE,,,,,,,,,,,,
html-keyboard-response,619,1004459,null,"",null,,word,CREATURE,,,,,,,,,,,,
html-keyboard-response,620,1004668,null,"<div style=""font-size:42px;"">SUITCASE</div><img id = ""stim"" ><div class = green_square id = bottomsquare></div>",null,encoding,word_square,,,1,bottomsquare,32,true,,,SUITCASE,5,,,
html-keyboard-response,621,1004982,304,"<div style=""font-size:42px;"">SUITCASE</div>",32,,word,SUITCASE,,,,,,,,,,,,
html-keyboard-response,622,1006499,null,"",null,,word,SUITCASE,,,,,,,,,,,,
html-keyboard-response,623,1006704,null,"<div style=""font-size:42px;"">PUPPY</div><img id = ""stim"" ><div class = red_square id = topsquare></div>",null,encoding,word_square,,,0,topsquare,none,true,,,PUPPY,5,,,
html-keyboard-response,624,1007019,null,"<div style=""font-size:42px;"">PUPPY</div>",null,,word,PUPPY,,,,,,,,,,,,
html-keyboard-response,625,1008534,null,"",null,,word,PUPPY,,,,,,,,,,,,
html-keyboard-response,626,1008744,null,"<div style=""font-size:42px;"">PERSON</div><img id = ""stim"" ><div class = red_square id = bottomsquare></div>",null,encoding,word_square,,,0,bottomsquare,none,true,,,PERSON,5,,,
html-keyboard-response,627,1009052,null,"<div style=""font-size:42px;"">PERSON</div>",null,,word,PERSON,,,,,,,,,,,,
html-keyboard-response,628,1010557,null,"",null,,word,PERSON,,,,,,,,,,,,
html-keyboard-response,629,1010763,null,"<div style=""font-size:42px;"">STRANGER</div><img id = ""stim"" ><div class = green_square id = topsquare></div>",null,encoding,word_square,,,1,topsquare,32,true,,,STRANGER,5,,,
html-keyboard-response,630,1011068,null,"<div style=""font-size:42px;"">STRANGER</div>",null,,word,STRANGER,,,,,,,,,,,,
html-keyboard-response,631,1012580,13,"",32,,word,STRANGER,,,,,,,,,,,,
html-keyboard-response,632,1012793,null,"<div style=""font-size:42px;"">ATLAS</div><img id = ""stim"" ><div class = red_square id = topsquare></div>",null,encoding,word_square,,,0,topsquare,none,true,,,ATLAS,5,,,
html-keyboard-response,633,1013104,null,"<div style=""font-size:42px;"">ATLAS</div>",null,,word,ATLAS,,,,,,,,,,,,
html-keyboard-response,634,1014613,null,"",null,,word,ATLAS,,,,,,,,,,,,
html-keyboard-response,635,1014823,null,"<div style=""font-size:42px;"">HIGHWAY</div><img id = ""stim"" ><div class = green_square id = bottomsquare></div>",null,encoding,word_square,,,1,bottomsquare,32,true,,,HIGHWAY,5,,,
html-keyboard-response,636,1015135,null,"<div style=""font-size:42px;"">HIGHWAY</div>",null,,word,HIGHWAY,,,,,,,,,,,,
html-keyboard-response,637,1016647,105,"",32,,word,HIGHWAY,,,,,,,,,,,,
html-keyboard-response,638,1016864,null,"<div style=""font-size:42px;"">MUFFIN</div><img id = ""stim"" ><div class = green_square id = topsquare></div>",null,encoding,word_square,,,1,topsquare,32,true,,,MUFFIN,5,,,
html-keyboard-response,639,1017170,null,"<div style=""font-size:42px;"">MUFFIN</div>",null,,word,MUFFIN,,,,,,,,,,,,
html-keyboard-response,640,1018685,125,"",32,,word,MUFFIN,,,,,,,,,,,,
html-keyboard-response,641,1018890,null,"<div style=""font-size:42px;"">DRAWER</div><img id = ""stim"" ><div class = green_square id = bottomsquare></div>",null,encoding,word_square,,,1,bottomsquare,32,true,,,DRAWER,5,,,
html-keyboard-response,642,1019200,null,"<div style=""font-size:42px;"">DRAWER</div>",null,,word,DRAWER,,,,,,,,,,,,
html-keyboard-response,643,1020709,238,"",32,,word,DRAWER,,,,,,,,,,,,
html-keyboard-response,644,1020919,null,"<div style=""font-size:42px;"">PEACH</div><img id = ""stim"" ><div class = green_square id = topsquare></div>",null,encoding,word_square,,,1,topsquare,32,true,,,PEACH,5,,,
html-keyboard-response,645,1021223,null,"<div style=""font-size:42px;"">PEACH</div>",null,,word,PEACH,,,,,,,,,,,,
html-keyboard-response,646,1022727,253,"",32,,word,PEACH,,,,,,,,,,,,
html-keyboard-response,647,1022939,null,"<div style=""font-size:42px;"">CHECKERS</div><img id = ""stim"" ><div class = red_square id = bottomsquare></div>",null,encoding,word_square,,,0,bottomsquare,none,true,,,CHECKERS,5,,,
html-keyboard-response,648,1023250,null,"<div style=""font-size:42px;"">CHECKERS</div>",null,,word,CHECKERS,,,,,,,,,,,,
html-keyboard-response,649,1024763,null,"",null,,word,CHECKERS,,,,,,,,,,,,
html-keyboard-response,650,1024974,null,"<div style=""font-size:42px;"">STOMACH</div><img id = ""stim"" ><div class = red_square id = topsquare></div>",null,encoding,word_square,,,0,topsquare,none,true,,,STOMACH,5,,,
html-keyboard-response,651,1025277,null,"<div style=""font-size:42px;"">STOMACH</div>",null,,word,STOMACH,,,,,,,,,,,,
html-keyboard-response,652,1026788,null,"",null,,word,STOMACH,,,,,,,,,,,,
html-keyboard-response,653,1026995,null,"<div style=""font-size:42px;"">BELLY</div><img id = ""stim"" ><div class = green_square id = bottomsquare></div>",null,encoding,word_square,,,1,bottomsquare,32,true,,,BELLY,5,,,
html-keyboard-response,654,1027303,null,"<div style=""font-size:42px;"">BELLY</div>",null,,word,BELLY,,,,,,,,,,,,
html-keyboard-response,655,1028817,987,"",32,,word,BELLY,,,,,,,,,,,,
html-keyboard-response,656,1029027,null,"<div style=""font-size:42px;"">CURTAIN</div><img id = ""stim"" ><div class = red_square id = bottomsquare></div>",null,encoding,word_square,,,0,bottomsquare,none,true,,,CURTAIN,5,,,
html-keyboard-response,657,1029343,null,"<div style=""font-size:42px;"">CURTAIN</div>",null,,word,CURTAIN,,,,,,,,,,,,
html-keyboard-response,658,1030849,null,"",null,,word,CURTAIN,,,,,,,,,,,,
html-keyboard-response,659,1031060,null,"<div style=""font-size:42px;"">SURGEON</div><img id = ""stim"" ><div class = green_square id = topsquare></div>",null,encoding,word_square,,,1,topsquare,32,true,,,SURGEON,5,,,
html-keyboard-response,660,1031375,null,"<div style=""font-size:42px;"">SURGEON</div>",null,,word,SURGEON,,,,,,,,,,,,
html-keyboard-response,661,1032883,568,"",32,,word,SURGEON,,,,,,,,,,,,
call-function,662,1032884,,"",,,,,,,,,,,,,,,,
html-keyboard-response,663,1032999,null,"",null,,,,,,,,,,,,,,,
math-period,664,1035155,3391,"",,,,,,,,,,,3,,,,,
html-keyboard-response,665,1035271,null,"",null,,,,,,,,,,,,,,,
math-period,666,1036846,2909,"",,,,,,,,,,,5,,,,,
html-keyboard-response,667,1036963,null,"",null,,,,,,,,,,,,,,,
math-period,668,1040089,6015,"",,,,,,,,,,,6,,,,,
html-keyboard-response,669,1040201,null,"",null,,,,,,,,,,,,,,,
math-period,670,1042623,4616,"",,,,,,,,,,,2,,,,,
html-keyboard-response,671,1042736,null,"",null,,,,,,,,,,,,,,,
math-period,672,1044929,4180,"",,,,,,,,,,,3,,,,,
html-keyboard-response,673,1045033,null,"",null,,,,,,,,,,,,,,,
math-period,674,1050729,11171,"",,,,,,,,,,,3,,,,,
html-keyboard-response,675,1050832,null,"",null,,,,,,,,,,,,,,,
math-period,676,1052284,2705,"",,,,,,,,,,,4,,,,,
html-keyboard-response,677,1052395,null,"",null,,,,,,,,,,,,,,,
math-period,678,1053716,2370,"",,,,,,,,,,,3,,,,,
html-keyboard-response,679,1053834,null,"",null,,,,,,,,,,,,,,,
math-period,680,1056888,null,"",,,,,,,,,,,,,,,,
html-keyboard-response,681,1057899,null,"Recall Period!",null,,,,,,,,,,,,,,,
call-function,682,1057901,,"",,,,,,,,,,,,,,,,
html-keyboard-response,683,1058004,null,"",null,,,,,,,,,,,,,,,
recall-period,684,1059389,6574,"",,,,,,,,,,,surgeon,,,,,
html-keyboard-response,685,1059503,null,"",null,,,,,,,,,,,,,,,
recall-period,686,1060980,7638,"",,,,,,,,,,,stomach,,,,,
html-keyboard-response,687,1061090,null,"",null,,,,,,,,,,,,,,,
recall-period,688,1061939,2488,"",,,,,,,,,,,belly,,,,,
html-keyboard-response,689,1062049,null,"",null,,,,,,,,,,,,,,,
recall-period,690,1064675,15122,"",,,,,,,,,,,stranger,,,,,
html-keyboard-response,691,1064778,null,"",null,,,,,,,,,,,,,,,
recall-period,692,1066367,7560,"",,,,,,,,,,,creature,,,,,
html-keyboard-response,693,1066474,null,"",null,,,,,,,,,,,,,,,
recall-period,694,1067622,3405,"",,,,,,,,,,,puppy,,,,,
html-keyboard-response,695,1067740,null,"",null,,,,,,,,,,,,,,,
recall-period,696,1070370,12750,"",,,,,,,,,,,peach,,,,,
html-keyboard-response,697,1070488,null,"",null,,,,,,,,,,,,,,,
recall-period,698,1072038,3614,"",,,,,,,,,,,drawer,,,,,
html-keyboard-response,699,1072144,null,"",null,,,,,,,,,,,,,,,
recall-period,700,1094335,65713,"",,,,,,,,,,,ox,,,,,
html-keyboard-response,701,1094443,null,"",null,,,,,,,,,,,,,,,
recall-period,702,1132912,null,"",,,,,,,,,,,,,,,,
html-keyboard-response,703,1133425,null,"Time's Up!",null,,,,,,,,,,,,,,,
html-keyboard-response,704,1134812,1385,"<p> Good job! You have responded correctly to 98% of the trials. </p>
                      <p>Be sure to only press the spacebar if you see a GREEN square, and please keep your accuracy above 80%.</p>
                      <p> Press any key to continue the experiment. </p>",32,,,,,,,,,,,,,,,
html-keyboard-response,705,1135603,789,"<div style=""font-size:48px;"">Press any key to begin list 7 of 16 </div>",32,,,,,,,,,,,,,,,
html-keyboard-response,706,1138119,null,"<div style=""font-size:60px;"">+</div>",null,,,,,,,,,,,,,,,
html-keyboard-response,707,1138324,null,"<div style=""font-size:42px;"">COOK</div><img id = ""stim"" ><div class = red_square id = bottomsquare></div>",null,encoding,word_square,,,0,bottomsquare,none,true,,,COOK,6,,,
html-keyboard-response,708,1138634,null,"<div style=""font-size:42px;"">COOK</div>",null,,word,COOK,,,,,,,,,,,,
html-keyboard-response,709,1140144,null,"",null,,word,COOK,,,,,,,,,,,,
html-keyboard-response,710,1140349,null,"<div style=""font-size:42px;"">BACKBONE</div><img id = ""stim"" ><div class = green_square id = topsquare></div>",null,encoding,word_square,,,1,topsquare,32,true,,,BACKBONE,6,,,
html-keyboard-response,711,1140656,null,"<div style=""font-size:42px;"">BACKBONE</div>",null,,word,BACKBONE,,,,,,,,,,,,
html-keyboard-response,712,1142170,90,"",32,,word,BACKBONE,,,,,,,,,,,,
html-keyboard-response,713,1142384,null,"<div style=""font-size:42px;"">STAKE</div><img id = ""stim"" ><div class = red_square id = topsquare></div>",null,encoding,word_square,,,0,topsquare,none,true,,,STAKE,6,,,
html-keyboard-response,714,1142700,null,"<div style=""font-size:42px;"">STAKE</div>",null,,word,STAKE,,,,,,,,,,,,
html-keyboard-response,715,1144210,null,"",null,,word,STAKE,,,,,,,,,,,,
html-keyboard-response,716,1144417,null,"<div style=""font-size:42px;"">SENATE</div><img id = ""stim"" ><div class = green_square id = bottomsquare></div>",null,encoding,word_square,,,1,bottomsquare,32,true,,,SENATE,6,,,
html-keyboard-response,717,1144724,null,"<div style=""font-size:42px;"">SENATE</div>",null,,word,SENATE,,,,,,,,,,,,
html-keyboard-response,718,1146240,13,"",32,,word,SENATE,,,,,,,,,,,,
html-keyboard-response,719,1146447,null,"<div style=""font-size:42px;"">KNUCKLE</div><img id = ""stim"" ><div class = green_square id = topsquare></div>",null,encoding,word_square,,,1,topsquare,32,true,,,KNUCKLE,6,,,
html-keyboard-response,720,1146753,null,"<div style=""font-size:42px;"">KNUCKLE</div>",null,,word,KNUCKLE,,,,,,,,,,,,
html-keyboard-response,721,1148268,194,"",32,,word,KNUCKLE,,,,,,,,,,,,
html-keyboard-response,722,1148479,null,"<div style=""font-size:42px;"">TURTLE</div><img id = ""stim"" ><div class = red_square id = bottomsquare></div>",null,encoding,word_square,,,0,bottomsquare,none,true,,,TURTLE,6,,,
html-keyboard-response,723,1148794,null,"<div style=""font-size:42px;"">TURTLE</div>",null,,word,TURTLE,,,,,,,,,,,,
html-keyboard-response,724,1150299,null,"",null,,word,TURTLE,,,,,,,,,,,,
html-keyboard-response,725,1150510,null,"<div style=""font-size:42px;"">FLUTE</div><img id = ""stim"" ><div class = red_square id = topsquare></div>",null,encoding,word_square,,,0,topsquare,none,true,,,FLUTE,6,,,
html-keyboard-response,726,1150823,null,"<div style=""font-size:42px;"">FLUTE</div>",null,,word,FLUTE,,,,,,,,,,,,
html-keyboard-response,727,1152327,null,"",null,,word,FLUTE,,,,,,,,,,,,
html-keyboard-response,728,1152542,null,"<div style=""font-size:42px;"">WHISTLE</div><img id = ""stim"" ><div class = red_square id = bottomsquare></div>",null,encoding,word_square,,,0,bottomsquare,none,true,,,WHISTLE,6,,,
html-keyboard-response,729,1152853,null,"<div style=""font-size:42px;"">WHISTLE</div>",null,,word,WHISTLE,,,,,,,,,,,,
html-keyboard-response,730,1154358,null,"",null,,word,WHISTLE,,,,,,,,,,,,
html-keyboard-response,731,1154563,null,"<div style=""font-size:42px;"">SCAPEGOAT</div><img id = ""stim"" ><div class = red_square id = topsquare></div>",null,encoding,word_square,,,0,topsquare,none,true,,,SCAPEGOAT,6,,,
html-keyboard-response,732,1154869,null,"<div style=""font-size:42px;"">SCAPEGOAT</div>",null,,word,SCAPEGOAT,,,,,,,,,,,,
html-keyboard-response,733,1156375,null,"",null,,word,SCAPEGOAT,,,,,,,,,,,,
html-keyboard-response,734,1156593,null,"<div style=""font-size:42px;"">TURKEY</div><img id = ""stim"" ><div class = green_square id = bottomsquare></div>",null,encoding,word_square,,,1,bottomsquare,32,true,,,TURKEY,6,,,
html-keyboard-response,735,1156903,null,"<div style=""font-size:42px;"">TURKEY</div>",null,,word,TURKEY,,,,,,,,,,,,
html-keyboard-response,736,1158419,222,"",32,,word,TURKEY,,,,,,,,,,,,
html-keyboard-response,737,1158638,null,"<div style=""font-size:42px;"">NURSE</div><img id = ""stim"" ><div class = red_square id = bottomsquare></div>",null,encoding,word_square,,,0,bottomsquare,none,true,,,NURSE,6,,,
html-keyboard-response,738,1158955,null,"<div style=""font-size:42px;"">NURSE</div>",null,,word,NURSE,,,,,,,,,,,,
html-keyboard-response,739,1160473,null,"",null,,word,NURSE,,,,,,,,,,,,
html-keyboard-response,740,1160688,null,"<div style=""font-size:42px;"">MONKEY</div><img id = ""stim"" ><div class = green_square id = topsquare></div>",null,encoding,word_square,,,1,topsquare,32,true,,,MONKEY,6,,,
html-keyboard-response,741,1161000,null,"<div style=""font-size:42px;"">MONKEY</div>",null,,word,MONKEY,,,,,,,,,,,,
html-keyboard-response,742,1162520,848,"",32,,word,MONKEY,,,,,,,,,,,,
html-keyboard-response,743,1162738,null,"<div style=""font-size:42px;"">KITCHEN</div><img id = ""stim"" ><div class = green_square id = bottomsquare></div>",null,encoding,word_square,,,1,bottomsquare,32,true,,,KITCHEN,6,,,
html-keyboard-response,744,1163052,null,"<div style=""font-size:42px;"">KITCHEN</div>",null,,word,KITCHEN,,,,,,,,,,,,
html-keyboard-response,745,1164569,114,"",32,,word,KITCHEN,,,,,,,,,,,,
html-keyboard-response,746,1164778,null,"<div style=""font-size:42px;"">PEOPLE</div><img id = ""stim"" ><div class = red_square id = topsquare></div>",null,encoding,word_square,,,0,topsquare,none,false,,,PEOPLE,6,,,
html-keyboard-response,747,1165087,null,"<div style=""font-size:42px;"">PEOPLE</div>",null,,word,PEOPLE,,,,,,,,,,,,
html-keyboard-response,748,1166596,226,"",32,,word,PEOPLE,,,,,,,,,,,,
html-keyboard-response,749,1166810,null,"<div style=""font-size:42px;"">STAMP</div><img id = ""stim"" ><div class = green_square id = topsquare></div>",null,encoding,word_square,,,1,topsquare,32,true,,,STAMP,6,,,
html-keyboard-response,750,1167124,null,"<div style=""font-size:42px;"">STAMP</div>",null,,word,STAMP,,,,,,,,,,,,
html-keyboard-response,751,1168629,17,"",32,,word,STAMP,,,,,,,,,,,,
html-keyboard-response,752,1168838,null,"<div style=""font-size:42px;"">NIGHTGOWN</div><img id = ""stim"" ><div class = green_square id = bottomsquare></div>",null,encoding,word_square,,,1,bottomsquare,32,true,,,NIGHTGOWN,6,,,
html-keyboard-response,753,1169143,null,"<div style=""font-size:42px;"">NIGHTGOWN</div>",null,,word,NIGHTGOWN,,,,,,,,,,,,
html-keyboard-response,754,1170659,342,"",32,,word,NIGHTGOWN,,,,,,,,,,,,
call-function,755,1170662,,"",,,,,,,,,,,,,,,,
html-keyboard-response,756,1170768,null,"",null,,,,,,,,,,,,,,,
math-period,757,1172465,2992,"",,,,,,,,,,,6,,,,,
html-keyboard-response,758,1172578,null,"",null,,,,,,,,,,,,,,,
math-period,759,1177314,9052,"",,,,,,,,,,,4,,,,,
html-keyboard-response,760,1177419,null,"",null,,,,,,,,,,,,,,,
math-period,761,1178969,2788,"",,,,,,,,,,,5,,,,,
html-keyboard-response,762,1179077,null,"",null,,,,,,,,,,,,,,,
math-period,763,1180469,2542,"",,,,,,,,,,,4,,,,,
html-keyboard-response,764,1180583,null,"",null,,,,,,,,,,,,,,,
math-period,765,1183373,5332,"",,,,,,,,,,,0,,,,,
html-keyboard-response,766,1183482,null,"",null,,,,,,,,,,,,,,,
math-period,767,1188534,18915,"",,,,,,,,,,,2,,,,,
html-keyboard-response,768,1188644,null,"",null,,,,,,,,,,,,,,,
math-period,769,1191281,4962,"",,,,,,,,,,,1,,,,,
html-keyboard-response,770,1191393,null,"",null,,,,,,,,,,,,,,,
math-period,771,1193590,3660,"",,,,,,,,,,,4,,,,,
html-keyboard-response,772,1193698,null,"",null,,,,,,,,,,,,,,,
math-period,773,1194671,null,"",,,,,,,,,,,,,,,,
html-keyboard-response,774,1195674,null,"Recall Period!",null,,,,,,,,,,,,,,,
call-function,775,1195676,,"",,,,,,,,,,,,,,,,
html-keyboard-response,776,1195785,null,"",null,,,,,,,,,,,,,,,
recall-period,777,1198974,18268,"",,,,,,,,,,,cook,,,,,
html-keyboard-response,778,1199090,null,"",null,,,,,,,,,,,,,,,
recall-period,779,1200852,7516,"",,,,,,,,,,,stamp,,,,,
html-keyboard-response,780,1200963,null,"",null,,,,,,,,,,,,,,,
recall-period,781,1202977,10643,"",,,,,,,,,,,nightgown,,,,,
html-keyboard-response,782,1203091,null,"",null,,,,,,,,,,,,,,,
recall-period,783,1205846,7048,"",,,,,,,,,,,kitchen,,,,,
html-keyboard-response,784,1205951,null,"",null,,,,,,,,,,,,,,,
recall-period,785,1209024,13784,"",,,,,,,,,,,stake,,,,,
html-keyboard-response,786,1209138,null,"",null,,,,,,,,,,,,,,,
recall-period,787,1218760,70905,"",,,,,,,,,,,knuckle,,,,,
html-keyboard-response,788,1218872,null,"",null,,,,,,,,,,,,,,,
recall-period,789,1270678,null,"",,,,,,,,,,,,,,,,
html-keyboard-response,790,1271183,null,"Time's Up!",null,,,,,,,,,,,,,,,
html-keyboard-response,791,1273112,1925,"<p> Good job! You have responded correctly to 97% of the trials. </p>
                      <p>Be sure to only press the spacebar if you see a GREEN square, and please keep your accuracy above 80%.</p>
                      <p> Press any key to continue the experiment. </p>",32,,,,,,,,,,,,,,,
html-keyboard-response,792,1273828,713,"<div style=""font-size:48px;"">Press any key to begin list 8 of 16 </div>",32,,,,,,,,,,,,,,,
html-keyboard-response,793,1276354,null,"<div style=""font-size:60px;"">+</div>",null,,,,,,,,,,,,,,,
html-keyboard-response,794,1276572,null,"<div style=""font-size:42px;"">FRUIT</div><img id = ""stim"" ><div class = green_square id = bottomsquare></div>",null,encoding,word_square,,,1,bottomsquare,32,true,,,FRUIT,7,,,
html-keyboard-response,795,1276888,null,"<div style=""font-size:42px;"">FRUIT</div>",null,,word,FRUIT,,,,,,,,,,,,
html-keyboard-response,796,1278407,42,"",32,,word,FRUIT,,,,,,,,,,,,
html-keyboard-response,797,1278624,null,"<div style=""font-size:42px;"">HAWK</div><img id = ""stim"" ><div class = green_square id = topsquare></div>",null,encoding,word_square,,,1,topsquare,32,true,,,HAWK,7,,,
html-keyboard-response,798,1278936,null,"<div style=""font-size:42px;"">HAWK</div>",null,,word,HAWK,,,,,,,,,,,,
html-keyboard-response,799,1280441,202,"",32,,word,HAWK,,,,,,,,,,,,
html-keyboard-response,800,1280645,null,"<div style=""font-size:42px;"">PIGEON</div><img id = ""stim"" ><div class = red_square id = topsquare></div>",null,encoding,word_square,,,0,topsquare,none,true,,,PIGEON,7,,,
html-keyboard-response,801,1280960,null,"<div style=""font-size:42px;"">PIGEON</div>",null,,word,PIGEON,,,,,,,,,,,,
html-keyboard-response,802,1282471,null,"",null,,word,PIGEON,,,,,,,,,,,,
html-keyboard-response,803,1282674,null,"<div style=""font-size:42px;"">SAILOR</div><img id = ""stim"" ><div class = green_square id = bottomsquare></div>",null,encoding,word_square,,,1,bottomsquare,32,true,,,SAILOR,7,,,
html-keyboard-response,804,1282985,null,"<div style=""font-size:42px;"">SAILOR</div>",null,,word,SAILOR,,,,,,,,,,,,
html-keyboard-response,805,1284502,441,"",32,,word,SAILOR,,,,,,,,,,,,
html-keyboard-response,806,1284705,null,"<div style=""font-size:42px;"">CASHIER</div><img id = ""stim"" ><div class = green_square id = topsquare></div>",null,encoding,word_square,,,1,topsquare,32,true,,,CASHIER,7,,,
html-keyboard-response,807,1285018,null,"<div style=""font-size:42px;"">CASHIER</div>",null,,word,CASHIER,,,,,,,,,,,,
html-keyboard-response,808,1286535,97,"",32,,word,CASHIER,,,,,,,,,,,,
html-keyboard-response,809,1286739,null,"<div style=""font-size:42px;"">BOYFRIEND</div><img id = ""stim"" ><div class = red_square id = bottomsquare></div>",null,encoding,word_square,,,0,bottomsquare,none,true,,,BOYFRIEND,7,,,
html-keyboard-response,810,1287051,null,"<div style=""font-size:42px;"">BOYFRIEND</div>",null,,word,BOYFRIEND,,,,,,,,,,,,
html-keyboard-response,811,1288566,null,"",null,,word,BOYFRIEND,,,,,,,,,,,,
html-keyboard-response,812,1288786,null,"<div style=""font-size:42px;"">ROOSTER</div><img id = ""stim"" ><div class = green_square id = bottomsquare></div>",null,encoding,word_square,,,1,bottomsquare,32,true,,,ROOSTER,7,,,
html-keyboard-response,813,1289098,null,"<div style=""font-size:42px;"">ROOSTER</div>",null,,word,ROOSTER,,,,,,,,,,,,
html-keyboard-response,814,1290613,201,"",32,,word,ROOSTER,,,,,,,,,,,,
html-keyboard-response,815,1290831,null,"<div style=""font-size:42px;"">COLUMN</div><img id = ""stim"" ><div class = red_square id = topsquare></div>",null,encoding,word_square,,,0,topsquare,none,true,,,COLUMN,7,,,
html-keyboard-response,816,1291143,null,"<div style=""font-size:42px;"">COLUMN</div>",null,,word,COLUMN,,,,,,,,,,,,
html-keyboard-response,817,1292659,null,"",null,,word,COLUMN,,,,,,,,,,,,
html-keyboard-response,818,1292864,null,"<div style=""font-size:42px;"">SLUG</div><img id = ""stim"" ><div class = red_square id = bottomsquare></div>",null,encoding,word_square,,,0,bottomsquare,none,true,,,SLUG,7,,,
html-keyboard-response,819,1293176,null,"<div style=""font-size:42px;"">SLUG</div>",null,,word,SLUG,,,,,,,,,,,,
html-keyboard-response,820,1294692,null,"",null,,word,SLUG,,,,,,,,,,,,
html-keyboard-response,821,1294910,null,"<div style=""font-size:42px;"">PLIERS</div><img id = ""stim"" ><div class = red_square id = topsquare></div>",null,encoding,word_square,,,0,topsquare,none,true,,,PLIERS,7,,,
html-keyboard-response,822,1295225,null,"<div style=""font-size:42px;"">PLIERS</div>",null,,word,PLIERS,,,,,,,,,,,,
html-keyboard-response,823,1296739,null,"",null,,word,PLIERS,,,,,,,,,,,,
html-keyboard-response,824,1296955,null,"<div style=""font-size:42px;"">TWEEZERS</div><img id = ""stim"" ><div class = red_square id = bottomsquare></div>",null,encoding,word_square,,,0,bottomsquare,none,true,,,TWEEZERS,7,,,
html-keyboard-response,825,1297273,null,"<div style=""font-size:42px;"">TWEEZERS</div>",null,,word,TWEEZERS,,,,,,,,,,,,
html-keyboard-response,826,1298777,null,"",null,,word,TWEEZERS,,,,,,,,,,,,
html-keyboard-response,827,1298991,null,"<div style=""font-size:42px;"">BANK</div><img id = ""stim"" ><div class = green_square id = topsquare></div>",null,encoding,word_square,,,1,topsquare,32,true,,,BANK,7,,,
html-keyboard-response,828,1299303,null,"<div style=""font-size:42px;"">BANK</div>",null,,word,BANK,,,,,,,,,,,,
html-keyboard-response,829,1300810,154,"",32,,word,BANK,,,,,,,,,,,,
html-keyboard-response,830,1301030,null,"<div style=""font-size:42px;"">BOXER</div><img id = ""stim"" ><div class = green_square id = bottomsquare></div>",null,encoding,word_square,,,1,bottomsquare,32,true,,,BOXER,7,,,
html-keyboard-response,831,1301337,null,"<div style=""font-size:42px;"">BOXER</div>",null,,word,BOXER,,,,,,,,,,,,
html-keyboard-response,832,1302843,61,"",32,,word,BOXER,,,,,,,,,,,,
html-keyboard-response,833,1303059,null,"<div style=""font-size:42px;"">OFFICE</div><img id = ""stim"" ><div class = red_square id = topsquare></div>",null,encoding,word_square,,,0,topsquare,none,true,,,OFFICE,7,,,
html-keyboard-response,834,1303366,null,"<div style=""font-size:42px;"">OFFICE</div>",null,,word,OFFICE,,,,,,,,,,,,
html-keyboard-response,835,1304883,null,"",null,,word,OFFICE,,,,,,,,,,,,
html-keyboard-response,836,1305094,null,"<div style=""font-size:42px;"">TERMITE</div><img id = ""stim"" ><div class = green_square id = topsquare></div>",null,encoding,word_square,,,1,topsquare,32,true,,,TERMITE,7,,,
html-keyboard-response,837,1305410,null,"<div style=""font-size:42px;"">TERMITE</div>",null,,word,TERMITE,,,,,,,,,,,,
html-keyboard-response,838,1306928,124,"",32,,word,TERMITE,,,,,,,,,,,,
html-keyboard-response,839,1307143,null,"<div style=""font-size:42px;"">MUMMY</div><img id = ""stim"" ><div class = red_square id = bottomsquare></div>",null,encoding,word_square,,,0,bottomsquare,none,true,,,MUMMY,7,,,
html-keyboard-response,840,1307449,null,"<div style=""font-size:42px;"">MUMMY</div>",null,,word,MUMMY,,,,,,,,,,,,
html-keyboard-response,841,1308960,null,"",null,,word,MUMMY,,,,,,,,,,,,
call-function,842,1308964,,"",,,,,,,,,,,,,,,,
html-keyboard-response,843,1309067,null,"",null,,,,,,,,,,,,,,,
math-period,844,1310614,2675,"",,,,,,,,,,,5,,,,,
html-keyboard-response,845,1310718,null,"",null,,,,,,,,,,,,,,,
math-period,846,1312047,2481,"",,,,,,,,,,,6,,,,,
html-keyboard-response,847,1312150,null,"",null,,,,,,,,,,,,,,,
math-period,848,1314973,5327,"",,,,,,,,,,,2,,,,,
html-keyboard-response,849,1315089,null,"",null,,,,,,,,,,,,,,,
math-period,850,1317026,3628,"",,,,,,,,,,,4,,,,,
html-keyboard-response,851,1317143,null,"",null,,,,,,,,,,,,,,,
math-period,852,1318322,2182,"",,,,,,,,,,,4,,,,,
html-keyboard-response,853,1318432,null,"",null,,,,,,,,,,,,,,,
math-period,854,1319698,2403,"",,,,,,,,,,,5,,,,,
html-keyboard-response,855,1319811,null,"",null,,,,,,,,,,,,,,,
math-period,856,1321187,2508,"",,,,,,,,,,,3,,,,,
html-keyboard-response,857,1321295,null,"",null,,,,,,,,,,,,,,,
math-period,858,1322998,3239,"",,,,,,,,,,,2,,,,,
html-keyboard-response,859,1323112,null,"",null,,,,,,,,,,,,,,,
math-period,860,1327042,7065,"",,,,,,,,,,,1,,,,,
html-keyboard-response,861,1327160,null,"",null,,,,,,,,,,,,,,,
math-period,862,1328688,2733,"",,,,,,,,,,,3,,,,,
html-keyboard-response,863,1328798,null,"",null,,,,,,,,,,,,,,,
math-period,864,1330118,2376,"",,,,,,,,,,,3,,,,,
html-keyboard-response,865,1330227,null,"",null,,,,,,,,,,,,,,,
math-period,866,1332971,6822,"",,,,,,,,,,,5,,,,,
html-keyboard-response,867,1333985,null,"Recall Period!",null,,,,,,,,,,,,,,,
call-function,868,1333987,,"",,,,,,,,,,,,,,,,
html-keyboard-response,869,1334095,null,"",null,,,,,,,,,,,,,,,
recall-period,870,1335943,7261,"",,,,,,,,,,,mummy,,,,,
html-keyboard-response,871,1336046,null,"",null,,,,,,,,,,,,,,,
recall-period,872,1337634,8153,"",,,,,,,,,,,termite,,,,,
html-keyboard-response,873,1337741,null,"",null,,,,,,,,,,,,,,,
recall-period,874,1342552,39382,"",,,,,,,,,,,boyfriend,,,,,
html-keyboard-response,875,1342657,null,"",null,,,,,,,,,,,,,,,
recall-period,876,1373148,180731,"",,,,,,,,,,,fruit,,,,,
html-keyboard-response,877,1373269,null,"",null,,,,,,,,,,,,,,,
recall-period,878,1408989,null,"",,,,,,,,,,,,,,,,
html-keyboard-response,879,1409501,null,"Time's Up!",null,,,,,,,,,,,,,,,
html-keyboard-response,880,1411322,1819,"<p> Good job! You have responded correctly to 98% of the trials. </p>
                      <p>Be sure to only press the spacebar if you see a GREEN square, and please keep your accuracy above 80%.</p>
                      <p> Press any key to continue the experiment. </p>",32,,,,,,,,,,,,,,,
html-keyboard-response,881,1412282,956,"<div style=""font-size:48px;"">Press any key to begin list 9 of 16 </div>",32,,,,,,,,,,,,,,,
html-keyboard-response,882,1414794,null,"<div style=""font-size:60px;"">+</div>",null,,,,,,,,,,,,,,,
html-keyboard-response,883,1414998,null,"<div style=""font-size:42px;"">COFFEE</div><img id = ""stim"" ><div class = green_square id = topsquare></div>",null,encoding,word_square,,,1,topsquare,32,true,,,COFFEE,8,,,
html-keyboard-response,884,1415310,286,"<div style=""font-size:42px;"">COFFEE</div>",32,,word,COFFEE,,,,,,,,,,,,
html-keyboard-response,885,1416829,null,"",null,,word,COFFEE,,,,,,,,,,,,
html-keyboard-response,886,1417038,null,"<div style=""font-size:42px;"">DWARF</div><img id = ""stim"" ><div class = green_square id = bottomsquare></div>",null,encoding,word_square,,,1,bottomsquare,32,true,,,DWARF,8,,,
html-keyboard-response,887,1417352,null,"<div style=""font-size:42px;"">DWARF</div>",null,,word,DWARF,,,,,,,,,,,,
html-keyboard-response,888,1418864,84,"",32,,word,DWARF,,,,,,,,,,,,
html-keyboard-response,889,1419082,null,"<div style=""font-size:42px;"">BADGE</div><img id = ""stim"" ><div class = green_square id = topsquare></div>",null,encoding,word_square,,,1,topsquare,32,true,,,BADGE,8,,,
html-keyboard-response,890,1419388,null,"<div style=""font-size:42px;"">BADGE</div>",null,,word,BADGE,,,,,,,,,,,,
html-keyboard-response,891,1420908,393,"",32,,word,BADGE,,,,,,,,,,,,
html-keyboard-response,892,1421126,null,"<div style=""font-size:42px;"">AGENT</div><img id = ""stim"" ><div class = green_square id = bottomsquare></div>",null,encoding,word_square,,,1,bottomsquare,32,true,,,AGENT,8,,,
html-keyboard-response,893,1421434,null,"<div style=""font-size:42px;"">AGENT</div>",null,,word,AGENT,,,,,,,,,,,,
html-keyboard-response,894,1422942,192,"",32,,word,AGENT,,,,,,,,,,,,
html-keyboard-response,895,1423154,null,"<div style=""font-size:42px;"">EMPIRE</div><img id = ""stim"" ><div class = red_square id = bottomsquare></div>",null,encoding,word_square,,,0,bottomsquare,none,true,,,EMPIRE,8,,,
html-keyboard-response,896,1423469,null,"<div style=""font-size:42px;"">EMPIRE</div>",null,,word,EMPIRE,,,,,,,,,,,,
html-keyboard-response,897,1424986,null,"",null,,word,EMPIRE,,,,,,,,,,,,
html-keyboard-response,898,1425200,null,"<div style=""font-size:42px;"">SALT</div><img id = ""stim"" ><div class = green_square id = topsquare></div>",null,encoding,word_square,,,1,topsquare,32,true,,,SALT,8,,,
html-keyboard-response,899,1425514,310,"<div style=""font-size:42px;"">SALT</div>",32,,word,SALT,,,,,,,,,,,,
html-keyboard-response,900,1427025,null,"",null,,word,SALT,,,,,,,,,,,,
html-keyboard-response,901,1427239,null,"<div style=""font-size:42px;"">SUNRISE</div><img id = ""stim"" ><div class = red_square id = topsquare></div>",null,encoding,word_square,,,0,topsquare,none,true,,,SUNRISE,8,,,
html-keyboard-response,902,1427541,null,"<div style=""font-size:42px;"">SUNRISE</div>",null,,word,SUNRISE,,,,,,,,,,,,
html-keyboard-response,903,1429046,null,"",null,,word,SUNRISE,,,,,,,,,,,,
html-keyboard-response,904,1429263,null,"<div style=""font-size:42px;"">SUNSET</div><img id = ""stim"" ><div class = red_square id = bottomsquare></div>",null,encoding,word_square,,,0,bottomsquare,none,true,,,SUNSET,8,,,
html-keyboard-response,905,1429566,null,"<div style=""font-size:42px;"">SUNSET</div>",null,,word,SUNSET,,,,,,,,,,,,
html-keyboard-response,906,1431073,null,"",null,,word,SUNSET,,,,,,,,,,,,
html-keyboard-response,907,1431282,null,"<div style=""font-size:42px;"">BUGGY</div><img id = ""stim"" ><div class = green_square id = bottomsquare></div>",null,encoding,word_square,,,1,bottomsquare,32,true,,,BUGGY,8,,,
html-keyboard-response,908,1431593,null,"<div style=""font-size:42px;"">BUGGY</div>",null,,word,BUGGY,,,,,,,,,,,,
html-keyboard-response,909,1433111,61,"",32,,word,BUGGY,,,,,,,,,,,,
html-keyboard-response,910,1433328,null,"<div style=""font-size:42px;"">ASIA</div><img id = ""stim"" ><div class = red_square id = topsquare></div>",null,encoding,word_square,,,0,topsquare,none,true,,,ASIA,8,,,
html-keyboard-response,911,1433644,null,"<div style=""font-size:42px;"">ASIA</div>",null,,word,ASIA,,,,,,,,,,,,
html-keyboard-response,912,1435162,null,"",null,,word,ASIA,,,,,,,,,,,,
html-keyboard-response,913,1435373,null,"<div style=""font-size:42px;"">DART</div><img id = ""stim"" ><div class = red_square id = bottomsquare></div>",null,encoding,word_square,,,0,bottomsquare,none,true,,,DART,8,,,
html-keyboard-response,914,1435679,null,"<div style=""font-size:42px;"">DART</div>",null,,word,DART,,,,,,,,,,,,
html-keyboard-response,915,1437196,null,"",null,,word,DART,,,,,,,,,,,,
html-keyboard-response,916,1437413,null,"<div style=""font-size:42px;"">SPINACH</div><img id = ""stim"" ><div class = green_square id = topsquare></div>",null,encoding,word_square,,,1,topsquare,32,true,,,SPINACH,8,,,
html-keyboard-response,917,1437728,null,"<div style=""font-size:42px;"">SPINACH</div>",null,,word,SPINACH,,,,,,,,,,,,
html-keyboard-response,918,1439232,86,"",32,,word,SPINACH,,,,,,,,,,,,
html-keyboard-response,919,1439452,null,"<div style=""font-size:42px;"">FRIES</div><img id = ""stim"" ><div class = red_square id = topsquare></div>",null,encoding,word_square,,,0,topsquare,none,true,,,FRIES,8,,,
html-keyboard-response,920,1439764,null,"<div style=""font-size:42px;"">FRIES</div>",null,,word,FRIES,,,,,,,,,,,,
html-keyboard-response,921,1441282,null,"",null,,word,FRIES,,,,,,,,,,,,
html-keyboard-response,922,1441499,null,"<div style=""font-size:42px;"">TAVERN</div><img id = ""stim"" ><div class = red_square id = bottomsquare></div>",null,encoding,word_square,,,0,bottomsquare,none,true,,,TAVERN,8,,,
html-keyboard-response,923,1441811,null,"<div style=""font-size:42px;"">TAVERN</div>",null,,word,TAVERN,,,,,,,,,,,,
html-keyboard-response,924,1443330,null,"",null,,word,TAVERN,,,,,,,,,,,,
html-keyboard-response,925,1443549,null,"<div style=""font-size:42px;"">BRANCH</div><img id = ""stim"" ><div class = green_square id = bottomsquare></div>",null,encoding,word_square,,,1,bottomsquare,32,false,,,BRANCH,8,,,
html-keyboard-response,926,1443862,null,"<div style=""font-size:42px;"">BRANCH</div>",null,,word,BRANCH,,,,,,,,,,,,
html-keyboard-response,927,1445369,null,"",null,,word,BRANCH,,,,,,,,,,,,
html-keyboard-response,928,1445589,null,"<div style=""font-size:42px;"">CLIMBER</div><img id = ""stim"" ><div class = red_square id = topsquare></div>",null,encoding,word_square,,,0,topsquare,none,false,,,CLIMBER,8,,,
html-keyboard-response,929,1445903,null,"<div style=""font-size:42px;"">CLIMBER</div>",null,,word,CLIMBER,,,,,,,,,,,,
html-keyboard-response,930,1447423,531,"",32,,word,CLIMBER,,,,,,,,,,,,
call-function,931,1447429,,"",,,,,,,,,,,,,,,,
