trial_type,trial_index,time_elapsed,rt,stimulus,key_press,exp_phase,test_part,word,task,targ_cond,sq_pos,correctKeyCode,correct,value,response,Word,List,RecResp,serial_pos,colorChosen
pavlovia,0,2715,,"",,,,,,,,,,,,,,,,
external-html,1,95778,92902.19999998808,"",,,,,,,,,,,,,,,,
html-keyboard-response,2,98025,2244,"Welcome to the experiment. Press any key to begin.",32,,,,,,,,,,,,,,,
html-keyboard-response,3,106819,8793.099999964237,"<p>You will see a list of words and colored squares in the following task.<p><p>Press the spacebar whenever you see a GREEN square.<p><p>Do not press a key if the square is RED.<p><p>Press the spacebar to continue.</p>",32,,,,,,,,,,,,,,,
html-keyboard-response,4,131013,23684,"<p>Please try to remember as many of the words as you can, and try to think about the meaning of each word as it appears.<p><p>After the detection and encoding task you will be asked to solve some math problems for 24 seconds.<p> Please solve as many problems as you can in the time given. <p><p><p>Press the spacebar to continue.</p>",32,,,,,,,,,,,,,,,
html-keyboard-response,5,139019,7497.100000023842,"After solving the math problems, you will be asked to type in as many words <p>from the previous list as you can remember for 75 seconds.<p> If you finish recalling before the 75 seconds are up,<p> just sit tight and try to think of any more words you could have missed. <p><p><p>Press the spacebar to continue.</p>",32,,,,,,,,,,,,,,,
html-keyboard-response,6,147534,7998.400000035763,"There will be 16 lists of words and recall, followed  by<p><p> a recognition phase. The experiment is expected to take up to 90 minutes.<p>We will begin with a brief practice session.<p>Press the spacebar to begin the practice.</p>",32,,,,,,,,,,,,,,,
html-keyboard-response,7,150044,null,"<div style=""font-size:60px;"">+</div>",null,,,,,,,,,,,,,,,
html-keyboard-response,8,150257,null,"<div style=""font-size:42px;"">HAPPY</div><img id = ""stim"" ><div class = red_square id = ""bottomsquare"" ></div>",null,practice,word_square,HAPPY,prac_response,0,Bottom,none,false,,,,,,,
html-keyboard-response,9,150577,null,"<div style=""font-size:42px;"">HAPPY</div>",null,,word,HAPPY,,,,,,,,,,,,
html-keyboard-response,10,152086,233.9000000357628,"",32,,word,HAPPY,,,,,,,,,,,,
html-keyboard-response,11,152298,null,"<div style=""font-size:42px;"">COLD</div><img id = ""stim"" ><div class = green_square id = ""bottomsquare"" ></div>",null,practice,word_square,COLD,prac_response,1,Bottom,32,true,,,,,,,
html-keyboard-response,12,152604,null,"<div style=""font-size:42px;"">COLD</div>",null,,word,COLD,,,,,,,,,,,,
html-keyboard-response,13,154113,544.8999999761581,"",32,,word,COLD,,,,,,,,,,,,
html-keyboard-response,14,154326,null,"<div style=""font-size:42px;"">HEAVY</div><img id = ""stim"" ><div class = green_square id = ""topsquare"" ></div>",null,practice,word_square,HEAVY,prac_response,1,Top,32,true,,,,,,,
html-keyboard-response,15,154632,296,"<div style=""font-size:42px;"">HEAVY</div>",32,,word,HEAVY,,,,,,,,,,,,
html-keyboard-response,16,156141,null,"",null,,word,HEAVY,,,,,,,,,,,,
html-keyboard-response,17,156353,null,"<div style=""font-size:42px;"">FUNNY</div><img id = ""stim"" ><div class = red_square id = ""topsquare"" ></div>",null,practice,word_square,FUNNY,prac_response,0,Top,none,true,,,,,,,
html-keyboard-response,18,156659,null,"<div style=""font-size:42px;"">FUNNY</div>",null,,word,FUNNY,,,,,,,,,,,,
html-keyboard-response,19,158168,null,"",null,,word,FUNNY,,,,,,,,,,,,
html-keyboard-response,20,158379,null,"<div style=""font-size:42px;"">SCARY</div><img id = ""stim"" ><div class = green_square id = ""bottomsquare"" ></div>",null,practice,word_square,SCARY,prac_response,1,Bottom,32,true,,,,,,,
html-keyboard-response,21,158685,189.5999999642372,"<div style=""font-size:42px;"">SCARY</div>",32,,word,SCARY,,,,,,,,,,,,
html-keyboard-response,22,160195,null,"",null,,word,SCARY,,,,,,,,,,,,
html-keyboard-response,23,160407,null,"<div style=""font-size:42px;"">PEACEFUL</div><img id = ""stim"" ><div class = green_square id = ""topsquare"" ></div>",null,practice,word_square,PEACEFUL,prac_response,1,Top,32,true,,,,,,,
html-keyboard-response,24,160713,117.89999997615814,"<div style=""font-size:42px;"">PEACEFUL</div>",32,,word,PEACEFUL,,,,,,,,,,,,
html-keyboard-response,25,162222,null,"",null,,word,PEACEFUL,,,,,,,,,,,,
html-keyboard-response,26,162435,null,"<div style=""font-size:42px;"">LITTLE</div><img id = ""stim"" ><div class = red_square id = ""bottomsquare"" ></div>",null,practice,word_square,LITTLE,prac_response,0,Bottom,none,true,,,,,,,
html-keyboard-response,27,162741,null,"<div style=""font-size:42px;"">LITTLE</div>",null,,word,LITTLE,,,,,,,,,,,,
html-keyboard-response,28,164250,null,"",null,,word,LITTLE,,,,,,,,,,,,
html-keyboard-response,29,164464,null,"<div style=""font-size:42px;"">TIRED</div><img id = ""stim"" ><div class = red_square id = ""topsquare"" ></div>",null,practice,word_square,TIRED,prac_response,0,Top,none,true,,,,,,,
html-keyboard-response,30,164778,null,"<div style=""font-size:42px;"">TIRED</div>",null,,word,TIRED,,,,,,,,,,,,
html-keyboard-response,31,166281,null,"",null,,word,TIRED,,,,,,,,,,,,
html-keyboard-response,32,166493,null,"<div style=""font-size:42px;"">ENTERTAINING</div><img id = ""stim"" ><div class = red_square id = ""bottomsquare"" ></div>",null,practice,word_square,ENTERTAINING,prac_response,0,Bottom,none,true,,,,,,,
html-keyboard-response,33,166802,null,"<div style=""font-size:42px;"">ENTERTAINING</div>",null,,word,ENTERTAINING,,,,,,,,,,,,
html-keyboard-response,34,168311,null,"",null,,word,ENTERTAINING,,,,,,,,,,,,
html-keyboard-response,35,168525,null,"<div style=""font-size:42px;"">GRATEFUL</div><img id = ""stim"" ><div class = green_square id = ""bottomsquare"" ></div>",null,practice,word_square,GRATEFUL,prac_response,1,Bottom,32,true,,,,,,,
html-keyboard-response,36,168831,181.4000000357628,"<div style=""font-size:42px;"">GRATEFUL</div>",32,,word,GRATEFUL,,,,,,,,,,,,
html-keyboard-response,37,170339,null,"",null,,word,GRATEFUL,,,,,,,,,,,,
html-keyboard-response,38,170552,null,"<div style=""font-size:42px;"">LOUD</div><img id = ""stim"" ><div class = red_square id = ""topsquare"" ></div>",null,practice,word_square,LOUD,prac_response,0,Top,none,true,,,,,,,
html-keyboard-response,39,170858,null,"<div style=""font-size:42px;"">LOUD</div>",null,,word,LOUD,,,,,,,,,,,,
html-keyboard-response,40,172367,null,"",null,,word,LOUD,,,,,,,,,,,,
html-keyboard-response,41,172578,null,"<div style=""font-size:42px;"">SMART</div><img id = ""stim"" ><div class = green_square id = ""topsquare"" ></div>",null,practice,word_square,SMART,prac_response,1,Top,32,true,,,,,,,
html-keyboard-response,42,172884,206.80000001192093,"<div style=""font-size:42px;"">SMART</div>",32,,word,SMART,,,,,,,,,,,,
html-keyboard-response,43,174393,null,"",null,,word,SMART,,,,,,,,,,,,
html-keyboard-response,44,174608,null,"<div style=""font-size:42px;"">SMOOTH</div><img id = ""stim"" ><div class = green_square id = ""bottomsquare"" ></div>",null,practice,word_square,SMOOTH,prac_response,1,Bottom,32,true,,,,,,,
html-keyboard-response,45,174922,150.5999999642372,"<div style=""font-size:42px;"">SMOOTH</div>",32,,word,SMOOTH,,,,,,,,,,,,
html-keyboard-response,46,176425,null,"",null,,word,SMOOTH,,,,,,,,,,,,
html-keyboard-response,47,176638,null,"<div style=""font-size:42px;"">DISHONEST</div><img id = ""stim"" ><div class = red_square id = ""bottomsquare"" ></div>",null,practice,word_square,DISHONEST,prac_response,0,Bottom,none,true,,,,,,,
html-keyboard-response,48,176941,null,"<div style=""font-size:42px;"">DISHONEST</div>",null,,word,DISHONEST,,,,,,,,,,,,
html-keyboard-response,49,178458,null,"",null,,word,DISHONEST,,,,,,,,,,,,
html-keyboard-response,50,178670,null,"<div style=""font-size:42px;"">WEALTHY</div><img id = ""stim"" ><div class = green_square id = ""topsquare"" ></div>",null,practice,word_square,WEALTHY,prac_response,1,Top,32,true,,,,,,,
html-keyboard-response,51,178977,173.5,"<div style=""font-size:42px;"">WEALTHY</div>",32,,word,WEALTHY,,,,,,,,,,,,
html-keyboard-response,52,180486,null,"",null,,word,WEALTHY,,,,,,,,,,,,
html-keyboard-response,53,180698,null,"<div style=""font-size:42px;"">BEAUTIFUL</div><img id = ""stim"" ><div class = red_square id = ""topsquare"" ></div>",null,practice,word_square,BEAUTIFUL,prac_response,0,Top,none,true,,,,,,,
html-keyboard-response,54,181004,null,"<div style=""font-size:42px;"">BEAUTIFUL</div>",null,,word,BEAUTIFUL,,,,,,,,,,,,
html-keyboard-response,55,182513,null,"",null,,word,BEAUTIFUL,,,,,,,,,,,,
html-keyboard-response,56,188363,5847.5,"<p> Good job! You responded correctly to 94% of the trials. </p>
                  <p>Be sure to only press the spacebar if you see a GREEN square, and please keep your accuracy above 80%.</p>
                  <p>We're going to try once more to make sure you understand the task. press any key to continue. </p>",32,,,,,,,,,,,,,,,
html-keyboard-response,57,193182,4817.699999988079,"<p>You will see a list of words and colored squares in the following task.<p><p>Press the spacebar whenever you see a GREEN square.<p><p>Do not press a key if the square is RED<p><p>Press the spacebar to continue.</p>",32,,,,,,,,,,,,,,,
html-keyboard-response,58,195707,null,"<div style=""font-size:60px;"">+</div>",null,,,,,,,,,,,,,,,
html-keyboard-response,59,195913,null,"<div style=""font-size:42px;"">HAPPY</div><img id = ""stim"" ><div class = red_square id = ""bottomsquare"" ></div>",null,practice2,word_square,HAPPY,prac_response,0,Bottom,none,true,,,,,,,
html-keyboard-response,60,196219,null,"<div style=""font-size:42px;"">HAPPY</div>",null,,word,HAPPY,,,,,,,,,,,,
html-keyboard-response,61,197728,null,"",null,,word,HAPPY,,,,,,,,,,,,
html-keyboard-response,62,197933,null,"<div style=""font-size:42px;"">COLD</div><img id = ""stim"" ><div class = green_square id = ""bottomsquare"" ></div>",null,practice2,word_square,,prac_response,1,Bottom,32,true,,,,,,,
html-keyboard-response,63,198239,214.29999995231628,"<div style=""font-size:42px;"">COLD</div>",32,,word,COLD,,,,,,,,,,,,
html-keyboard-response,64,199749,null,"",null,,word,COLD,,,,,,,,,,,,
html-keyboard-response,65,199954,null,"<div style=""font-size:42px;"">HEAVY</div><img id = ""stim"" ><div class = green_square id = ""topsquare"" ></div>",null,practice2,word_square,,prac_response,1,Top,32,true,,,,,,,
html-keyboard-response,66,200260,181.5,"<div style=""font-size:42px;"">HEAVY</div>",32,,word,HEAVY,,,,,,,,,,,,
html-keyboard-response,67,201769,null,"",null,,word,HEAVY,,,,,,,,,,,,
html-keyboard-response,68,201974,null,"<div style=""font-size:42px;"">FUNNY</div><img id = ""stim"" ><div class = red_square id = ""topsquare"" ></div>",null,practice2,word_square,,prac_response,0,Top,none,true,,,,,,,
html-keyboard-response,69,202280,null,"<div style=""font-size:42px;"">FUNNY</div>",null,,word,FUNNY,,,,,,,,,,,,
html-keyboard-response,70,203789,null,"",null,,word,FUNNY,,,,,,,,,,,,
html-keyboard-response,71,203995,null,"<div style=""font-size:42px;"">SCARY</div><img id = ""stim"" ><div class = green_square id = ""bottomsquare"" ></div>",null,practice2,word_square,,prac_response,1,Bottom,32,true,,,,,,,
html-keyboard-response,72,204301,140.10000002384186,"<div style=""font-size:42px;"">SCARY</div>",32,,word,SCARY,,,,,,,,,,,,
html-keyboard-response,73,205810,null,"",null,,word,SCARY,,,,,,,,,,,,
html-keyboard-response,74,206015,null,"<div style=""font-size:42px;"">PEACEFUL</div><img id = ""stim"" ><div class = green_square id = ""topsquare"" ></div>",null,practice2,word_square,,prac_response,1,Top,32,true,,,,,,,
html-keyboard-response,75,206321,154.69999998807907,"<div style=""font-size:42px;"">PEACEFUL</div>",32,,word,PEACEFUL,,,,,,,,,,,,
html-keyboard-response,76,207830,null,"",null,,word,PEACEFUL,,,,,,,,,,,,
html-keyboard-response,77,208036,null,"<div style=""font-size:42px;"">LITTLE</div><img id = ""stim"" ><div class = red_square id = ""bottomsquare"" ></div>",null,practice2,word_square,LITTLE,prac_response,0,Bottom,none,true,,,,,,,
html-keyboard-response,78,208341,null,"<div style=""font-size:42px;"">LITTLE</div>",null,,word,LITTLE,,,,,,,,,,,,
html-keyboard-response,79,209850,null,"",null,,word,LITTLE,,,,,,,,,,,,
html-keyboard-response,80,210056,null,"<div style=""font-size:42px;"">TIRED</div><img id = ""stim"" ><div class = red_square id = ""topsquare"" ></div>",null,practice2,word_square,,prac_response,0,Top,none,true,,,,,,,
html-keyboard-response,81,210362,null,"<div style=""font-size:42px;"">TIRED</div>",null,,word,TIRED,,,,,,,,,,,,
html-keyboard-response,82,211871,null,"",null,,word,TIRED,,,,,,,,,,,,
html-keyboard-response,83,212077,null,"<div style=""font-size:42px;"">ENTERTAINING</div><img id = ""stim"" ><div class = red_square id = ""bottomsquare"" ></div>",null,practice2,word_square,ENTERTAINING,prac_response,0,Bottom,none,true,,,,,,,
html-keyboard-response,84,212382,null,"<div style=""font-size:42px;"">ENTERTAINING</div>",null,,word,ENTERTAINING,,,,,,,,,,,,
html-keyboard-response,85,213892,null,"",null,,word,ENTERTAINING,,,,,,,,,,,,
html-keyboard-response,86,214097,null,"<div style=""font-size:42px;"">GRATEFUL</div><img id = ""stim"" ><div class = green_square id = ""bottomsquare"" ></div>",null,practice2,word_square,,prac_response,1,Bottom,32,true,,,,,,,
html-keyboard-response,87,214403,177.29999995231628,"<div style=""font-size:42px;"">GRATEFUL</div>",32,,word,GRATEFUL,,,,,,,,,,,,
html-keyboard-response,88,215911,null,"",null,,word,GRATEFUL,,,,,,,,,,,,
html-keyboard-response,89,216123,null,"<div style=""font-size:42px;"">LOUD</div><img id = ""stim"" ><div class = red_square id = ""topsquare"" ></div>",null,practice2,word_square,,prac_response,0,Top,none,true,,,,,,,
html-keyboard-response,90,216427,null,"<div style=""font-size:42px;"">LOUD</div>",null,,word,LOUD,,,,,,,,,,,,
html-keyboard-response,91,217944,null,"",null,,word,LOUD,,,,,,,,,,,,
html-keyboard-response,92,218156,null,"<div style=""font-size:42px;"">SMART</div><img id = ""stim"" ><div class = green_square id = ""topsquare"" ></div>",null,practice2,word_square,,prac_response,1,Top,32,true,,,,,,,
html-keyboard-response,93,218462,null,"<div style=""font-size:42px;"">SMART</div>",null,,word,SMART,,,,,,,,,,,,
html-keyboard-response,94,219971,49.5,"",32,,word,SMART,,,,,,,,,,,,
html-keyboard-response,95,220184,null,"<div style=""font-size:42px;"">SMOOTH</div><img id = ""stim"" ><div class = green_square id = ""bottomsquare"" ></div>",null,practice2,word_square,,prac_response,1,Bottom,32,true,,,,,,,
html-keyboard-response,96,220491,202.10000002384186,"<div style=""font-size:42px;"">SMOOTH</div>",32,,word,SMOOTH,,,,,,,,,,,,
html-keyboard-response,97,222000,null,"",null,,word,SMOOTH,,,,,,,,,,,,
html-keyboard-response,98,222213,null,"<div style=""font-size:42px;"">DISHONEST</div><img id = ""stim"" ><div class = red_square id = ""bottomsquare"" ></div>",null,practice2,word_square,DISHONEST,prac_response,0,Bottom,none,true,,,,,,,
html-keyboard-response,99,222519,null,"<div style=""font-size:42px;"">DISHONEST</div>",null,,word,DISHONEST,,,,,,,,,,,,
html-keyboard-response,100,224028,null,"",null,,word,DISHONEST,,,,,,,,,,,,
html-keyboard-response,101,224240,null,"<div style=""font-size:42px;"">WEALTHY</div><img id = ""stim"" ><div class = green_square id = ""topsquare"" ></div>",null,practice2,word_square,,prac_response,1,Top,32,true,,,,,,,
html-keyboard-response,102,224547,190.69999998807907,"<div style=""font-size:42px;"">WEALTHY</div>",32,,word,WEALTHY,,,,,,,,,,,,
html-keyboard-response,103,226056,null,"",null,,word,WEALTHY,,,,,,,,,,,,
html-keyboard-response,104,226261,null,"<div style=""font-size:42px;"">BEAUTIFUL</div><img id = ""stim"" ><div class = red_square id = ""topsquare"" ></div>",null,practice2,word_square,,prac_response,0,Top,none,false,,,,,,,
html-keyboard-response,105,226568,null,"<div style=""font-size:42px;"">BEAUTIFUL</div>",null,,word,BEAUTIFUL,,,,,,,,,,,,
html-keyboard-response,106,228076,null,"",null,,word,BEAUTIFUL,,,,,,,,,,,,
html-keyboard-response,107,233208,5130.5,"<p> Good job! You responded correctly to 100% of the trials. </p>
                    <p>Be sure to only press the spacebar if you see a GREEN square, and please keep your accuracy above 80%.</p>
                    <p>Press any key to begin the math and recall sections. Thank you! </p>",32,,,,,,,,,,,,,,,
call-function,108,233209,,"",,,,,,,,,,,,,,,,
html-keyboard-response,109,233319,null,"",null,,,,,,,,,,,,,,,
math-period,110,237436,6408,"",,,,,,,,,,,5numpad,,,,,
html-keyboard-response,111,237538,null,"",null,,,,,,,,,,,,,,,
math-period,112,239566,3671.7000000476837,"",,,,,,,,,,,2numpad,,,,,
html-keyboard-response,113,239669,null,"",null,,,,,,,,,,,,,,,
math-period,114,243150,6554.599999964237,"",,,,,,,,,,,1numpad,,,,,
html-keyboard-response,115,243255,null,"",null,,,,,,,,,,,,,,,
math-period,116,248941,10748,"",,,,,,,,,,,2numpad,,,,,
html-keyboard-response,117,249044,null,"",null,,,,,,,,,,,,,,,
math-period,118,252616,6849.400000035763,"",,,,,,,,,,,5numpad,,,,,
html-keyboard-response,119,252728,null,"",null,,,,,,,,,,,,,,,
math-period,120,255657,5570.3999999165535,"",,,,,,,,,,,2numpad,,,,,
html-keyboard-response,121,255760,null,"",null,,,,,,,,,,,,,,,
math-period,122,257223,null,"",,,,,,,,,,,,,,,,
html-keyboard-response,123,258232,null,"Recall Period!",null,,,,,,,,,,,,,,,
call-function,124,258233,,"",,,,,,,,,,,,,,,,
html-keyboard-response,125,258335,null,"",null,,,,,,,,,,,,,,,
recall-period,126,263130,21147.99999988079,"",,,,,,,,,,,cold,,,,,
html-keyboard-response,127,263233,null,"",null,,,,,,,,,,,,,,,
recall-period,128,264911,4908.199999928474,"",,,,,,,,,,,heavy,,,,,
html-keyboard-response,129,265014,null,"",null,,,,,,,,,,,,,,,
recall-period,130,268778,22061.299999773502,"",,,,,,,,,,,smooth,,,,,
html-keyboard-response,131,268880,null,"",null,,,,,,,,,,,,,,,
recall-period,132,270546,5160.299999892712,"",,,,,,,,,,,smart,,,,,
html-keyboard-response,133,270650,null,"",null,,,,,,,,,,,,,,,
recall-period,134,272867,10788.599999904633,"",,,,,,,,,,,peaceful,,,,,
html-keyboard-response,135,272975,null,"",null,,,,,,,,,,,,,,,
recall-period,136,281657,40998.89999985695,"",,,,,,,,,,,cold,,,,,
html-keyboard-response,137,281762,null,"",null,,,,,,,,,,,,,,,
recall-period,138,289750,68161,"",,,,,,,,,,,beautiful,,,,,
html-keyboard-response,139,289853,null,"",null,,,,,,,,,,,,,,,
recall-period,140,294892,37631.7000002265,"",,,,,,,,,,,dishonest,,,,,
html-keyboard-response,141,295009,null,"",null,,,,,,,,,,,,,,,
recall-period,142,333234,null,"",,,,,,,,,,,,,,,,
html-keyboard-response,143,333745,null,"Time's Up!",null,,,,,,,,,,,,,,,
html-keyboard-response,144,337003,3256.399999976158,"<p>We will now begin the experiment!<p><p>Please try to remember all words from each list.<p><p>Press the spacebar whenever you see a GREEN square.<p><p><p><p>Press the spacebar to begin.</p>",32,,,,,,,,,,,,,,,
html-keyboard-response,145,339631,2124.300000011921,"<div style=""font-size:48px;"">Press any key to begin list 1 of 16 </div>",32,,,,,,,,,,,,,,,
html-keyboard-response,146,342147,null,"<div style=""font-size:60px;"">+</div>",null,,,,,,,,,,,,,,,
html-keyboard-response,147,342357,null,"<div style=""font-size:42px;"">ALMOND</div><img id = ""stim"" ><div class = green_square id = topsquare></div>",null,encoding,word_square,,,1,topsquare,32,true,,,ALMOND,0,,,
html-keyboard-response,148,342661,303,"<div style=""font-size:42px;"">ALMOND</div>",32,,word,ALMOND,,,,,,,,,,,,
html-keyboard-response,149,344171,null,"",null,,word,ALMOND,,,,,,,,,,,,
html-keyboard-response,150,344374,null,"<div style=""font-size:42px;"">RIFLE</div><img id = ""stim"" ><div class = green_square id = bottomsquare></div>",null,encoding,word_square,,,1,bottomsquare,32,true,,,RIFLE,0,,,
html-keyboard-response,151,344688,251.80000001192093,"<div style=""font-size:42px;"">RIFLE</div>",32,,word,RIFLE,,,,,,,,,,,,
html-keyboard-response,152,346189,null,"",null,,word,RIFLE,,,,,,,,,,,,
html-keyboard-response,153,346402,null,"<div style=""font-size:42px;"">JOKER</div><img id = ""stim"" ><div class = red_square id = bottomsquare></div>",null,encoding,word_square,,,0,bottomsquare,none,true,,,JOKER,0,,,
html-keyboard-response,154,346708,null,"<div style=""font-size:42px;"">JOKER</div>",null,,word,JOKER,,,,,,,,,,,,
html-keyboard-response,155,348217,null,"",null,,word,JOKER,,,,,,,,,,,,
html-keyboard-response,156,348430,null,"<div style=""font-size:42px;"">TUBA</div><img id = ""stim"" ><div class = red_square id = topsquare></div>",null,encoding,word_square,,,0,topsquare,none,true,,,TUBA,0,,,
html-keyboard-response,157,348736,null,"<div style=""font-size:42px;"">TUBA</div>",null,,word,TUBA,,,,,,,,,,,,
html-keyboard-response,158,350239,null,"",null,,word,TUBA,,,,,,,,,,,,
html-keyboard-response,159,350451,null,"<div style=""font-size:42px;"">RECORD</div><img id = ""stim"" ><div class = green_square id = topsquare></div>",null,encoding,word_square,,,1,topsquare,32,true,,,RECORD,0,,,
html-keyboard-response,160,350755,null,"<div style=""font-size:42px;"">RECORD</div>",null,,word,RECORD,,,,,,,,,,,,
html-keyboard-response,161,352272,3.5,"",32,,word,RECORD,,,,,,,,,,,,
html-keyboard-response,162,352484,null,"<div style=""font-size:42px;"">GRAVEL</div><img id = ""stim"" ><div class = red_square id = bottomsquare></div>",null,encoding,word_square,,,0,bottomsquare,none,true,,,GRAVEL,0,,,
html-keyboard-response,163,352790,null,"<div style=""font-size:42px;"">GRAVEL</div>",null,,word,GRAVEL,,,,,,,,,,,,
html-keyboard-response,164,354304,null,"",null,,word,GRAVEL,,,,,,,,,,,,
html-keyboard-response,165,354515,null,"<div style=""font-size:42px;"">BELT</div><img id = ""stim"" ><div class = red_square id = topsquare></div>",null,encoding,word_square,,,0,topsquare,none,true,,,BELT,0,,,
html-keyboard-response,166,354821,null,"<div style=""font-size:42px;"">BELT</div>",null,,word,BELT,,,,,,,,,,,,
html-keyboard-response,167,356330,null,"",null,,word,BELT,,,,,,,,,,,,
html-keyboard-response,168,356534,null,"<div style=""font-size:42px;"">MAGNET</div><img id = ""stim"" ><div class = green_square id = bottomsquare></div>",null,encoding,word_square,,,1,bottomsquare,32,true,,,MAGNET,0,,,
html-keyboard-response,169,356840,216.30000001192093,"<div style=""font-size:42px;"">MAGNET</div>",32,,word,MAGNET,,,,,,,,,,,,
html-keyboard-response,170,358352,null,"",null,,word,MAGNET,,,,,,,,,,,,
html-keyboard-response,171,358562,null,"<div style=""font-size:42px;"">EXPERT</div><img id = ""stim"" ><div class = red_square id = bottomsquare></div>",null,encoding,word_square,,,0,bottomsquare,none,true,,,EXPERT,0,,,
html-keyboard-response,172,358869,null,"<div style=""font-size:42px;"">EXPERT</div>",null,,word,EXPERT,,,,,,,,,,,,
html-keyboard-response,173,360378,null,"",null,,word,EXPERT,,,,,,,,,,,,
html-keyboard-response,174,360582,null,"<div style=""font-size:42px;"">TEACHER</div><img id = ""stim"" ><div class = green_square id = topsquare></div>",null,encoding,word_square,,,1,topsquare,32,true,,,TEACHER,0,,,
html-keyboard-response,175,360888,143.79999995231628,"<div style=""font-size:42px;"">TEACHER</div>",32,,word,TEACHER,,,,,,,,,,,,
html-keyboard-response,176,362397,null,"",null,,word,TEACHER,,,,,,,,,,,,
html-keyboard-response,177,362602,null,"<div style=""font-size:42px;"">INMATE</div><img id = ""stim"" ><div class = red_square id = topsquare></div>",null,encoding,word_square,,,0,topsquare,none,true,,,INMATE,0,,,
html-keyboard-response,178,362912,null,"<div style=""font-size:42px;"">INMATE</div>",null,,word,INMATE,,,,,,,,,,,,
html-keyboard-response,179,364425,null,"",null,,word,INMATE,,,,,,,,,,,,
html-keyboard-response,180,364634,null,"<div style=""font-size:42px;"">FRIES</div><img id = ""stim"" ><div class = red_square id = bottomsquare></div>",null,encoding,word_square,,,0,bottomsquare,none,true,,,FRIES,0,,,
html-keyboard-response,181,364948,null,"<div style=""font-size:42px;"">FRIES</div>",null,,word,FRIES,,,,,,,,,,,,
html-keyboard-response,182,366450,null,"",null,,word,FRIES,,,,,,,,,,,,
html-keyboard-response,183,366663,null,"<div style=""font-size:42px;"">CLOTHES</div><img id = ""stim"" ><div class = green_square id = bottomsquare></div>",null,encoding,word_square,,,1,bottomsquare,32,true,,,CLOTHES,0,,,
html-keyboard-response,184,366967,121.60000002384186,"<div style=""font-size:42px;"">CLOTHES</div>",32,,word,CLOTHES,,,,,,,,,,,,
html-keyboard-response,185,368484,null,"",null,,word,CLOTHES,,,,,,,,,,,,
html-keyboard-response,186,368696,null,"<div style=""font-size:42px;"">PISTOL</div><img id = ""stim"" ><div class = red_square id = topsquare></div>",null,encoding,word_square,,,0,topsquare,none,true,,,PISTOL,0,,,
html-keyboard-response,187,369002,null,"<div style=""font-size:42px;"">PISTOL</div>",null,,word,PISTOL,,,,,,,,,,,,
html-keyboard-response,188,370511,null,"",null,,word,PISTOL,,,,,,,,,,,,
html-keyboard-response,189,370724,null,"<div style=""font-size:42px;"">DIAMOND</div><img id = ""stim"" ><div class = green_square id = topsquare></div>",null,encoding,word_square,,,1,topsquare,32,true,,,DIAMOND,0,,,
html-keyboard-response,190,371030,null,"<div style=""font-size:42px;"">DIAMOND</div>",null,,word,DIAMOND,,,,,,,,,,,,
html-keyboard-response,191,372533,6.600000023841858,"",32,,word,DIAMOND,,,,,,,,,,,,
html-keyboard-response,192,372746,null,"<div style=""font-size:42px;"">AIRPORT</div><img id = ""stim"" ><div class = green_square id = bottomsquare></div>",null,encoding,word_square,,,1,bottomsquare,32,true,,,AIRPORT,0,,,
html-keyboard-response,193,373058,null,"<div style=""font-size:42px;"">AIRPORT</div>",null,,word,AIRPORT,,,,,,,,,,,,
html-keyboard-response,194,374561,30.600000023841858,"",32,,word,AIRPORT,,,,,,,,,,,,
call-function,195,374561,,"",,,,,,,,,,,,,,,,
html-keyboard-response,196,374666,null,"",null,,,,,,,,,,,,,,,
math-period,197,377344,4965.100000023842,"",,,,,,,,,,,4numpad,,,,,
html-keyboard-response,198,377447,null,"",null,,,,,,,,,,,,,,,
math-period,199,380976,6833.199999988079,"",,,,,,,,,,,0numpad,,,,,
html-keyboard-response,200,381080,null,"",null,,,,,,,,,,,,,,,
math-period,201,383055,3730.399999976158,"",,,,,,,,,,,1numpad,,,,,
html-keyboard-response,202,383158,null,"",null,,,,,,,,,,,,,,,
math-period,203,385004,3408.7000000476837,"",,,,,,,,,,,6numpad,,,,,
html-keyboard-response,204,385107,null,"",null,,,,,,,,,,,,,,,
math-period,205,388701,6950.699999988079,"",,,,,,,,,,,3numpad,,,,,
html-keyboard-response,206,388817,null,"",null,,,,,,,,,,,,,,,
math-period,207,392939,7953.5,"",,,,,,,,,,,2numpad,,,,,
html-keyboard-response,208,393042,null,"",null,,,,,,,,,,,,,,,
math-period,209,396132,5847.200000047684,"",,,,,,,,,,,4numpad,,,,,
html-keyboard-response,210,396234,null,"",null,,,,,,,,,,,,,,,
math-period,211,398566,null,"",,,,,,,,,,,,,,,,
html-keyboard-response,212,399574,null,"Recall Period!",null,,,,,,,,,,,,,,,
call-function,213,399574,,"",,,,,,,,,,,,,,,,
html-keyboard-response,214,399687,null,"",null,,,,,,,,,,,,,,,
recall-period,215,403742,21094.899999797344,"",,,,,,,,,,,rifle,,,,,
html-keyboard-response,216,403845,null,"",null,,,,,,,,,,,,,,,
recall-period,217,405986,10828.5,"",,,,,,,,,,,pistol,,,,,
html-keyboard-response,218,406089,null,"",null,,,,,,,,,,,,,,,
recall-period,219,408463,11744.80000025034,"",,,,,,,,,,,airport,,,,,
html-keyboard-response,220,408567,null,"",null,,,,,,,,,,,,,,,
recall-period,221,410250,8548.399999916553,"",,,,,,,,,,,teacher,,,,,
html-keyboard-response,222,410361,null,"",null,,,,,,,,,,,,,,,
recall-period,223,417874,46028.800000190735,"",,,,,,,,,,,gravel,,,,,
html-keyboard-response,224,417977,null,"",null,,,,,,,,,,,,,,,
recall-period,225,442681,166867.0000001192,"",,,,,,,,,,,almond,,,,,
html-keyboard-response,226,442792,null,"",null,,,,,,,,,,,,,,,
recall-period,227,448467,30935.400000095367,"",,,,,,,,,,,fries,,,,,
html-keyboard-response,228,448571,null,"",null,,,,,,,,,,,,,,,
recall-period,229,474579,null,"",,,,,,,,,,,,,,,,
html-keyboard-response,230,475087,null,"Time's Up!",null,,,,,,,,,,,,,,,
html-keyboard-response,231,482651,7563,"<p> Good job! You have responded correctly to 100% of the trials. </p>
                      <p>Be sure to only press the spacebar if you see a GREEN square, and please keep your accuracy above 80%.</p>
                      <p> Press any key to continue the experiment. </p>",32,,,,,,,,,,,,,,,
html-keyboard-response,232,484114,1461.3999999761581,"<div style=""font-size:48px;"">Press any key to begin list 2 of 16 </div>",32,,,,,,,,,,,,,,,
html-keyboard-response,233,486632,null,"<div style=""font-size:60px;"">+</div>",null,,,,,,,,,,,,,,,
html-keyboard-response,234,486844,null,"<div style=""font-size:42px;"">RAILROAD</div><img id = ""stim"" ><div class = green_square id = bottomsquare></div>",null,encoding,word_square,,,1,bottomsquare,32,true,,,RAILROAD,1,,,
html-keyboard-response,235,487150,null,"<div style=""font-size:42px;"">RAILROAD</div>",null,,word,RAILROAD,,,,,,,,,,,,
html-keyboard-response,236,488659,68.70000004768372,"",32,,word,RAILROAD,,,,,,,,,,,,
html-keyboard-response,237,488872,null,"<div style=""font-size:42px;"">TUTU</div><img id = ""stim"" ><div class = green_square id = topsquare></div>",null,encoding,word_square,,,1,topsquare,32,true,,,TUTU,1,,,
html-keyboard-response,238,489181,293.30000001192093,"<div style=""font-size:42px;"">TUTU</div>",32,,word,TUTU,,,,,,,,,,,,
html-keyboard-response,239,490684,null,"",null,,word,TUTU,,,,,,,,,,,,
html-keyboard-response,240,490896,null,"<div style=""font-size:42px;"">DRESS</div><img id = ""stim"" ><div class = red_square id = topsquare></div>",null,encoding,word_square,,,0,topsquare,none,true,,,DRESS,1,,,
html-keyboard-response,241,491200,null,"<div style=""font-size:42px;"">DRESS</div>",null,,word,DRESS,,,,,,,,,,,,
html-keyboard-response,242,492716,null,"",null,,word,DRESS,,,,,,,,,,,,
html-keyboard-response,243,492929,null,"<div style=""font-size:42px;"">PRIMATE</div><img id = ""stim"" ><div class = green_square id = bottomsquare></div>",null,encoding,word_square,,,1,bottomsquare,32,true,,,PRIMATE,1,,,
html-keyboard-response,244,493242,282.5,"<div style=""font-size:42px;"">PRIMATE</div>",32,,word,PRIMATE,,,,,,,,,,,,
html-keyboard-response,245,494745,null,"",null,,word,PRIMATE,,,,,,,,,,,,
html-keyboard-response,246,494957,null,"<div style=""font-size:42px;"">RACKET</div><img id = ""stim"" ><div class = red_square id = bottomsquare></div>",null,encoding,word_square,,,0,bottomsquare,none,true,,,RACKET,1,,,
html-keyboard-response,247,495262,null,"<div style=""font-size:42px;"">RACKET</div>",null,,word,RACKET,,,,,,,,,,,,
html-keyboard-response,248,496778,null,"",null,,word,RACKET,,,,,,,,,,,,
html-keyboard-response,249,496990,null,"<div style=""font-size:42px;"">STAIRS</div><img id = ""stim"" ><div class = red_square id = topsquare></div>",null,encoding,word_square,,,0,topsquare,none,true,,,STAIRS,1,,,
html-keyboard-response,250,497304,null,"<div style=""font-size:42px;"">STAIRS</div>",null,,word,STAIRS,,,,,,,,,,,,
html-keyboard-response,251,498807,null,"",null,,word,STAIRS,,,,,,,,,,,,
html-keyboard-response,252,499019,null,"<div style=""font-size:42px;"">MONEY</div><img id = ""stim"" ><div class = green_square id = topsquare></div>",null,encoding,word_square,,,1,topsquare,32,true,,,MONEY,1,,,
html-keyboard-response,253,499323,null,"<div style=""font-size:42px;"">MONEY</div>",null,,word,MONEY,,,,,,,,,,,,
html-keyboard-response,254,500840,110.89999997615814,"",32,,word,MONEY,,,,,,,,,,,,
html-keyboard-response,255,501052,null,"<div style=""font-size:42px;"">STALLION</div><img id = ""stim"" ><div class = red_square id = bottomsquare></div>",null,encoding,word_square,,,0,bottomsquare,none,true,,,STALLION,1,,,
html-keyboard-response,256,501366,null,"<div style=""font-size:42px;"">STALLION</div>",null,,word,STALLION,,,,,,,,,,,,
html-keyboard-response,257,502869,null,"",null,,word,STALLION,,,,,,,,,,,,
html-keyboard-response,258,503081,null,"<div style=""font-size:42px;"">MARROW</div><img id = ""stim"" ><div class = green_square id = bottomsquare></div>",null,encoding,word_square,,,1,bottomsquare,32,true,,,MARROW,1,,,
html-keyboard-response,259,503385,null,"<div style=""font-size:42px;"">MARROW</div>",null,,word,MARROW,,,,,,,,,,,,
html-keyboard-response,260,504901,178.5,"",32,,word,MARROW,,,,,,,,,,,,
html-keyboard-response,261,505114,null,"<div style=""font-size:42px;"">BACKBONE</div><img id = ""stim"" ><div class = red_square id = topsquare></div>",null,encoding,word_square,,,0,topsquare,none,true,,,BACKBONE,1,,,
html-keyboard-response,262,505427,null,"<div style=""font-size:42px;"">BACKBONE</div>",null,,word,BACKBONE,,,,,,,,,,,,
html-keyboard-response,263,506930,null,"",null,,word,BACKBONE,,,,,,,,,,,,
html-keyboard-response,264,507142,null,"<div style=""font-size:42px;"">POND</div><img id = ""stim"" ><div class = red_square id = bottomsquare></div>",null,encoding,word_square,,,0,bottomsquare,none,true,,,POND,1,,,
html-keyboard-response,265,507448,null,"<div style=""font-size:42px;"">POND</div>",null,,word,POND,,,,,,,,,,,,
html-keyboard-response,266,508952,null,"",null,,word,POND,,,,,,,,,,,,
html-keyboard-response,267,509157,null,"<div style=""font-size:42px;"">JUGGLER</div><img id = ""stim"" ><div class = green_square id = topsquare></div>",null,encoding,word_square,,,1,topsquare,32,true,,,JUGGLER,1,,,
html-keyboard-response,268,509464,288.10000002384186,"<div style=""font-size:42px;"">JUGGLER</div>",32,,word,JUGGLER,,,,,,,,,,,,
html-keyboard-response,269,510973,null,"",null,,word,JUGGLER,,,,,,,,,,,,
html-keyboard-response,270,511178,null,"<div style=""font-size:42px;"">GYMNAST</div><img id = ""stim"" ><div class = red_square id = topsquare></div>",null,encoding,word_square,,,0,topsquare,none,true,,,GYMNAST,1,,,
html-keyboard-response,271,511484,null,"<div style=""font-size:42px;"">GYMNAST</div>",null,,word,GYMNAST,,,,,,,,,,,,
html-keyboard-response,272,512994,null,"",null,,word,GYMNAST,,,,,,,,,,,,
html-keyboard-response,273,513206,null,"<div style=""font-size:42px;"">COMET</div><img id = ""stim"" ><div class = red_square id = bottomsquare></div>",null,encoding,word_square,,,0,bottomsquare,none,true,,,COMET,1,,,
html-keyboard-response,274,513512,null,"<div style=""font-size:42px;"">COMET</div>",null,,word,COMET,,,,,,,,,,,,
html-keyboard-response,275,515021,null,"",null,,word,COMET,,,,,,,,,,,,
html-keyboard-response,276,515226,null,"<div style=""font-size:42px;"">GIRL</div><img id = ""stim"" ><div class = green_square id = bottomsquare></div>",null,encoding,word_square,,,1,bottomsquare,32,true,,,GIRL,1,,,
html-keyboard-response,277,515532,172,"<div style=""font-size:42px;"">GIRL</div>",32,,word,GIRL,,,,,,,,,,,,
html-keyboard-response,278,517041,null,"",null,,word,GIRL,,,,,,,,,,,,
html-keyboard-response,279,517246,null,"<div style=""font-size:42px;"">MAPLE</div><img id = ""stim"" ><div class = green_square id = topsquare></div>",null,encoding,word_square,,,1,topsquare,32,true,,,MAPLE,1,,,
html-keyboard-response,280,517552,null,"<div style=""font-size:42px;"">MAPLE</div>",null,,word,MAPLE,,,,,,,,,,,,
html-keyboard-response,281,519061,271,"",32,,word,MAPLE,,,,,,,,,,,,
call-function,282,519062,,"",,,,,,,,,,,,,,,,
html-keyboard-response,283,519166,null,"",null,,,,,,,,,,,,,,,
math-period,284,521394,4014,"",,,,,,,,,,,2numpad,,,,,
html-keyboard-response,285,521497,null,"",null,,,,,,,,,,,,,,,
math-period,286,523168,3156.1000000834465,"",,,,,,,,,,,2numpad,,,,,
html-keyboard-response,287,523277,null,"",null,,,,,,,,,,,,,,,
math-period,288,524997,3165.900000035763,"",,,,,,,,,,,4numpad,,,,,
html-keyboard-response,289,525101,null,"",null,,,,,,,,,,,,,,,
math-period,290,529178,7940.100000023842,"",,,,,,,,,,,3numpad,,,,,
html-keyboard-response,291,529280,null,"",null,,,,,,,,,,,,,,,
math-period,292,533828,7745.899999976158,"",,,,,,,,,,,3numpad,,,,,
html-keyboard-response,293,533931,null,"",null,,,,,,,,,,,,,,,
math-period,294,537750,7279.400000035763,"",,,,,,,,,,,3numpad,,,,,
html-keyboard-response,295,537852,null,"",null,,,,,,,,,,,,,,,
math-period,296,539799,3627.100000023842,"",,,,,,,,,,,3numpad,,,,,
html-keyboard-response,297,539902,null,"",null,,,,,,,,,,,,,,,
math-period,298,543012,5618.5,"",,,,,,,,,,,1numpad,,,,,
html-keyboard-response,299,543124,null,"",null,,,,,,,,,,,,,,,
math-period,300,543127,null,"",,,,,,,,,,,,,,,,
html-keyboard-response,301,544141,null,"Recall Period!",null,,,,,,,,,,,,,,,
call-function,302,544142,,"",,,,,,,,,,,,,,,,
html-keyboard-response,303,544252,null,"",null,,,,,,,,,,,,,,,
recall-period,304,548369,20835.200000047684,"",,,,,,,,,,,maple,,,,,
html-keyboard-response,305,548480,null,"",null,,,,,,,,,,,,,,,
recall-period,306,551551,17686.800000071526,"",,,,,,,,,,,railroad,,,,,
html-keyboard-response,307,551654,null,"",null,,,,,,,,,,,,,,,
recall-period,308,553019,4632.100000143051,"",,,,,,,,,,,pond,,,,,
html-keyboard-response,309,553122,null,"",null,,,,,,,,,,,,,,,
recall-period,310,554743,5793.300000011921,"",,,,,,,,,,,girl,,,,,
html-keyboard-response,311,554854,null,"",null,,,,,,,,,,,,,,,
recall-period,312,575983,214230.89999985695,"",,,,,,,,,,,backbone,,,,,
html-keyboard-response,313,576086,null,"",null,,,,,,,,,,,,,,,
recall-period,314,577541,6480,"",,,,,,,,,,,marrow,,,,,
html-keyboard-response,315,577644,null,"",null,,,,,,,,,,,,,,,
recall-period,316,619145,null,"",,,,,,,,,,,,,,,,
html-keyboard-response,317,619654,null,"Time's Up!",null,,,,,,,,,,,,,,,
html-keyboard-response,318,629303,9647.600000023842,"<p> Good job! You have responded correctly to 100% of the trials. </p>
                      <p>Be sure to only press the spacebar if you see a GREEN square, and please keep your accuracy above 80%.</p>
                      <p> Press any key to continue the experiment. </p>",32,,,,,,,,,,,,,,,
html-keyboard-response,319,630609,1305.199999988079,"<div style=""font-size:48px;"">Press any key to begin list 3 of 16 </div>",32,,,,,,,,,,,,,,,
html-keyboard-response,320,633119,null,"<div style=""font-size:60px;"">+</div>",null,,,,,,,,,,,,,,,
html-keyboard-response,321,633324,null,"<div style=""font-size:42px;"">LAVA</div><img id = ""stim"" ><div class = red_square id = bottomsquare></div>",null,encoding,word_square,,,0,bottomsquare,none,true,,,LAVA,2,,,
html-keyboard-response,322,633630,null,"<div style=""font-size:42px;"">LAVA</div>",null,,word,LAVA,,,,,,,,,,,,
html-keyboard-response,323,635137,null,"",null,,word,LAVA,,,,,,,,,,,,
html-keyboard-response,324,635347,null,"<div style=""font-size:42px;"">HOUND</div><img id = ""stim"" ><div class = red_square id = topsquare></div>",null,encoding,word_square,,,0,topsquare,none,true,,,HOUND,2,,,
html-keyboard-response,325,635653,null,"<div style=""font-size:42px;"">HOUND</div>",null,,word,HOUND,,,,,,,,,,,,
html-keyboard-response,326,637166,null,"",null,,word,HOUND,,,,,,,,,,,,
html-keyboard-response,327,637378,null,"<div style=""font-size:42px;"">FOSSIL</div><img id = ""stim"" ><div class = green_square id = topsquare></div>",null,encoding,word_square,,,1,topsquare,32,true,,,FOSSIL,2,,,
html-keyboard-response,328,637688,null,"<div style=""font-size:42px;"">FOSSIL</div>",null,,word,FOSSIL,,,,,,,,,,,,
html-keyboard-response,329,639197,53.40000003576279,"",32,,word,FOSSIL,,,,,,,,,,,,
html-keyboard-response,330,639409,null,"<div style=""font-size:42px;"">DUSTPAN</div><img id = ""stim"" ><div class = green_square id = bottomsquare></div>",null,encoding,word_square,,,1,bottomsquare,32,true,,,DUSTPAN,2,,,
html-keyboard-response,331,639715,254.69999998807907,"<div style=""font-size:42px;"">DUSTPAN</div>",32,,word,DUSTPAN,,,,,,,,,,,,
html-keyboard-response,332,641224,null,"",null,,word,DUSTPAN,,,,,,,,,,,,
html-keyboard-response,333,641439,null,"<div style=""font-size:42px;"">RAISIN</div><img id = ""stim"" ><div class = red_square id = bottomsquare></div>",null,encoding,word_square,,,0,bottomsquare,none,true,,,RAISIN,2,,,
html-keyboard-response,334,641753,null,"<div style=""font-size:42px;"">RAISIN</div>",null,,word,RAISIN,,,,,,,,,,,,
html-keyboard-response,335,643257,null,"",null,,word,RAISIN,,,,,,,,,,,,
html-keyboard-response,336,643469,null,"<div style=""font-size:42px;"">PLIERS</div><img id = ""stim"" ><div class = green_square id = topsquare></div>",null,encoding,word_square,,,1,topsquare,32,true,,,PLIERS,2,,,
html-keyboard-response,337,643781,null,"<div style=""font-size:42px;"">PLIERS</div>",null,,word,PLIERS,,,,,,,,,,,,
html-keyboard-response,338,645287,0.09999996423721313,"",32,,word,PLIERS,,,,,,,,,,,,
html-keyboard-response,339,645498,null,"<div style=""font-size:42px;"">CHAUFFEUR</div><img id = ""stim"" ><div class = green_square id = bottomsquare></div>",null,encoding,word_square,,,1,bottomsquare,32,true,,,CHAUFFEUR,2,,,
html-keyboard-response,340,645804,null,"<div style=""font-size:42px;"">CHAUFFEUR</div>",null,,word,CHAUFFEUR,,,,,,,,,,,,
html-keyboard-response,341,647313,49.39999997615814,"",32,,word,CHAUFFEUR,,,,,,,,,,,,
html-keyboard-response,342,647525,null,"<div style=""font-size:42px;"">GIFT</div><img id = ""stim"" ><div class = red_square id = topsquare></div>",null,encoding,word_square,,,0,topsquare,none,true,,,GIFT,2,,,
html-keyboard-response,343,647832,null,"<div style=""font-size:42px;"">GIFT</div>",null,,word,GIFT,,,,,,,,,,,,
html-keyboard-response,344,649339,null,"",null,,word,GIFT,,,,,,,,,,,,
html-keyboard-response,345,649545,null,"<div style=""font-size:42px;"">FRAME</div><img id = ""stim"" ><div class = green_square id = topsquare></div>",null,encoding,word_square,,,1,topsquare,32,true,,,FRAME,2,,,
html-keyboard-response,346,649858,null,"<div style=""font-size:42px;"">FRAME</div>",null,,word,FRAME,,,,,,,,,,,,
html-keyboard-response,347,651367,37,"",32,,word,FRAME,,,,,,,,,,,,
html-keyboard-response,348,651572,null,"<div style=""font-size:42px;"">SOFTBALL</div><img id = ""stim"" ><div class = red_square id = bottomsquare></div>",null,encoding,word_square,,,0,bottomsquare,none,true,,,SOFTBALL,2,,,
html-keyboard-response,349,651879,null,"<div style=""font-size:42px;"">SOFTBALL</div>",null,,word,SOFTBALL,,,,,,,,,,,,
html-keyboard-response,350,653387,null,"",null,,word,SOFTBALL,,,,,,,,,,,,
html-keyboard-response,351,653593,null,"<div style=""font-size:42px;"">LACE</div><img id = ""stim"" ><div class = green_square id = bottomsquare></div>",null,encoding,word_square,,,1,bottomsquare,32,true,,,LACE,2,,,
html-keyboard-response,352,653899,null,"<div style=""font-size:42px;"">LACE</div>",null,,word,LACE,,,,,,,,,,,,
html-keyboard-response,353,655408,43.5,"",32,,word,LACE,,,,,,,,,,,,
html-keyboard-response,354,655613,null,"<div style=""font-size:42px;"">SNORKEL</div><img id = ""stim"" ><div class = green_square id = topsquare></div>",null,encoding,word_square,,,1,topsquare,32,true,,,SNORKEL,2,,,
html-keyboard-response,355,655919,null,"<div style=""font-size:42px;"">SNORKEL</div>",null,,word,SNORKEL,,,,,,,,,,,,
html-keyboard-response,356,657429,90.30000001192093,"",32,,word,SNORKEL,,,,,,,,,,,,
html-keyboard-response,357,657634,null,"<div style=""font-size:42px;"">CRICKET</div><img id = ""stim"" ><div class = red_square id = topsquare></div>",null,encoding,word_square,,,0,topsquare,none,true,,,CRICKET,2,,,
html-keyboard-response,358,657940,null,"<div style=""font-size:42px;"">CRICKET</div>",null,,word,CRICKET,,,,,,,,,,,,
html-keyboard-response,359,659449,null,"",null,,word,CRICKET,,,,,,,,,,,,
html-keyboard-response,360,659654,null,"<div style=""font-size:42px;"">HEART</div><img id = ""stim"" ><div class = green_square id = bottomsquare></div>",null,encoding,word_square,,,1,bottomsquare,32,true,,,HEART,2,,,
html-keyboard-response,361,659960,247.80000001192093,"<div style=""font-size:42px;"">HEART</div>",32,,word,HEART,,,,,,,,,,,,
html-keyboard-response,362,661471,null,"",null,,word,HEART,,,,,,,,,,,,
html-keyboard-response,363,661684,null,"<div style=""font-size:42px;"">DONOR</div><img id = ""stim"" ><div class = red_square id = bottomsquare></div>",null,encoding,word_square,,,0,bottomsquare,none,true,,,DONOR,2,,,
html-keyboard-response,364,661990,null,"<div style=""font-size:42px;"">DONOR</div>",null,,word,DONOR,,,,,,,,,,,,
html-keyboard-response,365,663499,null,"",null,,word,DONOR,,,,,,,,,,,,
html-keyboard-response,366,663709,null,"<div style=""font-size:42px;"">PORTRAIT</div><img id = ""stim"" ><div class = red_square id = topsquare></div>",null,encoding,word_square,,,0,topsquare,none,true,,,PORTRAIT,2,,,
html-keyboard-response,367,664016,null,"<div style=""font-size:42px;"">PORTRAIT</div>",null,,word,PORTRAIT,,,,,,,,,,,,
html-keyboard-response,368,665523,null,"",null,,word,PORTRAIT,,,,,,,,,,,,
call-function,369,665524,,"",,,,,,,,,,,,,,,,
html-keyboard-response,370,665629,null,"",null,,,,,,,,,,,,,,,
math-period,371,667416,3372.1999999284744,"",,,,,,,,,,,3numpad,,,,,
html-keyboard-response,372,667520,null,"",null,,,,,,,,,,,,,,,
math-period,373,669031,2787.3000000715256,"",,,,,,,,,,,3numpad,,,,,
html-keyboard-response,374,669142,null,"",null,,,,,,,,,,,,,,,
math-period,375,670793,2797.199999988079,"",,,,,,,,,,,3numpad,,,,,
html-keyboard-response,376,670896,null,"",null,,,,,,,,,,,,,,,
math-period,377,672903,3803.2000000476837,"",,,,,,,,,,,1numpad,,,,,
html-keyboard-response,378,673006,null,"",null,,,,,,,,,,,,,,,
math-period,379,677702,9041.5,"",,,,,,,,,,,1numpad,,,,,
html-keyboard-response,380,677805,null,"",null,,,,,,,,,,,,,,,
math-period,381,687776,132138.09999972582,"",,,,,,,,,,,5numpad,,,,,
html-keyboard-response,382,687879,null,"",null,,,,,,,,,,,,,,,
math-period,383,689531,null,"",,,,,,,,,,,,,,,,
html-keyboard-response,384,690540,null,"Recall Period!",null,,,,,,,,,,,,,,,
call-function,385,690541,,"",,,,,,,,,,,,,,,,
html-keyboard-response,386,690644,null,"",null,,,,,,,,,,,,,,,
recall-period,387,693123,10472.700000107288,"",,,,,,,,,,,lava,,,,,
html-keyboard-response,388,693226,null,"",null,,,,,,,,,,,,,,,
recall-period,389,694650,4713.700000047684,"",,,,,,,,,,,lace,,,,,
html-keyboard-response,390,694751,null,"",null,,,,,,,,,,,,,,,
recall-period,391,698480,16605.200000047684,"",,,,,,,,,,,gift,,,,,
html-keyboard-response,392,698581,null,"",null,,,,,,,,,,,,,,,
recall-period,393,701298,15295.599999785423,"",,,,,,,,,,,portrait,,,,,
html-keyboard-response,394,701415,null,"",null,,,,,,,,,,,,,,,
recall-period,395,703509,9659.299999892712,"",,,,,,,,,,,frame,,,,,
html-keyboard-response,396,703617,null,"",null,,,,,,,,,,,,,,,
recall-period,397,705801,10188.700000166893,"",,,,,,,,,,,heart,,,,,
html-keyboard-response,398,705904,null,"",null,,,,,,,,,,,,,,,
recall-period,399,707469,5721.799999952316,"",,,,,,,,,,,donor,,,,,
html-keyboard-response,400,707582,null,"",null,,,,,,,,,,,,,,,
recall-period,401,710419,16339.200000166893,"",,,,,,,,,,,chauffer,,,,,
html-keyboard-response,402,710522,null,"",null,,,,,,,,,,,,,,,
recall-period,403,765557,null,"",,,,,,,,,,,,,,,,
html-keyboard-response,404,766065,null,"Time's Up!",null,,,,,,,,,,,,,,,
html-keyboard-response,405,782356,16290,"<p> Good job! You have responded correctly to 100% of the trials. </p>
                      <p>Be sure to only press the spacebar if you see a GREEN square, and please keep your accuracy above 80%.</p>
                      <p> Press any key to continue the experiment. </p>",32,,,,,,,,,,,,,,,
html-keyboard-response,406,783573,1214.800000011921,"<div style=""font-size:48px;"">Press any key to begin list 4 of 16 </div>",32,,,,,,,,,,,,,,,
html-keyboard-response,407,786084,null,"<div style=""font-size:60px;"">+</div>",null,,,,,,,,,,,,,,,
html-keyboard-response,408,786304,null,"<div style=""font-size:42px;"">NICKEL</div><img id = ""stim"" ><div class = red_square id = topsquare></div>",null,encoding,word_square,,,0,topsquare,none,true,,,NICKEL,3,,,
html-keyboard-response,409,786624,null,"<div style=""font-size:42px;"">NICKEL</div>",null,,word,NICKEL,,,,,,,,,,,,
html-keyboard-response,410,788144,null,"",null,,word,NICKEL,,,,,,,,,,,,
html-keyboard-response,411,788364,null,"<div style=""font-size:42px;"">FLEET</div><img id = ""stim"" ><div class = red_square id = bottomsquare></div>",null,encoding,word_square,,,0,bottomsquare,none,true,,,FLEET,3,,,
html-keyboard-response,412,788674,null,"<div style=""font-size:42px;"">FLEET</div>",null,,word,FLEET,,,,,,,,,,,,
html-keyboard-response,413,790184,null,"",null,,word,FLEET,,,,,,,,,,,,
html-keyboard-response,414,790394,null,"<div style=""font-size:42px;"">CASTLE</div><img id = ""stim"" ><div class = green_square id = bottomsquare></div>",null,encoding,word_square,,,1,bottomsquare,32,true,,,CASTLE,3,,,
html-keyboard-response,415,790704,null,"<div style=""font-size:42px;"">CASTLE</div>",null,,word,CASTLE,,,,,,,,,,,,
html-keyboard-response,416,792224,62.799999952316284,"",32,,word,CASTLE,,,,,,,,,,,,
html-keyboard-response,417,792434,null,"<div style=""font-size:42px;"">GAZELLE</div><img id = ""stim"" ><div class = red_square id = topsquare></div>",null,encoding,word_square,,,0,topsquare,none,true,,,GAZELLE,3,,,
html-keyboard-response,418,792739,null,"<div style=""font-size:42px;"">GAZELLE</div>",null,,word,GAZELLE,,,,,,,,,,,,
html-keyboard-response,419,794253,null,"",null,,word,GAZELLE,,,,,,,,,,,,
html-keyboard-response,420,794470,null,"<div style=""font-size:42px;"">HONEY</div><img id = ""stim"" ><div class = green_square id = topsquare></div>",null,encoding,word_square,,,1,topsquare,32,true,,,HONEY,3,,,
html-keyboard-response,421,794786,null,"<div style=""font-size:42px;"">HONEY</div>",null,,word,HONEY,,,,,,,,,,,,
html-keyboard-response,422,796292,364.2999999523163,"",32,,word,HONEY,,,,,,,,,,,,
html-keyboard-response,423,796508,null,"<div style=""font-size:42px;"">WAX</div><img id = ""stim"" ><div class = green_square id = bottomsquare></div>",null,encoding,word_square,,,1,bottomsquare,32,true,,,WAX,3,,,
html-keyboard-response,424,796825,null,"<div style=""font-size:42px;"">WAX</div>",null,,word,WAX,,,,,,,,,,,,
html-keyboard-response,425,798334,29.30000001192093,"",32,,word,WAX,,,,,,,,,,,,
html-keyboard-response,426,798550,null,"<div style=""font-size:42px;"">DAUGHTER</div><img id = ""stim"" ><div class = red_square id = bottomsquare></div>",null,encoding,word_square,,,0,bottomsquare,none,true,,,DAUGHTER,3,,,
html-keyboard-response,427,798860,null,"<div style=""font-size:42px;"">DAUGHTER</div>",null,,word,DAUGHTER,,,,,,,,,,,,
html-keyboard-response,428,800369,null,"",null,,word,DAUGHTER,,,,,,,,,,,,
html-keyboard-response,429,800581,null,"<div style=""font-size:42px;"">CREATURE</div><img id = ""stim"" ><div class = green_square id = topsquare></div>",null,encoding,word_square,,,1,topsquare,32,true,,,CREATURE,3,,,
html-keyboard-response,430,800887,null,"<div style=""font-size:42px;"">CREATURE</div>",null,,word,CREATURE,,,,,,,,,,,,
html-keyboard-response,431,802398,49.69999998807907,"",32,,word,CREATURE,,,,,,,,,,,,
html-keyboard-response,432,802608,null,"<div style=""font-size:42px;"">ELK</div><img id = ""stim"" ><div class = red_square id = topsquare></div>",null,encoding,word_square,,,0,topsquare,none,true,,,ELK,3,,,
html-keyboard-response,433,802914,null,"<div style=""font-size:42px;"">ELK</div>",null,,word,ELK,,,,,,,,,,,,
html-keyboard-response,434,804423,null,"",null,,word,ELK,,,,,,,,,,,,
html-keyboard-response,435,804628,null,"<div style=""font-size:42px;"">SLACKS</div><img id = ""stim"" ><div class = green_square id = bottomsquare></div>",null,encoding,word_square,,,1,bottomsquare,32,true,,,SLACKS,3,,,
html-keyboard-response,436,804934,null,"<div style=""font-size:42px;"">SLACKS</div>",null,,word,SLACKS,,,,,,,,,,,,
html-keyboard-response,437,806444,213.39999997615814,"",32,,word,SLACKS,,,,,,,,,,,,
html-keyboard-response,438,806655,null,"<div style=""font-size:42px;"">WORKER</div><img id = ""stim"" ><div class = green_square id = topsquare></div>",null,encoding,word_square,,,1,topsquare,32,true,,,WORKER,3,,,
html-keyboard-response,439,806961,null,"<div style=""font-size:42px;"">WORKER</div>",null,,word,WORKER,,,,,,,,,,,,
html-keyboard-response,440,808471,760.3000000119209,"",32,,word,WORKER,,,,,,,,,,,,
html-keyboard-response,441,808676,null,"<div style=""font-size:42px;"">BRIDE</div><img id = ""stim"" ><div class = red_square id = bottomsquare></div>",null,encoding,word_square,,,0,bottomsquare,none,true,,,BRIDE,3,,,
html-keyboard-response,442,808982,null,"<div style=""font-size:42px;"">BRIDE</div>",null,,word,BRIDE,,,,,,,,,,,,
html-keyboard-response,443,810491,null,"",null,,word,BRIDE,,,,,,,,,,,,
html-keyboard-response,444,810696,null,"<div style=""font-size:42px;"">BANK</div><img id = ""stim"" ><div class = green_square id = bottomsquare></div>",null,encoding,word_square,,,1,bottomsquare,32,true,,,BANK,3,,,
html-keyboard-response,445,811003,267.80000001192093,"<div style=""font-size:42px;"">BANK</div>",32,,word,BANK,,,,,,,,,,,,
html-keyboard-response,446,812512,null,"",null,,word,BANK,,,,,,,,,,,,
html-keyboard-response,447,812724,null,"<div style=""font-size:42px;"">ATLAS</div><img id = ""stim"" ><div class = green_square id = topsquare></div>",null,encoding,word_square,,,1,topsquare,32,true,,,ATLAS,3,,,
html-keyboard-response,448,813030,null,"<div style=""font-size:42px;"">ATLAS</div>",null,,word,ATLAS,,,,,,,,,,,,
html-keyboard-response,449,814538,114.89999997615814,"",32,,word,ATLAS,,,,,,,,,,,,
html-keyboard-response,450,814744,null,"<div style=""font-size:42px;"">WORLD</div><img id = ""stim"" ><div class = red_square id = topsquare></div>",null,encoding,word_square,,,0,topsquare,none,true,,,WORLD,3,,,
html-keyboard-response,451,815050,null,"<div style=""font-size:42px;"">WORLD</div>",null,,word,WORLD,,,,,,,,,,,,
html-keyboard-response,452,816559,null,"",null,,word,WORLD,,,,,,,,,,,,
html-keyboard-response,453,816765,null,"<div style=""font-size:42px;"">LAPEL</div><img id = ""stim"" ><div class = red_square id = bottomsquare></div>",null,encoding,word_square,,,0,bottomsquare,none,true,,,LAPEL,3,,,
html-keyboard-response,454,817071,null,"<div style=""font-size:42px;"">LAPEL</div>",null,,word,LAPEL,,,,,,,,,,,,
html-keyboard-response,455,818580,null,"",null,,word,LAPEL,,,,,,,,,,,,
call-function,456,818581,,"",,,,,,,,,,,,,,,,
html-keyboard-response,457,818685,null,"",null,,,,,,,,,,,,,,,
math-period,458,822470,7181.100000023842,"",,,,,,,,,,,0numpad,,,,,
html-keyboard-response,459,822573,null,"",null,,,,,,,,,,,,,,,
math-period,460,824205,3022.699999988079,"",,,,,,,,,,,3numpad,,,,,
html-keyboard-response,461,824315,null,"",null,,,,,,,,,,,,,,,
math-period,462,827025,4847.399999976158,"",,,,,,,,,,,4numpad,,,,,
html-keyboard-response,463,827129,null,"",null,,,,,,,,,,,,,,,
math-period,464,829199,3842.599999964237,"",,,,,,,,,,,1numpad,,,,,
html-keyboard-response,465,829302,null,"",null,,,,,,,,,,,,,,,
math-period,466,830987,3029.199999988079,"",,,,,,,,,,,5numpad,,,,,
html-keyboard-response,467,831091,null,"",null,,,,,,,,,,,,,,,
math-period,468,833540,4563.5,"",,,,,,,,,,,1numpad,,,,,
html-keyboard-response,469,833653,null,"",null,,,,,,,,,,,,,,,
math-period,470,835409,3174.099999964237,"",,,,,,,,,,,3numpad,,,,,
html-keyboard-response,471,835512,null,"",null,,,,,,,,,,,,,,,
math-period,472,840574,9889.200000047684,"",,,,,,,,,,,0numpad,,,,,
html-keyboard-response,473,840685,null,"",null,,,,,,,,,,,,,,,
math-period,474,842587,null,"",,,,,,,,,,,,,,,,
html-keyboard-response,475,843596,null,"Recall Period!",null,,,,,,,,,,,,,,,
call-function,476,843597,,"",,,,,,,,,,,,,,,,
html-keyboard-response,477,843708,null,"",null,,,,,,,,,,,,,,,
recall-period,478,845898,7310.399999976158,"",,,,,,,,,,,elk,,,,,
html-keyboard-response,479,846001,null,"",null,,,,,,,,,,,,,,,
recall-period,480,849133,21998.80000013113,"",,,,,,,,,,,creature,,,,,
html-keyboard-response,481,849237,null,"",null,,,,,,,,,,,,,,,
recall-period,482,853633,33673.7000002265,"",,,,,,,,,,,daughter,,,,,
html-keyboard-response,483,853735,null,"",null,,,,,,,,,,,,,,,
recall-period,484,855151,4245.299999952316,"",,,,,,,,,,,wax,,,,,
html-keyboard-response,485,855254,null,"",null,,,,,,,,,,,,,,,
recall-period,486,856998,6780.200000047684,"",,,,,,,,,,,honey,,,,,
html-keyboard-response,487,857101,null,"",null,,,,,,,,,,,,,,,
recall-period,488,858952,7003.799999952316,"",,,,,,,,,,,atlas,,,,,
html-keyboard-response,489,859055,null,"",null,,,,,,,,,,,,,,,
recall-period,490,860888,6691.800000071526,"",,,,,,,,,,,world,,,,,
html-keyboard-response,491,860991,null,"",null,,,,,,,,,,,,,,,
recall-period,492,865628,23671.20000010729,"",,,,,,,,,,,lapel,,,,,
html-keyboard-response,493,865736,null,"",null,,,,,,,,,,,,,,,
recall-period,494,870386,24794.60000014305,"",,,,,,,,,,,honey,,,,,
html-keyboard-response,495,870489,null,"",null,,,,,,,,,,,,,,,
recall-period,496,875629,25662.099999964237,"",,,,,,,,,,,money,,,,,
html-keyboard-response,497,875746,null,"",null,,,,,,,,,,,,,,,
recall-period,498,882392,37020.59999990463,"",,,,,,,,,,,bride,,,,,
html-keyboard-response,499,882501,null,"",null,,,,,,,,,,,,,,,
recall-period,500,884126,7600.999999880791,"",,,,,,,,,,,worker,,,,,
html-keyboard-response,501,884229,null,"",null,,,,,,,,,,,,,,,
recall-period,502,918599,null,"",,,,,,,,,,,,,,,,
html-keyboard-response,503,919110,null,"Time's Up!",null,,,,,,,,,,,,,,,
html-keyboard-response,504,931919,12808.199999988079,"<p> Good job! You have responded correctly to 100% of the trials. </p>
                      <p>Be sure to only press the spacebar if you see a GREEN square, and please keep your accuracy above 80%.</p>
                      <p> Press any key to continue the experiment. </p>",32,,,,,,,,,,,,,,,
html-keyboard-response,505,933559,1638.3999999761581,"<div style=""font-size:48px;"">Press any key to begin list 5 of 16 </div>",32,,,,,,,,,,,,,,,
html-keyboard-response,506,936078,null,"<div style=""font-size:60px;"">+</div>",null,,,,,,,,,,,,,,,
html-keyboard-response,507,936286,null,"<div style=""font-size:42px;"">BALLOON</div><img id = ""stim"" ><div class = green_square id = topsquare></div>",null,encoding,word_square,,,1,topsquare,32,true,,,BALLOON,4,,,
html-keyboard-response,508,936598,null,"<div style=""font-size:42px;"">BALLOON</div>",null,,word,BALLOON,,,,,,,,,,,,
html-keyboard-response,509,938104,102.89999997615814,"",32,,word,BALLOON,,,,,,,,,,,,
html-keyboard-response,510,938312,null,"<div style=""font-size:42px;"">MARKET</div><img id = ""stim"" ><div class = red_square id = bottomsquare></div>",null,encoding,word_square,,,0,bottomsquare,none,true,,,MARKET,4,,,
html-keyboard-response,511,938616,null,"<div style=""font-size:42px;"">MARKET</div>",null,,word,MARKET,,,,,,,,,,,,
html-keyboard-response,512,940121,null,"",null,,word,MARKET,,,,,,,,,,,,
html-keyboard-response,513,940330,null,"<div style=""font-size:42px;"">SCALPEL</div><img id = ""stim"" ><div class = red_square id = topsquare></div>",null,encoding,word_square,,,0,topsquare,none,true,,,SCALPEL,4,,,
html-keyboard-response,514,940634,null,"<div style=""font-size:42px;"">SCALPEL</div>",null,,word,SCALPEL,,,,,,,,,,,,
html-keyboard-response,515,942149,null,"",null,,word,SCALPEL,,,,,,,,,,,,
html-keyboard-response,516,942365,null,"<div style=""font-size:42px;"">GLASSES</div><img id = ""stim"" ><div class = green_square id = bottomsquare></div>",null,encoding,word_square,,,1,bottomsquare,32,true,,,GLASSES,4,,,
html-keyboard-response,517,942669,null,"<div style=""font-size:42px;"">GLASSES</div>",null,,word,GLASSES,,,,,,,,,,,,
html-keyboard-response,518,944184,30.600000023841858,"",32,,word,GLASSES,,,,,,,,,,,,
html-keyboard-response,519,944392,null,"<div style=""font-size:42px;"">COBRA</div><img id = ""stim"" ><div class = green_square id = topsquare></div>",null,encoding,word_square,,,1,topsquare,32,true,,,COBRA,4,,,
html-keyboard-response,520,944697,null,"<div style=""font-size:42px;"">COBRA</div>",null,,word,COBRA,,,,,,,,,,,,
html-keyboard-response,521,946203,382.5,"",32,,word,COBRA,,,,,,,,,,,,
html-keyboard-response,522,946411,null,"<div style=""font-size:42px;"">SALT</div><img id = ""stim"" ><div class = green_square id = bottomsquare></div>",null,encoding,word_square,,,1,bottomsquare,32,true,,,SALT,4,,,
html-keyboard-response,523,946724,null,"<div style=""font-size:42px;"">SALT</div>",null,,word,SALT,,,,,,,,,,,,
html-keyboard-response,524,948230,61.19999998807907,"",32,,word,SALT,,,,,,,,,,,,
html-keyboard-response,525,948446,null,"<div style=""font-size:42px;"">PARSLEY</div><img id = ""stim"" ><div class = green_square id = topsquare></div>",null,encoding,word_square,,,1,topsquare,32,true,,,PARSLEY,4,,,
html-keyboard-response,526,948758,null,"<div style=""font-size:42px;"">PARSLEY</div>",null,,word,PARSLEY,,,,,,,,,,,,
html-keyboard-response,527,950264,190.9000000357628,"",32,,word,PARSLEY,,,,,,,,,,,,
html-keyboard-response,528,950473,null,"<div style=""font-size:42px;"">OZONE</div><img id = ""stim"" ><div class = red_square id = bottomsquare></div>",null,encoding,word_square,,,0,bottomsquare,none,true,,,OZONE,4,,,
html-keyboard-response,529,950777,null,"<div style=""font-size:42px;"">OZONE</div>",null,,word,OZONE,,,,,,,,,,,,
html-keyboard-response,530,952283,null,"",null,,word,OZONE,,,,,,,,,,,,
html-keyboard-response,531,952500,null,"<div style=""font-size:42px;"">SIRLOIN</div><img id = ""stim"" ><div class = red_square id = topsquare></div>",null,encoding,word_square,,,0,topsquare,none,true,,,SIRLOIN,4,,,
html-keyboard-response,532,952804,null,"<div style=""font-size:42px;"">SIRLOIN</div>",null,,word,SIRLOIN,,,,,,,,,,,,
html-keyboard-response,533,954310,null,"",null,,word,SIRLOIN,,,,,,,,,,,,
html-keyboard-response,534,954518,null,"<div style=""font-size:42px;"">PIANO</div><img id = ""stim"" ><div class = green_square id = bottomsquare></div>",null,encoding,word_square,,,1,bottomsquare,32,true,,,PIANO,4,,,
html-keyboard-response,535,954829,309.69999998807907,"<div style=""font-size:42px;"">PIANO</div>",32,,word,PIANO,,,,,,,,,,,,
html-keyboard-response,536,956345,null,"",null,,word,PIANO,,,,,,,,,,,,
html-keyboard-response,537,956553,null,"<div style=""font-size:42px;"">KIDNEY</div><img id = ""stim"" ><div class = red_square id = bottomsquare></div>",null,encoding,word_square,,,0,bottomsquare,none,true,,,KIDNEY,4,,,
html-keyboard-response,538,956857,null,"<div style=""font-size:42px;"">KIDNEY</div>",null,,word,KIDNEY,,,,,,,,,,,,
html-keyboard-response,539,958364,null,"",null,,word,KIDNEY,,,,,,,,,,,,
html-keyboard-response,540,958572,null,"<div style=""font-size:42px;"">ADULT</div><img id = ""stim"" ><div class = green_square id = topsquare></div>",null,encoding,word_square,,,1,topsquare,32,true,,,ADULT,4,,,
html-keyboard-response,541,958877,null,"<div style=""font-size:42px;"">ADULT</div>",null,,word,ADULT,,,,,,,,,,,,
html-keyboard-response,542,960392,133.20000004768372,"",32,,word,ADULT,,,,,,,,,,,,
html-keyboard-response,543,960600,null,"<div style=""font-size:42px;"">BUTLER</div><img id = ""stim"" ><div class = red_square id = topsquare></div>",null,encoding,word_square,,,0,topsquare,none,true,,,BUTLER,4,,,
html-keyboard-response,544,960904,null,"<div style=""font-size:42px;"">BUTLER</div>",null,,word,BUTLER,,,,,,,,,,,,
html-keyboard-response,545,962410,null,"",null,,word,BUTLER,,,,,,,,,,,,
html-keyboard-response,546,962618,null,"<div style=""font-size:42px;"">CANYON</div><img id = ""stim"" ><div class = green_square id = bottomsquare></div>",null,encoding,word_square,,,1,bottomsquare,32,true,,,CANYON,4,,,
html-keyboard-response,547,962922,null,"<div style=""font-size:42px;"">CANYON</div>",null,,word,CANYON,,,,,,,,,,,,
html-keyboard-response,548,964437,258.39999997615814,"",32,,word,CANYON,,,,,,,,,,,,
html-keyboard-response,549,964645,null,"<div style=""font-size:42px;"">CIGAR</div><img id = ""stim"" ><div class = red_square id = bottomsquare></div>",null,encoding,word_square,,,0,bottomsquare,none,true,,,CIGAR,4,,,
html-keyboard-response,550,964950,null,"<div style=""font-size:42px;"">CIGAR</div>",null,,word,CIGAR,,,,,,,,,,,,
html-keyboard-response,551,966465,null,"",null,,word,CIGAR,,,,,,,,,,,,
html-keyboard-response,552,966681,null,"<div style=""font-size:42px;"">SPICE</div><img id = ""stim"" ><div class = red_square id = topsquare></div>",null,encoding,word_square,,,0,topsquare,none,true,,,SPICE,4,,,
html-keyboard-response,553,966991,null,"<div style=""font-size:42px;"">SPICE</div>",null,,word,SPICE,,,,,,,,,,,,
html-keyboard-response,554,968501,null,"",null,,word,SPICE,,,,,,,,,,,,
call-function,555,968502,,"",,,,,,,,,,,,,,,,
html-keyboard-response,556,968609,null,"",null,,,,,,,,,,,,,,,
math-period,557,970876,3767.8000000715256,"",,,,,,,,,,,3numpad,,,,,
html-keyboard-response,558,970990,null,"",null,,,,,,,,,,,,,,,
math-period,559,972760,3064.699999988079,"",,,,,,,,,,,4numpad,,,,,
html-keyboard-response,560,972867,null,"",null,,,,,,,,,,,,,,,
math-period,561,974407,2720.399999976158,"",,,,,,,,,,,5numpad,,,,,
html-keyboard-response,562,974511,null,"",null,,,,,,,,,,,,,,,
math-period,563,976250,2964.699999988079,"",,,,,,,,,,,4numpad,,,,,
html-keyboard-response,564,976352,null,"",null,,,,,,,,,,,,,,,
math-period,565,979665,6289.000000059605,"",,,,,,,,,,,3numpad,,,,,
html-keyboard-response,566,979767,null,"",null,,,,,,,,,,,,,,,
math-period,567,981595,3222,"",,,,,,,,,,,3numpad,,,,,
html-keyboard-response,568,981699,null,"",null,,,,,,,,,,,,,,,
math-period,569,983419,2995.6999999284744,"",,,,,,,,,,,6numpad,,,,,
html-keyboard-response,570,983526,null,"",null,,,,,,,,,,,,,,,
math-period,571,985812,4273.099999964237,"",,,,,,,,,,,1numpad,,,,,
html-keyboard-response,572,985921,null,"",null,,,,,,,,,,,,,,,
math-period,573,987564,2927.199999988079,"",,,,,,,,,,,5numpad,,,,,
html-keyboard-response,574,987675,null,"",null,,,,,,,,,,,,,,,
math-period,575,989456,3119.800000011921,"",,,,,,,,,,,3numpad,,,,,
html-keyboard-response,576,989557,null,"",null,,,,,,,,,,,,,,,
math-period,577,991762,4061.0000000596046,"",,,,,,,,,,,5numpad,,,,,
html-keyboard-response,578,991865,null,"",null,,,,,,,,,,,,,,,
math-period,579,992507,null,"",,,,,,,,,,,,,,,,
html-keyboard-response,580,993516,null,"Recall Period!",null,,,,,,,,,,,,,,,
call-function,581,993516,,"",,,,,,,,,,,,,,,,
html-keyboard-response,582,993628,null,"",null,,,,,,,,,,,,,,,
recall-period,583,998303,24351.30000001192,"",,,,,,,,,,,cigar,,,,,
html-keyboard-response,584,998411,null,"",null,,,,,,,,,,,,,,,
recall-period,585,1000774,8890.699999928474,"",,,,,,,,,,,canyon,,,,,
html-keyboard-response,586,1000878,null,"",null,,,,,,,,,,,,,,,
recall-period,587,1003009,7439.399999976158,"",,,,,,,,,,,adult,,,,,
html-keyboard-response,588,1003123,null,"",null,,,,,,,,,,,,,,,
recall-period,589,1005109,9674.899999916553,"",,,,,,,,,,,butler,,,,,
html-keyboard-response,590,1005213,null,"",null,,,,,,,,,,,,,,,
recall-period,591,1007935,14329.600000023842,"",,,,,,,,,,,sirloin,,,,,
html-keyboard-response,592,1008042,null,"",null,,,,,,,,,,,,,,,
recall-period,593,1009953,8053.400000095367,"",,,,,,,,,,,ozone,,,,,
html-keyboard-response,594,1010059,null,"",null,,,,,,,,,,,,,,,
recall-period,595,1068523,null,"",,,,,,,,,,,,,,,,
html-keyboard-response,596,1069035,null,"Time's Up!",null,,,,,,,,,,,,,,,
html-keyboard-response,597,1076973,7936.599999964237,"<p> Good job! You have responded correctly to 100% of the trials. </p>
                      <p>Be sure to only press the spacebar if you see a GREEN square, and please keep your accuracy above 80%.</p>
                      <p> Press any key to continue the experiment. </p>",32,,,,,,,,,,,,,,,
html-keyboard-response,598,1079579,2604.400000035763,"<div style=""font-size:48px;"">Press any key to begin list 6 of 16 </div>",32,,,,,,,,,,,,,,,
html-keyboard-response,599,1082091,null,"<div style=""font-size:60px;"">+</div>",null,,,,,,,,,,,,,,,
html-keyboard-response,600,1082299,null,"<div style=""font-size:42px;"">BEAKER</div><img id = ""stim"" ><div class = red_square id = topsquare></div>",null,encoding,word_square,,,0,topsquare,none,true,,,BEAKER,5,,,
html-keyboard-response,601,1082611,null,"<div style=""font-size:42px;"">BEAKER</div>",null,,word,BEAKER,,,,,,,,,,,,
html-keyboard-response,602,1084124,null,"",null,,word,BEAKER,,,,,,,,,,,,
html-keyboard-response,603,1084333,null,"<div style=""font-size:42px;"">BOUQUET</div><img id = ""stim"" ><div class = red_square id = bottomsquare></div>",null,encoding,word_square,,,0,bottomsquare,none,true,,,BOUQUET,5,,,
html-keyboard-response,604,1084637,null,"<div style=""font-size:42px;"">BOUQUET</div>",null,,word,BOUQUET,,,,,,,,,,,,
html-keyboard-response,605,1086143,null,"",null,,word,BOUQUET,,,,,,,,,,,,
html-keyboard-response,606,1086351,null,"<div style=""font-size:42px;"">TWIG</div><img id = ""stim"" ><div class = green_square id = bottomsquare></div>",null,encoding,word_square,,,1,bottomsquare,32,true,,,TWIG,5,,,
html-keyboard-response,607,1086656,null,"<div style=""font-size:42px;"">TWIG</div>",null,,word,TWIG,,,,,,,,,,,,
html-keyboard-response,608,1088163,25.599999964237213,"",32,,word,TWIG,,,,,,,,,,,,
html-keyboard-response,609,1088379,null,"<div style=""font-size:42px;"">SHRUB</div><img id = ""stim"" ><div class = red_square id = topsquare></div>",null,encoding,word_square,,,0,topsquare,none,true,,,SHRUB,5,,,
html-keyboard-response,610,1088683,null,"<div style=""font-size:42px;"">SHRUB</div>",null,,word,SHRUB,,,,,,,,,,,,
html-keyboard-response,611,1090197,null,"",null,,word,SHRUB,,,,,,,,,,,,
html-keyboard-response,612,1090413,null,"<div style=""font-size:42px;"">BASKET</div><img id = ""stim"" ><div class = green_square id = topsquare></div>",null,encoding,word_square,,,1,topsquare,32,true,,,BASKET,5,,,
html-keyboard-response,613,1090726,243.30000001192093,"<div style=""font-size:42px;"">BASKET</div>",32,,word,BASKET,,,,,,,,,,,,
html-keyboard-response,614,1092232,null,"",null,,word,BASKET,,,,,,,,,,,,
html-keyboard-response,615,1092440,null,"<div style=""font-size:42px;"">FEMALE</div><img id = ""stim"" ><div class = red_square id = bottomsquare></div>",null,encoding,word_square,,,0,bottomsquare,none,true,,,FEMALE,5,,,
html-keyboard-response,616,1092753,null,"<div style=""font-size:42px;"">FEMALE</div>",null,,word,FEMALE,,,,,,,,,,,,
html-keyboard-response,617,1094267,null,"",null,,word,FEMALE,,,,,,,,,,,,
html-keyboard-response,618,1094483,null,"<div style=""font-size:42px;"">CABOOSE</div><img id = ""stim"" ><div class = green_square id = bottomsquare></div>",null,encoding,word_square,,,1,bottomsquare,32,true,,,CABOOSE,5,,,
html-keyboard-response,619,1094787,173.69999998807907,"<div style=""font-size:42px;"">CABOOSE</div>",32,,word,CABOOSE,,,,,,,,,,,,
html-keyboard-response,620,1096294,null,"",null,,word,CABOOSE,,,,,,,,,,,,
html-keyboard-response,621,1096502,null,"<div style=""font-size:42px;"">NEUTRON</div><img id = ""stim"" ><div class = red_square id = topsquare></div>",null,encoding,word_square,,,0,topsquare,none,true,,,NEUTRON,5,,,
html-keyboard-response,622,1096806,null,"<div style=""font-size:42px;"">NEUTRON</div>",null,,word,NEUTRON,,,,,,,,,,,,
html-keyboard-response,623,1098321,null,"",null,,word,NEUTRON,,,,,,,,,,,,
html-keyboard-response,624,1098537,null,"<div style=""font-size:42px;"">FIREMAN</div><img id = ""stim"" ><div class = red_square id = bottomsquare></div>",null,encoding,word_square,,,0,bottomsquare,none,true,,,FIREMAN,5,,,
html-keyboard-response,625,1098842,null,"<div style=""font-size:42px;"">FIREMAN</div>",null,,word,FIREMAN,,,,,,,,,,,,
html-keyboard-response,626,1100356,null,"",null,,word,FIREMAN,,,,,,,,,,,,
html-keyboard-response,627,1100565,null,"<div style=""font-size:42px;"">HAMMOCK</div><img id = ""stim"" ><div class = green_square id = topsquare></div>",null,encoding,word_square,,,1,topsquare,32,true,,,HAMMOCK,5,,,
html-keyboard-response,628,1100869,null,"<div style=""font-size:42px;"">HAMMOCK</div>",null,,word,HAMMOCK,,,,,,,,,,,,
html-keyboard-response,629,1102375,135.79999995231628,"",32,,word,HAMMOCK,,,,,,,,,,,,
html-keyboard-response,630,1102583,null,"<div style=""font-size:42px;"">CRAB</div><img id = ""stim"" ><div class = green_square id = bottomsquare></div>",null,encoding,word_square,,,1,bottomsquare,32,true,,,CRAB,5,,,
html-keyboard-response,631,1102888,303.30000001192093,"<div style=""font-size:42px;"">CRAB</div>",32,,word,CRAB,,,,,,,,,,,,
html-keyboard-response,632,1104402,null,"",null,,word,CRAB,,,,,,,,,,,,
html-keyboard-response,633,1104610,null,"<div style=""font-size:42px;"">CORAL</div><img id = ""stim"" ><div class = green_square id = topsquare></div>",null,encoding,word_square,,,1,topsquare,32,true,,,CORAL,5,,,
html-keyboard-response,634,1104914,203.60000002384186,"<div style=""font-size:42px;"">CORAL</div>",32,,word,CORAL,,,,,,,,,,,,
html-keyboard-response,635,1106420,null,"",null,,word,CORAL,,,,,,,,,,,,
html-keyboard-response,636,1106628,null,"<div style=""font-size:42px;"">LIPSTICK</div><img id = ""stim"" ><div class = green_square id = bottomsquare></div>",null,encoding,word_square,,,1,bottomsquare,32,true,,,LIPSTICK,5,,,
html-keyboard-response,637,1106941,null,"<div style=""font-size:42px;"">LIPSTICK</div>",null,,word,LIPSTICK,,,,,,,,,,,,
html-keyboard-response,638,1108455,25,"",32,,word,LIPSTICK,,,,,,,,,,,,
html-keyboard-response,639,1108663,null,"<div style=""font-size:42px;"">RADISH</div><img id = ""stim"" ><div class = red_square id = topsquare></div>",null,encoding,word_square,,,0,topsquare,none,true,,,RADISH,5,,,
html-keyboard-response,640,1108976,null,"<div style=""font-size:42px;"">RADISH</div>",null,,word,RADISH,,,,,,,,,,,,
html-keyboard-response,641,1110488,null,"",null,,word,RADISH,,,,,,,,,,,,
html-keyboard-response,642,1110705,null,"<div style=""font-size:42px;"">CIRCUS</div><img id = ""stim"" ><div class = red_square id = bottomsquare></div>",null,encoding,word_square,,,0,bottomsquare,none,true,,,CIRCUS,5,,,
html-keyboard-response,643,1111017,null,"<div style=""font-size:42px;"">CIRCUS</div>",null,,word,CIRCUS,,,,,,,,,,,,
html-keyboard-response,644,1112532,null,"",null,,word,CIRCUS,,,,,,,,,,,,
html-keyboard-response,645,1112748,null,"<div style=""font-size:42px;"">OATMEAL</div><img id = ""stim"" ><div class = green_square id = topsquare></div>",null,encoding,word_square,,,1,topsquare,32,true,,,OATMEAL,5,,,
html-keyboard-response,646,1113052,278,"<div style=""font-size:42px;"">OATMEAL</div>",32,,word,OATMEAL,,,,,,,,,,,,
html-keyboard-response,647,1114559,null,"",null,,word,OATMEAL,,,,,,,,,,,,
call-function,648,1114560,,"",,,,,,,,,,,,,,,,
html-keyboard-response,649,1114663,null,"",null,,,,,,,,,,,,,,,
math-period,650,1117360,4333.600000023842,"",,,,,,,,,,,3numpad,,,,,
html-keyboard-response,651,1117473,null,"",null,,,,,,,,,,,,,,,
math-period,652,1120585,5756.699999988079,"",,,,,,,,,,,2numpad,,,,,
html-keyboard-response,653,1120701,null,"",null,,,,,,,,,,,,,,,
math-period,654,1123870,5822.899999976158,"",,,,,,,,,,,0numpad,,,,,
html-keyboard-response,655,1123982,null,"",null,,,,,,,,,,,,,,,
math-period,656,1125587,2756.300000011921,"",,,,,,,,,,,2numpad,,,,,
html-keyboard-response,657,1125694,null,"",null,,,,,,,,,,,,,,,
math-period,658,1127328,2852.7000000476837,"",,,,,,,,,,,4numpad,,,,,
html-keyboard-response,659,1127433,null,"",null,,,,,,,,,,,,,,,
math-period,660,1129179,2923.800000011921,"",,,,,,,,,,,5numpad,,,,,
html-keyboard-response,661,1129291,null,"",null,,,,,,,,,,,,,,,
math-period,662,1131243,3516.2999999523163,"",,,,,,,,,,,2numpad,,,,,
html-keyboard-response,663,1131350,null,"",null,,,,,,,,,,,,,,,
math-period,664,1133148,3249.600000023842,"",,,,,,,,,,,3numpad,,,,,
html-keyboard-response,665,1133251,null,"",null,,,,,,,,,,,,,,,
math-period,666,1136093,4914.300000011921,"",,,,,,,,,,,3numpad,,,,,
html-keyboard-response,667,1136198,null,"",null,,,,,,,,,,,,,,,
math-period,668,1138174,3672.2999999523163,"",,,,,,,,,,,2numpad,,,,,
html-keyboard-response,669,1138289,null,"",null,,,,,,,,,,,,,,,
math-period,670,1138561,null,"",,,,,,,,,,,,,,,,
html-keyboard-response,671,1139570,null,"Recall Period!",null,,,,,,,,,,,,,,,
call-function,672,1139571,,"",,,,,,,,,,,,,,,,
html-keyboard-response,673,1139675,null,"",null,,,,,,,,,,,,,,,
recall-period,674,1142205,9525.49999988079,"",,,,,,,,,,,crab,,,,,
html-keyboard-response,675,1142318,null,"",null,,,,,,,,,,,,,,,
recall-period,676,1144147,7947.299999952316,"",,,,,,,,,,,coral,,,,,
html-keyboard-response,677,1144257,null,"",null,,,,,,,,,,,,,,,
recall-period,678,1146588,12164.499999821186,"",,,,,,,,,,,lipstick,,,,,
html-keyboard-response,679,1146699,null,"",null,,,,,,,,,,,,,,,
recall-period,680,1148926,10979.899999976158,"",,,,,,,,,,,oatmeal,,,,,
html-keyboard-response,681,1149038,null,"",null,,,,,,,,,,,,,,,
recall-period,682,1169422,158178.60000020266,"",,,,,,,,,,,fireman,,,,,
html-keyboard-response,683,1169525,null,"",null,,,,,,,,,,,,,,,
recall-period,684,1175165,35505.50000011921,"",,,,,,,,,,,neutron,,,,,
html-keyboard-response,685,1175269,null,"",null,,,,,,,,,,,,,,,
recall-period,686,1177110,8412.500000059605,"",,,,,,,,,,,beaker,,,,,
html-keyboard-response,687,1177212,null,"",null,,,,,,,,,,,,,,,
recall-period,688,1214578,null,"",,,,,,,,,,,,,,,,
html-keyboard-response,689,1215082,null,"Time's Up!",null,,,,,,,,,,,,,,,
html-keyboard-response,690,1216808,1724.5,"<p> Good job! You have responded correctly to 100% of the trials. </p>
                      <p>Be sure to only press the spacebar if you see a GREEN square, and please keep your accuracy above 80%.</p>
                      <p> Press any key to continue the experiment. </p>",32,,,,,,,,,,,,,,,
html-keyboard-response,691,1223108,6300,"<div style=""font-size:48px;"">Press any key to begin list 7 of 16 </div>",32,,,,,,,,,,,,,,,
html-keyboard-response,692,1225625,null,"<div style=""font-size:60px;"">+</div>",null,,,,,,,,,,,,,,,
html-keyboard-response,693,1225834,null,"<div style=""font-size:42px;"">TOILET</div><img id = ""stim"" ><div class = red_square id = bottomsquare></div>",null,encoding,word_square,,,0,bottomsquare,none,true,,,TOILET,6,,,
html-keyboard-response,694,1226138,null,"<div style=""font-size:42px;"">TOILET</div>",null,,word,TOILET,,,,,,,,,,,,
html-keyboard-response,695,1227646,null,"",null,,word,TOILET,,,,,,,,,,,,
html-keyboard-response,696,1227862,null,"<div style=""font-size:42px;"">BISON</div><img id = ""stim"" ><div class = green_square id = topsquare></div>",null,encoding,word_square,,,1,topsquare,32,true,,,BISON,6,,,
html-keyboard-response,697,1228175,260.60000002384186,"<div style=""font-size:42px;"">BISON</div>",32,,word,BISON,,,,,,,,,,,,
html-keyboard-response,698,1229689,null,"",null,,word,BISON,,,,,,,,,,,,
html-keyboard-response,699,1229906,null,"<div style=""font-size:42px;"">CATTLE</div><img id = ""stim"" ><div class = green_square id = bottomsquare></div>",null,encoding,word_square,,,1,bottomsquare,32,true,,,CATTLE,6,,,
html-keyboard-response,700,1230210,270.80000001192093,"<div style=""font-size:42px;"">CATTLE</div>",32,,word,CATTLE,,,,,,,,,,,,
html-keyboard-response,701,1231717,null,"",null,,word,CATTLE,,,,,,,,,,,,
html-keyboard-response,702,1231925,null,"<div style=""font-size:42px;"">CABBAGE</div><img id = ""stim"" ><div class = red_square id = topsquare></div>",null,encoding,word_square,,,0,topsquare,none,true,,,CABBAGE,6,,,
html-keyboard-response,703,1232229,null,"<div style=""font-size:42px;"">CABBAGE</div>",null,,word,CABBAGE,,,,,,,,,,,,
html-keyboard-response,704,1233743,null,"",null,,word,CABBAGE,,,,,,,,,,,,
html-keyboard-response,705,1233952,null,"<div style=""font-size:42px;"">TRANSPLANT</div><img id = ""stim"" ><div class = red_square id = bottomsquare></div>",null,encoding,word_square,,,0,bottomsquare,none,true,,,TRANSPLANT,6,,,
html-keyboard-response,706,1234256,null,"<div style=""font-size:42px;"">TRANSPLANT</div>",null,,word,TRANSPLANT,,,,,,,,,,,,
html-keyboard-response,707,1235762,null,"",null,,word,TRANSPLANT,,,,,,,,,,,,
html-keyboard-response,708,1235970,null,"<div style=""font-size:42px;"">STAPLE</div><img id = ""stim"" ><div class = red_square id = topsquare></div>",null,encoding,word_square,,,0,topsquare,none,true,,,STAPLE,6,,,
html-keyboard-response,709,1236275,null,"<div style=""font-size:42px;"">STAPLE</div>",null,,word,STAPLE,,,,,,,,,,,,
html-keyboard-response,710,1237780,null,"",null,,word,STAPLE,,,,,,,,,,,,
html-keyboard-response,711,1237989,null,"<div style=""font-size:42px;"">MONARCH</div><img id = ""stim"" ><div class = red_square id = bottomsquare></div>",null,encoding,word_square,,,0,bottomsquare,none,true,,,MONARCH,6,,,
html-keyboard-response,712,1238292,null,"<div style=""font-size:42px;"">MONARCH</div>",null,,word,MONARCH,,,,,,,,,,,,
html-keyboard-response,713,1239807,null,"",null,,word,MONARCH,,,,,,,,,,,,
html-keyboard-response,714,1240015,null,"<div style=""font-size:42px;"">TURNIP</div><img id = ""stim"" ><div class = green_square id = topsquare></div>",null,encoding,word_square,,,1,topsquare,32,true,,,TURNIP,6,,,
html-keyboard-response,715,1240319,null,"<div style=""font-size:42px;"">TURNIP</div>",null,,word,TURNIP,,,,,,,,,,,,
html-keyboard-response,716,1241826,225.4000000357628,"",32,,word,TURNIP,,,,,,,,,,,,
html-keyboard-response,717,1242042,null,"<div style=""font-size:42px;"">STOCKING</div><img id = ""stim"" ><div class = green_square id = bottomsquare></div>",null,encoding,word_square,,,1,bottomsquare,32,true,,,STOCKING,6,,,
html-keyboard-response,718,1242346,null,"<div style=""font-size:42px;"">STOCKING</div>",null,,word,STOCKING,,,,,,,,,,,,
html-keyboard-response,719,1243861,455.5999999642372,"",32,,word,STOCKING,,,,,,,,,,,,
html-keyboard-response,720,1244078,null,"<div style=""font-size:42px;"">HAND</div><img id = ""stim"" ><div class = red_square id = topsquare></div>",null,encoding,word_square,,,0,topsquare,none,true,,,HAND,6,,,
html-keyboard-response,721,1244382,null,"<div style=""font-size:42px;"">HAND</div>",null,,word,HAND,,,,,,,,,,,,
html-keyboard-response,722,1245896,null,"",null,,word,HAND,,,,,,,,,,,,
html-keyboard-response,723,1246104,null,"<div style=""font-size:42px;"">CHARCOAL</div><img id = ""stim"" ><div class = green_square id = topsquare></div>",null,encoding,word_square,,,1,topsquare,32,true,,,CHARCOAL,6,,,
html-keyboard-response,724,1246417,null,"<div style=""font-size:42px;"">CHARCOAL</div>",null,,word,CHARCOAL,,,,,,,,,,,,
html-keyboard-response,725,1247931,32.60000002384186,"",32,,word,CHARCOAL,,,,,,,,,,,,
html-keyboard-response,726,1248139,null,"<div style=""font-size:42px;"">BELLY</div><img id = ""stim"" ><div class = red_square id = bottomsquare></div>",null,encoding,word_square,,,0,bottomsquare,none,true,,,BELLY,6,,,
html-keyboard-response,727,1248444,null,"<div style=""font-size:42px;"">BELLY</div>",null,,word,BELLY,,,,,,,,,,,,
html-keyboard-response,728,1249950,null,"",null,,word,BELLY,,,,,,,,,,,,
html-keyboard-response,729,1250158,null,"<div style=""font-size:42px;"">MASK</div><img id = ""stim"" ><div class = green_square id = bottomsquare></div>",null,encoding,word_square,,,1,bottomsquare,32,true,,,MASK,6,,,
html-keyboard-response,730,1250471,null,"<div style=""font-size:42px;"">MASK</div>",null,,word,MASK,,,,,,,,,,,,
html-keyboard-response,731,1251984,20.900000035762787,"",32,,word,MASK,,,,,,,,,,,,
html-keyboard-response,732,1252192,null,"<div style=""font-size:42px;"">ISLAND</div><img id = ""stim"" ><div class = red_square id = topsquare></div>",null,encoding,word_square,,,0,topsquare,none,true,,,ISLAND,6,,,
html-keyboard-response,733,1252497,null,"<div style=""font-size:42px;"">ISLAND</div>",null,,word,ISLAND,,,,,,,,,,,,
html-keyboard-response,734,1254004,null,"",null,,word,ISLAND,,,,,,,,,,,,
html-keyboard-response,735,1254212,null,"<div style=""font-size:42px;"">PRINCESS</div><img id = ""stim"" ><div class = green_square id = topsquare></div>",null,encoding,word_square,,,1,topsquare,32,true,,,PRINCESS,6,,,
html-keyboard-response,736,1254516,null,"<div style=""font-size:42px;"">PRINCESS</div>",null,,word,PRINCESS,,,,,,,,,,,,
html-keyboard-response,737,1256023,14,"",32,,word,PRINCESS,,,,,,,,,,,,
html-keyboard-response,738,1256231,null,"<div style=""font-size:42px;"">STREET</div><img id = ""stim"" ><div class = green_square id = bottomsquare></div>",null,encoding,word_square,,,1,bottomsquare,32,true,,,STREET,6,,,
html-keyboard-response,739,1256544,null,"<div style=""font-size:42px;"">STREET</div>",null,,word,STREET,,,,,,,,,,,,
html-keyboard-response,740,1258058,123.5,"",32,,word,STREET,,,,,,,,,,,,
call-function,741,1258059,,"",,,,,,,,,,,,,,,,
html-keyboard-response,742,1258163,null,"",null,,,,,,,,,,,,,,,
math-period,743,1261849,6765.800000011921,"",,,,,,,,,,,2numpad,,,,,
html-keyboard-response,744,1261953,null,"",null,,,,,,,,,,,,,,,
math-period,745,1265473,6806.800000011921,"",,,,,,,,,,,2numpad,,,,,
html-keyboard-response,746,1265576,null,"",null,,,,,,,,,,,,,,,
math-period,747,1266898,2361.899999976158,"",,,,,,,,,,,2numpad,,,,,
html-keyboard-response,748,1267010,null,"",null,,,,,,,,,,,,,,,
math-period,749,1269606,4916.399999976158,"",,,,,,,,,,,3numpad,,,,,
html-keyboard-response,750,1269708,null,"",null,,,,,,,,,,,,,,,
math-period,751,1271297,2872.5,"",,,,,,,,,,,2numpad,,,,,
html-keyboard-response,752,1271414,null,"",null,,,,,,,,,,,,,,,
math-period,753,1275020,6927.5,"",,,,,,,,,,,2numpad,,,,,
html-keyboard-response,754,1275124,null,"",null,,,,,,,,,,,,,,,
math-period,755,1276850,3101.5,"",,,,,,,,,,,5numpad,,,,,
html-keyboard-response,756,1276967,null,"",null,,,,,,,,,,,,,,,
math-period,757,1278858,3375.7000000476837,"",,,,,,,,,,,1numpad,,,,,
html-keyboard-response,758,1278961,null,"",null,,,,,,,,,,,,,,,
math-period,759,1280666,3064.4999999403954,"",,,,,,,,,,,5numpad,,,,,
html-keyboard-response,760,1280772,null,"",null,,,,,,,,,,,,,,,
math-period,761,1282062,1182.8999999761581,"",,,,,,,,,,,6numpad,,,,,
html-keyboard-response,762,1283064,null,"Recall Period!",null,,,,,,,,,,,,,,,
call-function,763,1283064,,"",,,,,,,,,,,,,,,,
html-keyboard-response,764,1283168,null,"",null,,,,,,,,,,,,,,,
recall-period,765,1285282,9688.99999988079,"",,,,,,,,,,,bison,,,,,
html-keyboard-response,766,1285386,null,"",null,,,,,,,,,,,,,,,
recall-period,767,1287904,8729.19999986887,"",,,,,,,,,,,cattle,,,,,
html-keyboard-response,768,1288006,null,"",null,,,,,,,,,,,,,,,
recall-period,769,1291472,16393.800000071526,"",,,,,,,,,,,charcoal,,,,,
html-keyboard-response,770,1291579,null,"",null,,,,,,,,,,,,,,,
recall-period,771,1307574,78136.49999988079,"",,,,,,,,,,,hand,,,,,
html-keyboard-response,772,1307677,null,"",null,,,,,,,,,,,,,,,
recall-period,773,1358080,null,"",,,,,,,,,,,,,,,,
html-keyboard-response,774,1358585,null,"Time's Up!",null,,,,,,,,,,,,,,,
html-keyboard-response,775,1366836,8249.599999964237,"<p> Good job! You have responded correctly to 100% of the trials. </p>
                      <p>Be sure to only press the spacebar if you see a GREEN square, and please keep your accuracy above 80%.</p>
                      <p> Press any key to continue the experiment. </p>",32,,,,,,,,,,,,,,,
html-keyboard-response,776,1367756,918.1999999880791,"<div style=""font-size:48px;"">Press any key to begin list 8 of 16 </div>",32,,,,,,,,,,,,,,,
html-keyboard-response,777,1370273,null,"<div style=""font-size:60px;"">+</div>",null,,,,,,,,,,,,,,,
html-keyboard-response,778,1370481,null,"<div style=""font-size:42px;"">STOMACH</div><img id = ""stim"" ><div class = green_square id = bottomsquare></div>",null,encoding,word_square,,,1,bottomsquare,32,false,,,STOMACH,7,,,
html-keyboard-response,779,1370785,null,"<div style=""font-size:42px;"">STOMACH</div>",null,,word,STOMACH,,,,,,,,,,,,
html-keyboard-response,780,1372299,null,"",null,,word,STOMACH,,,,,,,,,,,,
html-keyboard-response,781,1372507,null,"<div style=""font-size:42px;"">ULCER</div><img id = ""stim"" ><div class = green_square id = topsquare></div>",null,encoding,word_square,,,1,topsquare,32,true,,,ULCER,7,,,
html-keyboard-response,782,1372811,null,"<div style=""font-size:42px;"">ULCER</div>",null,,word,ULCER,,,,,,,,,,,,
html-keyboard-response,783,1374326,101.10000002384186,"",32,,word,ULCER,,,,,,,,,,,,
html-keyboard-response,784,1374534,null,"<div style=""font-size:42px;"">EUROPE</div><img id = ""stim"" ><div class = red_square id = topsquare></div>",null,encoding,word_square,,,0,topsquare,none,true,,,EUROPE,7,,,
html-keyboard-response,785,1374846,null,"<div style=""font-size:42px;"">EUROPE</div>",null,,word,EUROPE,,,,,,,,,,,,
html-keyboard-response,786,1376360,null,"",null,,word,EUROPE,,,,,,,,,,,,
html-keyboard-response,787,1376568,null,"<div style=""font-size:42px;"">GRAVE</div><img id = ""stim"" ><div class = green_square id = bottomsquare></div>",null,encoding,word_square,,,1,bottomsquare,32,true,,,GRAVE,7,,,
html-keyboard-response,788,1376873,193.69999998807907,"<div style=""font-size:42px;"">GRAVE</div>",32,,word,GRAVE,,,,,,,,,,,,
html-keyboard-response,789,1378388,null,"",null,,word,GRAVE,,,,,,,,,,,,
html-keyboard-response,790,1378596,null,"<div style=""font-size:42px;"">TOMBSTONE</div><img id = ""stim"" ><div class = red_square id = bottomsquare></div>",null,encoding,word_square,,,0,bottomsquare,none,true,,,TOMBSTONE,7,,,
html-keyboard-response,791,1378899,null,"<div style=""font-size:42px;"">TOMBSTONE</div>",null,,word,TOMBSTONE,,,,,,,,,,,,
html-keyboard-response,792,1380414,null,"",null,,word,TOMBSTONE,,,,,,,,,,,,
html-keyboard-response,793,1380622,null,"<div style=""font-size:42px;"">TRUCK</div><img id = ""stim"" ><div class = green_square id = topsquare></div>",null,encoding,word_square,,,1,topsquare,32,true,,,TRUCK,7,,,
html-keyboard-response,794,1380926,null,"<div style=""font-size:42px;"">TRUCK</div>",null,,word,TRUCK,,,,,,,,,,,,
html-keyboard-response,795,1382432,107.29999995231628,"",32,,word,TRUCK,,,,,,,,,,,,
html-keyboard-response,796,1382639,null,"<div style=""font-size:42px;"">EYELASH</div><img id = ""stim"" ><div class = red_square id = topsquare></div>",null,encoding,word_square,,,0,topsquare,none,true,,,EYELASH,7,,,
html-keyboard-response,797,1382944,null,"<div style=""font-size:42px;"">EYELASH</div>",null,,word,EYELASH,,,,,,,,,,,,
html-keyboard-response,798,1384450,null,"",null,,word,EYELASH,,,,,,,,,,,,
html-keyboard-response,799,1384659,null,"<div style=""font-size:42px;"">FROG</div><img id = ""stim"" ><div class = green_square id = bottomsquare></div>",null,encoding,word_square,,,1,bottomsquare,32,true,,,FROG,7,,,
html-keyboard-response,800,1384963,177.69999998807907,"<div style=""font-size:42px;"">FROG</div>",32,,word,FROG,,,,,,,,,,,,
html-keyboard-response,801,1386466,null,"",null,,word,FROG,,,,,,,,,,,,
html-keyboard-response,802,1386674,null,"<div style=""font-size:42px;"">OX</div><img id = ""stim"" ><div class = green_square id = topsquare></div>",null,encoding,word_square,,,1,topsquare,32,true,,,OX,7,,,
html-keyboard-response,803,1386986,163.30000001192093,"<div style=""font-size:42px;"">OX</div>",32,,word,OX,,,,,,,,,,,,
html-keyboard-response,804,1388497,null,"",null,,word,OX,,,,,,,,,,,,
html-keyboard-response,805,1388713,null,"<div style=""font-size:42px;"">CAFE</div><img id = ""stim"" ><div class = red_square id = bottomsquare></div>",null,encoding,word_square,,,0,bottomsquare,none,true,,,CAFE,7,,,
html-keyboard-response,806,1389024,null,"<div style=""font-size:42px;"">CAFE</div>",null,,word,CAFE,,,,,,,,,,,,
html-keyboard-response,807,1390528,null,"",null,,word,CAFE,,,,,,,,,,,,
html-keyboard-response,808,1390735,null,"<div style=""font-size:42px;"">BRANDY</div><img id = ""stim"" ><div class = red_square id = topsquare></div>",null,encoding,word_square,,,0,topsquare,none,true,,,BRANDY,7,,,
html-keyboard-response,809,1391047,null,"<div style=""font-size:42px;"">BRANDY</div>",null,,word,BRANDY,,,,,,,,,,,,
html-keyboard-response,810,1392559,null,"",null,,word,BRANDY,,,,,,,,,,,,
html-keyboard-response,811,1392775,null,"<div style=""font-size:42px;"">BEETLE</div><img id = ""stim"" ><div class = red_square id = bottomsquare></div>",null,encoding,word_square,,,0,bottomsquare,none,true,,,BEETLE,7,,,
html-keyboard-response,812,1393079,null,"<div style=""font-size:42px;"">BEETLE</div>",null,,word,BEETLE,,,,,,,,,,,,
html-keyboard-response,813,1394583,null,"",null,,word,BEETLE,,,,,,,,,,,,
html-keyboard-response,814,1394791,null,"<div style=""font-size:42px;"">FLASK</div><img id = ""stim"" ><div class = red_square id = topsquare></div>",null,encoding,word_square,,,0,topsquare,none,true,,,FLASK,7,,,
html-keyboard-response,815,1395095,null,"<div style=""font-size:42px;"">FLASK</div>",null,,word,FLASK,,,,,,,,,,,,
html-keyboard-response,816,1396598,null,"",null,,word,FLASK,,,,,,,,,,,,
html-keyboard-response,817,1396806,null,"<div style=""font-size:42px;"">BROOK</div><img id = ""stim"" ><div class = green_square id = bottomsquare></div>",null,encoding,word_square,,,1,bottomsquare,32,true,,,BROOK,7,,,
html-keyboard-response,818,1397110,null,"<div style=""font-size:42px;"">BROOK</div>",null,,word,BROOK,,,,,,,,,,,,
html-keyboard-response,819,1398614,107.89999997615814,"",32,,word,BROOK,,,,,,,,,,,,
html-keyboard-response,820,1398823,null,"<div style=""font-size:42px;"">COLESLAW</div><img id = ""stim"" ><div class = green_square id = topsquare></div>",null,encoding,word_square,,,1,topsquare,32,true,,,COLESLAW,7,,,
html-keyboard-response,821,1399135,null,"<div style=""font-size:42px;"">COLESLAW</div>",null,,word,COLESLAW,,,,,,,,,,,,
html-keyboard-response,822,1400641,236.60000002384186,"",32,,word,COLESLAW,,,,,,,,,,,,
html-keyboard-response,823,1400856,null,"<div style=""font-size:42px;"">COUNTRY</div><img id = ""stim"" ><div class = red_square id = bottomsquare></div>",null,encoding,word_square,,,0,bottomsquare,none,true,,,COUNTRY,7,,,
html-keyboard-response,824,1401161,null,"<div style=""font-size:42px;"">COUNTRY</div>",null,,word,COUNTRY,,,,,,,,,,,,
html-keyboard-response,825,1402672,null,"",null,,word,COUNTRY,,,,,,,,,,,,
call-function,826,1402673,,"",,,,,,,,,,,,,,,,
html-keyboard-response,827,1402775,null,"",null,,,,,,,,,,,,,,,
math-period,828,1405044,4112.299999952316,"",,,,,,,,,,,2numpad,,,,,
html-keyboard-response,829,1405152,null,"",null,,,,,,,,,,,,,,,
math-period,830,1406709,2561.699999988079,"",,,,,,,,,,,3numpad,,,,,
html-keyboard-response,831,1406821,null,"",null,,,,,,,,,,,,,,,
math-period,832,1408834,3518.900000035763,"",,,,,,,,,,,5numpad,,,,,
html-keyboard-response,833,1408947,null,"",null,,,,,,,,,,,,,,,
math-period,834,1411092,3881.599999964237,"",,,,,,,,,,,0numpad,,,,,
html-keyboard-response,835,1411207,null,"",null,,,,,,,,,,,,,,,
math-period,836,1412878,2865.5000000596046,"",,,,,,,,,,,3numpad,,,,,
html-keyboard-response,837,1412982,null,"",null,,,,,,,,,,,,,,,
math-period,838,1414779,3118.900000035763,"",,,,,,,,,,,4numpad,,,,,
html-keyboard-response,839,1414885,null,"",null,,,,,,,,,,,,,,,
math-period,840,1416643,3248.7000000476837,"",,,,,,,,,,,2numpad,,,,,
html-keyboard-response,841,1416756,null,"",null,,,,,,,,,,,,,,,
math-period,842,1418281,2669.399999976158,"",,,,,,,,,,,4numpad,,,,,
html-keyboard-response,843,1418384,null,"",null,,,,,,,,,,,,,,,
math-period,844,1420278,3449.2999999523163,"",,,,,,,,,,,1numpad,,,,,
html-keyboard-response,845,1420381,null,"",null,,,,,,,,,,,,,,,
math-period,846,1421819,2507.1000000834465,"",,,,,,,,,,,6numpad,,,,,
html-keyboard-response,847,1421924,null,"",null,,,,,,,,,,,,,,,
math-period,848,1426062,7883.600000023842,"",,,,,,,,,,,2numpad,,,,,
html-keyboard-response,849,1426171,null,"",null,,,,,,,,,,,,,,,
math-period,850,1426683,null,"",,,,,,,,,,,,,,,,
html-keyboard-response,851,1427699,null,"Recall Period!",null,,,,,,,,,,,,,,,
call-function,852,1427700,,"",,,,,,,,,,,,,,,,
html-keyboard-response,853,1427803,null,"",null,,,,,,,,,,,,,,,
recall-period,854,1430678,7467.8999999165535,"",,,,,,,,,,,ox,,,,,
html-keyboard-response,855,1430795,null,"",null,,,,,,,,,,,,,,,
recall-period,856,1502706,null,"",,,,,,,,,,,,,,,,
html-keyboard-response,857,1503219,null,"Time's Up!",null,,,,,,,,,,,,,,,
html-keyboard-response,858,1505864,2642.800000011921,"<p> Good job! You have responded correctly to 99% of the trials. </p>
                      <p>Be sure to only press the spacebar if you see a GREEN square, and please keep your accuracy above 80%.</p>
                      <p> Press any key to continue the experiment. </p>",32,,,,,,,,,,,,,,,
html-keyboard-response,859,1507221,1356.0999999642372,"<div style=""font-size:48px;"">Press any key to begin list 9 of 16 </div>",32,,,,,,,,,,,,,,,
html-keyboard-response,860,1509740,null,"<div style=""font-size:60px;"">+</div>",null,,,,,,,,,,,,,,,
html-keyboard-response,861,1509949,null,"<div style=""font-size:42px;"">SCHOOL</div><img id = ""stim"" ><div class = green_square id = topsquare></div>",null,encoding,word_square,,,1,topsquare,32,true,,,SCHOOL,8,,,
html-keyboard-response,862,1510253,null,"<div style=""font-size:42px;"">SCHOOL</div>",null,,word,SCHOOL,,,,,,,,,,,,
html-keyboard-response,863,1511767,25.600000023841858,"",32,,word,SCHOOL,,,,,,,,,,,,
html-keyboard-response,864,1511975,null,"<div style=""font-size:42px;"">SHELF</div><img id = ""stim"" ><div class = green_square id = bottomsquare></div>",null,encoding,word_square,,,1,bottomsquare,32,true,,,SHELF,8,,,
html-keyboard-response,865,1512279,176.0999999642372,"<div style=""font-size:42px;"">SHELF</div>",32,,word,SHELF,,,,,,,,,,,,
html-keyboard-response,866,1513786,null,"",null,,word,SHELF,,,,,,,,,,,,
html-keyboard-response,867,1513994,null,"<div style=""font-size:42px;"">PREACHER</div><img id = ""stim"" ><div class = red_square id = bottomsquare></div>",null,encoding,word_square,,,0,bottomsquare,none,true,,,PREACHER,8,,,
html-keyboard-response,868,1514298,null,"<div style=""font-size:42px;"">PREACHER</div>",null,,word,PREACHER,,,,,,,,,,,,
html-keyboard-response,869,1515813,null,"",null,,word,PREACHER,,,,,,,,,,,,
html-keyboard-response,870,1516021,null,"<div style=""font-size:42px;"">PATIENT</div><img id = ""stim"" ><div class = red_square id = topsquare></div>",null,encoding,word_square,,,0,topsquare,none,true,,,PATIENT,8,,,
html-keyboard-response,871,1516326,null,"<div style=""font-size:42px;"">PATIENT</div>",null,,word,PATIENT,,,,,,,,,,,,
html-keyboard-response,872,1517840,null,"",null,,word,PATIENT,,,,,,,,,,,,
html-keyboard-response,873,1518048,null,"<div style=""font-size:42px;"">STRANGER</div><img id = ""stim"" ><div class = green_square id = topsquare></div>",null,encoding,word_square,,,1,topsquare,32,true,,,STRANGER,8,,,
html-keyboard-response,874,1518360,253.80000001192093,"<div style=""font-size:42px;"">STRANGER</div>",32,,word,STRANGER,,,,,,,,,,,,
html-keyboard-response,875,1519867,null,"",null,,word,STRANGER,,,,,,,,,,,,
html-keyboard-response,876,1520076,null,"<div style=""font-size:42px;"">SNACK</div><img id = ""stim"" ><div class = green_square id = bottomsquare></div>",null,encoding,word_square,,,1,bottomsquare,32,true,,,SNACK,8,,,
html-keyboard-response,877,1520388,null,"<div style=""font-size:42px;"">SNACK</div>",null,,word,SNACK,,,,,,,,,,,,
html-keyboard-response,878,1521896,151,"",32,,word,SNACK,,,,,,,,,,,,
html-keyboard-response,879,1522112,null,"<div style=""font-size:42px;"">AIRCRAFT</div><img id = ""stim"" ><div class = red_square id = bottomsquare></div>",null,encoding,word_square,,,0,bottomsquare,none,true,,,AIRCRAFT,8,,,
html-keyboard-response,880,1522424,null,"<div style=""font-size:42px;"">AIRCRAFT</div>",null,,word,AIRCRAFT,,,,,,,,,,,,
html-keyboard-response,881,1523930,null,"",null,,word,AIRCRAFT,,,,,,,,,,,,
html-keyboard-response,882,1524139,null,"<div style=""font-size:42px;"">MOTOR</div><img id = ""stim"" ><div class = red_square id = topsquare></div>",null,encoding,word_square,,,0,topsquare,none,true,,,MOTOR,8,,,
html-keyboard-response,883,1524451,null,"<div style=""font-size:42px;"">MOTOR</div>",null,,word,MOTOR,,,,,,,,,,,,
html-keyboard-response,884,1525964,null,"",null,,word,MOTOR,,,,,,,,,,,,
html-keyboard-response,885,1526172,null,"<div style=""font-size:42px;"">CHICKEN</div><img id = ""stim"" ><div class = green_square id = topsquare></div>",null,encoding,word_square,,,1,topsquare,32,true,,,CHICKEN,8,,,
html-keyboard-response,886,1526476,225,"<div style=""font-size:42px;"">CHICKEN</div>",32,,word,CHICKEN,,,,,,,,,,,,
html-keyboard-response,887,1527983,null,"",null,,word,CHICKEN,,,,,,,,,,,,
html-keyboard-response,888,1528192,null,"<div style=""font-size:42px;"">CHAMPAGNE</div><img id = ""stim"" ><div class = red_square id = bottomsquare></div>",null,encoding,word_square,,,0,bottomsquare,none,true,,,CHAMPAGNE,8,,,
html-keyboard-response,889,1528504,null,"<div style=""font-size:42px;"">CHAMPAGNE</div>",null,,word,CHAMPAGNE,,,,,,,,,,,,
html-keyboard-response,890,1530010,null,"",null,,word,CHAMPAGNE,,,,,,,,,,,,
html-keyboard-response,891,1530218,null,"<div style=""font-size:42px;"">SCOTCH</div><img id = ""stim"" ><div class = green_square id = bottomsquare></div>",null,encoding,word_square,,,1,bottomsquare,32,true,,,SCOTCH,8,,,
html-keyboard-response,892,1530523,null,"<div style=""font-size:42px;"">SCOTCH</div>",null,,word,SCOTCH,,,,,,,,,,,,
