trial_type,trial_index,time_elapsed,rt,stimulus,key_press,exp_phase,test_part,word,task,targ_cond,sq_pos,correctKeyCode,correct,value,response,Word,List,RecResp,serial_pos,colorChosen
pavlovia,0,2384,,"",,,,,,,,,,,,,,,,
external-html,1,14885,12370.10000000894,"",,,,,,,,,,,,,,,,
html-keyboard-response,2,17061,2174.2999999970198,"Welcome to the experiment. Press any key to begin.",32,,,,,,,,,,,,,,,
html-keyboard-response,3,66461,49399,"<p>You will see a list of words and colored squares in the following task.<p><p>Press the spacebar whenever you see a red square.<p><p>Do not press a key if the square is green.<p><p>Press the spacebar to continue.</p>",32,,,,,,,,,,,,,,,
html-keyboard-response,4,92869,25892.40000000596,"<p>Please try to remember as many of the words as you can, and try to think about the meaning of each word as it appears.<p><p>After the detection and encoding task you will be asked to solve some math problems for 24 seconds.<p> Please solve as many problems as you can in the time given. <p><p><p>Press the spacebar to continue.</p>",32,,,,,,,,,,,,,,,
html-keyboard-response,5,103453,10076.70000000298,"After solving the math problems, you will be asked to type in as many words <p>from the previous list as you can remember for 75 seconds.<p> If you finish recalling before the 75 seconds are up,<p> just sit tight and try to think of any more words you could have missed. <p><p><p>Press the spacebar to continue.</p>",32,,,,,,,,,,,,,,,
html-keyboard-response,6,117181,13223.89999999106,"There will be 16 lists of words and recall, followed  by<p><p> a recognition phase. The experiment is expected to take up to 90 minutes.<p>We will begin with a brief practice session.<p>Press the spacebar to begin the practice.</p>",32,,,,,,,,,,,,,,,
html-keyboard-response,7,119702,null,"<div style=""font-size:60px;"">+</div>",null,,,,,,,,,,,,,,,
html-keyboard-response,8,119905,null,"<div style=""font-size:42px;"">HAPPY</div><img id = ""stim"" ><div class = green_square id = ""bottomsquare"" ></div>",null,practice,word_square,HAPPY,prac_response,0,Bottom,none,true,,,,,,,
html-keyboard-response,9,120217,null,"<div style=""font-size:42px;"">HAPPY</div>",null,,word,HAPPY,,,,,,,,,,,,
html-keyboard-response,10,121731,null,"",null,,word,HAPPY,,,,,,,,,,,,
html-keyboard-response,11,121934,null,"<div style=""font-size:42px;"">COLD</div><img id = ""stim"" ><div class = red_square id = ""bottomsquare"" ></div>",null,practice,word_square,COLD,prac_response,1,Bottom,32,true,,,,,,,
html-keyboard-response,12,122244,null,"<div style=""font-size:42px;"">COLD</div>",null,,word,COLD,,,,,,,,,,,,
html-keyboard-response,13,123750,0.09999999403953552,"",32,,word,COLD,,,,,,,,,,,,
html-keyboard-response,14,123952,null,"<div style=""font-size:42px;"">HEAVY</div><img id = ""stim"" ><div class = red_square id = ""topsquare"" ></div>",null,practice,word_square,HEAVY,prac_response,1,Top,32,true,,,,,,,
html-keyboard-response,15,124267,204.29999999701977,"<div style=""font-size:42px;"">HEAVY</div>",32,,word,HEAVY,,,,,,,,,,,,
html-keyboard-response,16,125774,null,"",null,,word,HEAVY,,,,,,,,,,,,
html-keyboard-response,17,125976,null,"<div style=""font-size:42px;"">FUNNY</div><img id = ""stim"" ><div class = green_square id = ""topsquare"" ></div>",null,practice,word_square,FUNNY,prac_response,0,Top,none,true,,,,,,,
html-keyboard-response,18,126287,null,"<div style=""font-size:42px;"">FUNNY</div>",null,,word,FUNNY,,,,,,,,,,,,
html-keyboard-response,19,127803,null,"",null,,word,FUNNY,,,,,,,,,,,,
html-keyboard-response,20,128004,null,"<div style=""font-size:42px;"">SCARY</div><img id = ""stim"" ><div class = red_square id = ""bottomsquare"" ></div>",null,practice,word_square,SCARY,prac_response,1,Bottom,32,true,,,,,,,
html-keyboard-response,21,128306,null,"<div style=""font-size:42px;"">SCARY</div>",null,,word,SCARY,,,,,,,,,,,,
html-keyboard-response,22,129819,9.799999997019768,"",32,,word,SCARY,,,,,,,,,,,,
html-keyboard-response,23,130023,null,"<div style=""font-size:42px;"">PEACEFUL</div><img id = ""stim"" ><div class = red_square id = ""topsquare"" ></div>",null,practice,word_square,PEACEFUL,prac_response,1,Top,32,true,,,,,,,
html-keyboard-response,24,130336,null,"<div style=""font-size:42px;"">PEACEFUL</div>",null,,word,PEACEFUL,,,,,,,,,,,,
html-keyboard-response,25,131839,219.70000000298023,"",32,,word,PEACEFUL,,,,,,,,,,,,
html-keyboard-response,26,132042,null,"<div style=""font-size:42px;"">LITTLE</div><img id = ""stim"" ><div class = green_square id = ""bottomsquare"" ></div>",null,practice,word_square,LITTLE,prac_response,0,Bottom,none,true,,,,,,,
html-keyboard-response,27,132354,null,"<div style=""font-size:42px;"">LITTLE</div>",null,,word,LITTLE,,,,,,,,,,,,
html-keyboard-response,28,133855,null,"",null,,word,LITTLE,,,,,,,,,,,,
html-keyboard-response,29,134057,null,"<div style=""font-size:42px;"">TIRED</div><img id = ""stim"" ><div class = green_square id = ""topsquare"" ></div>",null,practice,word_square,TIRED,prac_response,0,Top,none,false,,,,,,,
html-keyboard-response,30,134367,null,"<div style=""font-size:42px;"">TIRED</div>",null,,word,TIRED,,,,,,,,,,,,
html-keyboard-response,31,135873,85.09999999403954,"",32,,word,TIRED,,,,,,,,,,,,
html-keyboard-response,32,136076,null,"<div style=""font-size:42px;"">ENTERTAINING</div><img id = ""stim"" ><div class = green_square id = ""bottomsquare"" ></div>",null,practice,word_square,ENTERTAINING,prac_response,0,Bottom,none,true,,,,,,,
html-keyboard-response,33,136392,null,"<div style=""font-size:42px;"">ENTERTAINING</div>",null,,word,ENTERTAINING,,,,,,,,,,,,
html-keyboard-response,34,137894,null,"",null,,word,ENTERTAINING,,,,,,,,,,,,
html-keyboard-response,35,138095,null,"<div style=""font-size:42px;"">GRATEFUL</div><img id = ""stim"" ><div class = red_square id = ""bottomsquare"" ></div>",null,practice,word_square,GRATEFUL,prac_response,1,Bottom,32,true,,,,,,,
html-keyboard-response,36,138410,173.29999999701977,"<div style=""font-size:42px;"">GRATEFUL</div>",32,,word,GRATEFUL,,,,,,,,,,,,
html-keyboard-response,37,139920,null,"",null,,word,GRATEFUL,,,,,,,,,,,,
html-keyboard-response,38,140125,null,"<div style=""font-size:42px;"">LOUD</div><img id = ""stim"" ><div class = green_square id = ""topsquare"" ></div>",null,practice,word_square,LOUD,prac_response,0,Top,none,true,,,,,,,
html-keyboard-response,39,140438,null,"<div style=""font-size:42px;"">LOUD</div>",null,,word,LOUD,,,,,,,,,,,,
html-keyboard-response,40,141955,null,"",null,,word,LOUD,,,,,,,,,,,,
html-keyboard-response,41,142159,null,"<div style=""font-size:42px;"">SMART</div><img id = ""stim"" ><div class = red_square id = ""topsquare"" ></div>",null,practice,word_square,SMART,prac_response,1,Top,32,true,,,,,,,
html-keyboard-response,42,142474,181.09999999403954,"<div style=""font-size:42px;"">SMART</div>",32,,word,SMART,,,,,,,,,,,,
html-keyboard-response,43,143979,null,"",null,,word,SMART,,,,,,,,,,,,
html-keyboard-response,44,144184,null,"<div style=""font-size:42px;"">SMOOTH</div><img id = ""stim"" ><div class = red_square id = ""bottomsquare"" ></div>",null,practice,word_square,SMOOTH,prac_response,1,Bottom,32,true,,,,,,,
html-keyboard-response,45,144497,null,"<div style=""font-size:42px;"">SMOOTH</div>",null,,word,SMOOTH,,,,,,,,,,,,
html-keyboard-response,46,146013,155,"",32,,word,SMOOTH,,,,,,,,,,,,
html-keyboard-response,47,146217,null,"<div style=""font-size:42px;"">DISHONEST</div><img id = ""stim"" ><div class = green_square id = ""bottomsquare"" ></div>",null,practice,word_square,DISHONEST,prac_response,0,Bottom,none,true,,,,,,,
html-keyboard-response,48,146531,null,"<div style=""font-size:42px;"">DISHONEST</div>",null,,word,DISHONEST,,,,,,,,,,,,
html-keyboard-response,49,148033,null,"",null,,word,DISHONEST,,,,,,,,,,,,
html-keyboard-response,50,148236,null,"<div style=""font-size:42px;"">WEALTHY</div><img id = ""stim"" ><div class = red_square id = ""topsquare"" ></div>",null,practice,word_square,WEALTHY,prac_response,1,Top,32,true,,,,,,,
html-keyboard-response,51,148548,199.5,"<div style=""font-size:42px;"">WEALTHY</div>",32,,word,WEALTHY,,,,,,,,,,,,
html-keyboard-response,52,150062,null,"",null,,word,WEALTHY,,,,,,,,,,,,
html-keyboard-response,53,150266,null,"<div style=""font-size:42px;"">BEAUTIFUL</div><img id = ""stim"" ><div class = green_square id = ""topsquare"" ></div>",null,practice,word_square,BEAUTIFUL,prac_response,0,Top,none,true,,,,,,,
html-keyboard-response,54,150579,null,"<div style=""font-size:42px;"">BEAUTIFUL</div>",null,,word,BEAUTIFUL,,,,,,,,,,,,
html-keyboard-response,55,152093,null,"",null,,word,BEAUTIFUL,,,,,,,,,,,,
html-keyboard-response,56,181717,29622.79999999702,"<p> Good job! You responded correctly to 94% of the trials. </p>
                  <p>Be sure to only press the spacebar if you see a red square, and please keep your accuracy above 80%.</p>
                  <p>We're going to try once more to make sure you understand the task. press any key to continue. </p>",32,,,,,,,,,,,,,,,
html-keyboard-response,57,182509,791.2000000029802,"<p>You will see a list of words and colored squares in the following task.<p><p>Press the spacebar whenever you see a red square.<p><p>Do not press a key if the square is green<p><p>Press the spacebar to continue.</p>",32,,,,,,,,,,,,,,,
html-keyboard-response,58,185019,null,"<div style=""font-size:60px;"">+</div>",null,,,,,,,,,,,,,,,
html-keyboard-response,59,185224,null,"<div style=""font-size:42px;"">HAPPY</div><img id = ""stim"" ><div class = green_square id = ""bottomsquare"" ></div>",null,practice2,word_square,HAPPY,prac_response,0,Bottom,none,true,,,,,,,
html-keyboard-response,60,185539,null,"<div style=""font-size:42px;"">HAPPY</div>",null,,word,HAPPY,,,,,,,,,,,,
html-keyboard-response,61,187040,null,"",null,,word,HAPPY,,,,,,,,,,,,
html-keyboard-response,62,187243,null,"<div style=""font-size:42px;"">COLD</div><img id = ""stim"" ><div class = red_square id = ""bottomsquare"" ></div>",null,practice2,word_square,,prac_response,1,Bottom,32,true,,,,,,,
html-keyboard-response,63,187556,null,"<div style=""font-size:42px;"">COLD</div>",null,,word,COLD,,,,,,,,,,,,
html-keyboard-response,64,189061,56.099999994039536,"",32,,word,COLD,,,,,,,,,,,,
html-keyboard-response,65,189264,null,"<div style=""font-size:42px;"">HEAVY</div><img id = ""stim"" ><div class = red_square id = ""topsquare"" ></div>",null,practice2,word_square,,prac_response,1,Top,32,true,,,,,,,
html-keyboard-response,66,189577,236.6000000089407,"<div style=""font-size:42px;"">HEAVY</div>",32,,word,HEAVY,,,,,,,,,,,,
html-keyboard-response,67,191094,null,"",null,,word,HEAVY,,,,,,,,,,,,
html-keyboard-response,68,191299,null,"<div style=""font-size:42px;"">FUNNY</div><img id = ""stim"" ><div class = green_square id = ""topsquare"" ></div>",null,practice2,word_square,,prac_response,0,Top,none,true,,,,,,,
html-keyboard-response,69,191611,null,"<div style=""font-size:42px;"">FUNNY</div>",null,,word,FUNNY,,,,,,,,,,,,
html-keyboard-response,70,193114,null,"",null,,word,FUNNY,,,,,,,,,,,,
html-keyboard-response,71,193317,null,"<div style=""font-size:42px;"">SCARY</div><img id = ""stim"" ><div class = red_square id = ""bottomsquare"" ></div>",null,practice2,word_square,,prac_response,1,Bottom,32,true,,,,,,,
html-keyboard-response,72,193618,239.20000000298023,"<div style=""font-size:42px;"">SCARY</div>",32,,word,SCARY,,,,,,,,,,,,
html-keyboard-response,73,195121,null,"",null,,word,SCARY,,,,,,,,,,,,
html-keyboard-response,74,195326,null,"<div style=""font-size:42px;"">PEACEFUL</div><img id = ""stim"" ><div class = red_square id = ""topsquare"" ></div>",null,practice2,word_square,,prac_response,1,Top,32,true,,,,,,,
html-keyboard-response,75,195638,190.30000001192093,"<div style=""font-size:42px;"">PEACEFUL</div>",32,,word,PEACEFUL,,,,,,,,,,,,
html-keyboard-response,76,197139,null,"",null,,word,PEACEFUL,,,,,,,,,,,,
html-keyboard-response,77,197342,null,"<div style=""font-size:42px;"">LITTLE</div><img id = ""stim"" ><div class = green_square id = ""bottomsquare"" ></div>",null,practice2,word_square,LITTLE,prac_response,0,Bottom,none,true,,,,,,,
html-keyboard-response,78,197658,null,"<div style=""font-size:42px;"">LITTLE</div>",null,,word,LITTLE,,,,,,,,,,,,
html-keyboard-response,79,199174,null,"",null,,word,LITTLE,,,,,,,,,,,,
html-keyboard-response,80,199377,null,"<div style=""font-size:42px;"">TIRED</div><img id = ""stim"" ><div class = green_square id = ""topsquare"" ></div>",null,practice2,word_square,,prac_response,0,Top,none,true,,,,,,,
html-keyboard-response,81,199693,null,"<div style=""font-size:42px;"">TIRED</div>",null,,word,TIRED,,,,,,,,,,,,
html-keyboard-response,82,201209,null,"",null,,word,TIRED,,,,,,,,,,,,
html-keyboard-response,83,201413,null,"<div style=""font-size:42px;"">ENTERTAINING</div><img id = ""stim"" ><div class = green_square id = ""bottomsquare"" ></div>",null,practice2,word_square,ENTERTAINING,prac_response,0,Bottom,none,true,,,,,,,
html-keyboard-response,84,201728,null,"<div style=""font-size:42px;"">ENTERTAINING</div>",null,,word,ENTERTAINING,,,,,,,,,,,,
html-keyboard-response,85,203244,null,"",null,,word,ENTERTAINING,,,,,,,,,,,,
html-keyboard-response,86,203448,null,"<div style=""font-size:42px;"">GRATEFUL</div><img id = ""stim"" ><div class = red_square id = ""bottomsquare"" ></div>",null,practice2,word_square,,prac_response,1,Bottom,32,true,,,,,,,
html-keyboard-response,87,203761,164.40000000596046,"<div style=""font-size:42px;"">GRATEFUL</div>",32,,word,GRATEFUL,,,,,,,,,,,,
html-keyboard-response,88,205275,null,"",null,,word,GRATEFUL,,,,,,,,,,,,
html-keyboard-response,89,205476,null,"<div style=""font-size:42px;"">LOUD</div><img id = ""stim"" ><div class = green_square id = ""topsquare"" ></div>",null,practice2,word_square,,prac_response,0,Top,none,true,,,,,,,
html-keyboard-response,90,205786,null,"<div style=""font-size:42px;"">LOUD</div>",null,,word,LOUD,,,,,,,,,,,,
html-keyboard-response,91,207296,null,"",null,,word,LOUD,,,,,,,,,,,,
html-keyboard-response,92,207498,null,"<div style=""font-size:42px;"">SMART</div><img id = ""stim"" ><div class = red_square id = ""topsquare"" ></div>",null,practice2,word_square,,prac_response,1,Top,32,true,,,,,,,
html-keyboard-response,93,207811,194.40000000596046,"<div style=""font-size:42px;"">SMART</div>",32,,word,SMART,,,,,,,,,,,,
html-keyboard-response,94,209315,null,"",null,,word,SMART,,,,,,,,,,,,
html-keyboard-response,95,209521,null,"<div style=""font-size:42px;"">SMOOTH</div><img id = ""stim"" ><div class = red_square id = ""bottomsquare"" ></div>",null,practice2,word_square,,prac_response,1,Bottom,32,true,,,,,,,
html-keyboard-response,96,209836,234.79999999701977,"<div style=""font-size:42px;"">SMOOTH</div>",32,,word,SMOOTH,,,,,,,,,,,,
html-keyboard-response,97,211346,null,"",null,,word,SMOOTH,,,,,,,,,,,,
html-keyboard-response,98,211548,null,"<div style=""font-size:42px;"">DISHONEST</div><img id = ""stim"" ><div class = green_square id = ""bottomsquare"" ></div>",null,practice2,word_square,DISHONEST,prac_response,0,Bottom,none,true,,,,,,,
html-keyboard-response,99,211860,null,"<div style=""font-size:42px;"">DISHONEST</div>",null,,word,DISHONEST,,,,,,,,,,,,
html-keyboard-response,100,213376,null,"",null,,word,DISHONEST,,,,,,,,,,,,
html-keyboard-response,101,213580,null,"<div style=""font-size:42px;"">WEALTHY</div><img id = ""stim"" ><div class = red_square id = ""topsquare"" ></div>",null,practice2,word_square,,prac_response,1,Top,32,true,,,,,,,
html-keyboard-response,102,213895,192.70000000298023,"<div style=""font-size:42px;"">WEALTHY</div>",32,,word,WEALTHY,,,,,,,,,,,,
html-keyboard-response,103,215402,null,"",null,,word,WEALTHY,,,,,,,,,,,,
html-keyboard-response,104,215608,null,"<div style=""font-size:42px;"">BEAUTIFUL</div><img id = ""stim"" ><div class = green_square id = ""topsquare"" ></div>",null,practice2,word_square,,prac_response,0,Top,none,false,,,,,,,
html-keyboard-response,105,215919,null,"<div style=""font-size:42px;"">BEAUTIFUL</div>",null,,word,BEAUTIFUL,,,,,,,,,,,,
html-keyboard-response,106,217426,null,"",null,,word,BEAUTIFUL,,,,,,,,,,,,
html-keyboard-response,107,220845,3418.4000000059605,"<p> Good job! You responded correctly to 100% of the trials. </p>
                    <p>Be sure to only press the spacebar if you see a red square, and please keep your accuracy above 80%.</p>
                    <p>Press any key to begin the math and recall sections. Thank you! </p>",32,,,,,,,,,,,,,,,
call-function,108,220845,,"",,,,,,,,,,,,,,,,
html-keyboard-response,109,220956,null,"",null,,,,,,,,,,,,,,,
math-period,110,224117,6040.5,"",,,,,,,,,,,5numpad,,,,,
html-keyboard-response,111,224233,null,"",null,,,,,,,,,,,,,,,
math-period,112,230437,10119.90000000596,"",,,,,,,,,,,5numpad,,,,,
html-keyboard-response,113,230544,null,"",null,,,,,,,,,,,,,,,
math-period,114,237413,12567.299999982119,"",,,,,,,,,,,1numpad,,,,,
html-keyboard-response,115,237518,null,"",null,,,,,,,,,,,,,,,
math-period,116,242661,9827.800000011921,"",,,,,,,,,,,4,,,,,
html-keyboard-response,117,242765,null,"",null,,,,,,,,,,,,,,,
math-period,118,244525,3270.4000000059605,"",,,,,,,,,,,4,,,,,
html-keyboard-response,119,244637,null,"",null,,,,,,,,,,,,,,,
math-period,120,244860,null,"",,,,,,,,,,,,,,,,
html-keyboard-response,121,245874,null,"Recall Period!",null,,,,,,,,,,,,,,,
call-function,122,245874,,"",,,,,,,,,,,,,,,,
html-keyboard-response,123,245974,null,"",null,,,,,,,,,,,,,,,
recall-period,124,255765,82057.90000002086,"",,,,,,,,,,,beautiful,,,,,
html-keyboard-response,125,255871,null,"",null,,,,,,,,,,,,,,,
recall-period,126,258077,8528.200000017881,"",,,,,,,,,,,happy,,,,,
html-keyboard-response,127,258186,null,"",null,,,,,,,,,,,,,,,
recall-period,128,261077,13164.299999952316,"",,,,,,,,,,,grateful,,,,,
html-keyboard-response,129,261192,null,"",null,,,,,,,,,,,,,,,
recall-period,130,263893,9547.199999973178,"",,,,,,,,,,,sad,,,,,
html-keyboard-response,131,263999,null,"",null,,,,,,,,,,,,,,,
recall-period,132,294189,174751.09999997914,"",,,,,,,,,,,happy,,,,,
html-keyboard-response,133,294300,null,"",null,,,,,,,,,,,,,,,
recall-period,134,320880,null,"",,,,,,,,,,,,,,,,
html-keyboard-response,135,321395,null,"Time's Up!",null,,,,,,,,,,,,,,,
html-keyboard-response,136,330045,8649.40000000596,"<p>We will now begin the experiment!<p><p>Please try to remember all words from each list.<p><p>Press the spacebar whenever you see a red square.<p><p><p><p>Press the spacebar to begin.</p>",32,,,,,,,,,,,,,,,
html-keyboard-response,137,332885,2331.199999988079,"<div style=""font-size:48px;"">Press any key to begin list 1 of 16 </div>",32,,,,,,,,,,,,,,,
html-keyboard-response,138,335402,null,"<div style=""font-size:60px;"">+</div>",null,,,,,,,,,,,,,,,
html-keyboard-response,139,335606,null,"<div style=""font-size:42px;"">BRACELET</div><img id = ""stim"" ><div class = red_square id = topsquare></div>",null,encoding,word_square,,,1,topsquare,32,true,,,BRACELET,0,,,
html-keyboard-response,140,335920,270,"<div style=""font-size:42px;"">BRACELET</div>",32,,word,BRACELET,,,,,,,,,,,,
html-keyboard-response,141,337436,null,"",null,,word,BRACELET,,,,,,,,,,,,
html-keyboard-response,142,337640,null,"<div style=""font-size:42px;"">PORTRAIT</div><img id = ""stim"" ><div class = green_square id = bottomsquare></div>",null,encoding,word_square,,,0,bottomsquare,none,true,,,PORTRAIT,0,,,
html-keyboard-response,143,337953,null,"<div style=""font-size:42px;"">PORTRAIT</div>",null,,word,PORTRAIT,,,,,,,,,,,,
html-keyboard-response,144,339455,null,"",null,,word,PORTRAIT,,,,,,,,,,,,
html-keyboard-response,145,339656,null,"<div style=""font-size:42px;"">LUMBER</div><img id = ""stim"" ><div class = green_square id = topsquare></div>",null,encoding,word_square,,,0,topsquare,none,true,,,LUMBER,0,,,
html-keyboard-response,146,339970,null,"<div style=""font-size:42px;"">LUMBER</div>",null,,word,LUMBER,,,,,,,,,,,,
html-keyboard-response,147,341487,null,"",null,,word,LUMBER,,,,,,,,,,,,
html-keyboard-response,148,341689,null,"<div style=""font-size:42px;"">RODENT</div><img id = ""stim"" ><div class = red_square id = bottomsquare></div>",null,encoding,word_square,,,1,bottomsquare,32,true,,,RODENT,0,,,
html-keyboard-response,149,342001,null,"<div style=""font-size:42px;"">RODENT</div>",null,,word,RODENT,,,,,,,,,,,,
html-keyboard-response,150,343504,99.5,"",32,,word,RODENT,,,,,,,,,,,,
html-keyboard-response,151,343707,null,"<div style=""font-size:42px;"">POSSUM</div><img id = ""stim"" ><div class = green_square id = bottomsquare></div>",null,encoding,word_square,,,0,bottomsquare,none,true,,,POSSUM,0,,,
html-keyboard-response,152,344018,null,"<div style=""font-size:42px;"">POSSUM</div>",null,,word,POSSUM,,,,,,,,,,,,
html-keyboard-response,153,345522,null,"",null,,word,POSSUM,,,,,,,,,,,,
html-keyboard-response,154,345725,null,"<div style=""font-size:42px;"">MOTHER</div><img id = ""stim"" ><div class = red_square id = topsquare></div>",null,encoding,word_square,,,1,topsquare,32,true,,,MOTHER,0,,,
html-keyboard-response,155,346036,null,"<div style=""font-size:42px;"">MOTHER</div>",null,,word,MOTHER,,,,,,,,,,,,
html-keyboard-response,156,347549,23.69999998807907,"",32,,word,MOTHER,,,,,,,,,,,,
html-keyboard-response,157,347753,null,"<div style=""font-size:42px;"">SPONGE</div><img id = ""stim"" ><div class = green_square id = topsquare></div>",null,encoding,word_square,,,0,topsquare,none,true,,,SPONGE,0,,,
html-keyboard-response,158,348066,null,"<div style=""font-size:42px;"">SPONGE</div>",null,,word,SPONGE,,,,,,,,,,,,
html-keyboard-response,159,349573,null,"",null,,word,SPONGE,,,,,,,,,,,,
html-keyboard-response,160,349789,null,"<div style=""font-size:42px;"">RIVER</div><img id = ""stim"" ><div class = red_square id = bottomsquare></div>",null,encoding,word_square,,,1,bottomsquare,32,true,,,RIVER,0,,,
html-keyboard-response,161,350102,118.90000000596046,"<div style=""font-size:42px;"">RIVER</div>",32,,word,RIVER,,,,,,,,,,,,
html-keyboard-response,162,351617,null,"",null,,word,RIVER,,,,,,,,,,,,
html-keyboard-response,163,351820,null,"<div style=""font-size:42px;"">DRAWING</div><img id = ""stim"" ><div class = red_square id = topsquare></div>",null,encoding,word_square,,,1,topsquare,32,true,,,DRAWING,0,,,
html-keyboard-response,164,352122,231.69999998807907,"<div style=""font-size:42px;"">DRAWING</div>",32,,word,DRAWING,,,,,,,,,,,,
html-keyboard-response,165,353636,null,"",null,,word,DRAWING,,,,,,,,,,,,
html-keyboard-response,166,353838,null,"<div style=""font-size:42px;"">COMPASS</div><img id = ""stim"" ><div class = red_square id = bottomsquare></div>",null,encoding,word_square,,,1,bottomsquare,32,true,,,COMPASS,0,,,
html-keyboard-response,167,354150,null,"<div style=""font-size:42px;"">COMPASS</div>",null,,word,COMPASS,,,,,,,,,,,,
html-keyboard-response,168,355665,5.799999997019768,"",32,,word,COMPASS,,,,,,,,,,,,
html-keyboard-response,169,355881,null,"<div style=""font-size:42px;"">THICKET</div><img id = ""stim"" ><div class = green_square id = bottomsquare></div>",null,encoding,word_square,,,0,bottomsquare,none,true,,,THICKET,0,,,
html-keyboard-response,170,356191,null,"<div style=""font-size:42px;"">THICKET</div>",null,,word,THICKET,,,,,,,,,,,,
html-keyboard-response,171,357707,null,"",null,,word,THICKET,,,,,,,,,,,,
html-keyboard-response,172,357910,null,"<div style=""font-size:42px;"">PANTS</div><img id = ""stim"" ><div class = green_square id = topsquare></div>",null,encoding,word_square,,,0,topsquare,none,true,,,PANTS,0,,,
html-keyboard-response,173,358222,null,"<div style=""font-size:42px;"">PANTS</div>",null,,word,PANTS,,,,,,,,,,,,
html-keyboard-response,174,359725,null,"",null,,word,PANTS,,,,,,,,,,,,
html-keyboard-response,175,359928,null,"<div style=""font-size:42px;"">LACE</div><img id = ""stim"" ><div class = red_square id = topsquare></div>",null,encoding,word_square,,,1,topsquare,32,true,,,LACE,0,,,
html-keyboard-response,176,360243,195.6000000089407,"<div style=""font-size:42px;"">LACE</div>",32,,word,LACE,,,,,,,,,,,,
html-keyboard-response,177,361749,null,"",null,,word,LACE,,,,,,,,,,,,
html-keyboard-response,178,361956,null,"<div style=""font-size:42px;"">FLASK</div><img id = ""stim"" ><div class = red_square id = bottomsquare></div>",null,encoding,word_square,,,1,bottomsquare,32,true,,,FLASK,0,,,
html-keyboard-response,179,362257,248.19999998807907,"<div style=""font-size:42px;"">FLASK</div>",32,,word,FLASK,,,,,,,,,,,,
html-keyboard-response,180,363768,null,"",null,,word,FLASK,,,,,,,,,,,,
html-keyboard-response,181,363969,null,"<div style=""font-size:42px;"">PIGEON</div><img id = ""stim"" ><div class = green_square id = bottomsquare></div>",null,encoding,word_square,,,0,bottomsquare,none,true,,,PIGEON,0,,,
html-keyboard-response,182,364283,null,"<div style=""font-size:42px;"">PIGEON</div>",null,,word,PIGEON,,,,,,,,,,,,
html-keyboard-response,183,365798,null,"",null,,word,PIGEON,,,,,,,,,,,,
html-keyboard-response,184,366001,null,"<div style=""font-size:42px;"">PERCH</div><img id = ""stim"" ><div class = green_square id = topsquare></div>",null,encoding,word_square,,,0,topsquare,none,true,,,PERCH,0,,,
html-keyboard-response,185,366314,null,"<div style=""font-size:42px;"">PERCH</div>",null,,word,PERCH,,,,,,,,,,,,
html-keyboard-response,186,367818,null,"",null,,word,PERCH,,,,,,,,,,,,
call-function,187,367819,,"",,,,,,,,,,,,,,,,
html-keyboard-response,188,367919,null,"",null,,,,,,,,,,,,,,,
math-period,189,372085,8025.20000000298,"",,,,,,,,,,,2,,,,,
html-keyboard-response,190,372193,null,"",null,,,,,,,,,,,,,,,
math-period,191,374885,5165.699999988079,"",,,,,,,,,,,5,,,,,
html-keyboard-response,192,374989,null,"",null,,,,,,,,,,,,,,,
math-period,193,376997,3358.1000000089407,"",,,,,,,,,,,6,,,,,
html-keyboard-response,194,377099,null,"",null,,,,,,,,,,,,,,,
math-period,195,379621,4866.5,"",,,,,,,,,,,1,,,,,
html-keyboard-response,196,379729,null,"",null,,,,,,,,,,,,,,,
math-period,197,382645,5679.4000000059605,"",,,,,,,,,,,4,,,,,
html-keyboard-response,198,382756,null,"",null,,,,,,,,,,,,,,,
math-period,199,383997,2289.2999999970198,"",,,,,,,,,,,4,,,,,
html-keyboard-response,200,384098,null,"",null,,,,,,,,,,,,,,,
math-period,201,387373,6100.0999999940395,"",,,,,,,,,,,0,,,,,
html-keyboard-response,202,387484,null,"",null,,,,,,,,,,,,,,,
math-period,203,391053,6959.699999988079,"",,,,,,,,,,,2,,,,,
html-keyboard-response,204,391165,null,"",null,,,,,,,,,,,,,,,
math-period,205,391832,null,"",,,,,,,,,,,,,,,,
html-keyboard-response,206,392849,null,"Recall Period!",null,,,,,,,,,,,,,,,
call-function,207,392849,,"",,,,,,,,,,,,,,,,
html-keyboard-response,208,392951,null,"",null,,,,,,,,,,,,,,,
recall-period,209,405245,77111.20000000298,"",,,,,,,,,,,rodent,,,,,
html-keyboard-response,210,405347,null,"",null,,,,,,,,,,,,,,,
recall-period,211,407997,11032.70000000298,"",,,,,,,,,,,possum,,,,,
html-keyboard-response,212,408108,null,"",null,,,,,,,,,,,,,,,
recall-period,213,467861,null,"",,,,,,,,,,,,,,,,
html-keyboard-response,214,468363,null,"Time's Up!",null,,,,,,,,,,,,,,,
html-keyboard-response,215,475461,7096.9000000059605,"<p> Good job! You have responded correctly to 100% of the trials. </p>
                      <p>Be sure to only press the spacebar if you see a red square, and please keep your accuracy above 80%.</p>
                      <p> Press any key to continue the experiment. </p>",32,,,,,,,,,,,,,,,
html-keyboard-response,216,476405,943.3000000119209,"<div style=""font-size:48px;"">Press any key to begin list 2 of 16 </div>",32,,,,,,,,,,,,,,,
html-keyboard-response,217,478922,null,"<div style=""font-size:60px;"">+</div>",null,,,,,,,,,,,,,,,
html-keyboard-response,218,479125,null,"<div style=""font-size:42px;"">BALLOON</div><img id = ""stim"" ><div class = green_square id = topsquare></div>",null,encoding,word_square,,,0,topsquare,none,true,,,BALLOON,1,,,
html-keyboard-response,219,479437,null,"<div style=""font-size:42px;"">BALLOON</div>",null,,word,BALLOON,,,,,,,,,,,,
html-keyboard-response,220,480941,null,"",null,,word,BALLOON,,,,,,,,,,,,
html-keyboard-response,221,481146,null,"<div style=""font-size:42px;"">ROD</div><img id = ""stim"" ><div class = green_square id = bottomsquare></div>",null,encoding,word_square,,,0,bottomsquare,none,true,,,ROD,1,,,
html-keyboard-response,222,481460,null,"<div style=""font-size:42px;"">ROD</div>",null,,word,ROD,,,,,,,,,,,,
html-keyboard-response,223,482961,null,"",null,,word,ROD,,,,,,,,,,,,
html-keyboard-response,224,483163,null,"<div style=""font-size:42px;"">HAND</div><img id = ""stim"" ><div class = red_square id = bottomsquare></div>",null,encoding,word_square,,,1,bottomsquare,32,true,,,HAND,1,,,
html-keyboard-response,225,483474,null,"<div style=""font-size:42px;"">HAND</div>",null,,word,HAND,,,,,,,,,,,,
html-keyboard-response,226,484984,66.5,"",32,,word,HAND,,,,,,,,,,,,
html-keyboard-response,227,485186,null,"<div style=""font-size:42px;"">JUNGLE</div><img id = ""stim"" ><div class = red_square id = topsquare></div>",null,encoding,word_square,,,1,topsquare,32,true,,,JUNGLE,1,,,
html-keyboard-response,228,485500,218,"<div style=""font-size:42px;"">JUNGLE</div>",32,,word,JUNGLE,,,,,,,,,,,,
html-keyboard-response,229,487009,null,"",null,,word,JUNGLE,,,,,,,,,,,,
html-keyboard-response,230,487215,null,"<div style=""font-size:42px;"">PRIMATE</div><img id = ""stim"" ><div class = green_square id = topsquare></div>",null,encoding,word_square,,,0,topsquare,none,true,,,PRIMATE,1,,,
html-keyboard-response,231,487529,null,"<div style=""font-size:42px;"">PRIMATE</div>",null,,word,PRIMATE,,,,,,,,,,,,
html-keyboard-response,232,489044,null,"",null,,word,PRIMATE,,,,,,,,,,,,
html-keyboard-response,233,489249,null,"<div style=""font-size:42px;"">SODA</div><img id = ""stim"" ><div class = green_square id = bottomsquare></div>",null,encoding,word_square,,,0,bottomsquare,none,true,,,SODA,1,,,
html-keyboard-response,234,489561,null,"<div style=""font-size:42px;"">SODA</div>",null,,word,SODA,,,,,,,,,,,,
html-keyboard-response,235,491062,null,"",null,,word,SODA,,,,,,,,,,,,
html-keyboard-response,236,491267,null,"<div style=""font-size:42px;"">SIRLOIN</div><img id = ""stim"" ><div class = red_square id = bottomsquare></div>",null,encoding,word_square,,,1,bottomsquare,32,true,,,SIRLOIN,1,,,
html-keyboard-response,237,491581,185.1000000089407,"<div style=""font-size:42px;"">SIRLOIN</div>",32,,word,SIRLOIN,,,,,,,,,,,,
html-keyboard-response,238,493084,null,"",null,,word,SIRLOIN,,,,,,,,,,,,
html-keyboard-response,239,493289,null,"<div style=""font-size:42px;"">GLASSES</div><img id = ""stim"" ><div class = red_square id = topsquare></div>",null,encoding,word_square,,,1,topsquare,32,true,,,GLASSES,1,,,
html-keyboard-response,240,493600,186.8999999910593,"<div style=""font-size:42px;"">GLASSES</div>",32,,word,GLASSES,,,,,,,,,,,,
html-keyboard-response,241,495105,null,"",null,,word,GLASSES,,,,,,,,,,,,
html-keyboard-response,242,495309,null,"<div style=""font-size:42px;"">ADULT</div><img id = ""stim"" ><div class = red_square id = bottomsquare></div>",null,encoding,word_square,,,1,bottomsquare,32,true,,,ADULT,1,,,
html-keyboard-response,243,495624,135.79999999701977,"<div style=""font-size:42px;"">ADULT</div>",32,,word,ADULT,,,,,,,,,,,,
html-keyboard-response,244,497135,null,"",null,,word,ADULT,,,,,,,,,,,,
html-keyboard-response,245,497340,null,"<div style=""font-size:42px;"">SWATTER</div><img id = ""stim"" ><div class = green_square id = topsquare></div>",null,encoding,word_square,,,0,topsquare,none,true,,,SWATTER,1,,,
html-keyboard-response,246,497654,null,"<div style=""font-size:42px;"">SWATTER</div>",null,,word,SWATTER,,,,,,,,,,,,
html-keyboard-response,247,499159,null,"",null,,word,SWATTER,,,,,,,,,,,,
html-keyboard-response,248,499364,null,"<div style=""font-size:42px;"">ARM</div><img id = ""stim"" ><div class = red_square id = topsquare></div>",null,encoding,word_square,,,1,topsquare,32,true,,,ARM,1,,,
html-keyboard-response,249,499677,null,"<div style=""font-size:42px;"">ARM</div>",null,,word,ARM,,,,,,,,,,,,
html-keyboard-response,250,501191,23.099999994039536,"",32,,word,ARM,,,,,,,,,,,,
html-keyboard-response,251,501395,null,"<div style=""font-size:42px;"">COUCH</div><img id = ""stim"" ><div class = green_square id = bottomsquare></div>",null,encoding,word_square,,,0,bottomsquare,none,true,,,COUCH,1,,,
html-keyboard-response,252,501709,null,"<div style=""font-size:42px;"">COUCH</div>",null,,word,COUCH,,,,,,,,,,,,
html-keyboard-response,253,503218,null,"",null,,word,COUCH,,,,,,,,,,,,
html-keyboard-response,254,503422,null,"<div style=""font-size:42px;"">GODDESS</div><img id = ""stim"" ><div class = red_square id = bottomsquare></div>",null,encoding,word_square,,,1,bottomsquare,32,true,,,GODDESS,1,,,
html-keyboard-response,255,503735,null,"<div style=""font-size:42px;"">GODDESS</div>",null,,word,GODDESS,,,,,,,,,,,,
html-keyboard-response,256,505250,93.30000001192093,"",32,,word,GODDESS,,,,,,,,,,,,
html-keyboard-response,257,505455,null,"<div style=""font-size:42px;"">CREATURE</div><img id = ""stim"" ><div class = green_square id = topsquare></div>",null,encoding,word_square,,,0,topsquare,none,true,,,CREATURE,1,,,
html-keyboard-response,258,505768,null,"<div style=""font-size:42px;"">CREATURE</div>",null,,word,CREATURE,,,,,,,,,,,,
html-keyboard-response,259,507269,null,"",null,,word,CREATURE,,,,,,,,,,,,
html-keyboard-response,260,507473,null,"<div style=""font-size:42px;"">PUDDLE</div><img id = ""stim"" ><div class = green_square id = bottomsquare></div>",null,encoding,word_square,,,0,bottomsquare,none,true,,,PUDDLE,1,,,
html-keyboard-response,261,507785,null,"<div style=""font-size:42px;"">PUDDLE</div>",null,,word,PUDDLE,,,,,,,,,,,,
html-keyboard-response,262,509286,null,"",null,,word,PUDDLE,,,,,,,,,,,,
html-keyboard-response,263,509489,null,"<div style=""font-size:42px;"">SLIDE</div><img id = ""stim"" ><div class = red_square id = topsquare></div>",null,encoding,word_square,,,1,topsquare,32,true,,,SLIDE,1,,,
html-keyboard-response,264,509801,267.1000000089407,"<div style=""font-size:42px;"">SLIDE</div>",32,,word,SLIDE,,,,,,,,,,,,
html-keyboard-response,265,511308,null,"",null,,word,SLIDE,,,,,,,,,,,,
call-function,266,511309,,"",,,,,,,,,,,,,,,,
html-keyboard-response,267,511411,null,"",null,,,,,,,,,,,,,,,
math-period,268,514605,6243.500000014901,"",,,,,,,,,,,4,,,,,
html-keyboard-response,269,514706,null,"",null,,,,,,,,,,,,,,,
math-period,270,516549,3533.000000014901,"",,,,,,,,,,,1,,,,,
html-keyboard-response,271,516660,null,"",null,,,,,,,,,,,,,,,
math-period,272,518157,2832.600000023842,"",,,,,,,,,,,3,,,,,
html-keyboard-response,273,518261,null,"",null,,,,,,,,,,,,,,,
math-period,274,520373,4062.7000000178814,"",,,,,,,,,,,2,,,,,
html-keyboard-response,275,520476,null,"",null,,,,,,,,,,,,,,,
math-period,276,522157,3176.199999988079,"",,,,,,,,,,,4,,,,,
html-keyboard-response,277,522271,null,"",null,,,,,,,,,,,,,,,
math-period,278,524005,3290.2999999970198,"",,,,,,,,,,,4,,,,,
html-keyboard-response,279,524114,null,"",null,,,,,,,,,,,,,,,
math-period,280,526901,5420.300000011921,"",,,,,,,,,,,2,,,,,
html-keyboard-response,281,527010,null,"",null,,,,,,,,,,,,,,,
math-period,282,528541,2926,"",,,,,,,,,,,4,,,,,
html-keyboard-response,283,528656,null,"",null,,,,,,,,,,,,,,,
math-period,284,531094,4728.800000011921,"",,,,,,,,,,,1,,,,,
html-keyboard-response,285,531205,null,"",null,,,,,,,,,,,,,,,
math-period,286,532997,3429.7999999821186,"",,,,,,,,,,,3,,,,,
html-keyboard-response,287,533103,null,"",null,,,,,,,,,,,,,,,
math-period,288,535319,null,"",,,,,,,,,,,,,,,,
html-keyboard-response,289,536333,null,"Recall Period!",null,,,,,,,,,,,,,,,
call-function,290,536333,,"",,,,,,,,,,,,,,,,
html-keyboard-response,291,536444,null,"",null,,,,,,,,,,,,,,,
recall-period,292,540093,9491.60000000894,"",,,,,,,,,,,rod,,,,,
html-keyboard-response,293,540196,null,"",null,,,,,,,,,,,,,,,
recall-period,294,543149,13815.699999958277,"",,,,,,,,,,,primate,,,,,
html-keyboard-response,295,543257,null,"",null,,,,,,,,,,,,,,,
recall-period,296,589222,332494.0000000447,"",,,,,,,,,,,bearing,,,,,
html-keyboard-response,297,589336,null,"",null,,,,,,,,,,,,,,,
recall-period,298,611349,null,"",,,,,,,,,,,,,,,,
html-keyboard-response,299,611866,null,"Time's Up!",null,,,,,,,,,,,,,,,
html-keyboard-response,300,661966,50098.90000000596,"<p> Good job! You have responded correctly to 100% of the trials. </p>
                      <p>Be sure to only press the spacebar if you see a red square, and please keep your accuracy above 80%.</p>
                      <p> Press any key to continue the experiment. </p>",32,,,,,,,,,,,,,,,
html-keyboard-response,301,663102,1135.3999999910593,"<div style=""font-size:48px;"">Press any key to begin list 3 of 16 </div>",32,,,,,,,,,,,,,,,
html-keyboard-response,302,665626,null,"<div style=""font-size:60px;"">+</div>",null,,,,,,,,,,,,,,,
html-keyboard-response,303,665829,null,"<div style=""font-size:42px;"">PUPPY</div><img id = ""stim"" ><div class = green_square id = bottomsquare></div>",null,encoding,word_square,,,0,bottomsquare,none,true,,,PUPPY,2,,,
html-keyboard-response,304,666145,null,"<div style=""font-size:42px;"">PUPPY</div>",null,,word,PUPPY,,,,,,,,,,,,
html-keyboard-response,305,667651,null,"",null,,word,PUPPY,,,,,,,,,,,,
html-keyboard-response,306,667858,null,"<div style=""font-size:42px;"">CATCHER</div><img id = ""stim"" ><div class = red_square id = topsquare></div>",null,encoding,word_square,,,1,topsquare,32,true,,,CATCHER,2,,,
html-keyboard-response,307,668161,202.30000001192093,"<div style=""font-size:42px;"">CATCHER</div>",32,,word,CATCHER,,,,,,,,,,,,
html-keyboard-response,308,669676,null,"",null,,word,CATCHER,,,,,,,,,,,,
html-keyboard-response,309,669879,null,"<div style=""font-size:42px;"">KNUCKLE</div><img id = ""stim"" ><div class = red_square id = bottomsquare></div>",null,encoding,word_square,,,1,bottomsquare,32,true,,,KNUCKLE,2,,,
html-keyboard-response,310,670192,117.30000001192093,"<div style=""font-size:42px;"">KNUCKLE</div>",32,,word,KNUCKLE,,,,,,,,,,,,
html-keyboard-response,311,671698,null,"",null,,word,KNUCKLE,,,,,,,,,,,,
html-keyboard-response,312,671900,null,"<div style=""font-size:42px;"">SENATE</div><img id = ""stim"" ><div class = green_square id = topsquare></div>",null,encoding,word_square,,,0,topsquare,none,true,,,SENATE,2,,,
html-keyboard-response,313,672215,null,"<div style=""font-size:42px;"">SENATE</div>",null,,word,SENATE,,,,,,,,,,,,
html-keyboard-response,314,673731,null,"",null,,word,SENATE,,,,,,,,,,,,
html-keyboard-response,315,673935,null,"<div style=""font-size:42px;"">EYELASH</div><img id = ""stim"" ><div class = red_square id = topsquare></div>",null,encoding,word_square,,,1,topsquare,32,true,,,EYELASH,2,,,
html-keyboard-response,316,674247,254.3999999910593,"<div style=""font-size:42px;"">EYELASH</div>",32,,word,EYELASH,,,,,,,,,,,,
html-keyboard-response,317,675749,null,"",null,,word,EYELASH,,,,,,,,,,,,
html-keyboard-response,318,675952,null,"<div style=""font-size:42px;"">SWAMP</div><img id = ""stim"" ><div class = green_square id = bottomsquare></div>",null,encoding,word_square,,,0,bottomsquare,none,true,,,SWAMP,2,,,
html-keyboard-response,319,676265,null,"<div style=""font-size:42px;"">SWAMP</div>",null,,word,SWAMP,,,,,,,,,,,,
html-keyboard-response,320,677771,null,"",null,,word,SWAMP,,,,,,,,,,,,
html-keyboard-response,321,677973,null,"<div style=""font-size:42px;"">BLOCKADE</div><img id = ""stim"" ><div class = red_square id = bottomsquare></div>",null,encoding,word_square,,,1,bottomsquare,32,true,,,BLOCKADE,2,,,
html-keyboard-response,322,678286,null,"<div style=""font-size:42px;"">BLOCKADE</div>",null,,word,BLOCKADE,,,,,,,,,,,,
html-keyboard-response,323,679797,7.0999999940395355,"",32,,word,BLOCKADE,,,,,,,,,,,,
html-keyboard-response,324,680002,null,"<div style=""font-size:42px;"">CRICKET</div><img id = ""stim"" ><div class = green_square id = topsquare></div>",null,encoding,word_square,,,0,topsquare,none,true,,,CRICKET,2,,,
html-keyboard-response,325,680315,null,"<div style=""font-size:42px;"">CRICKET</div>",null,,word,CRICKET,,,,,,,,,,,,
html-keyboard-response,326,681831,null,"",null,,word,CRICKET,,,,,,,,,,,,
html-keyboard-response,327,682035,null,"<div style=""font-size:42px;"">BUTLER</div><img id = ""stim"" ><div class = green_square id = bottomsquare></div>",null,encoding,word_square,,,0,bottomsquare,none,true,,,BUTLER,2,,,
html-keyboard-response,328,682347,null,"<div style=""font-size:42px;"">BUTLER</div>",null,,word,BUTLER,,,,,,,,,,,,
html-keyboard-response,329,683849,null,"",null,,word,BUTLER,,,,,,,,,,,,
html-keyboard-response,330,684054,null,"<div style=""font-size:42px;"">PROTON</div><img id = ""stim"" ><div class = green_square id = topsquare></div>",null,encoding,word_square,,,0,topsquare,none,true,,,PROTON,2,,,
html-keyboard-response,331,684364,null,"<div style=""font-size:42px;"">PROTON</div>",null,,word,PROTON,,,,,,,,,,,,
html-keyboard-response,332,685866,null,"",null,,word,PROTON,,,,,,,,,,,,
html-keyboard-response,333,686068,null,"<div style=""font-size:42px;"">ACTOR</div><img id = ""stim"" ><div class = red_square id = topsquare></div>",null,encoding,word_square,,,1,topsquare,32,true,,,ACTOR,2,,,
html-keyboard-response,334,686381,null,"<div style=""font-size:42px;"">ACTOR</div>",null,,word,ACTOR,,,,,,,,,,,,
html-keyboard-response,335,687894,55.8999999910593,"",32,,word,ACTOR,,,,,,,,,,,,
html-keyboard-response,336,688098,null,"<div style=""font-size:42px;"">SAPPHIRE</div><img id = ""stim"" ><div class = red_square id = bottomsquare></div>",null,encoding,word_square,,,1,bottomsquare,32,true,,,SAPPHIRE,2,,,
html-keyboard-response,337,688400,186.40000000596046,"<div style=""font-size:42px;"">SAPPHIRE</div>",32,,word,SAPPHIRE,,,,,,,,,,,,
html-keyboard-response,338,689911,null,"",null,,word,SAPPHIRE,,,,,,,,,,,,
html-keyboard-response,339,690127,null,"<div style=""font-size:42px;"">STAR</div><img id = ""stim"" ><div class = green_square id = bottomsquare></div>",null,encoding,word_square,,,0,bottomsquare,none,true,,,STAR,2,,,
html-keyboard-response,340,690440,null,"<div style=""font-size:42px;"">STAR</div>",null,,word,STAR,,,,,,,,,,,,
html-keyboard-response,341,691943,null,"",null,,word,STAR,,,,,,,,,,,,
html-keyboard-response,342,692145,null,"<div style=""font-size:42px;"">COMET</div><img id = ""stim"" ><div class = green_square id = topsquare></div>",null,encoding,word_square,,,0,topsquare,none,true,,,COMET,2,,,
html-keyboard-response,343,692459,131.69999998807907,"<div style=""font-size:42px;"">COMET</div>",32,,word,COMET,,,,,,,,,,,,
html-keyboard-response,344,693973,null,"",null,,word,COMET,,,,,,,,,,,,
html-keyboard-response,345,694175,null,"<div style=""font-size:42px;"">BRAKE</div><img id = ""stim"" ><div class = red_square id = topsquare></div>",null,encoding,word_square,,,1,topsquare,32,true,,,BRAKE,2,,,
html-keyboard-response,346,694488,165.70000000298023,"<div style=""font-size:42px;"">BRAKE</div>",32,,word,BRAKE,,,,,,,,,,,,
html-keyboard-response,347,695993,null,"",null,,word,BRAKE,,,,,,,,,,,,
html-keyboard-response,348,696198,null,"<div style=""font-size:42px;"">TURNIP</div><img id = ""stim"" ><div class = red_square id = bottomsquare></div>",null,encoding,word_square,,,1,bottomsquare,32,true,,,TURNIP,2,,,
html-keyboard-response,349,696510,null,"<div style=""font-size:42px;"">TURNIP</div>",null,,word,TURNIP,,,,,,,,,,,,
html-keyboard-response,350,698016,127.40000000596046,"",32,,word,TURNIP,,,,,,,,,,,,
call-function,351,698017,,"",,,,,,,,,,,,,,,,
html-keyboard-response,352,698117,null,"",null,,,,,,,,,,,,,,,
math-period,353,701710,6767.800000011921,"",,,,,,,,,,,5,,,,,
html-keyboard-response,354,701811,null,"",null,,,,,,,,,,,,,,,
math-period,355,703382,2659.9000000059605,"",,,,,,,,,,,5,,,,,
html-keyboard-response,356,703490,null,"",null,,,,,,,,,,,,,,,
math-period,357,706085,5062.600000008941,"",,,,,,,,,,,0,,,,,
html-keyboard-response,358,706192,null,"",null,,,,,,,,,,,,,,,
math-period,359,707798,3058.5,"",,,,,,,,,,,2,,,,,
html-keyboard-response,360,707902,null,"",null,,,,,,,,,,,,,,,
math-period,361,710422,4759.5,"",,,,,,,,,,,3,,,,,
html-keyboard-response,362,710534,null,"",null,,,,,,,,,,,,,,,
math-period,363,712062,2871.800000011921,"",,,,,,,,,,,5,,,,,
html-keyboard-response,364,712163,null,"",null,,,,,,,,,,,,,,,
math-period,365,713886,3291.9000000059605,"",,,,,,,,,,,2,,,,,
html-keyboard-response,366,713990,null,"",null,,,,,,,,,,,,,,,
math-period,367,716174,4119.5999999940395,"",,,,,,,,,,,2,,,,,
html-keyboard-response,368,716285,null,"",null,,,,,,,,,,,,,,,
math-period,369,718126,3433.2999999970198,"",,,,,,,,,,,4,,,,,
html-keyboard-response,370,718229,null,"",null,,,,,,,,,,,,,,,
math-period,371,719694,2633.2999999821186,"",,,,,,,,,,,4,,,,,
html-keyboard-response,372,719810,null,"",null,,,,,,,,,,,,,,,
math-period,373,721174,2534,"",,,,,,,,,,,5,,,,,
html-keyboard-response,374,721275,null,"",null,,,,,,,,,,,,,,,
math-period,375,722020,null,"",,,,,,,,,,,,,,,,
html-keyboard-response,376,723022,null,"Recall Period!",null,,,,,,,,,,,,,,,
call-function,377,723023,,"",,,,,,,,,,,,,,,,
html-keyboard-response,378,723123,null,"",null,,,,,,,,,,,,,,,
recall-period,379,742342,141871.69999998808,"",,,,,,,,,,,cricket,,,,,
html-keyboard-response,380,742454,null,"",null,,,,,,,,,,,,,,,
recall-period,381,798024,null,"",,,,,,,,,,,,,,,,
html-keyboard-response,382,798540,null,"Time's Up!",null,,,,,,,,,,,,,,,
html-keyboard-response,383,814269,15728.5,"<p> Good job! You have responded correctly to 100% of the trials. </p>
                      <p>Be sure to only press the spacebar if you see a red square, and please keep your accuracy above 80%.</p>
                      <p> Press any key to continue the experiment. </p>",32,,,,,,,,,,,,,,,
html-keyboard-response,384,815517,1247.0999999940395,"<div style=""font-size:48px;"">Press any key to begin list 4 of 16 </div>",32,,,,,,,,,,,,,,,
html-keyboard-response,385,818029,null,"<div style=""font-size:60px;"">+</div>",null,,,,,,,,,,,,,,,
html-keyboard-response,386,818233,null,"<div style=""font-size:42px;"">JEANS</div><img id = ""stim"" ><div class = red_square id = bottomsquare></div>",null,encoding,word_square,,,1,bottomsquare,32,true,,,JEANS,3,,,
html-keyboard-response,387,818535,null,"<div style=""font-size:42px;"">JEANS</div>",null,,word,JEANS,,,,,,,,,,,,
html-keyboard-response,388,820051,270,"",32,,word,JEANS,,,,,,,,,,,,
html-keyboard-response,389,820256,null,"<div style=""font-size:42px;"">COOKBOOK</div><img id = ""stim"" ><div class = red_square id = topsquare></div>",null,encoding,word_square,,,1,topsquare,32,true,,,COOKBOOK,3,,,
html-keyboard-response,390,820568,109.1000000089407,"<div style=""font-size:42px;"">COOKBOOK</div>",32,,word,COOKBOOK,,,,,,,,,,,,
html-keyboard-response,391,822082,null,"",null,,word,COOKBOOK,,,,,,,,,,,,
html-keyboard-response,392,822286,null,"<div style=""font-size:42px;"">SCULPTURE</div><img id = ""stim"" ><div class = green_square id = topsquare></div>",null,encoding,word_square,,,0,topsquare,none,true,,,SCULPTURE,3,,,
html-keyboard-response,393,822597,null,"<div style=""font-size:42px;"">SCULPTURE</div>",null,,word,SCULPTURE,,,,,,,,,,,,
html-keyboard-response,394,824100,null,"",null,,word,SCULPTURE,,,,,,,,,,,,
html-keyboard-response,395,824302,null,"<div style=""font-size:42px;"">PITCHFORK</div><img id = ""stim"" ><div class = green_square id = bottomsquare></div>",null,encoding,word_square,,,0,bottomsquare,none,true,,,PITCHFORK,3,,,
html-keyboard-response,396,824616,null,"<div style=""font-size:42px;"">PITCHFORK</div>",null,,word,PITCHFORK,,,,,,,,,,,,
html-keyboard-response,397,826126,null,"",null,,word,PITCHFORK,,,,,,,,,,,,
html-keyboard-response,398,826330,null,"<div style=""font-size:42px;"">HAWK</div><img id = ""stim"" ><div class = red_square id = bottomsquare></div>",null,encoding,word_square,,,1,bottomsquare,32,true,,,HAWK,3,,,
html-keyboard-response,399,826643,null,"<div style=""font-size:42px;"">HAWK</div>",null,,word,HAWK,,,,,,,,,,,,
html-keyboard-response,400,828147,9.299999997019768,"",32,,word,HAWK,,,,,,,,,,,,
html-keyboard-response,401,828363,null,"<div style=""font-size:42px;"">SOFTBALL</div><img id = ""stim"" ><div class = red_square id = topsquare></div>",null,encoding,word_square,,,1,topsquare,32,true,,,SOFTBALL,3,,,
html-keyboard-response,402,828674,null,"<div style=""font-size:42px;"">SOFTBALL</div>",null,,word,SOFTBALL,,,,,,,,,,,,
html-keyboard-response,403,830176,50,"",32,,word,SOFTBALL,,,,,,,,,,,,
html-keyboard-response,404,830382,null,"<div style=""font-size:42px;"">KLEENEX</div><img id = ""stim"" ><div class = green_square id = topsquare></div>",null,encoding,word_square,,,0,topsquare,none,true,,,KLEENEX,3,,,
html-keyboard-response,405,830693,null,"<div style=""font-size:42px;"">KLEENEX</div>",null,,word,KLEENEX,,,,,,,,,,,,
html-keyboard-response,406,832206,null,"",null,,word,KLEENEX,,,,,,,,,,,,
html-keyboard-response,407,832410,null,"<div style=""font-size:42px;"">POISON</div><img id = ""stim"" ><div class = green_square id = bottomsquare></div>",null,encoding,word_square,,,0,bottomsquare,none,true,,,POISON,3,,,
html-keyboard-response,408,832722,null,"<div style=""font-size:42px;"">POISON</div>",null,,word,POISON,,,,,,,,,,,,
html-keyboard-response,409,834238,null,"",null,,word,POISON,,,,,,,,,,,,
html-keyboard-response,410,834441,null,"<div style=""font-size:42px;"">RATTLE</div><img id = ""stim"" ><div class = green_square id = topsquare></div>",null,encoding,word_square,,,0,topsquare,none,true,,,RATTLE,3,,,
html-keyboard-response,411,834754,null,"<div style=""font-size:42px;"">RATTLE</div>",null,,word,RATTLE,,,,,,,,,,,,
html-keyboard-response,412,836263,null,"",null,,word,RATTLE,,,,,,,,,,,,
html-keyboard-response,413,836466,null,"<div style=""font-size:42px;"">CARTON</div><img id = ""stim"" ><div class = red_square id = bottomsquare></div>",null,encoding,word_square,,,1,bottomsquare,32,true,,,CARTON,3,,,
html-keyboard-response,414,836780,null,"<div style=""font-size:42px;"">CARTON</div>",null,,word,CARTON,,,,,,,,,,,,
html-keyboard-response,415,838282,472.70000000298023,"",32,,word,CARTON,,,,,,,,,,,,
html-keyboard-response,416,838485,null,"<div style=""font-size:42px;"">HAYSTACK</div><img id = ""stim"" ><div class = green_square id = bottomsquare></div>",null,encoding,word_square,,,0,bottomsquare,none,true,,,HAYSTACK,3,,,
html-keyboard-response,417,838797,null,"<div style=""font-size:42px;"">HAYSTACK</div>",null,,word,HAYSTACK,,,,,,,,,,,,
html-keyboard-response,418,840299,null,"",null,,word,HAYSTACK,,,,,,,,,,,,
html-keyboard-response,419,840517,null,"<div style=""font-size:42px;"">TEACHER</div><img id = ""stim"" ><div class = red_square id = topsquare></div>",null,encoding,word_square,,,1,topsquare,32,true,,,TEACHER,3,,,
html-keyboard-response,420,840827,168.5,"<div style=""font-size:42px;"">TEACHER</div>",32,,word,TEACHER,,,,,,,,,,,,
html-keyboard-response,421,842331,null,"",null,,word,TEACHER,,,,,,,,,,,,
html-keyboard-response,422,842547,null,"<div style=""font-size:42px;"">STUDENT</div><img id = ""stim"" ><div class = green_square id = topsquare></div>",null,encoding,word_square,,,0,topsquare,none,true,,,STUDENT,3,,,
html-keyboard-response,423,842859,null,"<div style=""font-size:42px;"">STUDENT</div>",null,,word,STUDENT,,,,,,,,,,,,
html-keyboard-response,424,844363,null,"",null,,word,STUDENT,,,,,,,,,,,,
html-keyboard-response,425,844566,null,"<div style=""font-size:42px;"">SERVER</div><img id = ""stim"" ><div class = red_square id = bottomsquare></div>",null,encoding,word_square,,,1,bottomsquare,32,true,,,SERVER,3,,,
html-keyboard-response,426,844876,null,"<div style=""font-size:42px;"">SERVER</div>",null,,word,SERVER,,,,,,,,,,,,
html-keyboard-response,427,846381,72.09999999403954,"",32,,word,SERVER,,,,,,,,,,,,
html-keyboard-response,428,846584,null,"<div style=""font-size:42px;"">MAJOR</div><img id = ""stim"" ><div class = red_square id = topsquare></div>",null,encoding,word_square,,,1,topsquare,32,true,,,MAJOR,3,,,
html-keyboard-response,429,846896,null,"<div style=""font-size:42px;"">MAJOR</div>",null,,word,MAJOR,,,,,,,,,,,,
html-keyboard-response,430,848400,164.6000000089407,"",32,,word,MAJOR,,,,,,,,,,,,
html-keyboard-response,431,848615,null,"<div style=""font-size:42px;"">SAND</div><img id = ""stim"" ><div class = green_square id = bottomsquare></div>",null,encoding,word_square,,,0,bottomsquare,none,true,,,SAND,3,,,
html-keyboard-response,432,848928,null,"<div style=""font-size:42px;"">SAND</div>",null,,word,SAND,,,,,,,,,,,,
html-keyboard-response,433,850434,null,"",null,,word,SAND,,,,,,,,,,,,
call-function,434,850435,,"",,,,,,,,,,,,,,,,
html-keyboard-response,435,850536,null,"",null,,,,,,,,,,,,,,,
math-period,436,852717,4113.600000008941,"",,,,,,,,,,,2numpad,,,,,
html-keyboard-response,437,852827,null,"",null,,,,,,,,,,,,,,,
math-period,438,855797,5778.100000008941,"",,,,,,,,,,,3,,,,,
html-keyboard-response,439,855904,null,"",null,,,,,,,,,,,,,,,
math-period,440,857269,2505,"",,,,,,,,,,,4,,,,,
html-keyboard-response,441,857373,null,"",null,,,,,,,,,,,,,,,
math-period,442,859549,4134.9000000059605,"",,,,,,,,,,,2,,,,,
html-keyboard-response,443,859665,null,"",null,,,,,,,,,,,,,,,
math-period,444,861630,3752.5,"",,,,,,,,,,,1,,,,,
html-keyboard-response,445,861733,null,"",null,,,,,,,,,,,,,,,
math-period,446,863126,2599.2999999821186,"",,,,,,,,,,,3,,,,,
html-keyboard-response,447,863236,null,"",null,,,,,,,,,,,,,,,
math-period,448,865813,4985.499999985099,"",,,,,,,,,,,3,,,,,
html-keyboard-response,449,865915,null,"",null,,,,,,,,,,,,,,,
math-period,450,869677,6331.899999991059,"",,,,,,,,,,,3,,,,,
html-keyboard-response,451,869788,null,"",null,,,,,,,,,,,,,,,
math-period,452,873005,10027.699999973178,"",,,,,,,,,,,4,,,,,
html-keyboard-response,453,873111,null,"",null,,,,,,,,,,,,,,,
math-period,454,874442,null,"",,,,,,,,,,,,,,,,
html-keyboard-response,455,875458,null,"Recall Period!",null,,,,,,,,,,,,,,,
call-function,456,875459,,"",,,,,,,,,,,,,,,,
html-keyboard-response,457,875560,null,"",null,,,,,,,,,,,,,,,
recall-period,458,882021,43521.20000001788,"",,,,,,,,,,,softball,,,,,
html-keyboard-response,459,882137,null,"",null,,,,,,,,,,,,,,,
recall-period,460,889149,45894.69999998808,"",,,,,,,,,,,student,,,,,
html-keyboard-response,461,889261,null,"",null,,,,,,,,,,,,,,,
recall-period,462,893901,28544.399999976158,"",,,,,,,,,,,teacher,,,,,
html-keyboard-response,463,894015,null,"",null,,,,,,,,,,,,,,,
recall-period,464,950460,null,"",,,,,,,,,,,,,,,,
html-keyboard-response,465,950977,null,"Time's Up!",null,,,,,,,,,,,,,,,
html-keyboard-response,466,953614,2636.2000000029802,"<p> Good job! You have responded correctly to 100% of the trials. </p>
                      <p>Be sure to only press the spacebar if you see a red square, and please keep your accuracy above 80%.</p>
                      <p> Press any key to continue the experiment. </p>",32,,,,,,,,,,,,,,,
html-keyboard-response,467,954693,1079.2000000029802,"<div style=""font-size:48px;"">Press any key to begin list 5 of 16 </div>",32,,,,,,,,,,,,,,,
html-keyboard-response,468,957207,null,"<div style=""font-size:60px;"">+</div>",null,,,,,,,,,,,,,,,
html-keyboard-response,469,957409,null,"<div style=""font-size:42px;"">BLUEJAY</div><img id = ""stim"" ><div class = red_square id = topsquare></div>",null,encoding,word_square,,,1,topsquare,32,true,,,BLUEJAY,4,,,
html-keyboard-response,470,957721,283.70000000298023,"<div style=""font-size:42px;"">BLUEJAY</div>",32,,word,BLUEJAY,,,,,,,,,,,,
html-keyboard-response,471,959228,null,"",null,,word,BLUEJAY,,,,,,,,,,,,
html-keyboard-response,472,959432,null,"<div style=""font-size:42px;"">LODGE</div><img id = ""stim"" ><div class = red_square id = bottomsquare></div>",null,encoding,word_square,,,1,bottomsquare,32,true,,,LODGE,4,,,
html-keyboard-response,473,959745,180.5,"<div style=""font-size:42px;"">LODGE</div>",32,,word,LODGE,,,,,,,,,,,,
html-keyboard-response,474,961248,null,"",null,,word,LODGE,,,,,,,,,,,,
html-keyboard-response,475,961451,null,"<div style=""font-size:42px;"">CABIN</div><img id = ""stim"" ><div class = red_square id = topsquare></div>",null,encoding,word_square,,,1,topsquare,32,true,,,CABIN,4,,,
html-keyboard-response,476,961766,161.70000000298023,"<div style=""font-size:42px;"">CABIN</div>",32,,word,CABIN,,,,,,,,,,,,
html-keyboard-response,477,963270,null,"",null,,word,CABIN,,,,,,,,,,,,
html-keyboard-response,478,963488,null,"<div style=""font-size:42px;"">TOASTER</div><img id = ""stim"" ><div class = green_square id = bottomsquare></div>",null,encoding,word_square,,,0,bottomsquare,none,true,,,TOASTER,4,,,
html-keyboard-response,479,963799,null,"<div style=""font-size:42px;"">TOASTER</div>",null,,word,TOASTER,,,,,,,,,,,,
html-keyboard-response,480,965303,null,"",null,,word,TOASTER,,,,,,,,,,,,
html-keyboard-response,481,965507,null,"<div style=""font-size:42px;"">GARLIC</div><img id = ""stim"" ><div class = red_square id = bottomsquare></div>",null,encoding,word_square,,,1,bottomsquare,32,true,,,GARLIC,4,,,
html-keyboard-response,482,965819,null,"<div style=""font-size:42px;"">GARLIC</div>",null,,word,GARLIC,,,,,,,,,,,,
html-keyboard-response,483,967327,57.400000005960464,"",32,,word,GARLIC,,,,,,,,,,,,
html-keyboard-response,484,967531,null,"<div style=""font-size:42px;"">FLIPPER</div><img id = ""stim"" ><div class = green_square id = topsquare></div>",null,encoding,word_square,,,0,topsquare,none,true,,,FLIPPER,4,,,
html-keyboard-response,485,967845,null,"<div style=""font-size:42px;"">FLIPPER</div>",null,,word,FLIPPER,,,,,,,,,,,,
html-keyboard-response,486,969354,null,"",null,,word,FLIPPER,,,,,,,,,,,,
html-keyboard-response,487,969558,null,"<div style=""font-size:42px;"">MAMMAL</div><img id = ""stim"" ><div class = green_square id = bottomsquare></div>",null,encoding,word_square,,,0,bottomsquare,none,true,,,MAMMAL,4,,,
html-keyboard-response,488,969870,null,"<div style=""font-size:42px;"">MAMMAL</div>",null,,word,MAMMAL,,,,,,,,,,,,
html-keyboard-response,489,971379,null,"",null,,word,MAMMAL,,,,,,,,,,,,
html-keyboard-response,490,971584,null,"<div style=""font-size:42px;"">FLUTE</div><img id = ""stim"" ><div class = red_square id = topsquare></div>",null,encoding,word_square,,,1,topsquare,32,true,,,FLUTE,4,,,
html-keyboard-response,491,971885,293,"<div style=""font-size:42px;"">FLUTE</div>",32,,word,FLUTE,,,,,,,,,,,,
html-keyboard-response,492,973395,null,"",null,,word,FLUTE,,,,,,,,,,,,
html-keyboard-response,493,973612,null,"<div style=""font-size:42px;"">SCARECROW</div><img id = ""stim"" ><div class = red_square id = bottomsquare></div>",null,encoding,word_square,,,1,bottomsquare,32,true,,,SCARECROW,4,,,
html-keyboard-response,494,973925,129,"<div style=""font-size:42px;"">SCARECROW</div>",32,,word,SCARECROW,,,,,,,,,,,,
html-keyboard-response,495,975439,null,"",null,,word,SCARECROW,,,,,,,,,,,,
html-keyboard-response,496,975641,null,"<div style=""font-size:42px;"">SQUID</div><img id = ""stim"" ><div class = green_square id = topsquare></div>",null,encoding,word_square,,,0,topsquare,none,true,,,SQUID,4,,,
html-keyboard-response,497,975953,212.1000000089407,"<div style=""font-size:42px;"">SQUID</div>",32,,word,SQUID,,,,,,,,,,,,
html-keyboard-response,498,977457,null,"",null,,word,SQUID,,,,,,,,,,,,
html-keyboard-response,499,977659,null,"<div style=""font-size:42px;"">CLERK</div><img id = ""stim"" ><div class = green_square id = bottomsquare></div>",null,encoding,word_square,,,0,bottomsquare,none,true,,,CLERK,4,,,
html-keyboard-response,500,977971,null,"<div style=""font-size:42px;"">CLERK</div>",null,,word,CLERK,,,,,,,,,,,,
html-keyboard-response,501,979481,null,"",null,,word,CLERK,,,,,,,,,,,,
html-keyboard-response,502,979687,null,"<div style=""font-size:42px;"">SHAMPOO</div><img id = ""stim"" ><div class = red_square id = topsquare></div>",null,encoding,word_square,,,1,topsquare,32,true,,,SHAMPOO,4,,,
html-keyboard-response,503,979999,206.5,"<div style=""font-size:42px;"">SHAMPOO</div>",32,,word,SHAMPOO,,,,,,,,,,,,
html-keyboard-response,504,981504,null,"",null,,word,SHAMPOO,,,,,,,,,,,,
html-keyboard-response,505,981708,null,"<div style=""font-size:42px;"">YOLK</div><img id = ""stim"" ><div class = green_square id = topsquare></div>",null,encoding,word_square,,,0,topsquare,none,true,,,YOLK,4,,,
html-keyboard-response,506,982020,null,"<div style=""font-size:42px;"">YOLK</div>",null,,word,YOLK,,,,,,,,,,,,
html-keyboard-response,507,983532,null,"",null,,word,YOLK,,,,,,,,,,,,
html-keyboard-response,508,983737,null,"<div style=""font-size:42px;"">CUPBOARD</div><img id = ""stim"" ><div class = red_square id = bottomsquare></div>",null,encoding,word_square,,,1,bottomsquare,32,true,,,CUPBOARD,4,,,
html-keyboard-response,509,984046,307.8999999910593,"<div style=""font-size:42px;"">CUPBOARD</div>",32,,word,CUPBOARD,,,,,,,,,,,,
html-keyboard-response,510,985556,null,"",null,,word,CUPBOARD,,,,,,,,,,,,
html-keyboard-response,511,985761,null,"<div style=""font-size:42px;"">SHIRT</div><img id = ""stim"" ><div class = green_square id = bottomsquare></div>",null,encoding,word_square,,,0,bottomsquare,none,true,,,SHIRT,4,,,
html-keyboard-response,512,986073,null,"<div style=""font-size:42px;"">SHIRT</div>",null,,word,SHIRT,,,,,,,,,,,,
html-keyboard-response,513,987581,null,"",null,,word,SHIRT,,,,,,,,,,,,
html-keyboard-response,514,987785,null,"<div style=""font-size:42px;"">YACHT</div><img id = ""stim"" ><div class = green_square id = topsquare></div>",null,encoding,word_square,,,0,topsquare,none,true,,,YACHT,4,,,
html-keyboard-response,515,988098,null,"<div style=""font-size:42px;"">YACHT</div>",null,,word,YACHT,,,,,,,,,,,,
html-keyboard-response,516,989609,null,"",null,,word,YACHT,,,,,,,,,,,,
call-function,517,989610,,"",,,,,,,,,,,,,,,,
html-keyboard-response,518,989720,null,"",null,,,,,,,,,,,,,,,
math-period,519,992582,5529.79999999702,"",,,,,,,,,,,4,,,,,
html-keyboard-response,520,992688,null,"",null,,,,,,,,,,,,,,,
math-period,521,994837,3977.3999999910593,"",,,,,,,,,,,3,,,,,
html-keyboard-response,522,994945,null,"",null,,,,,,,,,,,,,,,
math-period,523,997142,4031.7999999970198,"",,,,,,,,,,,0,,,,,
html-keyboard-response,524,997250,null,"",null,,,,,,,,,,,,,,,
math-period,525,1000525,5541.0999999940395,"",,,,,,,,,,,3,,,,,
html-keyboard-response,526,1000626,null,"",null,,,,,,,,,,,,,,,
math-period,527,1005117,8821.10000000894,"",,,,,,,,,,,2,,,,,
html-keyboard-response,528,1005221,null,"",null,,,,,,,,,,,,,,,
math-period,529,1006589,2518.199999988079,"",,,,,,,,,,,3,,,,,
html-keyboard-response,530,1006692,null,"",null,,,,,,,,,,,,,,,
math-period,531,1008373,3153.8999999910593,"",,,,,,,,,,,5,,,,,
html-keyboard-response,532,1008488,null,"",null,,,,,,,,,,,,,,,
math-period,533,1010469,3640,"",,,,,,,,,,,3,,,,,
html-keyboard-response,534,1010573,null,"",null,,,,,,,,,,,,,,,
math-period,535,1012413,3495.3999999910593,"",,,,,,,,,,,5,,,,,
html-keyboard-response,536,1012527,null,"",null,,,,,,,,,,,,,,,
math-period,537,1013625,null,"",,,,,,,,,,,,,,,,
html-keyboard-response,538,1014642,null,"Recall Period!",null,,,,,,,,,,,,,,,
call-function,539,1014643,,"",,,,,,,,,,,,,,,,
html-keyboard-response,540,1014744,null,"",null,,,,,,,,,,,,,,,
recall-period,541,1019901,22786,"",,,,,,,,,,,shirt,,,,,
html-keyboard-response,542,1020008,null,"",null,,,,,,,,,,,,,,,
recall-period,543,1023589,15637.600000023842,"",,,,,,,,,,,bluejay,,,,,
html-keyboard-response,544,1023691,null,"",null,,,,,,,,,,,,,,,
recall-period,545,1089654,null,"",,,,,,,,,,,,,,,,
html-keyboard-response,546,1090156,null,"Time's Up!",null,,,,,,,,,,,,,,,
html-keyboard-response,547,1294118,203960.60000000894,"<p> Good job! You have responded correctly to 100% of the trials. </p>
                      <p>Be sure to only press the spacebar if you see a red square, and please keep your accuracy above 80%.</p>
                      <p> Press any key to continue the experiment. </p>",32,,,,,,,,,,,,,,,
html-keyboard-response,548,1295862,1742.7999999970198,"<div style=""font-size:48px;"">Press any key to begin list 6 of 16 </div>",32,,,,,,,,,,,,,,,
html-keyboard-response,549,1298382,null,"<div style=""font-size:60px;"">+</div>",null,,,,,,,,,,,,,,,
html-keyboard-response,550,1298585,null,"<div style=""font-size:42px;"">TOILET</div><img id = ""stim"" ><div class = green_square id = topsquare></div>",null,encoding,word_square,,,0,topsquare,none,true,,,TOILET,5,,,
html-keyboard-response,551,1298898,null,"<div style=""font-size:42px;"">TOILET</div>",null,,word,TOILET,,,,,,,,,,,,
html-keyboard-response,552,1300400,null,"",null,,word,TOILET,,,,,,,,,,,,
html-keyboard-response,553,1300603,null,"<div style=""font-size:42px;"">SPOOL</div><img id = ""stim"" ><div class = green_square id = bottomsquare></div>",null,encoding,word_square,,,0,bottomsquare,none,true,,,SPOOL,5,,,
html-keyboard-response,554,1300916,null,"<div style=""font-size:42px;"">SPOOL</div>",null,,word,SPOOL,,,,,,,,,,,,
html-keyboard-response,555,1302432,null,"",null,,word,SPOOL,,,,,,,,,,,,
html-keyboard-response,556,1302635,null,"<div style=""font-size:42px;"">MARKER</div><img id = ""stim"" ><div class = red_square id = bottomsquare></div>",null,encoding,word_square,,,1,bottomsquare,32,true,,,MARKER,5,,,
html-keyboard-response,557,1302947,153.5,"<div style=""font-size:42px;"">MARKER</div>",32,,word,MARKER,,,,,,,,,,,,
html-keyboard-response,558,1304456,null,"",null,,word,MARKER,,,,,,,,,,,,
html-keyboard-response,559,1304660,null,"<div style=""font-size:42px;"">CATTLE</div><img id = ""stim"" ><div class = green_square id = topsquare></div>",null,encoding,word_square,,,0,topsquare,none,true,,,CATTLE,5,,,
html-keyboard-response,560,1304972,null,"<div style=""font-size:42px;"">CATTLE</div>",null,,word,CATTLE,,,,,,,,,,,,
html-keyboard-response,561,1306477,null,"",null,,word,CATTLE,,,,,,,,,,,,
html-keyboard-response,562,1306683,null,"<div style=""font-size:42px;"">SPOON</div><img id = ""stim"" ><div class = red_square id = topsquare></div>",null,encoding,word_square,,,1,topsquare,32,true,,,SPOON,5,,,
html-keyboard-response,563,1306998,193.5,"<div style=""font-size:42px;"">SPOON</div>",32,,word,SPOON,,,,,,,,,,,,
html-keyboard-response,564,1308503,null,"",null,,word,SPOON,,,,,,,,,,,,
html-keyboard-response,565,1308706,null,"<div style=""font-size:42px;"">LASER</div><img id = ""stim"" ><div class = green_square id = bottomsquare></div>",null,encoding,word_square,,,0,bottomsquare,none,true,,,LASER,5,,,
html-keyboard-response,566,1309018,null,"<div style=""font-size:42px;"">LASER</div>",null,,word,LASER,,,,,,,,,,,,
html-keyboard-response,567,1310523,null,"",null,,word,LASER,,,,,,,,,,,,
html-keyboard-response,568,1310724,null,"<div style=""font-size:42px;"">ICEBERG</div><img id = ""stim"" ><div class = green_square id = topsquare></div>",null,encoding,word_square,,,0,topsquare,none,true,,,ICEBERG,5,,,
html-keyboard-response,569,1311033,null,"<div style=""font-size:42px;"">ICEBERG</div>",null,,word,ICEBERG,,,,,,,,,,,,
html-keyboard-response,570,1312549,null,"",null,,word,ICEBERG,,,,,,,,,,,,
html-keyboard-response,571,1312753,null,"<div style=""font-size:42px;"">SCARF</div><img id = ""stim"" ><div class = red_square id = bottomsquare></div>",null,encoding,word_square,,,1,bottomsquare,32,true,,,SCARF,5,,,
html-keyboard-response,572,1313067,276.09999999403954,"<div style=""font-size:42px;"">SCARF</div>",32,,word,SCARF,,,,,,,,,,,,
html-keyboard-response,573,1314581,null,"",null,,word,SCARF,,,,,,,,,,,,
html-keyboard-response,574,1314785,null,"<div style=""font-size:42px;"">JAR</div><img id = ""stim"" ><div class = red_square id = topsquare></div>",null,encoding,word_square,,,1,topsquare,32,true,,,JAR,5,,,
html-keyboard-response,575,1315096,299.69999998807907,"<div style=""font-size:42px;"">JAR</div>",32,,word,JAR,,,,,,,,,,,,
html-keyboard-response,576,1316612,null,"",null,,word,JAR,,,,,,,,,,,,
html-keyboard-response,577,1316816,null,"<div style=""font-size:42px;"">BRIDE</div><img id = ""stim"" ><div class = green_square id = bottomsquare></div>",null,encoding,word_square,,,0,bottomsquare,none,true,,,BRIDE,5,,,
html-keyboard-response,578,1317127,null,"<div style=""font-size:42px;"">BRIDE</div>",null,,word,BRIDE,,,,,,,,,,,,
html-keyboard-response,579,1318637,null,"",null,,word,BRIDE,,,,,,,,,,,,
html-keyboard-response,580,1318840,null,"<div style=""font-size:42px;"">PIRATE</div><img id = ""stim"" ><div class = green_square id = topsquare></div>",null,encoding,word_square,,,0,topsquare,none,true,,,PIRATE,5,,,
html-keyboard-response,581,1319152,null,"<div style=""font-size:42px;"">PIRATE</div>",null,,word,PIRATE,,,,,,,,,,,,
html-keyboard-response,582,1320667,null,"",null,,word,PIRATE,,,,,,,,,,,,
html-keyboard-response,583,1320871,null,"<div style=""font-size:42px;"">WASHER</div><img id = ""stim"" ><div class = red_square id = bottomsquare></div>",null,encoding,word_square,,,1,bottomsquare,32,true,,,WASHER,5,,,
html-keyboard-response,584,1321181,null,"<div style=""font-size:42px;"">WASHER</div>",null,,word,WASHER,,,,,,,,,,,,
html-keyboard-response,585,1322681,96.29999999701977,"",32,,word,WASHER,,,,,,,,,,,,
html-keyboard-response,586,1322887,null,"<div style=""font-size:42px;"">CANDY</div><img id = ""stim"" ><div class = green_square id = bottomsquare></div>",null,encoding,word_square,,,0,bottomsquare,none,true,,,CANDY,5,,,
html-keyboard-response,587,1323200,null,"<div style=""font-size:42px;"">CANDY</div>",null,,word,CANDY,,,,,,,,,,,,
html-keyboard-response,588,1324704,null,"",null,,word,CANDY,,,,,,,,,,,,
html-keyboard-response,589,1324907,null,"<div style=""font-size:42px;"">MATCH</div><img id = ""stim"" ><div class = red_square id = topsquare></div>",null,encoding,word_square,,,1,topsquare,32,true,,,MATCH,5,,,
html-keyboard-response,590,1325221,298.29999999701977,"<div style=""font-size:42px;"">MATCH</div>",32,,word,MATCH,,,,,,,,,,,,
html-keyboard-response,591,1326733,null,"",null,,word,MATCH,,,,,,,,,,,,
html-keyboard-response,592,1326936,null,"<div style=""font-size:42px;"">SPRINKLE</div><img id = ""stim"" ><div class = red_square id = bottomsquare></div>",null,encoding,word_square,,,1,bottomsquare,32,true,,,SPRINKLE,5,,,
html-keyboard-response,593,1327250,212.70000000298023,"<div style=""font-size:42px;"">SPRINKLE</div>",32,,word,SPRINKLE,,,,,,,,,,,,
html-keyboard-response,594,1328754,null,"",null,,word,SPRINKLE,,,,,,,,,,,,
html-keyboard-response,595,1328957,null,"<div style=""font-size:42px;"">APRON</div><img id = ""stim"" ><div class = red_square id = topsquare></div>",null,encoding,word_square,,,1,topsquare,32,true,,,APRON,5,,,
html-keyboard-response,596,1329269,null,"<div style=""font-size:42px;"">APRON</div>",null,,word,APRON,,,,,,,,,,,,
html-keyboard-response,597,1330774,7.699999988079071,"",32,,word,APRON,,,,,,,,,,,,
call-function,598,1330775,,"",,,,,,,,,,,,,,,,
html-keyboard-response,599,1330877,null,"",null,,,,,,,,,,,,,,,
math-period,600,1333774,4952.20000000298,"",,,,,,,,,,,4,,,,,
html-keyboard-response,601,1333883,null,"",null,,,,,,,,,,,,,,,
math-period,602,1336510,5075,"",,,,,,,,,,,0,,,,,
html-keyboard-response,603,1336615,null,"",null,,,,,,,,,,,,,,,
math-period,604,1338582,3564.2000000029802,"",,,,,,,,,,,4,,,,,
html-keyboard-response,605,1338685,null,"",null,,,,,,,,,,,,,,,
math-period,606,1340286,3024.2000000029802,"",,,,,,,,,,,4,,,,,
html-keyboard-response,607,1340388,null,"",null,,,,,,,,,,,,,,,
math-period,608,1343286,5225.0999999940395,"",,,,,,,,,,,2,,,,,
html-keyboard-response,609,1343394,null,"",null,,,,,,,,,,,,,,,
math-period,610,1345510,3902.2999999970198,"",,,,,,,,,,,3,,,,,
html-keyboard-response,611,1345622,null,"",null,,,,,,,,,,,,,,,
math-period,612,1348574,5421.100000008941,"",,,,,,,,,,,1,,,,,
html-keyboard-response,613,1348676,null,"",null,,,,,,,,,,,,,,,
math-period,614,1350518,3442.999999985099,"",,,,,,,,,,,5,,,,,
html-keyboard-response,615,1350623,null,"",null,,,,,,,,,,,,,,,
math-period,616,1352462,3557.399999976158,"",,,,,,,,,,,1,,,,,
html-keyboard-response,617,1352577,null,"",null,,,,,,,,,,,,,,,
math-period,618,1354787,null,"",,,,,,,,,,,,,,,,
html-keyboard-response,619,1355791,null,"Recall Period!",null,,,,,,,,,,,,,,,
call-function,620,1355791,,"",,,,,,,,,,,,,,,,
html-keyboard-response,621,1355899,null,"",null,,,,,,,,,,,,,,,
recall-period,622,1360286,24701.700000032783,"",,,,,,,,,,,bride,,,,,
html-keyboard-response,623,1360389,null,"",null,,,,,,,,,,,,,,,
recall-period,624,1430804,null,"",,,,,,,,,,,,,,,,
html-keyboard-response,625,1431307,null,"Time's Up!",null,,,,,,,,,,,,,,,
html-keyboard-response,626,1671207,239899,"<p> Good job! You have responded correctly to 100% of the trials. </p>
                      <p>Be sure to only press the spacebar if you see a red square, and please keep your accuracy above 80%.</p>
                      <p> Press any key to continue the experiment. </p>",32,,,,,,,,,,,,,,,
html-keyboard-response,627,1671998,790.2000000029802,"<div style=""font-size:48px;"">Press any key to begin list 7 of 16 </div>",32,,,,,,,,,,,,,,,
html-keyboard-response,628,1674504,null,"<div style=""font-size:60px;"">+</div>",null,,,,,,,,,,,,,,,
html-keyboard-response,629,1674706,null,"<div style=""font-size:42px;"">COIN</div><img id = ""stim"" ><div class = green_square id = bottomsquare></div>",null,encoding,word_square,,,0,bottomsquare,none,false,,,COIN,6,,,
html-keyboard-response,630,1675020,null,"<div style=""font-size:42px;"">COIN</div>",null,,word,COIN,,,,,,,,,,,,
html-keyboard-response,631,1676535,312.70000000298023,"",32,,word,COIN,,,,,,,,,,,,
html-keyboard-response,632,1676738,null,"<div style=""font-size:42px;"">CORAL</div><img id = ""stim"" ><div class = green_square id = topsquare></div>",null,encoding,word_square,,,0,topsquare,none,true,,,CORAL,6,,,
html-keyboard-response,633,1677045,null,"<div style=""font-size:42px;"">CORAL</div>",null,,word,CORAL,,,,,,,,,,,,
html-keyboard-response,634,1678547,null,"",null,,word,CORAL,,,,,,,,,,,,
html-keyboard-response,635,1678751,null,"<div style=""font-size:42px;"">CHISEL</div><img id = ""stim"" ><div class = green_square id = bottomsquare></div>",null,encoding,word_square,,,0,bottomsquare,none,true,,,CHISEL,6,,,
html-keyboard-response,636,1679067,null,"<div style=""font-size:42px;"">CHISEL</div>",null,,word,CHISEL,,,,,,,,,,,,
html-keyboard-response,637,1680572,null,"",null,,word,CHISEL,,,,,,,,,,,,
html-keyboard-response,638,1680775,null,"<div style=""font-size:42px;"">EUROPE</div><img id = ""stim"" ><div class = red_square id = topsquare></div>",null,encoding,word_square,,,1,topsquare,32,true,,,EUROPE,6,,,
html-keyboard-response,639,1681089,null,"<div style=""font-size:42px;"">EUROPE</div>",null,,word,EUROPE,,,,,,,,,,,,
html-keyboard-response,640,1682591,84.79999999701977,"",32,,word,EUROPE,,,,,,,,,,,,
html-keyboard-response,641,1682795,null,"<div style=""font-size:42px;"">ARTIST</div><img id = ""stim"" ><div class = green_square id = topsquare></div>",null,encoding,word_square,,,0,topsquare,none,true,,,ARTIST,6,,,
html-keyboard-response,642,1683108,null,"<div style=""font-size:42px;"">ARTIST</div>",null,,word,ARTIST,,,,,,,,,,,,
html-keyboard-response,643,1684618,null,"",null,,word,ARTIST,,,,,,,,,,,,
html-keyboard-response,644,1684822,null,"<div style=""font-size:42px;"">CRYSTAL</div><img id = ""stim"" ><div class = red_square id = bottomsquare></div>",null,encoding,word_square,,,1,bottomsquare,32,true,,,CRYSTAL,6,,,
html-keyboard-response,645,1685140,262.29999999701977,"<div style=""font-size:42px;"">CRYSTAL</div>",32,,word,CRYSTAL,,,,,,,,,,,,
html-keyboard-response,646,1686645,null,"",null,,word,CRYSTAL,,,,,,,,,,,,
html-keyboard-response,647,1686862,null,"<div style=""font-size:42px;"">FRIES</div><img id = ""stim"" ><div class = red_square id = topsquare></div>",null,encoding,word_square,,,1,topsquare,32,true,,,FRIES,6,,,
html-keyboard-response,648,1687173,159.20000000298023,"<div style=""font-size:42px;"">FRIES</div>",32,,word,FRIES,,,,,,,,,,,,
html-keyboard-response,649,1688687,null,"",null,,word,FRIES,,,,,,,,,,,,
html-keyboard-response,650,1688890,null,"<div style=""font-size:42px;"">TWIG</div><img id = ""stim"" ><div class = green_square id = bottomsquare></div>",null,encoding,word_square,,,0,bottomsquare,none,true,,,TWIG,6,,,
html-keyboard-response,651,1689204,null,"<div style=""font-size:42px;"">TWIG</div>",null,,word,TWIG,,,,,,,,,,,,
html-keyboard-response,652,1690713,null,"",null,,word,TWIG,,,,,,,,,,,,
html-keyboard-response,653,1690918,null,"<div style=""font-size:42px;"">NOTEBOOK</div><img id = ""stim"" ><div class = green_square id = topsquare></div>",null,encoding,word_square,,,0,topsquare,none,true,,,NOTEBOOK,6,,,
html-keyboard-response,654,1691232,null,"<div style=""font-size:42px;"">NOTEBOOK</div>",null,,word,NOTEBOOK,,,,,,,,,,,,
html-keyboard-response,655,1692748,null,"",null,,word,NOTEBOOK,,,,,,,,,,,,
html-keyboard-response,656,1692953,null,"<div style=""font-size:42px;"">COBBLER</div><img id = ""stim"" ><div class = red_square id = bottomsquare></div>",null,encoding,word_square,,,1,bottomsquare,32,true,,,COBBLER,6,,,
html-keyboard-response,657,1693267,null,"<div style=""font-size:42px;"">COBBLER</div>",null,,word,COBBLER,,,,,,,,,,,,
html-keyboard-response,658,1694771,18.400000005960464,"",32,,word,COBBLER,,,,,,,,,,,,
html-keyboard-response,659,1694989,null,"<div style=""font-size:42px;"">LILY</div><img id = ""stim"" ><div class = red_square id = topsquare></div>",null,encoding,word_square,,,1,topsquare,32,true,,,LILY,6,,,
html-keyboard-response,660,1695299,null,"<div style=""font-size:42px;"">LILY</div>",null,,word,LILY,,,,,,,,,,,,
html-keyboard-response,661,1696814,74.29999999701977,"",32,,word,LILY,,,,,,,,,,,,
html-keyboard-response,662,1697016,null,"<div style=""font-size:42px;"">SLOPE</div><img id = ""stim"" ><div class = green_square id = bottomsquare></div>",null,encoding,word_square,,,0,bottomsquare,none,true,,,SLOPE,6,,,
html-keyboard-response,663,1697327,null,"<div style=""font-size:42px;"">SLOPE</div>",null,,word,SLOPE,,,,,,,,,,,,
html-keyboard-response,664,1698831,null,"",null,,word,SLOPE,,,,,,,,,,,,
html-keyboard-response,665,1699035,null,"<div style=""font-size:42px;"">CASHIER</div><img id = ""stim"" ><div class = red_square id = bottomsquare></div>",null,encoding,word_square,,,1,bottomsquare,32,true,,,CASHIER,6,,,
html-keyboard-response,666,1699347,null,"<div style=""font-size:42px;"">CASHIER</div>",null,,word,CASHIER,,,,,,,,,,,,
html-keyboard-response,667,1700863,26.099999994039536,"",32,,word,CASHIER,,,,,,,,,,,,
html-keyboard-response,668,1701066,null,"<div style=""font-size:42px;"">FATHER</div><img id = ""stim"" ><div class = green_square id = topsquare></div>",null,encoding,word_square,,,0,topsquare,none,true,,,FATHER,6,,,
html-keyboard-response,669,1701378,null,"<div style=""font-size:42px;"">FATHER</div>",null,,word,FATHER,,,,,,,,,,,,
html-keyboard-response,670,1702884,null,"",null,,word,FATHER,,,,,,,,,,,,
html-keyboard-response,671,1703088,null,"<div style=""font-size:42px;"">CHIPMUNK</div><img id = ""stim"" ><div class = red_square id = topsquare></div>",null,encoding,word_square,,,1,topsquare,32,true,,,CHIPMUNK,6,,,
html-keyboard-response,672,1703401,null,"<div style=""font-size:42px;"">CHIPMUNK</div>",null,,word,CHIPMUNK,,,,,,,,,,,,
html-keyboard-response,673,1704908,355.40000000596046,"",32,,word,CHIPMUNK,,,,,,,,,,,,
html-keyboard-response,674,1705114,null,"<div style=""font-size:42px;"">PISTOL</div><img id = ""stim"" ><div class = red_square id = bottomsquare></div>",null,encoding,word_square,,,1,bottomsquare,32,true,,,PISTOL,6,,,
html-keyboard-response,675,1705426,259.5,"<div style=""font-size:42px;"">PISTOL</div>",32,,word,PISTOL,,,,,,,,,,,,
html-keyboard-response,676,1706937,null,"",null,,word,PISTOL,,,,,,,,,,,,
call-function,677,1706938,,"",,,,,,,,,,,,,,,,
html-keyboard-response,678,1707048,null,"",null,,,,,,,,,,,,,,,
math-period,679,1710078,5473.9000000059605,"",,,,,,,,,,,5,,,,,
html-keyboard-response,680,1710191,null,"",null,,,,,,,,,,,,,,,
math-period,681,1712550,4404,"",,,,,,,,,,,2,,,,,
html-keyboard-response,682,1712659,null,"",null,,,,,,,,,,,,,,,
math-period,683,1714214,2907.800000011921,"",,,,,,,,,,,3,,,,,
html-keyboard-response,684,1714318,null,"",null,,,,,,,,,,,,,,,
math-period,685,1715974,3095,"",,,,,,,,,,,4,,,,,
html-keyboard-response,686,1716078,null,"",null,,,,,,,,,,,,,,,
math-period,687,1717358,2382.699999988079,"",,,,,,,,,,,5,,,,,
html-keyboard-response,688,1717468,null,"",null,,,,,,,,,,,,,,,
math-period,689,1718478,1794.7999999821186,"",,,,,,,,,,,5,,,,,
html-keyboard-response,690,1718579,null,"",null,,,,,,,,,,,,,,,
math-period,691,1719455,1564.9000000059605,"",,,,,,,,,,,5,,,,,
html-keyboard-response,692,1719558,null,"",null,,,,,,,,,,,,,,,
math-period,693,1721230,3167,"",,,,,,,,,,,5,,,,,
html-keyboard-response,694,1721342,null,"",null,,,,,,,,,,,,,,,
math-period,695,1723990,4989.799999982119,"",,,,,,,,,,,4,,,,,
html-keyboard-response,696,1724094,null,"",null,,,,,,,,,,,,,,,
math-period,697,1725646,2926,"",,,,,,,,,,,4,,,,,
html-keyboard-response,698,1725752,null,"",null,,,,,,,,,,,,,,,
math-period,699,1727150,2650.0999999940395,"",,,,,,,,,,,3,,,,,
html-keyboard-response,700,1727265,null,"",null,,,,,,,,,,,,,,,
math-period,701,1729206,3664.5,"",,,,,,,,,,,4,,,,,
html-keyboard-response,702,1729309,null,"",null,,,,,,,,,,,,,,,
math-period,703,1730702,2648.7999999970198,"",,,,,,,,,,,4,,,,,
html-keyboard-response,704,1730814,null,"",null,,,,,,,,,,,,,,,
math-period,705,1730941,null,"",,,,,,,,,,,,,,,,
html-keyboard-response,706,1731950,null,"Recall Period!",null,,,,,,,,,,,,,,,
call-function,707,1731950,,"",,,,,,,,,,,,,,,,
html-keyboard-response,708,1732060,null,"",null,,,,,,,,,,,,,,,
recall-period,709,1746414,126296.09999994934,"",,,,,,,,,,,chipmunk,,,,,
html-keyboard-response,710,1746524,null,"",null,,,,,,,,,,,,,,,
recall-period,711,1749255,10710.40000000596,"",,,,,,,,,,,pistol,,,,,
html-keyboard-response,712,1749364,null,"",null,,,,,,,,,,,,,,,
recall-period,713,1751831,11309.499999940395,"",,,,,,,,,,,father,,,,,
html-keyboard-response,714,1751945,null,"",null,,,,,,,,,,,,,,,
recall-period,715,1806955,null,"",,,,,,,,,,,,,,,,
html-keyboard-response,716,1807472,null,"Time's Up!",null,,,,,,,,,,,,,,,
html-keyboard-response,717,2112471,304998.10000000894,"<p> Good job! You have responded correctly to 99% of the trials. </p>
                      <p>Be sure to only press the spacebar if you see a red square, and please keep your accuracy above 80%.</p>
                      <p> Press any key to continue the experiment. </p>",32,,,,,,,,,,,,,,,
html-keyboard-response,718,2113838,1366.2999999970198,"<div style=""font-size:48px;"">Press any key to begin list 8 of 16 </div>",32,,,,,,,,,,,,,,,
html-keyboard-response,719,2116361,null,"<div style=""font-size:60px;"">+</div>",null,,,,,,,,,,,,,,,
html-keyboard-response,720,2116564,null,"<div style=""font-size:42px;"">ROCKET</div><img id = ""stim"" ><div class = red_square id = bottomsquare></div>",null,encoding,word_square,,,1,bottomsquare,32,true,,,ROCKET,7,,,
html-keyboard-response,721,2116878,241.80000001192093,"<div style=""font-size:42px;"">ROCKET</div>",32,,word,ROCKET,,,,,,,,,,,,
html-keyboard-response,722,2118384,null,"",null,,word,ROCKET,,,,,,,,,,,,
html-keyboard-response,723,2118587,null,"<div style=""font-size:42px;"">LAKE</div><img id = ""stim"" ><div class = red_square id = topsquare></div>",null,encoding,word_square,,,1,topsquare,32,true,,,LAKE,7,,,
html-keyboard-response,724,2118899,null,"<div style=""font-size:42px;"">LAKE</div>",null,,word,LAKE,,,,,,,,,,,,
html-keyboard-response,725,2120414,82.8999999910593,"",32,,word,LAKE,,,,,,,,,,,,
html-keyboard-response,726,2120621,null,"<div style=""font-size:42px;"">CABLE</div><img id = ""stim"" ><div class = green_square id = topsquare></div>",null,encoding,word_square,,,0,topsquare,none,true,,,CABLE,7,,,
html-keyboard-response,727,2120937,null,"<div style=""font-size:42px;"">CABLE</div>",null,,word,CABLE,,,,,,,,,,,,
html-keyboard-response,728,2122439,null,"",null,,word,CABLE,,,,,,,,,,,,
html-keyboard-response,729,2122641,null,"<div style=""font-size:42px;"">STOCKING</div><img id = ""stim"" ><div class = red_square id = bottomsquare></div>",null,encoding,word_square,,,1,bottomsquare,32,true,,,STOCKING,7,,,
html-keyboard-response,730,2122953,244.29999999701977,"<div style=""font-size:42px;"">STOCKING</div>",32,,word,STOCKING,,,,,,,,,,,,
html-keyboard-response,731,2124455,null,"",null,,word,STOCKING,,,,,,,,,,,,
html-keyboard-response,732,2124657,null,"<div style=""font-size:42px;"">BRUNETTE</div><img id = ""stim"" ><div class = green_square id = bottomsquare></div>",null,encoding,word_square,,,0,bottomsquare,none,true,,,BRUNETTE,7,,,
html-keyboard-response,733,2124971,null,"<div style=""font-size:42px;"">BRUNETTE</div>",null,,word,BRUNETTE,,,,,,,,,,,,
html-keyboard-response,734,2126485,null,"",null,,word,BRUNETTE,,,,,,,,,,,,
html-keyboard-response,735,2126689,null,"<div style=""font-size:42px;"">GALLON</div><img id = ""stim"" ><div class = red_square id = topsquare></div>",null,encoding,word_square,,,1,topsquare,32,true,,,GALLON,7,,,
html-keyboard-response,736,2127002,null,"<div style=""font-size:42px;"">GALLON</div>",null,,word,GALLON,,,,,,,,,,,,
html-keyboard-response,737,2128505,28,"",32,,word,GALLON,,,,,,,,,,,,
html-keyboard-response,738,2128709,null,"<div style=""font-size:42px;"">MILK</div><img id = ""stim"" ><div class = red_square id = bottomsquare></div>",null,encoding,word_square,,,1,bottomsquare,32,true,,,MILK,7,,,
html-keyboard-response,739,2129020,208.79999999701977,"<div style=""font-size:42px;"">MILK</div>",32,,word,MILK,,,,,,,,,,,,
html-keyboard-response,740,2130522,null,"",null,,word,MILK,,,,,,,,,,,,
html-keyboard-response,741,2130726,null,"<div style=""font-size:42px;"">DONKEY</div><img id = ""stim"" ><div class = green_square id = topsquare></div>",null,encoding,word_square,,,0,topsquare,none,true,,,DONKEY,7,,,
html-keyboard-response,742,2131038,null,"<div style=""font-size:42px;"">DONKEY</div>",null,,word,DONKEY,,,,,,,,,,,,
html-keyboard-response,743,2132542,null,"",null,,word,DONKEY,,,,,,,,,,,,
html-keyboard-response,744,2132750,null,"<div style=""font-size:42px;"">CRATER</div><img id = ""stim"" ><div class = green_square id = bottomsquare></div>",null,encoding,word_square,,,0,bottomsquare,none,true,,,CRATER,7,,,
html-keyboard-response,745,2133062,null,"<div style=""font-size:42px;"">CRATER</div>",null,,word,CRATER,,,,,,,,,,,,
html-keyboard-response,746,2134572,null,"",null,,word,CRATER,,,,,,,,,,,,
html-keyboard-response,747,2134779,null,"<div style=""font-size:42px;"">FOX</div><img id = ""stim"" ><div class = red_square id = topsquare></div>",null,encoding,word_square,,,1,topsquare,32,true,,,FOX,7,,,
html-keyboard-response,748,2135093,186.59999999403954,"<div style=""font-size:42px;"">FOX</div>",32,,word,FOX,,,,,,,,,,,,
html-keyboard-response,749,2136597,null,"",null,,word,FOX,,,,,,,,,,,,
html-keyboard-response,750,2136800,null,"<div style=""font-size:42px;"">RELISH</div><img id = ""stim"" ><div class = red_square id = bottomsquare></div>",null,encoding,word_square,,,1,bottomsquare,32,true,,,RELISH,7,,,
html-keyboard-response,751,2137112,254.30000001192093,"<div style=""font-size:42px;"">RELISH</div>",32,,word,RELISH,,,,,,,,,,,,
html-keyboard-response,752,2138620,null,"",null,,word,RELISH,,,,,,,,,,,,
html-keyboard-response,753,2138826,null,"<div style=""font-size:42px;"">FEMALE</div><img id = ""stim"" ><div class = green_square id = topsquare></div>",null,encoding,word_square,,,0,topsquare,none,true,,,FEMALE,7,,,
html-keyboard-response,754,2139142,null,"<div style=""font-size:42px;"">FEMALE</div>",null,,word,FEMALE,,,,,,,,,,,,
html-keyboard-response,755,2140658,null,"",null,,word,FEMALE,,,,,,,,,,,,
html-keyboard-response,756,2140861,null,"<div style=""font-size:42px;"">KETCHUP</div><img id = ""stim"" ><div class = red_square id = topsquare></div>",null,encoding,word_square,,,1,topsquare,32,true,,,KETCHUP,7,,,
html-keyboard-response,757,2141172,null,"<div style=""font-size:42px;"">KETCHUP</div>",null,,word,KETCHUP,,,,,,,,,,,,
html-keyboard-response,758,2142687,73.20000000298023,"",32,,word,KETCHUP,,,,,,,,,,,,
html-keyboard-response,759,2142891,null,"<div style=""font-size:42px;"">MISSILE</div><img id = ""stim"" ><div class = green_square id = bottomsquare></div>",null,encoding,word_square,,,0,bottomsquare,none,true,,,MISSILE,7,,,
html-keyboard-response,760,2143206,null,"<div style=""font-size:42px;"">MISSILE</div>",null,,word,MISSILE,,,,,,,,,,,,
html-keyboard-response,761,2144712,null,"",null,,word,MISSILE,,,,,,,,,,,,
html-keyboard-response,762,2144916,null,"<div style=""font-size:42px;"">SATURN</div><img id = ""stim"" ><div class = green_square id = topsquare></div>",null,encoding,word_square,,,0,topsquare,none,true,,,SATURN,7,,,
html-keyboard-response,763,2145226,null,"<div style=""font-size:42px;"">SATURN</div>",null,,word,SATURN,,,,,,,,,,,,
html-keyboard-response,764,2146741,null,"",null,,word,SATURN,,,,,,,,,,,,
html-keyboard-response,765,2146958,null,"<div style=""font-size:42px;"">ELBOW</div><img id = ""stim"" ><div class = green_square id = bottomsquare></div>",null,encoding,word_square,,,0,bottomsquare,none,true,,,ELBOW,7,,,
html-keyboard-response,766,2147270,null,"<div style=""font-size:42px;"">ELBOW</div>",null,,word,ELBOW,,,,,,,,,,,,
html-keyboard-response,767,2148784,null,"",null,,word,ELBOW,,,,,,,,,,,,
call-function,768,2148785,,"",,,,,,,,,,,,,,,,
html-keyboard-response,769,2148886,null,"",null,,,,,,,,,,,,,,,
math-period,770,2150958,3751,"",,,,,,,,,,,4,,,,,
html-keyboard-response,771,2151062,null,"",null,,,,,,,,,,,,,,,
math-period,772,2152710,3047.8999999910593,"",,,,,,,,,,,2,,,,,
html-keyboard-response,773,2152812,null,"",null,,,,,,,,,,,,,,,
math-period,774,2156047,6316.4000000059605,"",,,,,,,,,,,5,,,,,
html-keyboard-response,775,2156158,null,"",null,,,,,,,,,,,,,,,
math-period,776,2158310,4152.200000017881,"",,,,,,,,,,,1,,,,,
html-keyboard-response,777,2158424,null,"",null,,,,,,,,,,,,,,,
math-period,778,2160014,3004.2000000029802,"",,,,,,,,,,,5,,,,,
html-keyboard-response,779,2160121,null,"",null,,,,,,,,,,,,,,,
math-period,780,2161878,3272.9000000059605,"",,,,,,,,,,,3,,,,,
html-keyboard-response,781,2161994,null,"",null,,,,,,,,,,,,,,,
math-period,782,2163926,3679,"",,,,,,,,,,,5,,,,,
html-keyboard-response,783,2164034,null,"",null,,,,,,,,,,,,,,,
math-period,784,2165431,2647.999999985099,"",,,,,,,,,,,5,,,,,
html-keyboard-response,785,2165538,null,"",null,,,,,,,,,,,,,,,
math-period,786,2166790,2367.3999999910593,"",,,,,,,,,,,6,,,,,
html-keyboard-response,787,2166906,null,"",null,,,,,,,,,,,,,,,
math-period,788,2168767,3543.4000000059605,"",,,,,,,,,,,4,,,,,
html-keyboard-response,789,2168871,null,"",null,,,,,,,,,,,,,,,
math-period,790,2171478,5084.199999988079,"",,,,,,,,,,,2,,,,,
html-keyboard-response,791,2171595,null,"",null,,,,,,,,,,,,,,,
math-period,792,2172802,null,"",,,,,,,,,,,,,,,,
html-keyboard-response,793,2173815,null,"Recall Period!",null,,,,,,,,,,,,,,,
call-function,794,2173816,,"",,,,,,,,,,,,,,,,
html-keyboard-response,795,2173917,null,"",null,,,,,,,,,,,,,,,
recall-period,796,2178887,18965.40000002086,"",,,,,,,,,,,crater,,,,,
html-keyboard-response,797,2178994,null,"",null,,,,,,,,,,,,,,,
recall-period,798,2181719,8877.89999999106,"",,,,,,,,,,,lake,,,,,
html-keyboard-response,799,2181831,null,"",null,,,,,,,,,,,,,,,
recall-period,800,2186919,31613.10000000894,"",,,,,,,,,,,missile,,,,,
html-keyboard-response,801,2187035,null,"",null,,,,,,,,,,,,,,,
recall-period,802,2195055,42225.5000000298,"",,,,,,,,,,,woman,,,,,
html-keyboard-response,803,2195158,null,"",null,,,,,,,,,,,,,,,
recall-period,804,2248816,null,"",,,,,,,,,,,,,,,,
html-keyboard-response,805,2249332,null,"Time's Up!",null,,,,,,,,,,,,,,,
html-keyboard-response,806,2334295,84962.20000000298,"<p> Good job! You have responded correctly to 99% of the trials. </p>
                      <p>Be sure to only press the spacebar if you see a red square, and please keep your accuracy above 80%.</p>
                      <p> Press any key to continue the experiment. </p>",32,,,,,,,,,,,,,,,
html-keyboard-response,807,2335039,743.0999999940395,"<div style=""font-size:48px;"">Press any key to begin list 9 of 16 </div>",32,,,,,,,,,,,,,,,
html-keyboard-response,808,2337561,null,"<div style=""font-size:60px;"">+</div>",null,,,,,,,,,,,,,,,
html-keyboard-response,809,2337765,null,"<div style=""font-size:42px;"">GYMNAST</div><img id = ""stim"" ><div class = red_square id = topsquare></div>",null,encoding,word_square,,,1,topsquare,32,true,,,GYMNAST,8,,,
html-keyboard-response,810,2338080,null,"<div style=""font-size:42px;"">GYMNAST</div>",null,,word,GYMNAST,,,,,,,,,,,,
html-keyboard-response,811,2339595,229.69999998807907,"",32,,word,GYMNAST,,,,,,,,,,,,
html-keyboard-response,812,2339798,null,"<div style=""font-size:42px;"">BIBLE</div><img id = ""stim"" ><div class = red_square id = bottomsquare></div>",null,encoding,word_square,,,1,bottomsquare,32,true,,,BIBLE,8,,,
html-keyboard-response,813,2340112,224.29999999701977,"<div style=""font-size:42px;"">BIBLE</div>",32,,word,BIBLE,,,,,,,,,,,,
html-keyboard-response,814,2341626,null,"",null,,word,BIBLE,,,,,,,,,,,,
html-keyboard-response,815,2341830,null,"<div style=""font-size:42px;"">TRUCK</div><img id = ""stim"" ><div class = red_square id = topsquare></div>",null,encoding,word_square,,,1,topsquare,32,true,,,TRUCK,8,,,
html-keyboard-response,816,2342143,176.69999998807907,"<div style=""font-size:42px;"">TRUCK</div>",32,,word,TRUCK,,,,,,,,,,,,
html-keyboard-response,817,2343644,null,"",null,,word,TRUCK,,,,,,,,,,,,
html-keyboard-response,818,2343861,null,"<div style=""font-size:42px;"">SEAL</div><img id = ""stim"" ><div class = green_square id = bottomsquare></div>",null,encoding,word_square,,,0,bottomsquare,none,true,,,SEAL,8,,,
html-keyboard-response,819,2344175,null,"<div style=""font-size:42px;"">SEAL</div>",null,,word,SEAL,,,,,,,,,,,,
html-keyboard-response,820,2345683,null,"",null,,word,SEAL,,,,,,,,,,,,
html-keyboard-response,821,2345890,null,"<div style=""font-size:42px;"">ZEBRA</div><img id = ""stim"" ><div class = red_square id = bottomsquare></div>",null,encoding,word_square,,,1,bottomsquare,32,true,,,ZEBRA,8,,,
html-keyboard-response,822,2346203,null,"<div style=""font-size:42px;"">ZEBRA</div>",null,,word,ZEBRA,,,,,,,,,,,,
html-keyboard-response,823,2347704,11.799999997019768,"",32,,word,ZEBRA,,,,,,,,,,,,
html-keyboard-response,824,2347908,null,"<div style=""font-size:42px;"">CABOOSE</div><img id = ""stim"" ><div class = red_square id = topsquare></div>",null,encoding,word_square,,,1,topsquare,32,true,,,CABOOSE,8,,,
html-keyboard-response,825,2348219,null,"<div style=""font-size:42px;"">CABOOSE</div>",null,,word,CABOOSE,,,,,,,,,,,,
html-keyboard-response,826,2349733,219.20000000298023,"",32,,word,CABOOSE,,,,,,,,,,,,
html-keyboard-response,827,2349938,null,"<div style=""font-size:42px;"">AUTHOR</div><img id = ""stim"" ><div class = green_square id = topsquare></div>",null,encoding,word_square,,,0,topsquare,none,true,,,AUTHOR,8,,,
html-keyboard-response,828,2350251,null,"<div style=""font-size:42px;"">AUTHOR</div>",null,,word,AUTHOR,,,,,,,,,,,,
html-keyboard-response,829,2351753,null,"",null,,word,AUTHOR,,,,,,,,,,,,
html-keyboard-response,830,2351958,null,"<div style=""font-size:42px;"">NOVEL</div><img id = ""stim"" ><div class = green_square id = bottomsquare></div>",null,encoding,word_square,,,0,bottomsquare,none,true,,,NOVEL,8,,,
html-keyboard-response,831,2352273,null,"<div style=""font-size:42px;"">NOVEL</div>",null,,word,NOVEL,,,,,,,,,,,,
html-keyboard-response,832,2353782,null,"",null,,word,NOVEL,,,,,,,,,,,,
html-keyboard-response,833,2353989,null,"<div style=""font-size:42px;"">MOTOR</div><img id = ""stim"" ><div class = red_square id = bottomsquare></div>",null,encoding,word_square,,,1,bottomsquare,32,true,,,MOTOR,8,,,
html-keyboard-response,834,2354303,281.70000000298023,"<div style=""font-size:42px;"">MOTOR</div>",32,,word,MOTOR,,,,,,,,,,,,
html-keyboard-response,835,2355814,null,"",null,,word,MOTOR,,,,,,,,,,,,
html-keyboard-response,836,2356016,null,"<div style=""font-size:42px;"">DOORBELL</div><img id = ""stim"" ><div class = green_square id = topsquare></div>",null,encoding,word_square,,,0,topsquare,none,true,,,DOORBELL,8,,,
html-keyboard-response,837,2356330,null,"<div style=""font-size:42px;"">DOORBELL</div>",null,,word,DOORBELL,,,,,,,,,,,,
html-keyboard-response,838,2357831,null,"",null,,word,DOORBELL,,,,,,,,,,,,
html-keyboard-response,839,2358036,null,"<div style=""font-size:42px;"">SCHOOL</div><img id = ""stim"" ><div class = red_square id = topsquare></div>",null,encoding,word_square,,,1,topsquare,32,true,,,SCHOOL,8,,,
html-keyboard-response,840,2358350,null,"<div style=""font-size:42px;"">SCHOOL</div>",null,,word,SCHOOL,,,,,,,,,,,,
html-keyboard-response,841,2359865,80.09999999403954,"",32,,word,SCHOOL,,,,,,,,,,,,
html-keyboard-response,842,2360068,null,"<div style=""font-size:42px;"">AGENT</div><img id = ""stim"" ><div class = green_square id = bottomsquare></div>",null,encoding,word_square,,,0,bottomsquare,none,true,,,AGENT,8,,,
html-keyboard-response,843,2360378,null,"<div style=""font-size:42px;"">AGENT</div>",null,,word,AGENT,,,,,,,,,,,,
html-keyboard-response,844,2361892,null,"",null,,word,AGENT,,,,,,,,,,,,
html-keyboard-response,845,2362095,null,"<div style=""font-size:42px;"">CLOTHES</div><img id = ""stim"" ><div class = green_square id = topsquare></div>",null,encoding,word_square,,,0,topsquare,none,true,,,CLOTHES,8,,,
html-keyboard-response,846,2362407,null,"<div style=""font-size:42px;"">CLOTHES</div>",null,,word,CLOTHES,,,,,,,,,,,,
html-keyboard-response,847,2363921,null,"",null,,word,CLOTHES,,,,,,,,,,,,
html-keyboard-response,848,2364124,null,"<div style=""font-size:42px;"">SPOUSE</div><img id = ""stim"" ><div class = red_square id = bottomsquare></div>",null,encoding,word_square,,,1,bottomsquare,32,true,,,SPOUSE,8,,,
html-keyboard-response,849,2364435,250.90000000596046,"<div style=""font-size:42px;"">SPOUSE</div>",32,,word,SPOUSE,,,,,,,,,,,,
html-keyboard-response,850,2365951,null,"",null,,word,SPOUSE,,,,,,,,,,,,
html-keyboard-response,851,2366156,null,"<div style=""font-size:42px;"">HELMET</div><img id = ""stim"" ><div class = green_square id = bottomsquare></div>",null,encoding,word_square,,,0,bottomsquare,none,true,,,HELMET,8,,,
html-keyboard-response,852,2366469,null,"<div style=""font-size:42px;"">HELMET</div>",null,,word,HELMET,,,,,,,,,,,,
html-keyboard-response,853,2367986,null,"",null,,word,HELMET,,,,,,,,,,,,
html-keyboard-response,854,2368189,null,"<div style=""font-size:42px;"">BARREL</div><img id = ""stim"" ><div class = green_square id = topsquare></div>",null,encoding,word_square,,,0,topsquare,none,true,,,BARREL,8,,,
html-keyboard-response,855,2368501,null,"<div style=""font-size:42px;"">BARREL</div>",null,,word,BARREL,,,,,,,,,,,,
html-keyboard-response,856,2370002,null,"",null,,word,BARREL,,,,,,,,,,,,
call-function,857,2370003,,"",,,,,,,,,,,,,,,,
html-keyboard-response,858,2370104,null,"",null,,,,,,,,,,,,,,,
math-period,859,2373415,6389.4000000059605,"",,,,,,,,,,,3,,,,,
html-keyboard-response,860,2373517,null,"",null,,,,,,,,,,,,,,,
math-period,861,2375399,3554.4000000059605,"",,,,,,,,,,,3,,,,,
html-keyboard-response,862,2375513,null,"",null,,,,,,,,,,,,,,,
math-period,863,2376488,1770.9999999850988,"",,,,,,,,,,,3,,,,,
html-keyboard-response,864,2376599,null,"",null,,,,,,,,,,,,,,,
math-period,865,2377951,2518.5999999791384,"",,,,,,,,,,,4,,,,,
html-keyboard-response,866,2378067,null,"",null,,,,,,,,,,,,,,,
math-period,867,2379271,2223.199999988079,"",,,,,,,,,,,3,,,,,
html-keyboard-response,868,2379377,null,"",null,,,,,,,,,,,,,,,
math-period,869,2381136,3348.300000011921,"",,,,,,,,,,,1,,,,,
html-keyboard-response,870,2381252,null,"",null,,,,,,,,,,,,,,,
math-period,871,2384143,5644.9000000059605,"",,,,,,,,,,,1,,,,,
html-keyboard-response,872,2384247,null,"",null,,,,,,,,,,,,,,,
math-period,873,2385975,3198.4000000059605,"",,,,,,,,,,,4,,,,,
html-keyboard-response,874,2386079,null,"",null,,,,,,,,,,,,,,,
math-period,875,2388487,4542.5,"",,,,,,,,,,,2,,,,,
html-keyboard-response,876,2388591,null,"",null,,,,,,,,,,,,,,,
math-period,877,2390543,3654.699999988079,"",,,,,,,,,,,6,,,,,
html-keyboard-response,878,2390649,null,"",null,,,,,,,,,,,,,,,
math-period,879,2392463,3506.800000011921,"",,,,,,,,,,,3,,,,,
html-keyboard-response,880,2392567,null,"",null,,,,,,,,,,,,,,,
math-period,881,2394011,null,"",,,,,,,,,,,,,,,,
html-keyboard-response,882,2395016,null,"Recall Period!",null,,,,,,,,,,,,,,,
call-function,883,2395017,,"",,,,,,,,,,,,,,,,
html-keyboard-response,884,2395118,null,"",null,,,,,,,,,,,,,,,
