trial_type,trial_index,time_elapsed,rt,stimulus,key_press,exp_phase,test_part,word,task,targ_cond,sq_pos,correctKeyCode,correct,value,response,Word,List,RecResp,serial_pos,colorChosen
pavlovia,0,9164,,"",,,,,,,,,,,,,,,,
external-html,1,31810,22222,"",,,,,,,,,,,,,,,,
html-keyboard-response,2,33602,1775,"Welcome to the experiment. Press any key to begin.",32,,,,,,,,,,,,,,,
html-keyboard-response,3,39331,5723,"<p>You will see a list of words and colored squares in the following task.<p><p>Press the spacebar whenever you see a red square.<p><p>Do not press a key if the square is green.<p><p>Press the spacebar to continue.</p>",32,,,,,,,,,,,,,,,
html-keyboard-response,4,47721,7874,"<p>Please try to remember as many of the words as you can, and try to think about the meaning of each word as it appears.<p><p>After the detection and encoding task you will be asked to solve some math problems for 24 seconds.<p> Please solve as many problems as you can in the time given. <p><p><p>Press the spacebar to continue.</p>",32,,,,,,,,,,,,,,,
html-keyboard-response,5,56646,8406,"After solving the math problems, you will be asked to type in as many words <p>from the previous list as you can remember for 75 seconds.<p> If you finish recalling before the 75 seconds are up,<p> just sit tight and try to think of any more words you could have missed. <p><p><p>Press the spacebar to continue.</p>",32,,,,,,,,,,,,,,,
html-keyboard-response,6,62573,5404,"There will be 16 lists of words and recall, followed  by<p><p> a recognition phase. The experiment is expected to take up to 90 minutes.<p>We will begin with a brief practice session.<p>Press the spacebar to begin the practice.</p>",32,,,,,,,,,,,,,,,
html-keyboard-response,7,65099,null,"<div style=""font-size:60px;"">+</div>",null,,,,,,,,,,,,,,,
html-keyboard-response,8,65310,null,"<div style=""font-size:42px;"">HAPPY</div><img id = ""stim"" ><div class = green_square id = ""bottomsquare"" ></div>",null,practice,word_square,HAPPY,prac_response,0,Bottom,none,true,,,,,,,
html-keyboard-response,9,65649,null,"<div style=""font-size:42px;"">HAPPY</div>",null,,word,HAPPY,,,,,,,,,,,,
html-keyboard-response,10,67170,null,"",null,,word,HAPPY,,,,,,,,,,,,
html-keyboard-response,11,67401,null,"<div style=""font-size:42px;"">COLD</div><img id = ""stim"" ><div class = red_square id = ""bottomsquare"" ></div>",null,practice,word_square,COLD,prac_response,1,Bottom,32,true,,,,,,,
html-keyboard-response,12,67714,128,"<div style=""font-size:42px;"">COLD</div>",32,,word,COLD,,,,,,,,,,,,
html-keyboard-response,13,69237,null,"",null,,word,COLD,,,,,,,,,,,,
html-keyboard-response,14,69447,null,"<div style=""font-size:42px;"">HEAVY</div><img id = ""stim"" ><div class = red_square id = ""topsquare"" ></div>",null,practice,word_square,HEAVY,prac_response,1,Top,32,true,,,,,,,
html-keyboard-response,15,69753,null,"<div style=""font-size:42px;"">HEAVY</div>",null,,word,HEAVY,,,,,,,,,,,,
html-keyboard-response,16,71267,31,"",32,,word,HEAVY,,,,,,,,,,,,
html-keyboard-response,17,71479,null,"<div style=""font-size:42px;"">FUNNY</div><img id = ""stim"" ><div class = green_square id = ""topsquare"" ></div>",null,practice,word_square,FUNNY,prac_response,0,Top,none,false,,,,,,,
html-keyboard-response,18,71797,111,"<div style=""font-size:42px;"">FUNNY</div>",32,,word,FUNNY,,,,,,,,,,,,
html-keyboard-response,19,73306,null,"",null,,word,FUNNY,,,,,,,,,,,,
html-keyboard-response,20,73517,null,"<div style=""font-size:42px;"">SCARY</div><img id = ""stim"" ><div class = red_square id = ""bottomsquare"" ></div>",null,practice,word_square,SCARY,prac_response,1,Bottom,32,true,,,,,,,
html-keyboard-response,21,73835,89,"<div style=""font-size:42px;"">SCARY</div>",32,,word,SCARY,,,,,,,,,,,,
html-keyboard-response,22,75357,null,"",null,,word,SCARY,,,,,,,,,,,,
html-keyboard-response,23,75573,null,"<div style=""font-size:42px;"">PEACEFUL</div><img id = ""stim"" ><div class = red_square id = ""topsquare"" ></div>",null,practice,word_square,PEACEFUL,prac_response,1,Top,32,true,,,,,,,
html-keyboard-response,24,75878,152,"<div style=""font-size:42px;"">PEACEFUL</div>",32,,word,PEACEFUL,,,,,,,,,,,,
html-keyboard-response,25,77390,null,"",null,,word,PEACEFUL,,,,,,,,,,,,
html-keyboard-response,26,77608,null,"<div style=""font-size:42px;"">LITTLE</div><img id = ""stim"" ><div class = green_square id = ""bottomsquare"" ></div>",null,practice,word_square,LITTLE,prac_response,0,Bottom,none,false,,,,,,,
html-keyboard-response,27,77925,228,"<div style=""font-size:42px;"">LITTLE</div>",32,,word,LITTLE,,,,,,,,,,,,
html-keyboard-response,28,79433,null,"",null,,word,LITTLE,,,,,,,,,,,,
html-keyboard-response,29,79649,null,"<div style=""font-size:42px;"">TIRED</div><img id = ""stim"" ><div class = green_square id = ""topsquare"" ></div>",null,practice,word_square,TIRED,prac_response,0,Top,none,true,,,,,,,
html-keyboard-response,30,79967,null,"<div style=""font-size:42px;"">TIRED</div>",null,,word,TIRED,,,,,,,,,,,,
html-keyboard-response,31,81475,null,"",null,,word,TIRED,,,,,,,,,,,,
html-keyboard-response,32,81685,null,"<div style=""font-size:42px;"">ENTERTAINING</div><img id = ""stim"" ><div class = green_square id = ""bottomsquare"" ></div>",null,practice,word_square,ENTERTAINING,prac_response,0,Bottom,none,true,,,,,,,
html-keyboard-response,33,82002,null,"<div style=""font-size:42px;"">ENTERTAINING</div>",null,,word,ENTERTAINING,,,,,,,,,,,,
html-keyboard-response,34,83510,null,"",null,,word,ENTERTAINING,,,,,,,,,,,,
html-keyboard-response,35,83727,null,"<div style=""font-size:42px;"">GRATEFUL</div><img id = ""stim"" ><div class = red_square id = ""bottomsquare"" ></div>",null,practice,word_square,GRATEFUL,prac_response,1,Bottom,32,true,,,,,,,
html-keyboard-response,36,84035,91,"<div style=""font-size:42px;"">GRATEFUL</div>",32,,word,GRATEFUL,,,,,,,,,,,,
html-keyboard-response,37,85549,null,"",null,,word,GRATEFUL,,,,,,,,,,,,
html-keyboard-response,38,85770,null,"<div style=""font-size:42px;"">LOUD</div><img id = ""stim"" ><div class = green_square id = ""topsquare"" ></div>",null,practice,word_square,LOUD,prac_response,0,Top,none,true,,,,,,,
html-keyboard-response,39,86084,null,"<div style=""font-size:42px;"">LOUD</div>",null,,word,LOUD,,,,,,,,,,,,
html-keyboard-response,40,87595,null,"",null,,word,LOUD,,,,,,,,,,,,
html-keyboard-response,41,87803,null,"<div style=""font-size:42px;"">SMART</div><img id = ""stim"" ><div class = red_square id = ""topsquare"" ></div>",null,practice,word_square,SMART,prac_response,1,Top,32,true,,,,,,,
html-keyboard-response,42,88125,112,"<div style=""font-size:42px;"">SMART</div>",32,,word,SMART,,,,,,,,,,,,
html-keyboard-response,43,89647,null,"",null,,word,SMART,,,,,,,,,,,,
html-keyboard-response,44,89858,null,"<div style=""font-size:42px;"">SMOOTH</div><img id = ""stim"" ><div class = red_square id = ""bottomsquare"" ></div>",null,practice,word_square,SMOOTH,prac_response,1,Bottom,32,true,,,,,,,
html-keyboard-response,45,90170,null,"<div style=""font-size:42px;"">SMOOTH</div>",null,,word,SMOOTH,,,,,,,,,,,,
html-keyboard-response,46,91688,3,"",32,,word,SMOOTH,,,,,,,,,,,,
html-keyboard-response,47,91905,null,"<div style=""font-size:42px;"">DISHONEST</div><img id = ""stim"" ><div class = green_square id = ""bottomsquare"" ></div>",null,practice,word_square,DISHONEST,prac_response,0,Bottom,none,true,,,,,,,
html-keyboard-response,48,92223,null,"<div style=""font-size:42px;"">DISHONEST</div>",null,,word,DISHONEST,,,,,,,,,,,,
html-keyboard-response,49,93738,null,"",null,,word,DISHONEST,,,,,,,,,,,,
html-keyboard-response,50,93951,null,"<div style=""font-size:42px;"">WEALTHY</div><img id = ""stim"" ><div class = red_square id = ""topsquare"" ></div>",null,practice,word_square,WEALTHY,prac_response,1,Top,32,true,,,,,,,
html-keyboard-response,51,94268,123,"<div style=""font-size:42px;"">WEALTHY</div>",32,,word,WEALTHY,,,,,,,,,,,,
html-keyboard-response,52,95776,null,"",null,,word,WEALTHY,,,,,,,,,,,,
html-keyboard-response,53,95993,null,"<div style=""font-size:42px;"">BEAUTIFUL</div><img id = ""stim"" ><div class = green_square id = ""topsquare"" ></div>",null,practice,word_square,BEAUTIFUL,prac_response,0,Top,none,true,,,,,,,
html-keyboard-response,54,96312,null,"<div style=""font-size:42px;"">BEAUTIFUL</div>",null,,word,BEAUTIFUL,,,,,,,,,,,,
html-keyboard-response,55,97821,null,"",null,,word,BEAUTIFUL,,,,,,,,,,,,
html-keyboard-response,56,104546,6717,"<p> Good job! You responded correctly to 88% of the trials. </p>
                  <p>Be sure to only press the spacebar if you see a red square, and please keep your accuracy above 80%.</p>
                  <p>We're going to try once more to make sure you understand the task. press any key to continue. </p>",32,,,,,,,,,,,,,,,
html-keyboard-response,57,108159,3610,"<p>You will see a list of words and colored squares in the following task.<p><p>Press the spacebar whenever you see a red square.<p><p>Do not press a key if the square is green<p><p>Press the spacebar to continue.</p>",32,,,,,,,,,,,,,,,
html-keyboard-response,58,110677,null,"<div style=""font-size:60px;"">+</div>",null,,,,,,,,,,,,,,,
html-keyboard-response,59,110895,null,"<div style=""font-size:42px;"">HAPPY</div><img id = ""stim"" ><div class = green_square id = ""bottomsquare"" ></div>",null,practice2,word_square,HAPPY,prac_response,0,Bottom,none,true,,,,,,,
html-keyboard-response,60,111203,null,"<div style=""font-size:42px;"">HAPPY</div>",null,,word,HAPPY,,,,,,,,,,,,
html-keyboard-response,61,112715,null,"",null,,word,HAPPY,,,,,,,,,,,,
html-keyboard-response,62,112935,null,"<div style=""font-size:42px;"">COLD</div><img id = ""stim"" ><div class = red_square id = ""bottomsquare"" ></div>",null,practice2,word_square,,prac_response,1,Bottom,32,true,,,,,,,
html-keyboard-response,63,113252,84,"<div style=""font-size:42px;"">COLD</div>",32,,word,COLD,,,,,,,,,,,,
html-keyboard-response,64,114763,null,"",null,,word,COLD,,,,,,,,,,,,
html-keyboard-response,65,114981,null,"<div style=""font-size:42px;"">HEAVY</div><img id = ""stim"" ><div class = red_square id = ""topsquare"" ></div>",null,practice2,word_square,,prac_response,1,Top,32,true,,,,,,,
html-keyboard-response,66,115293,170,"<div style=""font-size:42px;"">HEAVY</div>",32,,word,HEAVY,,,,,,,,,,,,
html-keyboard-response,67,116805,null,"",null,,word,HEAVY,,,,,,,,,,,,
html-keyboard-response,68,117025,null,"<div style=""font-size:42px;"">FUNNY</div><img id = ""stim"" ><div class = green_square id = ""topsquare"" ></div>",null,practice2,word_square,,prac_response,0,Top,none,true,,,,,,,
html-keyboard-response,69,117341,null,"<div style=""font-size:42px;"">FUNNY</div>",null,,word,FUNNY,,,,,,,,,,,,
html-keyboard-response,70,118856,null,"",null,,word,FUNNY,,,,,,,,,,,,
html-keyboard-response,71,119061,null,"<div style=""font-size:42px;"">SCARY</div><img id = ""stim"" ><div class = red_square id = ""bottomsquare"" ></div>",null,practice2,word_square,,prac_response,1,Bottom,32,true,,,,,,,
html-keyboard-response,72,119374,114,"<div style=""font-size:42px;"">SCARY</div>",32,,word,SCARY,,,,,,,,,,,,
html-keyboard-response,73,120894,null,"",null,,word,SCARY,,,,,,,,,,,,
html-keyboard-response,74,121113,null,"<div style=""font-size:42px;"">PEACEFUL</div><img id = ""stim"" ><div class = red_square id = ""topsquare"" ></div>",null,practice2,word_square,,prac_response,1,Top,32,true,,,,,,,
html-keyboard-response,75,121429,156,"<div style=""font-size:42px;"">PEACEFUL</div>",32,,word,PEACEFUL,,,,,,,,,,,,
html-keyboard-response,76,122936,null,"",null,,word,PEACEFUL,,,,,,,,,,,,
html-keyboard-response,77,123154,null,"<div style=""font-size:42px;"">LITTLE</div><img id = ""stim"" ><div class = green_square id = ""bottomsquare"" ></div>",null,practice2,word_square,LITTLE,prac_response,0,Bottom,none,true,,,,,,,
html-keyboard-response,78,123473,null,"<div style=""font-size:42px;"">LITTLE</div>",null,,word,LITTLE,,,,,,,,,,,,
html-keyboard-response,79,124983,null,"",null,,word,LITTLE,,,,,,,,,,,,
html-keyboard-response,80,125196,null,"<div style=""font-size:42px;"">TIRED</div><img id = ""stim"" ><div class = green_square id = ""topsquare"" ></div>",null,practice2,word_square,,prac_response,0,Top,none,true,,,,,,,
html-keyboard-response,81,125507,null,"<div style=""font-size:42px;"">TIRED</div>",null,,word,TIRED,,,,,,,,,,,,
html-keyboard-response,82,127016,null,"",null,,word,TIRED,,,,,,,,,,,,
html-keyboard-response,83,127223,null,"<div style=""font-size:42px;"">ENTERTAINING</div><img id = ""stim"" ><div class = green_square id = ""bottomsquare"" ></div>",null,practice2,word_square,ENTERTAINING,prac_response,0,Bottom,none,true,,,,,,,
html-keyboard-response,84,127533,null,"<div style=""font-size:42px;"">ENTERTAINING</div>",null,,word,ENTERTAINING,,,,,,,,,,,,
html-keyboard-response,85,129047,null,"",null,,word,ENTERTAINING,,,,,,,,,,,,
html-keyboard-response,86,129262,null,"<div style=""font-size:42px;"">GRATEFUL</div><img id = ""stim"" ><div class = red_square id = ""bottomsquare"" ></div>",null,practice2,word_square,,prac_response,1,Bottom,32,true,,,,,,,
html-keyboard-response,87,129578,92,"<div style=""font-size:42px;"">GRATEFUL</div>",32,,word,GRATEFUL,,,,,,,,,,,,
html-keyboard-response,88,131100,null,"",null,,word,GRATEFUL,,,,,,,,,,,,
html-keyboard-response,89,131311,null,"<div style=""font-size:42px;"">LOUD</div><img id = ""stim"" ><div class = green_square id = ""topsquare"" ></div>",null,practice2,word_square,,prac_response,0,Top,none,true,,,,,,,
html-keyboard-response,90,131623,null,"<div style=""font-size:42px;"">LOUD</div>",null,,word,LOUD,,,,,,,,,,,,
html-keyboard-response,91,133147,null,"",null,,word,LOUD,,,,,,,,,,,,
html-keyboard-response,92,133360,null,"<div style=""font-size:42px;"">SMART</div><img id = ""stim"" ><div class = red_square id = ""topsquare"" ></div>",null,practice2,word_square,,prac_response,1,Top,32,true,,,,,,,
html-keyboard-response,93,133679,156,"<div style=""font-size:42px;"">SMART</div>",32,,word,SMART,,,,,,,,,,,,
html-keyboard-response,94,135186,null,"",null,,word,SMART,,,,,,,,,,,,
html-keyboard-response,95,135404,null,"<div style=""font-size:42px;"">SMOOTH</div><img id = ""stim"" ><div class = red_square id = ""bottomsquare"" ></div>",null,practice2,word_square,,prac_response,1,Bottom,32,true,,,,,,,
html-keyboard-response,96,135714,158,"<div style=""font-size:42px;"">SMOOTH</div>",32,,word,SMOOTH,,,,,,,,,,,,
html-keyboard-response,97,137225,null,"",null,,word,SMOOTH,,,,,,,,,,,,
html-keyboard-response,98,137441,null,"<div style=""font-size:42px;"">DISHONEST</div><img id = ""stim"" ><div class = green_square id = ""bottomsquare"" ></div>",null,practice2,word_square,DISHONEST,prac_response,0,Bottom,none,true,,,,,,,
html-keyboard-response,99,137755,null,"<div style=""font-size:42px;"">DISHONEST</div>",null,,word,DISHONEST,,,,,,,,,,,,
html-keyboard-response,100,139273,null,"",null,,word,DISHONEST,,,,,,,,,,,,
html-keyboard-response,101,139496,null,"<div style=""font-size:42px;"">WEALTHY</div><img id = ""stim"" ><div class = red_square id = ""topsquare"" ></div>",null,practice2,word_square,,prac_response,1,Top,32,true,,,,,,,
html-keyboard-response,102,139810,107,"<div style=""font-size:42px;"">WEALTHY</div>",32,,word,WEALTHY,,,,,,,,,,,,
html-keyboard-response,103,141327,null,"",null,,word,WEALTHY,,,,,,,,,,,,
html-keyboard-response,104,141543,null,"<div style=""font-size:42px;"">BEAUTIFUL</div><img id = ""stim"" ><div class = green_square id = ""topsquare"" ></div>",null,practice2,word_square,,prac_response,0,Top,none,false,,,,,,,
html-keyboard-response,105,141859,null,"<div style=""font-size:42px;"">BEAUTIFUL</div>",null,,word,BEAUTIFUL,,,,,,,,,,,,
html-keyboard-response,106,143367,null,"",null,,word,BEAUTIFUL,,,,,,,,,,,,
html-keyboard-response,107,146429,3053,"<p> Good job! You responded correctly to 100% of the trials. </p>
                    <p>Be sure to only press the spacebar if you see a red square, and please keep your accuracy above 80%.</p>
                    <p>Press any key to begin the math and recall sections. Thank you! </p>",32,,,,,,,,,,,,,,,
call-function,108,146436,,"",,,,,,,,,,,,,,,,
html-keyboard-response,109,146554,null,"",null,,,,,,,,,,,,,,,
math-period,110,151416,7972,"",,,,,,,,,,,5,,,,,
html-keyboard-response,111,151528,null,"",null,,,,,,,,,,,,,,,
math-period,112,154556,5454,"",,,,,,,,,,,3,,,,,
html-keyboard-response,113,154678,null,"",null,,,,,,,,,,,,,,,
math-period,114,156604,3326,"",,,,,,,,,,,3,,,,,
html-keyboard-response,115,156722,null,"",null,,,,,,,,,,,,,,,
math-period,116,160548,7141,"",,,,,,,,,,,1,,,,,
html-keyboard-response,117,160657,null,"",null,,,,,,,,,,,,,,,
math-period,118,163629,5456,"",,,,,,,,,,,5,,,,,
html-keyboard-response,119,163738,null,"",null,,,,,,,,,,,,,,,
math-period,120,167260,6659,"",,,,,,,,,,,0,,,,,
html-keyboard-response,121,167382,null,"",null,,,,,,,,,,,,,,,
math-period,122,169376,3438,"",,,,,,,,,,,2,,,,,
html-keyboard-response,123,169487,null,"",null,,,,,,,,,,,,,,,
math-period,124,170447,null,"",,,,,,,,,,,,,,,,
html-keyboard-response,125,171455,null,"Recall Period!",null,,,,,,,,,,,,,,,
call-function,126,171461,,"",,,,,,,,,,,,,,,,
html-keyboard-response,127,171577,null,"",null,,,,,,,,,,,,,,,
recall-period,128,176431,14604,"",,,,,,,,,,,cold,,,,,
html-keyboard-response,129,176535,null,"",null,,,,,,,,,,,,,,,
recall-period,130,181770,41622,"",,,,,,,,,,,beautiful,,,,,
html-keyboard-response,131,181880,null,"",null,,,,,,,,,,,,,,,
recall-period,132,184071,5428,"",,,,,,,,,,,scary,,,,,
html-keyboard-response,133,184179,null,"",null,,,,,,,,,,,,,,,
recall-period,134,186739,15189,"",,,,,,,,,,,dishonest,,,,,
html-keyboard-response,135,186842,null,"",null,,,,,,,,,,,,,,,
recall-period,136,193975,33198,"",,,,,,,,,,,heat,,,,,
html-keyboard-response,137,194095,null,"",null,,,,,,,,,,,,,,,
recall-period,138,197636,17873,"",,,,,,,,,,,happy,,,,,
html-keyboard-response,139,197749,null,"",null,,,,,,,,,,,,,,,
recall-period,140,205296,35182,"",,,,,,,,,,,hurt,,,,,
html-keyboard-response,141,205416,null,"",null,,,,,,,,,,,,,,,
recall-period,142,213361,50848,"",,,,,,,,,,,secret,,,,,
html-keyboard-response,143,213479,null,"",null,,,,,,,,,,,,,,,
recall-period,144,217844,25875,"",,,,,,,,,,,shovel,,,,,
html-keyboard-response,145,217962,null,"",null,,,,,,,,,,,,,,,
recall-period,146,220356,10723,"",,,,,,,,,,,share,,,,,
html-keyboard-response,147,220466,null,"",null,,,,,,,,,,,,,,,
recall-period,148,230945,59036,"",,,,,,,,,,,worry,,,,,
html-keyboard-response,149,231049,null,"",null,,,,,,,,,,,,,,,
recall-period,150,245060,93482,"",,,,,,,,,,,honest,,,,,
html-keyboard-response,151,245176,null,"",null,,,,,,,,,,,,,,,
recall-period,152,246475,null,"",,,,,,,,,,,,,,,,
html-keyboard-response,153,246986,null,"Time's Up!",null,,,,,,,,,,,,,,,
html-keyboard-response,154,250448,3455,"<p>We will now begin the experiment!<p><p>Please try to remember all words from each list.<p><p>Press the spacebar whenever you see a red square.<p><p><p><p>Press the spacebar to begin.</p>",32,,,,,,,,,,,,,,,
html-keyboard-response,155,252397,1435,"<div style=""font-size:48px;"">Press any key to begin list 1 of 16 </div>",32,,,,,,,,,,,,,,,
html-keyboard-response,156,254917,null,"<div style=""font-size:60px;"">+</div>",null,,,,,,,,,,,,,,,
html-keyboard-response,157,255129,null,"<div style=""font-size:42px;"">FRIAR</div><img id = ""stim"" ><div class = red_square id = topsquare></div>",null,encoding,word_square,,,1,topsquare,32,true,,,FRIAR,0,,,
html-keyboard-response,158,255433,162,"<div style=""font-size:42px;"">FRIAR</div>",32,,word,FRIAR,,,,,,,,,,,,
html-keyboard-response,159,256944,null,"",null,,word,FRIAR,,,,,,,,,,,,
html-keyboard-response,160,257180,null,"<div style=""font-size:42px;"">CHAPEL</div><img id = ""stim"" ><div class = green_square id = bottomsquare></div>",null,encoding,word_square,,,0,bottomsquare,none,true,,,CHAPEL,0,,,
html-keyboard-response,161,257497,null,"<div style=""font-size:42px;"">CHAPEL</div>",null,,word,CHAPEL,,,,,,,,,,,,
html-keyboard-response,162,259009,null,"",null,,word,CHAPEL,,,,,,,,,,,,
html-keyboard-response,163,259233,null,"<div style=""font-size:42px;"">BOX</div><img id = ""stim"" ><div class = green_square id = topsquare></div>",null,encoding,word_square,,,0,topsquare,none,true,,,BOX,0,,,
html-keyboard-response,164,259545,null,"<div style=""font-size:42px;"">BOX</div>",null,,word,BOX,,,,,,,,,,,,
html-keyboard-response,165,261052,null,"",null,,word,BOX,,,,,,,,,,,,
html-keyboard-response,166,261269,null,"<div style=""font-size:42px;"">SOCKET</div><img id = ""stim"" ><div class = red_square id = bottomsquare></div>",null,encoding,word_square,,,1,bottomsquare,32,true,,,SOCKET,0,,,
html-keyboard-response,167,261579,96,"<div style=""font-size:42px;"">SOCKET</div>",32,,word,SOCKET,,,,,,,,,,,,
html-keyboard-response,168,263099,null,"",null,,word,SOCKET,,,,,,,,,,,,
html-keyboard-response,169,263310,null,"<div style=""font-size:42px;"">SCOTCH</div><img id = ""stim"" ><div class = green_square id = bottomsquare></div>",null,encoding,word_square,,,0,bottomsquare,none,true,,,SCOTCH,0,,,
html-keyboard-response,170,263621,null,"<div style=""font-size:42px;"">SCOTCH</div>",null,,word,SCOTCH,,,,,,,,,,,,
html-keyboard-response,171,265138,null,"",null,,word,SCOTCH,,,,,,,,,,,,
html-keyboard-response,172,265349,null,"<div style=""font-size:42px;"">RECORD</div><img id = ""stim"" ><div class = red_square id = topsquare></div>",null,encoding,word_square,,,1,topsquare,32,true,,,RECORD,0,,,
html-keyboard-response,173,265656,133,"<div style=""font-size:42px;"">RECORD</div>",32,,word,RECORD,,,,,,,,,,,,
html-keyboard-response,174,267174,null,"",null,,word,RECORD,,,,,,,,,,,,
html-keyboard-response,175,267387,null,"<div style=""font-size:42px;"">LIVER</div><img id = ""stim"" ><div class = red_square id = bottomsquare></div>",null,encoding,word_square,,,1,bottomsquare,32,true,,,LIVER,0,,,
html-keyboard-response,176,267700,186,"<div style=""font-size:42px;"">LIVER</div>",32,,word,LIVER,,,,,,,,,,,,
html-keyboard-response,177,269208,null,"",null,,word,LIVER,,,,,,,,,,,,
html-keyboard-response,178,269417,null,"<div style=""font-size:42px;"">COUCH</div><img id = ""stim"" ><div class = green_square id = topsquare></div>",null,encoding,word_square,,,0,topsquare,none,true,,,COUCH,0,,,
html-keyboard-response,179,269730,null,"<div style=""font-size:42px;"">COUCH</div>",null,,word,COUCH,,,,,,,,,,,,
html-keyboard-response,180,271248,null,"",null,,word,COUCH,,,,,,,,,,,,
html-keyboard-response,181,271470,null,"<div style=""font-size:42px;"">WIDOW</div><img id = ""stim"" ><div class = green_square id = bottomsquare></div>",null,encoding,word_square,,,0,bottomsquare,none,true,,,WIDOW,0,,,
html-keyboard-response,182,271790,null,"<div style=""font-size:42px;"">WIDOW</div>",null,,word,WIDOW,,,,,,,,,,,,
html-keyboard-response,183,273297,null,"",null,,word,WIDOW,,,,,,,,,,,,
html-keyboard-response,184,273509,null,"<div style=""font-size:42px;"">BISON</div><img id = ""stim"" ><div class = red_square id = topsquare></div>",null,encoding,word_square,,,1,topsquare,32,true,,,BISON,0,,,
html-keyboard-response,185,273818,116,"<div style=""font-size:42px;"">BISON</div>",32,,word,BISON,,,,,,,,,,,,
html-keyboard-response,186,275329,null,"",null,,word,BISON,,,,,,,,,,,,
html-keyboard-response,187,275544,null,"<div style=""font-size:42px;"">WASHER</div><img id = ""stim"" ><div class = red_square id = bottomsquare></div>",null,encoding,word_square,,,1,bottomsquare,32,true,,,WASHER,0,,,
html-keyboard-response,188,275862,167,"<div style=""font-size:42px;"">WASHER</div>",32,,word,WASHER,,,,,,,,,,,,
html-keyboard-response,189,277371,null,"",null,,word,WASHER,,,,,,,,,,,,
html-keyboard-response,190,277577,null,"<div style=""font-size:42px;"">GODDESS</div><img id = ""stim"" ><div class = green_square id = topsquare></div>",null,encoding,word_square,,,0,topsquare,none,true,,,GODDESS,0,,,
html-keyboard-response,191,277887,null,"<div style=""font-size:42px;"">GODDESS</div>",null,,word,GODDESS,,,,,,,,,,,,
html-keyboard-response,192,279406,null,"",null,,word,GODDESS,,,,,,,,,,,,
html-keyboard-response,193,279627,null,"<div style=""font-size:42px;"">COFFIN</div><img id = ""stim"" ><div class = green_square id = bottomsquare></div>",null,encoding,word_square,,,0,bottomsquare,none,true,,,COFFIN,0,,,
html-keyboard-response,194,279946,null,"<div style=""font-size:42px;"">COFFIN</div>",null,,word,COFFIN,,,,,,,,,,,,
html-keyboard-response,195,281465,null,"",null,,word,COFFIN,,,,,,,,,,,,
html-keyboard-response,196,281679,null,"<div style=""font-size:42px;"">OX</div><img id = ""stim"" ><div class = red_square id = topsquare></div>",null,encoding,word_square,,,1,topsquare,32,true,,,OX,0,,,
html-keyboard-response,197,281996,167,"<div style=""font-size:42px;"">OX</div>",32,,word,OX,,,,,,,,,,,,
html-keyboard-response,198,283509,null,"",null,,word,OX,,,,,,,,,,,,
html-keyboard-response,199,283729,null,"<div style=""font-size:42px;"">LEOPARD</div><img id = ""stim"" ><div class = green_square id = topsquare></div>",null,encoding,word_square,,,0,topsquare,none,true,,,LEOPARD,0,,,
html-keyboard-response,200,284044,null,"<div style=""font-size:42px;"">LEOPARD</div>",null,,word,LEOPARD,,,,,,,,,,,,
html-keyboard-response,201,285570,null,"",null,,word,LEOPARD,,,,,,,,,,,,
html-keyboard-response,202,285780,null,"<div style=""font-size:42px;"">DART</div><img id = ""stim"" ><div class = red_square id = bottomsquare></div>",null,encoding,word_square,,,1,bottomsquare,32,true,,,DART,0,,,
html-keyboard-response,203,286093,82,"<div style=""font-size:42px;"">DART</div>",32,,word,DART,,,,,,,,,,,,
html-keyboard-response,204,287600,null,"",null,,word,DART,,,,,,,,,,,,
call-function,205,287609,,"",,,,,,,,,,,,,,,,
html-keyboard-response,206,287727,null,"",null,,,,,,,,,,,,,,,
math-period,207,291256,6678,"",,,,,,,,,,,5,,,,,
html-keyboard-response,208,291374,null,"",null,,,,,,,,,,,,,,,
math-period,209,295604,7991,"",,,,,,,,,,,2,,,,,
html-keyboard-response,210,295717,null,"",null,,,,,,,,,,,,,,,
math-period,211,298305,4705,"",,,,,,,,,,,5,,,,,
html-keyboard-response,212,298419,null,"",null,,,,,,,,,,,,,,,
math-period,213,300926,4446,"",,,,,,,,,,,3,,,,,
html-keyboard-response,214,301038,null,"",null,,,,,,,,,,,,,,,
math-period,215,304612,6696,"",,,,,,,,,,,0,,,,,
html-keyboard-response,216,304721,null,"",null,,,,,,,,,,,,,,,
math-period,217,308663,12725,"",,,,,,,,,,,4,,,,,
html-keyboard-response,218,308775,null,"",null,,,,,,,,,,,,,,,
math-period,219,311523,5078,"",,,,,,,,,,,5,,,,,
html-keyboard-response,220,311629,null,"",null,,,,,,,,,,,,,,,
math-period,221,311645,null,"",,,,,,,,,,,,,,,,
html-keyboard-response,222,312663,null,"Recall Period!",null,,,,,,,,,,,,,,,
call-function,223,312669,,"",,,,,,,,,,,,,,,,
html-keyboard-response,224,312788,null,"",null,,,,,,,,,,,,,,,
recall-period,225,315620,13623,"",,,,,,,,,,,bison,,,,,
html-keyboard-response,226,315728,null,"",null,,,,,,,,,,,,,,,
recall-period,227,320802,53451,"",,,,,,,,,,,goddess,,,,,
html-keyboard-response,228,320921,null,"",null,,,,,,,,,,,,,,,
recall-period,229,323370,13135,"",,,,,,,,,,,buffalo,,,,,
html-keyboard-response,230,323486,null,"",null,,,,,,,,,,,,,,,
recall-period,231,327168,21508,"",,,,,,,,,,,chapel,,,,,
html-keyboard-response,232,327281,null,"",null,,,,,,,,,,,,,,,
recall-period,233,329199,7332,"",,,,,,,,,,,friar,,,,,
html-keyboard-response,234,329309,null,"",null,,,,,,,,,,,,,,,
recall-period,235,336147,42155,"",,,,,,,,,,,coffin,,,,,
html-keyboard-response,236,336265,null,"",null,,,,,,,,,,,,,,,
recall-period,237,341011,25576,"",,,,,,,,,,,shove,,,,,
html-keyboard-response,238,341129,null,"",null,,,,,,,,,,,,,,,
recall-period,239,347670,52140,"",,,,,,,,,,,leopard,,,,,
html-keyboard-response,240,347790,null,"",null,,,,,,,,,,,,,,,
recall-period,241,350879,17215,"",,,,,,,,,,,cheetah,,,,,
html-keyboard-response,242,350990,null,"",null,,,,,,,,,,,,,,,
recall-period,243,357009,28160,"",,,,,,,,,,,cold,,,,,
html-keyboard-response,244,357112,null,"",null,,,,,,,,,,,,,,,
recall-period,245,364225,32864,"",,,,,,,,,,,dart,,,,,
html-keyboard-response,246,364339,null,"",null,,,,,,,,,,,,,,,
recall-period,247,387674,null,"",,,,,,,,,,,,,,,,
html-keyboard-response,248,388184,null,"Time's Up!",null,,,,,,,,,,,,,,,
html-keyboard-response,249,390883,2691,"<p> Good job! You have responded correctly to 100% of the trials. </p>
                      <p>Be sure to only press the spacebar if you see a red square, and please keep your accuracy above 80%.</p>
                      <p> Press any key to continue the experiment. </p>",32,,,,,,,,,,,,,,,
html-keyboard-response,250,391793,904,"<div style=""font-size:48px;"">Press any key to begin list 2 of 16 </div>",32,,,,,,,,,,,,,,,
html-keyboard-response,251,394303,null,"<div style=""font-size:60px;"">+</div>",null,,,,,,,,,,,,,,,
html-keyboard-response,252,394515,null,"<div style=""font-size:42px;"">OUTDOORS</div><img id = ""stim"" ><div class = red_square id = bottomsquare></div>",null,encoding,word_square,,,1,bottomsquare,32,true,,,OUTDOORS,1,,,
html-keyboard-response,253,394829,179,"<div style=""font-size:42px;"">OUTDOORS</div>",32,,word,OUTDOORS,,,,,,,,,,,,
html-keyboard-response,254,396349,null,"",null,,word,OUTDOORS,,,,,,,,,,,,
html-keyboard-response,255,396568,null,"<div style=""font-size:42px;"">LOVER</div><img id = ""stim"" ><div class = green_square id = topsquare></div>",null,encoding,word_square,,,0,topsquare,none,true,,,LOVER,1,,,
html-keyboard-response,256,396879,null,"<div style=""font-size:42px;"">LOVER</div>",null,,word,LOVER,,,,,,,,,,,,
html-keyboard-response,257,398395,null,"",null,,word,LOVER,,,,,,,,,,,,
html-keyboard-response,258,398609,null,"<div style=""font-size:42px;"">GANGSTER</div><img id = ""stim"" ><div class = red_square id = topsquare></div>",null,encoding,word_square,,,1,topsquare,32,true,,,GANGSTER,1,,,
html-keyboard-response,259,398921,212,"<div style=""font-size:42px;"">GANGSTER</div>",32,,word,GANGSTER,,,,,,,,,,,,
html-keyboard-response,260,400437,null,"",null,,word,GANGSTER,,,,,,,,,,,,
html-keyboard-response,261,400649,null,"<div style=""font-size:42px;"">RIFLE</div><img id = ""stim"" ><div class = green_square id = bottomsquare></div>",null,encoding,word_square,,,0,bottomsquare,none,true,,,RIFLE,1,,,
html-keyboard-response,262,400962,null,"<div style=""font-size:42px;"">RIFLE</div>",null,,word,RIFLE,,,,,,,,,,,,
html-keyboard-response,263,402471,null,"",null,,word,RIFLE,,,,,,,,,,,,
html-keyboard-response,264,402675,null,"<div style=""font-size:42px;"">STABLE</div><img id = ""stim"" ><div class = green_square id = topsquare></div>",null,encoding,word_square,,,0,topsquare,none,true,,,STABLE,1,,,
html-keyboard-response,265,402991,114,"<div style=""font-size:42px;"">STABLE</div>",32,,word,STABLE,,,,,,,,,,,,
html-keyboard-response,266,404507,null,"",null,,word,STABLE,,,,,,,,,,,,
html-keyboard-response,267,404720,null,"<div style=""font-size:42px;"">GLOBE</div><img id = ""stim"" ><div class = red_square id = bottomsquare></div>",null,encoding,word_square,,,1,bottomsquare,32,true,,,GLOBE,1,,,
html-keyboard-response,268,405035,119,"<div style=""font-size:42px;"">GLOBE</div>",32,,word,GLOBE,,,,,,,,,,,,
html-keyboard-response,269,406540,null,"",null,,word,GLOBE,,,,,,,,,,,,
html-keyboard-response,270,406758,null,"<div style=""font-size:42px;"">SUITCASE</div><img id = ""stim"" ><div class = red_square id = topsquare></div>",null,encoding,word_square,,,1,topsquare,32,true,,,SUITCASE,1,,,
html-keyboard-response,271,407069,148,"<div style=""font-size:42px;"">SUITCASE</div>",32,,word,SUITCASE,,,,,,,,,,,,
html-keyboard-response,272,408581,null,"",null,,word,SUITCASE,,,,,,,,,,,,
html-keyboard-response,273,408796,null,"<div style=""font-size:42px;"">BOYFRIEND</div><img id = ""stim"" ><div class = green_square id = bottomsquare></div>",null,encoding,word_square,,,0,bottomsquare,none,true,,,BOYFRIEND,1,,,
html-keyboard-response,274,409114,null,"<div style=""font-size:42px;"">BOYFRIEND</div>",null,,word,BOYFRIEND,,,,,,,,,,,,
html-keyboard-response,275,410636,null,"",null,,word,BOYFRIEND,,,,,,,,,,,,
html-keyboard-response,276,410847,null,"<div style=""font-size:42px;"">CONCRETE</div><img id = ""stim"" ><div class = green_square id = topsquare></div>",null,encoding,word_square,,,0,topsquare,none,true,,,CONCRETE,1,,,
html-keyboard-response,277,411165,null,"<div style=""font-size:42px;"">CONCRETE</div>",null,,word,CONCRETE,,,,,,,,,,,,
html-keyboard-response,278,412684,null,"",null,,word,CONCRETE,,,,,,,,,,,,
html-keyboard-response,279,412904,null,"<div style=""font-size:42px;"">SOLDIER</div><img id = ""stim"" ><div class = red_square id = bottomsquare></div>",null,encoding,word_square,,,1,bottomsquare,32,true,,,SOLDIER,1,,,
html-keyboard-response,280,413220,155,"<div style=""font-size:42px;"">SOLDIER</div>",32,,word,SOLDIER,,,,,,,,,,,,
html-keyboard-response,281,414727,null,"",null,,word,SOLDIER,,,,,,,,,,,,
html-keyboard-response,282,414945,null,"<div style=""font-size:42px;"">NEPTUNE</div><img id = ""stim"" ><div class = red_square id = topsquare></div>",null,encoding,word_square,,,1,topsquare,32,true,,,NEPTUNE,1,,,
html-keyboard-response,283,415265,null,"<div style=""font-size:42px;"">NEPTUNE</div>",null,,word,NEPTUNE,,,,,,,,,,,,
html-keyboard-response,284,416786,28,"",32,,word,NEPTUNE,,,,,,,,,,,,
html-keyboard-response,285,417002,null,"<div style=""font-size:42px;"">SHORTCAKE</div><img id = ""stim"" ><div class = green_square id = bottomsquare></div>",null,encoding,word_square,,,0,bottomsquare,none,true,,,SHORTCAKE,1,,,
html-keyboard-response,286,417309,null,"<div style=""font-size:42px;"">SHORTCAKE</div>",null,,word,SHORTCAKE,,,,,,,,,,,,
html-keyboard-response,287,418822,null,"",null,,word,SHORTCAKE,,,,,,,,,,,,
html-keyboard-response,288,419046,null,"<div style=""font-size:42px;"">MARINE</div><img id = ""stim"" ><div class = red_square id = bottomsquare></div>",null,encoding,word_square,,,1,bottomsquare,32,true,,,MARINE,1,,,
html-keyboard-response,289,419355,140,"<div style=""font-size:42px;"">MARINE</div>",32,,word,MARINE,,,,,,,,,,,,
html-keyboard-response,290,420866,null,"",null,,word,MARINE,,,,,,,,,,,,
html-keyboard-response,291,421076,null,"<div style=""font-size:42px;"">MOTHER</div><img id = ""stim"" ><div class = green_square id = topsquare></div>",null,encoding,word_square,,,0,topsquare,none,true,,,MOTHER,1,,,
html-keyboard-response,292,421394,null,"<div style=""font-size:42px;"">MOTHER</div>",null,,word,MOTHER,,,,,,,,,,,,
html-keyboard-response,293,422906,null,"",null,,word,MOTHER,,,,,,,,,,,,
html-keyboard-response,294,423126,null,"<div style=""font-size:42px;"">SILK</div><img id = ""stim"" ><div class = green_square id = bottomsquare></div>",null,encoding,word_square,,,0,bottomsquare,none,true,,,SILK,1,,,
html-keyboard-response,295,423449,null,"<div style=""font-size:42px;"">SILK</div>",null,,word,SILK,,,,,,,,,,,,
html-keyboard-response,296,424975,null,"",null,,word,SILK,,,,,,,,,,,,
html-keyboard-response,297,425201,null,"<div style=""font-size:42px;"">VELVET</div><img id = ""stim"" ><div class = red_square id = topsquare></div>",null,encoding,word_square,,,1,topsquare,32,true,,,VELVET,1,,,
html-keyboard-response,298,425514,170,"<div style=""font-size:42px;"">VELVET</div>",32,,word,VELVET,,,,,,,,,,,,
html-keyboard-response,299,427035,null,"",null,,word,VELVET,,,,,,,,,,,,
call-function,300,427045,,"",,,,,,,,,,,,,,,,
html-keyboard-response,301,427156,null,"",null,,,,,,,,,,,,,,,
math-period,302,430450,5753,"",,,,,,,,,,,6,,,,,
html-keyboard-response,303,430562,null,"",null,,,,,,,,,,,,,,,
math-period,304,431988,2544,"",,,,,,,,,,,2,,,,,
html-keyboard-response,305,432097,null,"",null,,,,,,,,,,,,,,,
math-period,306,437265,10046,"",,,,,,,,,,,0,,,,,
html-keyboard-response,307,437378,null,"",null,,,,,,,,,,,,,,,
math-period,308,440343,9067,"",,,,,,,,,,,3,,,,,
html-keyboard-response,309,440450,null,"",null,,,,,,,,,,,,,,,
math-period,310,442732,4125,"",,,,,,,,,,,4,,,,,
html-keyboard-response,311,442839,null,"",null,,,,,,,,,,,,,,,
math-period,312,447103,8100,"",,,,,,,,,,,3,,,,,
html-keyboard-response,313,447206,null,"",null,,,,,,,,,,,,,,,
math-period,314,450433,10744,"",,,,,,,,,,,3,,,,,
html-keyboard-response,315,450550,null,"",null,,,,,,,,,,,,,,,
math-period,316,451057,null,"",,,,,,,,,,,,,,,,
html-keyboard-response,317,452078,null,"Recall Period!",null,,,,,,,,,,,,,,,
call-function,318,452084,,"",,,,,,,,,,,,,,,,
html-keyboard-response,319,452199,null,"",null,,,,,,,,,,,,,,,
recall-period,320,455585,23042,"",,,,,,,,,,,neptune,,,,,
html-keyboard-response,321,455690,null,"",null,,,,,,,,,,,,,,,
recall-period,322,460135,41250,"",,,,,,,,,,,boyfriend,,,,,
html-keyboard-response,323,460240,null,"",null,,,,,,,,,,,,,,,
recall-period,324,464265,31279,"",,,,,,,,,,,globe,,,,,
html-keyboard-response,325,464378,null,"",null,,,,,,,,,,,,,,,
recall-period,326,466134,8028,"",,,,,,,,,,,suitcase,,,,,
html-keyboard-response,327,466250,null,"",null,,,,,,,,,,,,,,,
recall-period,328,468497,11100,"",,,,,,,,,,,shortcake,,,,,
html-keyboard-response,329,468616,null,"",null,,,,,,,,,,,,,,,
recall-period,330,470369,5899,"",,,,,,,,,,,silk,,,,,
html-keyboard-response,331,470480,null,"",null,,,,,,,,,,,,,,,
recall-period,332,476505,32318,"",,,,,,,,,,,couch,,,,,
html-keyboard-response,333,476616,null,"",null,,,,,,,,,,,,,,,
recall-period,334,483528,41997,"",,,,,,,,,,,velvet,,,,,
html-keyboard-response,335,483646,null,"",null,,,,,,,,,,,,,,,
recall-period,336,493032,60237,"",,,,,,,,,,,travel,,,,,
html-keyboard-response,337,493143,null,"",null,,,,,,,,,,,,,,,
recall-period,338,525756,223676,"",,,,,,,,,,,mother,,,,,
html-keyboard-response,339,525871,null,"",null,,,,,,,,,,,,,,,
recall-period,340,527087,null,"",,,,,,,,,,,,,,,,
html-keyboard-response,341,527603,null,"Time's Up!",null,,,,,,,,,,,,,,,
html-keyboard-response,342,529333,1722,"<p> Good job! You have responded correctly to 100% of the trials. </p>
                      <p>Be sure to only press the spacebar if you see a red square, and please keep your accuracy above 80%.</p>
                      <p> Press any key to continue the experiment. </p>",32,,,,,,,,,,,,,,,
html-keyboard-response,343,530055,712,"<div style=""font-size:48px;"">Press any key to begin list 3 of 16 </div>",32,,,,,,,,,,,,,,,
html-keyboard-response,344,532578,null,"<div style=""font-size:60px;"">+</div>",null,,,,,,,,,,,,,,,
html-keyboard-response,345,532792,null,"<div style=""font-size:42px;"">SNORKEL</div><img id = ""stim"" ><div class = green_square id = bottomsquare></div>",null,encoding,word_square,,,0,bottomsquare,none,true,,,SNORKEL,2,,,
html-keyboard-response,346,533114,null,"<div style=""font-size:42px;"">SNORKEL</div>",null,,word,SNORKEL,,,,,,,,,,,,
html-keyboard-response,347,534628,null,"",null,,word,SNORKEL,,,,,,,,,,,,
html-keyboard-response,348,534841,null,"<div style=""font-size:42px;"">PRIMATE</div><img id = ""stim"" ><div class = red_square id = topsquare></div>",null,encoding,word_square,,,1,topsquare,32,true,,,PRIMATE,2,,,
html-keyboard-response,349,535148,240,"<div style=""font-size:42px;"">PRIMATE</div>",32,,word,PRIMATE,,,,,,,,,,,,
html-keyboard-response,350,536660,null,"",null,,word,PRIMATE,,,,,,,,,,,,
html-keyboard-response,351,536866,null,"<div style=""font-size:42px;"">GLASSES</div><img id = ""stim"" ><div class = red_square id = bottomsquare></div>",null,encoding,word_square,,,1,bottomsquare,32,true,,,GLASSES,2,,,
html-keyboard-response,352,537174,211,"<div style=""font-size:42px;"">GLASSES</div>",32,,word,GLASSES,,,,,,,,,,,,
html-keyboard-response,353,538686,null,"",null,,word,GLASSES,,,,,,,,,,,,
html-keyboard-response,354,538892,null,"<div style=""font-size:42px;"">HIKER</div><img id = ""stim"" ><div class = green_square id = topsquare></div>",null,encoding,word_square,,,0,topsquare,none,true,,,HIKER,2,,,
html-keyboard-response,355,539201,null,"<div style=""font-size:42px;"">HIKER</div>",null,,word,HIKER,,,,,,,,,,,,
html-keyboard-response,356,540719,null,"",null,,word,HIKER,,,,,,,,,,,,
html-keyboard-response,357,540935,null,"<div style=""font-size:42px;"">MEAT</div><img id = ""stim"" ><div class = red_square id = topsquare></div>",null,encoding,word_square,,,1,topsquare,32,true,,,MEAT,2,,,
html-keyboard-response,358,541256,167,"<div style=""font-size:42px;"">MEAT</div>",32,,word,MEAT,,,,,,,,,,,,
html-keyboard-response,359,542788,null,"",null,,word,MEAT,,,,,,,,,,,,
html-keyboard-response,360,543001,null,"<div style=""font-size:42px;"">SATURN</div><img id = ""stim"" ><div class = green_square id = bottomsquare></div>",null,encoding,word_square,,,0,bottomsquare,none,true,,,SATURN,2,,,
html-keyboard-response,361,543317,null,"<div style=""font-size:42px;"">SATURN</div>",null,,word,SATURN,,,,,,,,,,,,
html-keyboard-response,362,544840,null,"",null,,word,SATURN,,,,,,,,,,,,
html-keyboard-response,363,545051,null,"<div style=""font-size:42px;"">GAZELLE</div><img id = ""stim"" ><div class = green_square id = topsquare></div>",null,encoding,word_square,,,0,topsquare,none,true,,,GAZELLE,2,,,
html-keyboard-response,364,545370,null,"<div style=""font-size:42px;"">GAZELLE</div>",null,,word,GAZELLE,,,,,,,,,,,,
html-keyboard-response,365,546888,null,"",null,,word,GAZELLE,,,,,,,,,,,,
html-keyboard-response,366,547111,null,"<div style=""font-size:42px;"">CLIFF</div><img id = ""stim"" ><div class = red_square id = bottomsquare></div>",null,encoding,word_square,,,1,bottomsquare,32,true,,,CLIFF,2,,,
html-keyboard-response,367,547428,117,"<div style=""font-size:42px;"">CLIFF</div>",32,,word,CLIFF,,,,,,,,,,,,
html-keyboard-response,368,548943,null,"",null,,word,CLIFF,,,,,,,,,,,,
html-keyboard-response,369,549153,null,"<div style=""font-size:42px;"">HAMPER</div><img id = ""stim"" ><div class = red_square id = topsquare></div>",null,encoding,word_square,,,1,topsquare,32,true,,,HAMPER,2,,,
html-keyboard-response,370,549470,161,"<div style=""font-size:42px;"">HAMPER</div>",32,,word,HAMPER,,,,,,,,,,,,
html-keyboard-response,371,550984,null,"",null,,word,HAMPER,,,,,,,,,,,,
html-keyboard-response,372,551205,null,"<div style=""font-size:42px;"">SHIRT</div><img id = ""stim"" ><div class = green_square id = bottomsquare></div>",null,encoding,word_square,,,0,bottomsquare,none,true,,,SHIRT,2,,,
html-keyboard-response,373,551526,null,"<div style=""font-size:42px;"">SHIRT</div>",null,,word,SHIRT,,,,,,,,,,,,
html-keyboard-response,374,553046,null,"",null,,word,SHIRT,,,,,,,,,,,,
html-keyboard-response,375,553261,null,"<div style=""font-size:42px;"">WOLF</div><img id = ""stim"" ><div class = green_square id = topsquare></div>",null,encoding,word_square,,,0,topsquare,none,true,,,WOLF,2,,,
html-keyboard-response,376,553580,null,"<div style=""font-size:42px;"">WOLF</div>",null,,word,WOLF,,,,,,,,,,,,
html-keyboard-response,377,555090,null,"",null,,word,WOLF,,,,,,,,,,,,
html-keyboard-response,378,555308,null,"<div style=""font-size:42px;"">BACON</div><img id = ""stim"" ><div class = red_square id = bottomsquare></div>",null,encoding,word_square,,,1,bottomsquare,32,true,,,BACON,2,,,
html-keyboard-response,379,555630,87,"<div style=""font-size:42px;"">BACON</div>",32,,word,BACON,,,,,,,,,,,,
html-keyboard-response,380,557157,null,"",null,,word,BACON,,,,,,,,,,,,
html-keyboard-response,381,557376,null,"<div style=""font-size:42px;"">SAUSAGE</div><img id = ""stim"" ><div class = red_square id = topsquare></div>",null,encoding,word_square,,,1,topsquare,32,true,,,SAUSAGE,2,,,
html-keyboard-response,382,557696,207,"<div style=""font-size:42px;"">SAUSAGE</div>",32,,word,SAUSAGE,,,,,,,,,,,,
html-keyboard-response,383,559209,null,"",null,,word,SAUSAGE,,,,,,,,,,,,
html-keyboard-response,384,559421,null,"<div style=""font-size:42px;"">SNAIL</div><img id = ""stim"" ><div class = green_square id = bottomsquare></div>",null,encoding,word_square,,,0,bottomsquare,none,true,,,SNAIL,2,,,
html-keyboard-response,385,559734,null,"<div style=""font-size:42px;"">SNAIL</div>",null,,word,SNAIL,,,,,,,,,,,,
html-keyboard-response,386,561253,null,"",null,,word,SNAIL,,,,,,,,,,,,
html-keyboard-response,387,561463,null,"<div style=""font-size:42px;"">SLOPE</div><img id = ""stim"" ><div class = red_square id = bottomsquare></div>",null,encoding,word_square,,,1,bottomsquare,32,true,,,SLOPE,2,,,
html-keyboard-response,388,561770,46,"<div style=""font-size:42px;"">SLOPE</div>",32,,word,SLOPE,,,,,,,,,,,,
html-keyboard-response,389,563288,null,"",null,,word,SLOPE,,,,,,,,,,,,
html-keyboard-response,390,563505,null,"<div style=""font-size:42px;"">YARD</div><img id = ""stim"" ><div class = green_square id = topsquare></div>",null,encoding,word_square,,,0,topsquare,none,true,,,YARD,2,,,
html-keyboard-response,391,563821,null,"<div style=""font-size:42px;"">YARD</div>",null,,word,YARD,,,,,,,,,,,,
html-keyboard-response,392,565340,null,"",null,,word,YARD,,,,,,,,,,,,
call-function,393,565347,,"",,,,,,,,,,,,,,,,
html-keyboard-response,394,565463,null,"",null,,,,,,,,,,,,,,,
math-period,395,570849,8809,"",,,,,,,,,,,2,,,,,
html-keyboard-response,396,570963,null,"",null,,,,,,,,,,,,,,,
math-period,397,574528,11775,"",,,,,,,,,,,5,,,,,
html-keyboard-response,398,574643,null,"",null,,,,,,,,,,,,,,,
math-period,399,577306,8964,"",,,,,,,,,,,4,,,,,
html-keyboard-response,400,577411,null,"",null,,,,,,,,,,,,,,,
math-period,401,579256,3415,"",,,,,,,,,,,3,,,,,
html-keyboard-response,402,579376,null,"",null,,,,,,,,,,,,,,,
math-period,403,581140,3294,"",,,,,,,,,,,1,,,,,
html-keyboard-response,404,581260,null,"",null,,,,,,,,,,,,,,,
math-period,405,583514,4249,"",,,,,,,,,,,5,,,,,
html-keyboard-response,406,583626,null,"",null,,,,,,,,,,,,,,,
math-period,407,587315,7135,"",,,,,,,,,,,0,,,,,
html-keyboard-response,408,587427,null,"",null,,,,,,,,,,,,,,,
math-period,409,589355,1743,"",,,,,,,,,,,5,,,,,
html-keyboard-response,410,590368,null,"Recall Period!",null,,,,,,,,,,,,,,,
call-function,411,590375,,"",,,,,,,,,,,,,,,,
html-keyboard-response,412,590487,null,"",null,,,,,,,,,,,,,,,
recall-period,413,593179,12295,"",,,,,,,,,,,saturn,,,,,
html-keyboard-response,414,593289,null,"",null,,,,,,,,,,,,,,,
recall-period,415,594739,4874,"",,,,,,,,,,,cliff,,,,,
html-keyboard-response,416,594846,null,"",null,,,,,,,,,,,,,,,
recall-period,417,616353,151104,"",,,,,,,,,,,shirt,,,,,
html-keyboard-response,418,616465,null,"",null,,,,,,,,,,,,,,,
recall-period,419,637497,142360,"",,,,,,,,,,,climb,,,,,
html-keyboard-response,420,637606,null,"",null,,,,,,,,,,,,,,,
recall-period,421,655396,119187,"",,,,,,,,,,,sleeve,,,,,
html-keyboard-response,422,655506,null,"",null,,,,,,,,,,,,,,,
recall-period,423,665388,null,"",,,,,,,,,,,,,,,,
html-keyboard-response,424,665904,null,"Time's Up!",null,,,,,,,,,,,,,,,
html-keyboard-response,425,665916,4,"<p> Good job! You have responded correctly to 100% of the trials. </p>
                      <p>Be sure to only press the spacebar if you see a red square, and please keep your accuracy above 80%.</p>
                      <p> Press any key to continue the experiment. </p>",32,,,,,,,,,,,,,,,
html-keyboard-response,426,666525,604,"<div style=""font-size:48px;"">Press any key to begin list 4 of 16 </div>",32,,,,,,,,,,,,,,,
html-keyboard-response,427,669037,null,"<div style=""font-size:60px;"">+</div>",null,,,,,,,,,,,,,,,
html-keyboard-response,428,669255,null,"<div style=""font-size:42px;"">MUSTARD</div><img id = ""stim"" ><div class = green_square id = topsquare></div>",null,encoding,word_square,,,0,topsquare,none,true,,,MUSTARD,3,,,
html-keyboard-response,429,669577,null,"<div style=""font-size:42px;"">MUSTARD</div>",null,,word,MUSTARD,,,,,,,,,,,,
html-keyboard-response,430,671090,null,"",null,,word,MUSTARD,,,,,,,,,,,,
html-keyboard-response,431,671305,null,"<div style=""font-size:42px;"">RIVER</div><img id = ""stim"" ><div class = red_square id = bottomsquare></div>",null,encoding,word_square,,,1,bottomsquare,32,true,,,RIVER,3,,,
html-keyboard-response,432,671620,230,"<div style=""font-size:42px;"">RIVER</div>",32,,word,RIVER,,,,,,,,,,,,
html-keyboard-response,433,673140,null,"",null,,word,RIVER,,,,,,,,,,,,
html-keyboard-response,434,673366,null,"<div style=""font-size:42px;"">HORNET</div><img id = ""stim"" ><div class = green_square id = bottomsquare></div>",null,encoding,word_square,,,0,bottomsquare,none,true,,,HORNET,3,,,
html-keyboard-response,435,673680,null,"<div style=""font-size:42px;"">HORNET</div>",null,,word,HORNET,,,,,,,,,,,,
html-keyboard-response,436,675203,null,"",null,,word,HORNET,,,,,,,,,,,,
html-keyboard-response,437,675420,null,"<div style=""font-size:42px;"">SWAMP</div><img id = ""stim"" ><div class = red_square id = topsquare></div>",null,encoding,word_square,,,1,topsquare,32,true,,,SWAMP,3,,,
html-keyboard-response,438,675726,218,"<div style=""font-size:42px;"">SWAMP</div>",32,,word,SWAMP,,,,,,,,,,,,
html-keyboard-response,439,677240,null,"",null,,word,SWAMP,,,,,,,,,,,,
html-keyboard-response,440,677457,null,"<div style=""font-size:42px;"">BEDROOM</div><img id = ""stim"" ><div class = red_square id = bottomsquare></div>",null,encoding,word_square,,,1,bottomsquare,32,true,,,BEDROOM,3,,,
html-keyboard-response,441,677776,102,"<div style=""font-size:42px;"">BEDROOM</div>",32,,word,BEDROOM,,,,,,,,,,,,
html-keyboard-response,442,679294,null,"",null,,word,BEDROOM,,,,,,,,,,,,
html-keyboard-response,443,679516,null,"<div style=""font-size:42px;"">GERM</div><img id = ""stim"" ><div class = green_square id = topsquare></div>",null,encoding,word_square,,,0,topsquare,none,true,,,GERM,3,,,
html-keyboard-response,444,679837,null,"<div style=""font-size:42px;"">GERM</div>",null,,word,GERM,,,,,,,,,,,,
html-keyboard-response,445,681351,null,"",null,,word,GERM,,,,,,,,,,,,
html-keyboard-response,446,681570,null,"<div style=""font-size:42px;"">LAGOON</div><img id = ""stim"" ><div class = green_square id = bottomsquare></div>",null,encoding,word_square,,,0,bottomsquare,none,true,,,LAGOON,3,,,
html-keyboard-response,447,681887,null,"<div style=""font-size:42px;"">LAGOON</div>",null,,word,LAGOON,,,,,,,,,,,,
html-keyboard-response,448,683416,null,"",null,,word,LAGOON,,,,,,,,,,,,
html-keyboard-response,449,683633,null,"<div style=""font-size:42px;"">PONY</div><img id = ""stim"" ><div class = red_square id = topsquare></div>",null,encoding,word_square,,,1,topsquare,32,true,,,PONY,3,,,
html-keyboard-response,450,683951,118,"<div style=""font-size:42px;"">PONY</div>",32,,word,PONY,,,,,,,,,,,,
html-keyboard-response,451,685467,null,"",null,,word,PONY,,,,,,,,,,,,
html-keyboard-response,452,685674,null,"<div style=""font-size:42px;"">HEEL</div><img id = ""stim"" ><div class = red_square id = bottomsquare></div>",null,encoding,word_square,,,1,bottomsquare,32,true,,,HEEL,3,,,
html-keyboard-response,453,685984,124,"<div style=""font-size:42px;"">HEEL</div>",32,,word,HEEL,,,,,,,,,,,,
html-keyboard-response,454,687496,null,"",null,,word,HEEL,,,,,,,,,,,,
html-keyboard-response,455,687706,null,"<div style=""font-size:42px;"">SIDING</div><img id = ""stim"" ><div class = green_square id = topsquare></div>",null,encoding,word_square,,,0,topsquare,none,true,,,SIDING,3,,,
html-keyboard-response,456,688022,null,"<div style=""font-size:42px;"">SIDING</div>",null,,word,SIDING,,,,,,,,,,,,
html-keyboard-response,457,689532,null,"",null,,word,SIDING,,,,,,,,,,,,
html-keyboard-response,458,689754,null,"<div style=""font-size:42px;"">DIME</div><img id = ""stim"" ><div class = green_square id = bottomsquare></div>",null,encoding,word_square,,,0,bottomsquare,none,true,,,DIME,3,,,
html-keyboard-response,459,690077,163,"<div style=""font-size:42px;"">DIME</div>",32,,word,DIME,,,,,,,,,,,,
html-keyboard-response,460,691593,null,"",null,,word,DIME,,,,,,,,,,,,
html-keyboard-response,461,691817,null,"<div style=""font-size:42px;"">CASHIER</div><img id = ""stim"" ><div class = red_square id = topsquare></div>",null,encoding,word_square,,,1,topsquare,32,true,,,CASHIER,3,,,
html-keyboard-response,462,692137,203,"<div style=""font-size:42px;"">CASHIER</div>",32,,word,CASHIER,,,,,,,,,,,,
html-keyboard-response,463,693663,null,"",null,,word,CASHIER,,,,,,,,,,,,
html-keyboard-response,464,693889,null,"<div style=""font-size:42px;"">DIVER</div><img id = ""stim"" ><div class = green_square id = topsquare></div>",null,encoding,word_square,,,0,topsquare,none,true,,,DIVER,3,,,
html-keyboard-response,465,694210,null,"<div style=""font-size:42px;"">DIVER</div>",null,,word,DIVER,,,,,,,,,,,,
html-keyboard-response,466,695731,null,"",null,,word,DIVER,,,,,,,,,,,,
html-keyboard-response,467,695946,null,"<div style=""font-size:42px;"">WORKER</div><img id = ""stim"" ><div class = red_square id = bottomsquare></div>",null,encoding,word_square,,,1,bottomsquare,32,true,,,WORKER,3,,,
html-keyboard-response,468,696265,252,"<div style=""font-size:42px;"">WORKER</div>",32,,word,WORKER,,,,,,,,,,,,
html-keyboard-response,469,697789,null,"",null,,word,WORKER,,,,,,,,,,,,
html-keyboard-response,470,697995,null,"<div style=""font-size:42px;"">SEAGULL</div><img id = ""stim"" ><div class = red_square id = topsquare></div>",null,encoding,word_square,,,1,topsquare,32,true,,,SEAGULL,3,,,
html-keyboard-response,471,698310,84,"<div style=""font-size:42px;"">SEAGULL</div>",32,,word,SEAGULL,,,,,,,,,,,,
html-keyboard-response,472,699823,null,"",null,,word,SEAGULL,,,,,,,,,,,,
html-keyboard-response,473,700036,null,"<div style=""font-size:42px;"">LIPSTICK</div><img id = ""stim"" ><div class = green_square id = bottomsquare></div>",null,encoding,word_square,,,0,bottomsquare,none,true,,,LIPSTICK,3,,,
html-keyboard-response,474,700353,null,"<div style=""font-size:42px;"">LIPSTICK</div>",null,,word,LIPSTICK,,,,,,,,,,,,
html-keyboard-response,475,701870,null,"",null,,word,LIPSTICK,,,,,,,,,,,,
call-function,476,701874,,"",,,,,,,,,,,,,,,,
html-keyboard-response,477,701977,null,"",null,,,,,,,,,,,,,,,
math-period,478,707339,10421,"",,,,,,,,,,,1,,,,,
html-keyboard-response,479,707474,null,"",null,,,,,,,,,,,,,,,
math-period,480,709836,4470,"",,,,,,,,,,,5,,,,,
html-keyboard-response,481,709951,null,"",null,,,,,,,,,,,,,,,
math-period,482,712517,6635,"",,,,,,,,,,,2,,,,,
html-keyboard-response,483,712635,null,"",null,,,,,,,,,,,,,,,
math-period,484,715094,4572,"",,,,,,,,,,,5,,,,,
html-keyboard-response,485,715210,null,"",null,,,,,,,,,,,,,,,
math-period,486,717375,3999,"",,,,,,,,,,,1,,,,,
html-keyboard-response,487,717495,null,"",null,,,,,,,,,,,,,,,
math-period,488,721206,7199,"",,,,,,,,,,,2,,,,,
html-keyboard-response,489,721324,null,"",null,,,,,,,,,,,,,,,
math-period,490,722933,2860,"",,,,,,,,,,,4,,,,,
html-keyboard-response,491,723046,null,"",null,,,,,,,,,,,,,,,
math-period,492,725891,2713,"",,,,,,,,,,,5,,,,,
html-keyboard-response,493,726911,null,"Recall Period!",null,,,,,,,,,,,,,,,
call-function,494,726918,,"",,,,,,,,,,,,,,,,
html-keyboard-response,495,727036,null,"",null,,,,,,,,,,,,,,,
recall-period,496,735689,93512,"",,,,,,,,,,,lipstick,,,,,
html-keyboard-response,497,735808,null,"",null,,,,,,,,,,,,,,,
recall-period,498,746676,76426,"",,,,,,,,,,,shrivel,,,,,
html-keyboard-response,499,746791,null,"",null,,,,,,,,,,,,,,,
recall-period,500,760774,126489,"",,,,,,,,,,,seagull,,,,,
html-keyboard-response,501,760888,null,"",null,,,,,,,,,,,,,,,
recall-period,502,801931,null,"",,,,,,,,,,,,,,,,
html-keyboard-response,503,802440,null,"Time's Up!",null,,,,,,,,,,,,,,,
html-keyboard-response,504,803672,1224,"<p> Good job! You have responded correctly to 100% of the trials. </p>
                      <p>Be sure to only press the spacebar if you see a red square, and please keep your accuracy above 80%.</p>
                      <p> Press any key to continue the experiment. </p>",32,,,,,,,,,,,,,,,
html-keyboard-response,505,804219,542,"<div style=""font-size:48px;"">Press any key to begin list 5 of 16 </div>",32,,,,,,,,,,,,,,,
html-keyboard-response,506,806733,null,"<div style=""font-size:60px;"">+</div>",null,,,,,,,,,,,,,,,
html-keyboard-response,507,806943,null,"<div style=""font-size:42px;"">TOOTHBRUSH</div><img id = ""stim"" ><div class = red_square id = topsquare></div>",null,encoding,word_square,,,1,topsquare,32,true,,,TOOTHBRUSH,4,,,
html-keyboard-response,508,807256,168,"<div style=""font-size:42px;"">TOOTHBRUSH</div>",32,,word,TOOTHBRUSH,,,,,,,,,,,,
html-keyboard-response,509,808775,null,"",null,,word,TOOTHBRUSH,,,,,,,,,,,,
html-keyboard-response,510,808996,null,"<div style=""font-size:42px;"">RUBY</div><img id = ""stim"" ><div class = green_square id = bottomsquare></div>",null,encoding,word_square,,,0,bottomsquare,none,true,,,RUBY,4,,,
html-keyboard-response,511,809310,null,"<div style=""font-size:42px;"">RUBY</div>",null,,word,RUBY,,,,,,,,,,,,
html-keyboard-response,512,810838,null,"",null,,word,RUBY,,,,,,,,,,,,
html-keyboard-response,513,811055,null,"<div style=""font-size:42px;"">BULLET</div><img id = ""stim"" ><div class = green_square id = topsquare></div>",null,encoding,word_square,,,0,topsquare,none,true,,,BULLET,4,,,
html-keyboard-response,514,811365,null,"<div style=""font-size:42px;"">BULLET</div>",null,,word,BULLET,,,,,,,,,,,,
html-keyboard-response,515,812881,null,"",null,,word,BULLET,,,,,,,,,,,,
html-keyboard-response,516,813101,null,"<div style=""font-size:42px;"">PISTOL</div><img id = ""stim"" ><div class = red_square id = bottomsquare></div>",null,encoding,word_square,,,1,bottomsquare,32,true,,,PISTOL,4,,,
html-keyboard-response,517,813424,120,"<div style=""font-size:42px;"">PISTOL</div>",32,,word,PISTOL,,,,,,,,,,,,
html-keyboard-response,518,814947,null,"",null,,word,PISTOL,,,,,,,,,,,,
html-keyboard-response,519,815165,null,"<div style=""font-size:42px;"">BALLOON</div><img id = ""stim"" ><div class = red_square id = topsquare></div>",null,encoding,word_square,,,1,topsquare,32,true,,,BALLOON,4,,,
html-keyboard-response,520,815485,158,"<div style=""font-size:42px;"">BALLOON</div>",32,,word,BALLOON,,,,,,,,,,,,
html-keyboard-response,521,817002,null,"",null,,word,BALLOON,,,,,,,,,,,,
html-keyboard-response,522,817212,null,"<div style=""font-size:42px;"">MONKEY</div><img id = ""stim"" ><div class = green_square id = bottomsquare></div>",null,encoding,word_square,,,0,bottomsquare,none,true,,,MONKEY,4,,,
html-keyboard-response,523,817517,null,"<div style=""font-size:42px;"">MONKEY</div>",null,,word,MONKEY,,,,,,,,,,,,
html-keyboard-response,524,819035,null,"",null,,word,MONKEY,,,,,,,,,,,,
html-keyboard-response,525,819257,null,"<div style=""font-size:42px;"">LETTER</div><img id = ""stim"" ><div class = red_square id = bottomsquare></div>",null,encoding,word_square,,,1,bottomsquare,32,true,,,LETTER,4,,,
html-keyboard-response,526,819570,79,"<div style=""font-size:42px;"">LETTER</div>",32,,word,LETTER,,,,,,,,,,,,
html-keyboard-response,527,821081,null,"",null,,word,LETTER,,,,,,,,,,,,
html-keyboard-response,528,821296,null,"<div style=""font-size:42px;"">BEAVER</div><img id = ""stim"" ><div class = green_square id = topsquare></div>",null,encoding,word_square,,,0,topsquare,none,true,,,BEAVER,4,,,
html-keyboard-response,529,821608,null,"<div style=""font-size:42px;"">BEAVER</div>",null,,word,BEAVER,,,,,,,,,,,,
html-keyboard-response,530,823123,null,"",null,,word,BEAVER,,,,,,,,,,,,
html-keyboard-response,531,823347,null,"<div style=""font-size:42px;"">ATOM</div><img id = ""stim"" ><div class = green_square id = bottomsquare></div>",null,encoding,word_square,,,0,bottomsquare,none,true,,,ATOM,4,,,
html-keyboard-response,532,823664,null,"<div style=""font-size:42px;"">ATOM</div>",null,,word,ATOM,,,,,,,,,,,,
html-keyboard-response,533,825181,null,"",null,,word,ATOM,,,,,,,,,,,,
html-keyboard-response,534,825398,null,"<div style=""font-size:42px;"">DANDRUFF</div><img id = ""stim"" ><div class = red_square id = topsquare></div>",null,encoding,word_square,,,1,topsquare,32,true,,,DANDRUFF,4,,,
html-keyboard-response,535,825715,128,"<div style=""font-size:42px;"">DANDRUFF</div>",32,,word,DANDRUFF,,,,,,,,,,,,
html-keyboard-response,536,827227,null,"",null,,word,DANDRUFF,,,,,,,,,,,,
html-keyboard-response,537,827442,null,"<div style=""font-size:42px;"">CRUTCH</div><img id = ""stim"" ><div class = red_square id = bottomsquare></div>",null,encoding,word_square,,,1,bottomsquare,32,true,,,CRUTCH,4,,,
html-keyboard-response,538,827760,null,"<div style=""font-size:42px;"">CRUTCH</div>",null,,word,CRUTCH,,,,,,,,,,,,
html-keyboard-response,539,829281,37,"",32,,word,CRUTCH,,,,,,,,,,,,
html-keyboard-response,540,829496,null,"<div style=""font-size:42px;"">WRIST</div><img id = ""stim"" ><div class = green_square id = topsquare></div>",null,encoding,word_square,,,0,topsquare,none,true,,,WRIST,4,,,
html-keyboard-response,541,829810,null,"<div style=""font-size:42px;"">WRIST</div>",null,,word,WRIST,,,,,,,,,,,,
html-keyboard-response,542,831330,null,"",null,,word,WRIST,,,,,,,,,,,,
html-keyboard-response,543,831559,null,"<div style=""font-size:42px;"">TWIG</div><img id = ""stim"" ><div class = green_square id = bottomsquare></div>",null,encoding,word_square,,,0,bottomsquare,none,true,,,TWIG,4,,,
html-keyboard-response,544,831880,195,"<div style=""font-size:42px;"">TWIG</div>",32,,word,TWIG,,,,,,,,,,,,
html-keyboard-response,545,833410,null,"",null,,word,TWIG,,,,,,,,,,,,
html-keyboard-response,546,833626,null,"<div style=""font-size:42px;"">HATCHET</div><img id = ""stim"" ><div class = red_square id = topsquare></div>",null,encoding,word_square,,,1,topsquare,32,true,,,HATCHET,4,,,
html-keyboard-response,547,833932,86,"<div style=""font-size:42px;"">HATCHET</div>",32,,word,HATCHET,,,,,,,,,,,,
html-keyboard-response,548,835444,null,"",null,,word,HATCHET,,,,,,,,,,,,
html-keyboard-response,549,835651,null,"<div style=""font-size:42px;"">DENTIST</div><img id = ""stim"" ><div class = red_square id = bottomsquare></div>",null,encoding,word_square,,,1,bottomsquare,32,true,,,DENTIST,4,,,
html-keyboard-response,550,835958,226,"<div style=""font-size:42px;"">DENTIST</div>",32,,word,DENTIST,,,,,,,,,,,,
html-keyboard-response,551,837471,null,"",null,,word,DENTIST,,,,,,,,,,,,
html-keyboard-response,552,837691,null,"<div style=""font-size:42px;"">SIDEWALK</div><img id = ""stim"" ><div class = green_square id = topsquare></div>",null,encoding,word_square,,,0,topsquare,none,true,,,SIDEWALK,4,,,
html-keyboard-response,553,837999,null,"<div style=""font-size:42px;"">SIDEWALK</div>",null,,word,SIDEWALK,,,,,,,,,,,,
html-keyboard-response,554,839517,null,"",null,,word,SIDEWALK,,,,,,,,,,,,
call-function,555,839531,,"",,,,,,,,,,,,,,,,
html-keyboard-response,556,839645,null,"",null,,,,,,,,,,,,,,,
math-period,557,841278,2841,"",,,,,,,,,,,2,,,,,
html-keyboard-response,558,841392,null,"",null,,,,,,,,,,,,,,,
math-period,559,844416,5608,"",,,,,,,,,,,2,,,,,
html-keyboard-response,560,844532,null,"",null,,,,,,,,,,,,,,,
math-period,561,845826,2290,"",,,,,,,,,,,3,,,,,
html-keyboard-response,562,845946,null,"",null,,,,,,,,,,,,,,,
math-period,563,848496,4645,"",,,,,,,,,,,4,,,,,
html-keyboard-response,564,848606,null,"",null,,,,,,,,,,,,,,,
math-period,565,852241,7023,"",,,,,,,,,,,1,,,,,
html-keyboard-response,566,852359,null,"",null,,,,,,,,,,,,,,,
math-period,567,854544,6668,"",,,,,,,,,,,4,,,,,
html-keyboard-response,568,854660,null,"",null,,,,,,,,,,,,,,,
math-period,569,856377,2953,"",,,,,,,,,,,3,,,,,
html-keyboard-response,570,856487,null,"",null,,,,,,,,,,,,,,,
math-period,571,858963,4542,"",,,,,,,,,,,4,,,,,
html-keyboard-response,572,859077,null,"",null,,,,,,,,,,,,,,,
math-period,573,862824,17068,"",,,,,,,,,,,4,,,,,
html-keyboard-response,574,862934,null,"",null,,,,,,,,,,,,,,,
math-period,575,863539,null,"",,,,,,,,,,,,,,,,
html-keyboard-response,576,864551,null,"Recall Period!",null,,,,,,,,,,,,,,,
call-function,577,864558,,"",,,,,,,,,,,,,,,,
html-keyboard-response,578,864672,null,"",null,,,,,,,,,,,,,,,
recall-period,579,867311,14291,"",,,,,,,,,,,dentist,,,,,
html-keyboard-response,580,867426,null,"",null,,,,,,,,,,,,,,,
recall-period,581,869880,11953,"",,,,,,,,,,,sidewalk,,,,,
html-keyboard-response,582,869998,null,"",null,,,,,,,,,,,,,,,
recall-period,583,872497,8673,"",,,,,,,,,,,pistol,,,,,
html-keyboard-response,584,872607,null,"",null,,,,,,,,,,,,,,,
recall-period,585,878050,24727,"",,,,,,,,,,,crab,,,,,
html-keyboard-response,586,878168,null,"",null,,,,,,,,,,,,,,,
recall-period,587,886577,39870,"",,,,,,,,,,,hook,,,,,
html-keyboard-response,588,886690,null,"",null,,,,,,,,,,,,,,,
recall-period,589,902948,93407,"",,,,,,,,,,,wrist,,,,,
html-keyboard-response,590,903056,null,"",null,,,,,,,,,,,,,,,
recall-period,591,939573,null,"",,,,,,,,,,,,,,,,
html-keyboard-response,592,940097,null,"Time's Up!",null,,,,,,,,,,,,,,,
html-keyboard-response,593,940347,244,"<p> Good job! You have responded correctly to 100% of the trials. </p>
                      <p>Be sure to only press the spacebar if you see a red square, and please keep your accuracy above 80%.</p>
                      <p> Press any key to continue the experiment. </p>",32,,,,,,,,,,,,,,,
html-keyboard-response,594,941065,709,"<div style=""font-size:48px;"">Press any key to begin list 6 of 16 </div>",32,,,,,,,,,,,,,,,
html-keyboard-response,595,943593,null,"<div style=""font-size:60px;"">+</div>",null,,,,,,,,,,,,,,,
html-keyboard-response,596,943803,null,"<div style=""font-size:42px;"">CROOK</div><img id = ""stim"" ><div class = green_square id = topsquare></div>",null,encoding,word_square,,,0,topsquare,none,false,,,CROOK,5,,,
html-keyboard-response,597,944110,null,"<div style=""font-size:42px;"">CROOK</div>",null,,word,CROOK,,,,,,,,,,,,
html-keyboard-response,598,945637,309,"",32,,word,CROOK,,,,,,,,,,,,
html-keyboard-response,599,945856,null,"<div style=""font-size:42px;"">WINDOW</div><img id = ""stim"" ><div class = red_square id = bottomsquare></div>",null,encoding,word_square,,,1,bottomsquare,32,true,,,WINDOW,5,,,
html-keyboard-response,600,946175,228,"<div style=""font-size:42px;"">WINDOW</div>",32,,word,WINDOW,,,,,,,,,,,,
html-keyboard-response,601,947704,null,"",null,,word,WINDOW,,,,,,,,,,,,
html-keyboard-response,602,947921,null,"<div style=""font-size:42px;"">JOURNAL</div><img id = ""stim"" ><div class = red_square id = topsquare></div>",null,encoding,word_square,,,1,topsquare,32,true,,,JOURNAL,5,,,
html-keyboard-response,603,948248,316,"<div style=""font-size:42px;"">JOURNAL</div>",32,,word,JOURNAL,,,,,,,,,,,,
html-keyboard-response,604,949763,null,"",null,,word,JOURNAL,,,,,,,,,,,,
html-keyboard-response,605,949976,null,"<div style=""font-size:42px;"">NOVEL</div><img id = ""stim"" ><div class = green_square id = bottomsquare></div>",null,encoding,word_square,,,0,bottomsquare,none,true,,,NOVEL,5,,,
html-keyboard-response,606,950292,null,"<div style=""font-size:42px;"">NOVEL</div>",null,,word,NOVEL,,,,,,,,,,,,
html-keyboard-response,607,951814,null,"",null,,word,NOVEL,,,,,,,,,,,,
html-keyboard-response,608,952032,null,"<div style=""font-size:42px;"">YOLK</div><img id = ""stim"" ><div class = green_square id = topsquare></div>",null,encoding,word_square,,,0,topsquare,none,true,,,YOLK,5,,,
html-keyboard-response,609,952351,null,"<div style=""font-size:42px;"">YOLK</div>",null,,word,YOLK,,,,,,,,,,,,
html-keyboard-response,610,953870,null,"",null,,word,YOLK,,,,,,,,,,,,
html-keyboard-response,611,954095,null,"<div style=""font-size:42px;"">PATROL</div><img id = ""stim"" ><div class = red_square id = bottomsquare></div>",null,encoding,word_square,,,1,bottomsquare,32,true,,,PATROL,5,,,
html-keyboard-response,612,954417,120,"<div style=""font-size:42px;"">PATROL</div>",32,,word,PATROL,,,,,,,,,,,,
html-keyboard-response,613,955943,null,"",null,,word,PATROL,,,,,,,,,,,,
html-keyboard-response,614,956173,null,"<div style=""font-size:42px;"">SUPPER</div><img id = ""stim"" ><div class = red_square id = topsquare></div>",null,encoding,word_square,,,1,topsquare,32,false,,,SUPPER,5,,,
html-keyboard-response,615,956488,null,"<div style=""font-size:42px;"">SUPPER</div>",null,,word,SUPPER,,,,,,,,,,,,
html-keyboard-response,616,958011,null,"",null,,word,SUPPER,,,,,,,,,,,,
html-keyboard-response,617,958227,null,"<div style=""font-size:42px;"">ANGEL</div><img id = ""stim"" ><div class = green_square id = bottomsquare></div>",null,encoding,word_square,,,0,bottomsquare,none,true,,,ANGEL,5,,,
html-keyboard-response,618,958548,108,"<div style=""font-size:42px;"">ANGEL</div>",32,,word,ANGEL,,,,,,,,,,,,
html-keyboard-response,619,960072,null,"",null,,word,ANGEL,,,,,,,,,,,,
html-keyboard-response,620,960297,null,"<div style=""font-size:42px;"">ROOSTER</div><img id = ""stim"" ><div class = green_square id = topsquare></div>",null,encoding,word_square,,,0,topsquare,none,true,,,ROOSTER,5,,,
html-keyboard-response,621,960616,null,"<div style=""font-size:42px;"">ROOSTER</div>",null,,word,ROOSTER,,,,,,,,,,,,
html-keyboard-response,622,962141,null,"",null,,word,ROOSTER,,,,,,,,,,,,
html-keyboard-response,623,962361,null,"<div style=""font-size:42px;"">CASTLE</div><img id = ""stim"" ><div class = red_square id = bottomsquare></div>",null,encoding,word_square,,,1,bottomsquare,32,true,,,CASTLE,5,,,
html-keyboard-response,624,962684,85,"<div style=""font-size:42px;"">CASTLE</div>",32,,word,CASTLE,,,,,,,,,,,,
html-keyboard-response,625,964207,null,"",null,,word,CASTLE,,,,,,,,,,,,
html-keyboard-response,626,964424,null,"<div style=""font-size:42px;"">CONSOLE</div><img id = ""stim"" ><div class = green_square id = bottomsquare></div>",null,encoding,word_square,,,0,bottomsquare,none,true,,,CONSOLE,5,,,
html-keyboard-response,627,964737,null,"<div style=""font-size:42px;"">CONSOLE</div>",null,,word,CONSOLE,,,,,,,,,,,,
html-keyboard-response,628,966267,null,"",null,,word,CONSOLE,,,,,,,,,,,,
html-keyboard-response,629,966495,null,"<div style=""font-size:42px;"">APRON</div><img id = ""stim"" ><div class = red_square id = topsquare></div>",null,encoding,word_square,,,1,topsquare,32,true,,,APRON,5,,,
html-keyboard-response,630,966819,201,"<div style=""font-size:42px;"">APRON</div>",32,,word,APRON,,,,,,,,,,,,
html-keyboard-response,631,968347,null,"",null,,word,APRON,,,,,,,,,,,,
html-keyboard-response,632,968571,null,"<div style=""font-size:42px;"">RIBBON</div><img id = ""stim"" ><div class = red_square id = bottomsquare></div>",null,encoding,word_square,,,1,bottomsquare,32,true,,,RIBBON,5,,,
html-keyboard-response,633,968891,168,"<div style=""font-size:42px;"">RIBBON</div>",32,,word,RIBBON,,,,,,,,,,,,
html-keyboard-response,634,970414,null,"",null,,word,RIBBON,,,,,,,,,,,,
html-keyboard-response,635,970627,null,"<div style=""font-size:42px;"">HAWK</div><img id = ""stim"" ><div class = green_square id = topsquare></div>",null,encoding,word_square,,,0,topsquare,none,true,,,HAWK,5,,,
html-keyboard-response,636,970941,null,"<div style=""font-size:42px;"">HAWK</div>",null,,word,HAWK,,,,,,,,,,,,
html-keyboard-response,637,972462,null,"",null,,word,HAWK,,,,,,,,,,,,
html-keyboard-response,638,972690,null,"<div style=""font-size:42px;"">POSTAGE</div><img id = ""stim"" ><div class = green_square id = bottomsquare></div>",null,encoding,word_square,,,0,bottomsquare,none,true,,,POSTAGE,5,,,
html-keyboard-response,639,973006,null,"<div style=""font-size:42px;"">POSTAGE</div>",null,,word,POSTAGE,,,,,,,,,,,,
html-keyboard-response,640,974527,null,"",null,,word,POSTAGE,,,,,,,,,,,,
html-keyboard-response,641,974749,null,"<div style=""font-size:42px;"">PADDLE</div><img id = ""stim"" ><div class = red_square id = topsquare></div>",null,encoding,word_square,,,1,topsquare,32,true,,,PADDLE,5,,,
html-keyboard-response,642,975065,149,"<div style=""font-size:42px;"">PADDLE</div>",32,,word,PADDLE,,,,,,,,,,,,
html-keyboard-response,643,976586,null,"",null,,word,PADDLE,,,,,,,,,,,,
call-function,644,976593,,"",,,,,,,,,,,,,,,,
html-keyboard-response,645,976707,null,"",null,,,,,,,,,,,,,,,
math-period,646,978373,2944,"",,,,,,,,,,,2,,,,,
html-keyboard-response,647,978508,null,"",null,,,,,,,,,,,,,,,
math-period,648,979744,2123,"",,,,,,,,,,,4,,,,,
html-keyboard-response,649,979860,null,"",null,,,,,,,,,,,,,,,
math-period,650,981925,3916,"",,,,,,,,,,,6,,,,,
html-keyboard-response,651,982037,null,"",null,,,,,,,,,,,,,,,
math-period,652,983482,2656,"",,,,,,,,,,,6,,,,,
html-keyboard-response,653,983595,null,"",null,,,,,,,,,,,,,,,
math-period,654,989167,19349,"",,,,,,,,,,,4,,,,,
html-keyboard-response,655,989278,null,"",null,,,,,,,,,,,,,,,
math-period,656,994168,17719,"",,,,,,,,,,,3,,,,,
html-keyboard-response,657,994286,null,"",null,,,,,,,,,,,,,,,
math-period,658,996883,4924,"",,,,,,,,,,,4,,,,,
html-keyboard-response,659,996989,null,"",null,,,,,,,,,,,,,,,
math-period,660,998709,3031,"",,,,,,,,,,,3,,,,,
html-keyboard-response,661,998826,null,"",null,,,,,,,,,,,,,,,
math-period,662,1000320,2684,"",,,,,,,,,,,4,,,,,
html-keyboard-response,663,1000438,null,"",null,,,,,,,,,,,,,,,
math-period,664,1000604,null,"",,,,,,,,,,,,,,,,
html-keyboard-response,665,1001617,null,"Recall Period!",null,,,,,,,,,,,,,,,
call-function,666,1001620,,"",,,,,,,,,,,,,,,,
html-keyboard-response,667,1001731,null,"",null,,,,,,,,,,,,,,,
recall-period,668,1008406,40831,"",,,,,,,,,,,supper,,,,,
html-keyboard-response,669,1008520,null,"",null,,,,,,,,,,,,,,,
recall-period,670,1013448,25211,"",,,,,,,,,,,crook,,,,,
html-keyboard-response,671,1013568,null,"",null,,,,,,,,,,,,,,,
recall-period,672,1015980,8718,"",,,,,,,,,,,hawk,,,,,
html-keyboard-response,673,1016102,null,"",null,,,,,,,,,,,,,,,
recall-period,674,1021235,36282,"",,,,,,,,,,,postage,,,,,
html-keyboard-response,675,1021347,null,"",null,,,,,,,,,,,,,,,
recall-period,676,1052674,214135,"",,,,,,,,,,,supper,,,,,
html-keyboard-response,677,1052781,null,"",null,,,,,,,,,,,,,,,
recall-period,678,1076630,null,"",,,,,,,,,,,,,,,,
html-keyboard-response,679,1077139,null,"Time's Up!",null,,,,,,,,,,,,,,,
html-keyboard-response,680,1077414,266,"<p> Good job! You have responded correctly to 98% of the trials. </p>
                      <p>Be sure to only press the spacebar if you see a red square, and please keep your accuracy above 80%.</p>
                      <p> Press any key to continue the experiment. </p>",32,,,,,,,,,,,,,,,
html-keyboard-response,681,1078648,1231,"<div style=""font-size:48px;"">Press any key to begin list 7 of 16 </div>",32,,,,,,,,,,,,,,,
html-keyboard-response,682,1081171,null,"<div style=""font-size:60px;"">+</div>",null,,,,,,,,,,,,,,,
html-keyboard-response,683,1081390,null,"<div style=""font-size:42px;"">CABOOSE</div><img id = ""stim"" ><div class = green_square id = bottomsquare></div>",null,encoding,word_square,,,0,bottomsquare,none,true,,,CABOOSE,6,,,
html-keyboard-response,684,1081706,null,"<div style=""font-size:42px;"">CABOOSE</div>",null,,word,CABOOSE,,,,,,,,,,,,
html-keyboard-response,685,1083217,null,"",null,,word,CABOOSE,,,,,,,,,,,,
html-keyboard-response,686,1083440,null,"<div style=""font-size:42px;"">PAIL</div><img id = ""stim"" ><div class = red_square id = topsquare></div>",null,encoding,word_square,,,1,topsquare,32,true,,,PAIL,6,,,
html-keyboard-response,687,1083793,null,"<div style=""font-size:42px;"">PAIL</div>",null,,word,PAIL,,,,,,,,,,,,
html-keyboard-response,688,1085306,230,"",32,,word,PAIL,,,,,,,,,,,,
html-keyboard-response,689,1085527,null,"<div style=""font-size:42px;"">HARP</div><img id = ""stim"" ><div class = red_square id = bottomsquare></div>",null,encoding,word_square,,,1,bottomsquare,32,true,,,HARP,6,,,
html-keyboard-response,690,1085849,null,"<div style=""font-size:42px;"">HARP</div>",null,,word,HARP,,,,,,,,,,,,
html-keyboard-response,691,1087359,115,"",32,,word,HARP,,,,,,,,,,,,
html-keyboard-response,692,1087590,null,"<div style=""font-size:42px;"">BROOK</div><img id = ""stim"" ><div class = green_square id = topsquare></div>",null,encoding,word_square,,,0,topsquare,none,true,,,BROOK,6,,,
html-keyboard-response,693,1087904,null,"<div style=""font-size:42px;"">BROOK</div>",null,,word,BROOK,,,,,,,,,,,,
html-keyboard-response,694,1089427,null,"",null,,word,BROOK,,,,,,,,,,,,
html-keyboard-response,695,1089656,null,"<div style=""font-size:42px;"">STREAM</div><img id = ""stim"" ><div class = green_square id = bottomsquare></div>",null,encoding,word_square,,,0,bottomsquare,none,true,,,STREAM,6,,,
html-keyboard-response,696,1089971,null,"<div style=""font-size:42px;"">STREAM</div>",null,,word,STREAM,,,,,,,,,,,,
html-keyboard-response,697,1091497,null,"",null,,word,STREAM,,,,,,,,,,,,
html-keyboard-response,698,1091717,null,"<div style=""font-size:42px;"">RAZOR</div><img id = ""stim"" ><div class = red_square id = topsquare></div>",null,encoding,word_square,,,1,topsquare,32,true,,,RAZOR,6,,,
html-keyboard-response,699,1092032,130,"<div style=""font-size:42px;"">RAZOR</div>",32,,word,RAZOR,,,,,,,,,,,,
html-keyboard-response,700,1093546,null,"",null,,word,RAZOR,,,,,,,,,,,,
html-keyboard-response,701,1093777,null,"<div style=""font-size:42px;"">NEEDLE</div><img id = ""stim"" ><div class = green_square id = topsquare></div>",null,encoding,word_square,,,0,topsquare,none,true,,,NEEDLE,6,,,
html-keyboard-response,702,1094096,null,"<div style=""font-size:42px;"">NEEDLE</div>",null,,word,NEEDLE,,,,,,,,,,,,
html-keyboard-response,703,1095617,null,"",null,,word,NEEDLE,,,,,,,,,,,,
html-keyboard-response,704,1095846,null,"<div style=""font-size:42px;"">TRENCH</div><img id = ""stim"" ><div class = red_square id = bottomsquare></div>",null,encoding,word_square,,,1,bottomsquare,32,true,,,TRENCH,6,,,
html-keyboard-response,705,1096165,86,"<div style=""font-size:42px;"">TRENCH</div>",32,,word,TRENCH,,,,,,,,,,,,
html-keyboard-response,706,1097687,null,"",null,,word,TRENCH,,,,,,,,,,,,
html-keyboard-response,707,1097921,null,"<div style=""font-size:42px;"">PLAID</div><img id = ""stim"" ><div class = red_square id = topsquare></div>",null,encoding,word_square,,,1,topsquare,32,true,,,PLAID,6,,,
html-keyboard-response,708,1098230,144,"<div style=""font-size:42px;"">PLAID</div>",32,,word,PLAID,,,,,,,,,,,,
html-keyboard-response,709,1099743,null,"",null,,word,PLAID,,,,,,,,,,,,
html-keyboard-response,710,1099962,null,"<div style=""font-size:42px;"">TORCH</div><img id = ""stim"" ><div class = green_square id = bottomsquare></div>",null,encoding,word_square,,,0,bottomsquare,none,true,,,TORCH,6,,,
html-keyboard-response,711,1100269,null,"<div style=""font-size:42px;"">TORCH</div>",null,,word,TORCH,,,,,,,,,,,,
html-keyboard-response,712,1101786,null,"",null,,word,TORCH,,,,,,,,,,,,
html-keyboard-response,713,1102000,null,"<div style=""font-size:42px;"">JOINT</div><img id = ""stim"" ><div class = green_square id = topsquare></div>",null,encoding,word_square,,,0,topsquare,none,true,,,JOINT,6,,,
html-keyboard-response,714,1102317,null,"<div style=""font-size:42px;"">JOINT</div>",null,,word,JOINT,,,,,,,,,,,,
html-keyboard-response,715,1103831,null,"",null,,word,JOINT,,,,,,,,,,,,
html-keyboard-response,716,1104065,null,"<div style=""font-size:42px;"">GRAVE</div><img id = ""stim"" ><div class = red_square id = bottomsquare></div>",null,encoding,word_square,,,1,bottomsquare,32,true,,,GRAVE,6,,,
html-keyboard-response,717,1104383,130,"<div style=""font-size:42px;"">GRAVE</div>",32,,word,GRAVE,,,,,,,,,,,,
html-keyboard-response,718,1105898,null,"",null,,word,GRAVE,,,,,,,,,,,,
html-keyboard-response,719,1106114,null,"<div style=""font-size:42px;"">OINTMENT</div><img id = ""stim"" ><div class = red_square id = topsquare></div>",null,encoding,word_square,,,1,topsquare,32,true,,,OINTMENT,6,,,
html-keyboard-response,720,1106431,245,"<div style=""font-size:42px;"">OINTMENT</div>",32,,word,OINTMENT,,,,,,,,,,,,
html-keyboard-response,721,1107961,null,"",null,,word,OINTMENT,,,,,,,,,,,,
html-keyboard-response,722,1108183,null,"<div style=""font-size:42px;"">TABLET</div><img id = ""stim"" ><div class = green_square id = bottomsquare></div>",null,encoding,word_square,,,0,bottomsquare,none,true,,,TABLET,6,,,
html-keyboard-response,723,1108497,null,"<div style=""font-size:42px;"">TABLET</div>",null,,word,TABLET,,,,,,,,,,,,
html-keyboard-response,724,1110028,null,"",null,,word,TABLET,,,,,,,,,,,,
html-keyboard-response,725,1110254,null,"<div style=""font-size:42px;"">CONTRACT</div><img id = ""stim"" ><div class = green_square id = topsquare></div>",null,encoding,word_square,,,0,topsquare,none,true,,,CONTRACT,6,,,
html-keyboard-response,726,1110557,null,"<div style=""font-size:42px;"">CONTRACT</div>",null,,word,CONTRACT,,,,,,,,,,,,
html-keyboard-response,727,1112072,null,"",null,,word,CONTRACT,,,,,,,,,,,,
html-keyboard-response,728,1112299,null,"<div style=""font-size:42px;"">DAD</div><img id = ""stim"" ><div class = red_square id = bottomsquare></div>",null,encoding,word_square,,,1,bottomsquare,32,true,,,DAD,6,,,
html-keyboard-response,729,1112615,116,"<div style=""font-size:42px;"">DAD</div>",32,,word,DAD,,,,,,,,,,,,
html-keyboard-response,730,1114130,null,"",null,,word,DAD,,,,,,,,,,,,
call-function,731,1114149,,"",,,,,,,,,,,,,,,,
html-keyboard-response,732,1114271,null,"",null,,,,,,,,,,,,,,,
math-period,733,1116452,3982,"",,,,,,,,,,,3,,,,,
html-keyboard-response,734,1116570,null,"",null,,,,,,,,,,,,,,,
math-period,735,1118503,3505,"",,,,,,,,,,,5,,,,,
html-keyboard-response,736,1118612,null,"",null,,,,,,,,,,,,,,,
math-period,737,1122302,7092,"",,,,,,,,,,,2,,,,,
html-keyboard-response,738,1122421,null,"",null,,,,,,,,,,,,,,,
math-period,739,1126380,7491,"",,,,,,,,,,,2,,,,,
html-keyboard-response,740,1126505,null,"",null,,,,,,,,,,,,,,,
math-period,741,1128425,3436,"",,,,,,,,,,,3,,,,,
html-keyboard-response,742,1128539,null,"",null,,,,,,,,,,,,,,,
math-period,743,1132212,7033,"",,,,,,,,,,,4,,,,,
html-keyboard-response,744,1132318,null,"",null,,,,,,,,,,,,,,,
math-period,745,1134782,4670,"",,,,,,,,,,,5,,,,,
html-keyboard-response,746,1134900,null,"",null,,,,,,,,,,,,,,,
math-period,747,1136274,2401,"",,,,,,,,,,,3,,,,,
html-keyboard-response,748,1136389,null,"",null,,,,,,,,,,,,,,,
math-period,749,1137596,2135,"",,,,,,,,,,,3,,,,,
html-keyboard-response,750,1137706,null,"",null,,,,,,,,,,,,,,,
math-period,751,1138157,null,"",,,,,,,,,,,,,,,,
html-keyboard-response,752,1139168,null,"Recall Period!",null,,,,,,,,,,,,,,,
call-function,753,1139173,,"",,,,,,,,,,,,,,,,
html-keyboard-response,754,1139288,null,"",null,,,,,,,,,,,,,,,
recall-period,755,1142473,21540,"",,,,,,,,,,,ointment,,,,,
html-keyboard-response,756,1142608,null,"",null,,,,,,,,,,,,,,,
recall-period,757,1145282,8252,"",,,,,,,,,,,dad,,,,,
html-keyboard-response,758,1145401,null,"",null,,,,,,,,,,,,,,,
recall-period,759,1147570,9419,"",,,,,,,,,,,train,,,,,
html-keyboard-response,760,1147691,null,"",null,,,,,,,,,,,,,,,
recall-period,761,1151721,17631,"",,,,,,,,,,,pail,,,,,
html-keyboard-response,762,1151831,null,"",null,,,,,,,,,,,,,,,
recall-period,763,1163752,90635,"",,,,,,,,,,,console,,,,,
html-keyboard-response,764,1163867,null,"",null,,,,,,,,,,,,,,,
recall-period,765,1181214,84325,"",,,,,,,,,,,pain,,,,,
html-keyboard-response,766,1181318,null,"",null,,,,,,,,,,,,,,,
recall-period,767,1188399,32790,"",,,,,,,,,,,rail,,,,,
html-keyboard-response,768,1188516,null,"",null,,,,,,,,,,,,,,,
recall-period,769,1214188,null,"",,,,,,,,,,,,,,,,
html-keyboard-response,770,1214700,null,"Time's Up!",null,,,,,,,,,,,,,,,
html-keyboard-response,771,1215006,294,"<p> Good job! You have responded correctly to 98% of the trials. </p>
                      <p>Be sure to only press the spacebar if you see a red square, and please keep your accuracy above 80%.</p>
                      <p> Press any key to continue the experiment. </p>",32,,,,,,,,,,,,,,,
html-keyboard-response,772,1215847,837,"<div style=""font-size:48px;"">Press any key to begin list 8 of 16 </div>",32,,,,,,,,,,,,,,,
html-keyboard-response,773,1218370,null,"<div style=""font-size:60px;"">+</div>",null,,,,,,,,,,,,,,,
html-keyboard-response,774,1218590,null,"<div style=""font-size:42px;"">AIRCRAFT</div><img id = ""stim"" ><div class = red_square id = bottomsquare></div>",null,encoding,word_square,,,1,bottomsquare,32,true,,,AIRCRAFT,7,,,
html-keyboard-response,775,1218901,82,"<div style=""font-size:42px;"">AIRCRAFT</div>",32,,word,AIRCRAFT,,,,,,,,,,,,
html-keyboard-response,776,1220428,null,"",null,,word,AIRCRAFT,,,,,,,,,,,,
html-keyboard-response,777,1220651,null,"<div style=""font-size:42px;"">TEAPOT</div><img id = ""stim"" ><div class = green_square id = topsquare></div>",null,encoding,word_square,,,0,topsquare,none,true,,,TEAPOT,7,,,
html-keyboard-response,778,1220971,null,"<div style=""font-size:42px;"">TEAPOT</div>",null,,word,TEAPOT,,,,,,,,,,,,
html-keyboard-response,779,1222499,null,"",null,,word,TEAPOT,,,,,,,,,,,,
html-keyboard-response,780,1222735,null,"<div style=""font-size:42px;"">HOSTAGE</div><img id = ""stim"" ><div class = green_square id = bottomsquare></div>",null,encoding,word_square,,,0,bottomsquare,none,true,,,HOSTAGE,7,,,
html-keyboard-response,781,1223058,null,"<div style=""font-size:42px;"">HOSTAGE</div>",null,,word,HOSTAGE,,,,,,,,,,,,
html-keyboard-response,782,1224572,null,"",null,,word,HOSTAGE,,,,,,,,,,,,
html-keyboard-response,783,1224800,null,"<div style=""font-size:42px;"">EARRING</div><img id = ""stim"" ><div class = red_square id = topsquare></div>",null,encoding,word_square,,,1,topsquare,32,true,,,EARRING,7,,,
html-keyboard-response,784,1225115,null,"<div style=""font-size:42px;"">EARRING</div>",null,,word,EARRING,,,,,,,,,,,,
html-keyboard-response,785,1226630,75,"",32,,word,EARRING,,,,,,,,,,,,
html-keyboard-response,786,1226847,null,"<div style=""font-size:42px;"">PUDDLE</div><img id = ""stim"" ><div class = red_square id = bottomsquare></div>",null,encoding,word_square,,,1,bottomsquare,32,true,,,PUDDLE,7,,,
html-keyboard-response,787,1227160,179,"<div style=""font-size:42px;"">PUDDLE</div>",32,,word,PUDDLE,,,,,,,,,,,,
html-keyboard-response,788,1228681,null,"",null,,word,PUDDLE,,,,,,,,,,,,
html-keyboard-response,789,1228898,null,"<div style=""font-size:42px;"">CURTAIN</div><img id = ""stim"" ><div class = green_square id = topsquare></div>",null,encoding,word_square,,,0,topsquare,none,true,,,CURTAIN,7,,,
html-keyboard-response,790,1229207,null,"<div style=""font-size:42px;"">CURTAIN</div>",null,,word,CURTAIN,,,,,,,,,,,,
html-keyboard-response,791,1230727,null,"",null,,word,CURTAIN,,,,,,,,,,,,
html-keyboard-response,792,1230933,null,"<div style=""font-size:42px;"">COTTAGE</div><img id = ""stim"" ><div class = green_square id = bottomsquare></div>",null,encoding,word_square,,,0,bottomsquare,none,false,,,COTTAGE,7,,,
html-keyboard-response,793,1231236,null,"<div style=""font-size:42px;"">COTTAGE</div>",null,,word,COTTAGE,,,,,,,,,,,,
html-keyboard-response,794,1232746,958,"",32,,word,COTTAGE,,,,,,,,,,,,
html-keyboard-response,795,1232966,null,"<div style=""font-size:42px;"">PARENT</div><img id = ""stim"" ><div class = red_square id = topsquare></div>",null,encoding,word_square,,,1,topsquare,32,true,,,PARENT,7,,,
html-keyboard-response,796,1233282,93,"<div style=""font-size:42px;"">PARENT</div>",32,,word,PARENT,,,,,,,,,,,,
html-keyboard-response,797,1234801,null,"",null,,word,PARENT,,,,,,,,,,,,
html-keyboard-response,798,1235021,null,"<div style=""font-size:42px;"">SCULPTURE</div><img id = ""stim"" ><div class = red_square id = bottomsquare></div>",null,encoding,word_square,,,1,bottomsquare,32,true,,,SCULPTURE,7,,,
html-keyboard-response,799,1235325,null,"<div style=""font-size:42px;"">SCULPTURE</div>",null,,word,SCULPTURE,,,,,,,,,,,,
html-keyboard-response,800,1236840,8,"",32,,word,SCULPTURE,,,,,,,,,,,,
html-keyboard-response,801,1237053,null,"<div style=""font-size:42px;"">MATCH</div><img id = ""stim"" ><div class = green_square id = topsquare></div>",null,encoding,word_square,,,0,topsquare,none,true,,,MATCH,7,,,
html-keyboard-response,802,1237361,null,"<div style=""font-size:42px;"">MATCH</div>",null,,word,MATCH,,,,,,,,,,,,
html-keyboard-response,803,1238879,null,"",null,,word,MATCH,,,,,,,,,,,,
html-keyboard-response,804,1239093,null,"<div style=""font-size:42px;"">DRILL</div><img id = ""stim"" ><div class = red_square id = topsquare></div>",null,encoding,word_square,,,1,topsquare,32,true,,,DRILL,7,,,
html-keyboard-response,805,1239408,null,"<div style=""font-size:42px;"">DRILL</div>",null,,word,DRILL,,,,,,,,,,,,
html-keyboard-response,806,1240930,63,"",32,,word,DRILL,,,,,,,,,,,,
html-keyboard-response,807,1241138,null,"<div style=""font-size:42px;"">GLASS</div><img id = ""stim"" ><div class = green_square id = bottomsquare></div>",null,encoding,word_square,,,0,bottomsquare,none,true,,,GLASS,7,,,
html-keyboard-response,808,1241443,null,"<div style=""font-size:42px;"">GLASS</div>",null,,word,GLASS,,,,,,,,,,,,
html-keyboard-response,809,1242959,null,"",null,,word,GLASS,,,,,,,,,,,,
html-keyboard-response,810,1243196,null,"<div style=""font-size:42px;"">CUPBOARD</div><img id = ""stim"" ><div class = green_square id = topsquare></div>",null,encoding,word_square,,,0,topsquare,none,true,,,CUPBOARD,7,,,
html-keyboard-response,811,1243520,null,"<div style=""font-size:42px;"">CUPBOARD</div>",null,,word,CUPBOARD,,,,,,,,,,,,
html-keyboard-response,812,1245042,null,"",null,,word,CUPBOARD,,,,,,,,,,,,
html-keyboard-response,813,1245267,null,"<div style=""font-size:42px;"">PLATE</div><img id = ""stim"" ><div class = red_square id = bottomsquare></div>",null,encoding,word_square,,,1,bottomsquare,32,true,,,PLATE,7,,,
html-keyboard-response,814,1245581,141,"<div style=""font-size:42px;"">PLATE</div>",32,,word,PLATE,,,,,,,,,,,,
html-keyboard-response,815,1247097,null,"",null,,word,PLATE,,,,,,,,,,,,
html-keyboard-response,816,1247322,null,"<div style=""font-size:42px;"">SUSPECT</div><img id = ""stim"" ><div class = red_square id = topsquare></div>",null,encoding,word_square,,,1,topsquare,32,true,,,SUSPECT,7,,,
html-keyboard-response,817,1247638,277,"<div style=""font-size:42px;"">SUSPECT</div>",32,,word,SUSPECT,,,,,,,,,,,,
html-keyboard-response,818,1249157,null,"",null,,word,SUSPECT,,,,,,,,,,,,
html-keyboard-response,819,1249376,null,"<div style=""font-size:42px;"">FLOWER</div><img id = ""stim"" ><div class = green_square id = bottomsquare></div>",null,encoding,word_square,,,0,bottomsquare,none,true,,,FLOWER,7,,,
html-keyboard-response,820,1249699,null,"<div style=""font-size:42px;"">FLOWER</div>",null,,word,FLOWER,,,,,,,,,,,,
html-keyboard-response,821,1251223,null,"",null,,word,FLOWER,,,,,,,,,,,,
call-function,822,1251227,,"",,,,,,,,,,,,,,,,
html-keyboard-response,823,1251344,null,"",null,,,,,,,,,,,,,,,
math-period,824,1254467,5926,"",,,,,,,,,,,4,,,,,
html-keyboard-response,825,1254573,null,"",null,,,,,,,,,,,,,,,
math-period,826,1255958,2465,"",,,,,,,,,,,3,,,,,
html-keyboard-response,827,1256073,null,"",null,,,,,,,,,,,,,,,
math-period,828,1257266,2167,"",,,,,,,,,,,2,,,,,
html-keyboard-response,829,1257375,null,"",null,,,,,,,,,,,,,,,
math-period,830,1259307,3541,"",,,,,,,,,,,3,,,,,
html-keyboard-response,831,1259427,null,"",null,,,,,,,,,,,,,,,
math-period,832,1262415,5704,"",,,,,,,,,,,3,,,,,
html-keyboard-response,833,1262524,null,"",null,,,,,,,,,,,,,,,
math-period,834,1264704,4128,"",,,,,,,,,,,4,,,,,
html-keyboard-response,835,1264819,null,"",null,,,,,,,,,,,,,,,
math-period,836,1268667,18014,"",,,,,,,,,,,5,,,,,
html-keyboard-response,837,1268778,null,"",null,,,,,,,,,,,,,,,
math-period,838,1271284,4682,"",,,,,,,,,,,2,,,,,
html-keyboard-response,839,1271393,null,"",null,,,,,,,,,,,,,,,
math-period,840,1274808,11590,"",,,,,,,,,,,5,,,,,
html-keyboard-response,841,1274923,null,"",null,,,,,,,,,,,,,,,
math-period,842,1275242,null,"",,,,,,,,,,,,,,,,
html-keyboard-response,843,1276268,null,"Recall Period!",null,,,,,,,,,,,,,,,
call-function,844,1276277,,"",,,,,,,,,,,,,,,,
html-keyboard-response,845,1276391,null,"",null,,,,,,,,,,,,,,,
recall-period,846,1286414,73519,"",,,,,,,,,,,earring,,,,,
html-keyboard-response,847,1286525,null,"",null,,,,,,,,,,,,,,,
recall-period,848,1296735,74644,"",,,,,,,,,,,suspect,,,,,
html-keyboard-response,849,1296853,null,"",null,,,,,,,,,,,,,,,
recall-period,850,1298202,6796,"",,,,,,,,,,,hostahe,,,,,
html-keyboard-response,851,1298321,null,"",null,,,,,,,,,,,,,,,
recall-period,852,1300526,12433,"",,,,,,,,,,,hostage,,,,,
html-keyboard-response,853,1300640,null,"",null,,,,,,,,,,,,,,,
recall-period,854,1351284,null,"",,,,,,,,,,,,,,,,
html-keyboard-response,855,1351798,null,"Time's Up!",null,,,,,,,,,,,,,,,
html-keyboard-response,856,1356364,4557,"<p> Good job! You have responded correctly to 98% of the trials. </p>
                      <p>Be sure to only press the spacebar if you see a red square, and please keep your accuracy above 80%.</p>
                      <p> Press any key to continue the experiment. </p>",32,,,,,,,,,,,,,,,
html-keyboard-response,857,1357162,787,"<div style=""font-size:48px;"">Press any key to begin list 9 of 16 </div>",32,,,,,,,,,,,,,,,
html-keyboard-response,858,1359688,null,"<div style=""font-size:60px;"">+</div>",null,,,,,,,,,,,,,,,
html-keyboard-response,859,1359907,null,"<div style=""font-size:42px;"">BEAKER</div><img id = ""stim"" ><div class = red_square id = topsquare></div>",null,encoding,word_square,,,1,topsquare,32,true,,,BEAKER,8,,,
html-keyboard-response,860,1360221,148,"<div style=""font-size:42px;"">BEAKER</div>",32,,word,BEAKER,,,,,,,,,,,,
html-keyboard-response,861,1361748,null,"",null,,word,BEAKER,,,,,,,,,,,,
html-keyboard-response,862,1361981,null,"<div style=""font-size:42px;"">LAPEL</div><img id = ""stim"" ><div class = red_square id = bottomsquare></div>",null,encoding,word_square,,,1,bottomsquare,32,true,,,LAPEL,8,,,
html-keyboard-response,863,1362301,184,"<div style=""font-size:42px;"">LAPEL</div>",32,,word,LAPEL,,,,,,,,,,,,
html-keyboard-response,864,1363829,null,"",null,,word,LAPEL,,,,,,,,,,,,
html-keyboard-response,865,1364051,null,"<div style=""font-size:42px;"">KIDNEY</div><img id = ""stim"" ><div class = green_square id = bottomsquare></div>",null,encoding,word_square,,,0,bottomsquare,none,true,,,KIDNEY,8,,,
html-keyboard-response,866,1364362,null,"<div style=""font-size:42px;"">KIDNEY</div>",null,,word,KIDNEY,,,,,,,,,,,,
html-keyboard-response,867,1365888,null,"",null,,word,KIDNEY,,,,,,,,,,,,
html-keyboard-response,868,1366114,null,"<div style=""font-size:42px;"">CANVAS</div><img id = ""stim"" ><div class = green_square id = topsquare></div>",null,encoding,word_square,,,0,topsquare,none,true,,,CANVAS,8,,,
html-keyboard-response,869,1366426,null,"<div style=""font-size:42px;"">CANVAS</div>",null,,word,CANVAS,,,,,,,,,,,,
html-keyboard-response,870,1367941,null,"",null,,word,CANVAS,,,,,,,,,,,,
html-keyboard-response,871,1368160,null,"<div style=""font-size:42px;"">FRANCE</div><img id = ""stim"" ><div class = red_square id = topsquare></div>",null,encoding,word_square,,,1,topsquare,32,true,,,FRANCE,8,,,
html-keyboard-response,872,1368482,250,"<div style=""font-size:42px;"">FRANCE</div>",32,,word,FRANCE,,,,,,,,,,,,
html-keyboard-response,873,1370008,null,"",null,,word,FRANCE,,,,,,,,,,,,
html-keyboard-response,874,1370227,null,"<div style=""font-size:42px;"">PORCH</div><img id = ""stim"" ><div class = red_square id = bottomsquare></div>",null,encoding,word_square,,,1,bottomsquare,32,true,,,PORCH,8,,,
html-keyboard-response,875,1370532,281,"<div style=""font-size:42px;"">PORCH</div>",32,,word,PORCH,,,,,,,,,,,,
html-keyboard-response,876,1372046,null,"",null,,word,PORCH,,,,,,,,,,,,
html-keyboard-response,877,1372274,null,"<div style=""font-size:42px;"">MAILMAN</div><img id = ""stim"" ><div class = green_square id = bottomsquare></div>",null,encoding,word_square,,,0,bottomsquare,none,true,,,MAILMAN,8,,,
html-keyboard-response,878,1372591,null,"<div style=""font-size:42px;"">MAILMAN</div>",null,,word,MAILMAN,,,,,,,,,,,,
html-keyboard-response,879,1374118,null,"",null,,word,MAILMAN,,,,,,,,,,,,
html-keyboard-response,880,1374367,null,"<div style=""font-size:42px;"">SEASHORE</div><img id = ""stim"" ><div class = green_square id = topsquare></div>",null,encoding,word_square,,,0,topsquare,none,true,,,SEASHORE,8,,,
html-keyboard-response,881,1374686,null,"<div style=""font-size:42px;"">SEASHORE</div>",null,,word,SEASHORE,,,,,,,,,,,,
html-keyboard-response,882,1376209,null,"",null,,word,SEASHORE,,,,,,,,,,,,
html-keyboard-response,883,1376426,null,"<div style=""font-size:42px;"">TOILET</div><img id = ""stim"" ><div class = red_square id = topsquare></div>",null,encoding,word_square,,,1,topsquare,32,true,,,TOILET,8,,,
html-keyboard-response,884,1376741,110,"<div style=""font-size:42px;"">TOILET</div>",32,,word,TOILET,,,,,,,,,,,,
html-keyboard-response,885,1378269,null,"",null,,word,TOILET,,,,,,,,,,,,
html-keyboard-response,886,1378498,null,"<div style=""font-size:42px;"">FLASK</div><img id = ""stim"" ><div class = green_square id = bottomsquare></div>",null,encoding,word_square,,,0,bottomsquare,none,true,,,FLASK,8,,,
html-keyboard-response,887,1378814,null,"<div style=""font-size:42px;"">FLASK</div>",null,,word,FLASK,,,,,,,,,,,,
html-keyboard-response,888,1380337,null,"",null,,word,FLASK,,,,,,,,,,,,
html-keyboard-response,889,1380562,null,"<div style=""font-size:42px;"">MASK</div><img id = ""stim"" ><div class = red_square id = bottomsquare></div>",null,encoding,word_square,,,1,bottomsquare,32,true,,,MASK,8,,,
html-keyboard-response,890,1380875,259,"<div style=""font-size:42px;"">MASK</div>",32,,word,MASK,,,,,,,,,,,,
html-keyboard-response,891,1382395,null,"",null,,word,MASK,,,,,,,,,,,,
html-keyboard-response,892,1382618,null,"<div style=""font-size:42px;"">LEMON</div><img id = ""stim"" ><div class = green_square id = topsquare></div>",null,encoding,word_square,,,0,topsquare,none,true,,,LEMON,8,,,
html-keyboard-response,893,1382937,null,"<div style=""font-size:42px;"">LEMON</div>",null,,word,LEMON,,,,,,,,,,,,
html-keyboard-response,894,1384473,null,"",null,,word,LEMON,,,,,,,,,,,,
html-keyboard-response,895,1384699,null,"<div style=""font-size:42px;"">HOUND</div><img id = ""stim"" ><div class = green_square id = bottomsquare></div>",null,encoding,word_square,,,0,bottomsquare,none,true,,,HOUND,8,,,
html-keyboard-response,896,1385010,null,"<div style=""font-size:42px;"">HOUND</div>",null,,word,HOUND,,,,,,,,,,,,
html-keyboard-response,897,1386537,null,"",null,,word,HOUND,,,,,,,,,,,,
html-keyboard-response,898,1386754,null,"<div style=""font-size:42px;"">PLUM</div><img id = ""stim"" ><div class = red_square id = topsquare></div>",null,encoding,word_square,,,1,topsquare,32,true,,,PLUM,8,,,
html-keyboard-response,899,1387072,171,"<div style=""font-size:42px;"">PLUM</div>",32,,word,PLUM,,,,,,,,,,,,
html-keyboard-response,900,1388601,null,"",null,,word,PLUM,,,,,,,,,,,,
html-keyboard-response,901,1388833,null,"<div style=""font-size:42px;"">COSTUME</div><img id = ""stim"" ><div class = red_square id = bottomsquare></div>",null,encoding,word_square,,,1,bottomsquare,32,true,,,COSTUME,8,,,
html-keyboard-response,902,1389144,null,"<div style=""font-size:42px;"">COSTUME</div>",null,,word,COSTUME,,,,,,,,,,,,
html-keyboard-response,903,1390671,8,"",32,,word,COSTUME,,,,,,,,,,,,
html-keyboard-response,904,1390891,null,"<div style=""font-size:42px;"">ORCHID</div><img id = ""stim"" ><div class = green_square id = topsquare></div>",null,encoding,word_square,,,0,topsquare,none,true,,,ORCHID,8,,,
html-keyboard-response,905,1391204,null,"<div style=""font-size:42px;"">ORCHID</div>",null,,word,ORCHID,,,,,,,,,,,,
html-keyboard-response,906,1392717,null,"",null,,word,ORCHID,,,,,,,,,,,,
call-function,907,1392741,,"",,,,,,,,,,,,,,,,
html-keyboard-response,908,1392858,null,"",null,,,,,,,,,,,,,,,
math-period,909,1397212,9579,"",,,,,,,,,,,3,,,,,
html-keyboard-response,910,1397322,null,"",null,,,,,,,,,,,,,,,
math-period,911,1402317,18462,"",,,,,,,,,,,2,,,,,
html-keyboard-response,912,1402427,null,"",null,,,,,,,,,,,,,,,
math-period,913,1409276,13402,"",,,,,,,,,,,2,,,,,
html-keyboard-response,914,1409388,null,"",null,,,,,,,,,,,,,,,
math-period,915,1411915,7423,"",,,,,,,,,,,4,,,,,
html-keyboard-response,916,1412023,null,"",null,,,,,,,,,,,,,,,
math-period,917,1414250,4222,"",,,,,,,,,,,5,,,,,
html-keyboard-response,918,1414361,null,"",null,,,,,,,,,,,,,,,
math-period,919,1416176,3399,"",,,,,,,,,,,4,,,,,
html-keyboard-response,920,1416284,null,"",null,,,,,,,,,,,,,,,
math-period,921,1416740,null,"",,,,,,,,,,,,,,,,
html-keyboard-response,922,1417756,null,"Recall Period!",null,,,,,,,,,,,,,,,
call-function,923,1417765,,"",,,,,,,,,,,,,,,,
html-keyboard-response,924,1417878,null,"",null,,,,,,,,,,,,,,,
recall-period,925,1428142,58263,"",,,,,,,,,,,hound,,,,,
html-keyboard-response,926,1428255,null,"",null,,,,,,,,,,,,,,,
recall-period,927,1430700,10924,"",,,,,,,,,,,mailman,,,,,
html-keyboard-response,928,1430822,null,"",null,,,,,,,,,,,,,,,
recall-period,929,1434234,21276,"",,,,,,,,,,,seashore,,,,,
html-keyboard-response,930,1434354,null,"",null,,,,,,,,,,,,,,,
recall-period,931,1439039,24172,"",,,,,,,,,,,lemon,,,,,
html-keyboard-response,932,1439152,null,"",null,,,,,,,,,,,,,,,
recall-period,933,1440763,3751,"",,,,,,,,,,,plum,,,,,
