trial_type,trial_index,time_elapsed,rt,stimulus,key_press,exp_phase,test_part,word,task,targ_cond,sq_pos,correctKeyCode,correct,value,response,Word,List,RecResp,serial_pos,colorChosen
pavlovia,0,2461,,"",,,,,,,,,,,,,,,,
external-html,1,66114,63535.60000000149,"",,,,,,,,,,,,,,,,
html-keyboard-response,2,70790,4672.10000000149,"Welcome to the experiment. Press any key to begin.",32,,,,,,,,,,,,,,,
html-keyboard-response,3,81893,11101.39999999851,"<p>You will see a list of words and colored squares in the following task.<p><p>Press the spacebar whenever you see a GREEN square.<p><p>Do not press a key if the square is RED.<p><p>Press the spacebar to continue.</p>",32,,,,,,,,,,,,,,,
html-keyboard-response,4,90226,7830.10000000149,"<p>Please try to remember as many of the words as you can, and try to think about the meaning of each word as it appears.<p><p>After the detection and encoding task you will be asked to solve some math problems for 24 seconds.<p> Please solve as many problems as you can in the time given. <p><p><p>Press the spacebar to continue.</p>",32,,,,,,,,,,,,,,,
html-keyboard-response,5,96061,5332.60000000149,"After solving the math problems, you will be asked to type in as many words <p>from the previous list as you can remember for 75 seconds.<p> If you finish recalling before the 75 seconds are up,<p> just sit tight and try to think of any more words you could have missed. <p><p><p>Press the spacebar to continue.</p>",32,,,,,,,,,,,,,,,
html-keyboard-response,6,100186,3622.89999999851,"There will be 16 lists of words and recall, followed  by<p><p> a recognition phase. The experiment is expected to take up to 90 minutes.<p>We will begin with a brief practice session.<p>Press the spacebar to begin the practice.</p>",32,,,,,,,,,,,,,,,
html-keyboard-response,7,102694,null,"<div style=""font-size:60px;"">+</div>",null,,,,,,,,,,,,,,,
html-keyboard-response,8,102899,null,"<div style=""font-size:42px;"">HAPPY</div><img id = ""stim"" ><div class = red_square id = ""bottomsquare"" ></div>",null,practice,word_square,HAPPY,prac_response,0,Bottom,none,true,,,,,,,
html-keyboard-response,9,103207,null,"<div style=""font-size:42px;"">HAPPY</div>",null,,word,HAPPY,,,,,,,,,,,,
html-keyboard-response,10,104712,null,"",null,,word,HAPPY,,,,,,,,,,,,
html-keyboard-response,11,104915,null,"<div style=""font-size:42px;"">COLD</div><img id = ""stim"" ><div class = green_square id = ""bottomsquare"" ></div>",null,practice,word_square,COLD,prac_response,1,Bottom,32,true,,,,,,,
html-keyboard-response,12,105220,184.60000000149012,"<div style=""font-size:42px;"">COLD</div>",32,,word,COLD,,,,,,,,,,,,
html-keyboard-response,13,106726,null,"",null,,word,COLD,,,,,,,,,,,,
html-keyboard-response,14,106932,null,"<div style=""font-size:42px;"">HEAVY</div><img id = ""stim"" ><div class = green_square id = ""topsquare"" ></div>",null,practice,word_square,HEAVY,prac_response,1,Top,32,true,,,,,,,
html-keyboard-response,15,107234,268.70000000298023,"<div style=""font-size:42px;"">HEAVY</div>",32,,word,HEAVY,,,,,,,,,,,,
html-keyboard-response,16,108737,null,"",null,,word,HEAVY,,,,,,,,,,,,
html-keyboard-response,17,108939,null,"<div style=""font-size:42px;"">FUNNY</div><img id = ""stim"" ><div class = red_square id = ""topsquare"" ></div>",null,practice,word_square,FUNNY,prac_response,0,Top,none,true,,,,,,,
html-keyboard-response,18,109245,null,"<div style=""font-size:42px;"">FUNNY</div>",null,,word,FUNNY,,,,,,,,,,,,
html-keyboard-response,19,110748,null,"",null,,word,FUNNY,,,,,,,,,,,,
html-keyboard-response,20,110953,null,"<div style=""font-size:42px;"">SCARY</div><img id = ""stim"" ><div class = green_square id = ""bottomsquare"" ></div>",null,practice,word_square,SCARY,prac_response,1,Bottom,32,true,,,,,,,
html-keyboard-response,21,111255,162.5,"<div style=""font-size:42px;"">SCARY</div>",32,,word,SCARY,,,,,,,,,,,,
html-keyboard-response,22,112757,null,"",null,,word,SCARY,,,,,,,,,,,,
html-keyboard-response,23,112962,null,"<div style=""font-size:42px;"">PEACEFUL</div><img id = ""stim"" ><div class = green_square id = ""topsquare"" ></div>",null,practice,word_square,PEACEFUL,prac_response,1,Top,32,true,,,,,,,
html-keyboard-response,24,113269,null,"<div style=""font-size:42px;"">PEACEFUL</div>",null,,word,PEACEFUL,,,,,,,,,,,,
html-keyboard-response,25,114773,203.20000000298023,"",32,,word,PEACEFUL,,,,,,,,,,,,
html-keyboard-response,26,114978,null,"<div style=""font-size:42px;"">LITTLE</div><img id = ""stim"" ><div class = red_square id = ""bottomsquare"" ></div>",null,practice,word_square,LITTLE,prac_response,0,Bottom,none,true,,,,,,,
html-keyboard-response,27,115280,null,"<div style=""font-size:42px;"">LITTLE</div>",null,,word,LITTLE,,,,,,,,,,,,
html-keyboard-response,28,116783,null,"",null,,word,LITTLE,,,,,,,,,,,,
html-keyboard-response,29,116989,null,"<div style=""font-size:42px;"">TIRED</div><img id = ""stim"" ><div class = red_square id = ""topsquare"" ></div>",null,practice,word_square,TIRED,prac_response,0,Top,none,true,,,,,,,
html-keyboard-response,30,117294,null,"<div style=""font-size:42px;"">TIRED</div>",null,,word,TIRED,,,,,,,,,,,,
html-keyboard-response,31,118796,null,"",null,,word,TIRED,,,,,,,,,,,,
html-keyboard-response,32,119001,null,"<div style=""font-size:42px;"">ENTERTAINING</div><img id = ""stim"" ><div class = red_square id = ""bottomsquare"" ></div>",null,practice,word_square,ENTERTAINING,prac_response,0,Bottom,none,true,,,,,,,
html-keyboard-response,33,119306,null,"<div style=""font-size:42px;"">ENTERTAINING</div>",null,,word,ENTERTAINING,,,,,,,,,,,,
html-keyboard-response,34,120810,null,"",null,,word,ENTERTAINING,,,,,,,,,,,,
html-keyboard-response,35,121016,null,"<div style=""font-size:42px;"">GRATEFUL</div><img id = ""stim"" ><div class = green_square id = ""bottomsquare"" ></div>",null,practice,word_square,GRATEFUL,prac_response,1,Bottom,32,true,,,,,,,
html-keyboard-response,36,121323,259.59999999403954,"<div style=""font-size:42px;"">GRATEFUL</div>",32,,word,GRATEFUL,,,,,,,,,,,,
html-keyboard-response,37,122825,null,"",null,,word,GRATEFUL,,,,,,,,,,,,
html-keyboard-response,38,123031,null,"<div style=""font-size:42px;"">LOUD</div><img id = ""stim"" ><div class = red_square id = ""topsquare"" ></div>",null,practice,word_square,LOUD,prac_response,0,Top,none,true,,,,,,,
html-keyboard-response,39,123335,null,"<div style=""font-size:42px;"">LOUD</div>",null,,word,LOUD,,,,,,,,,,,,
html-keyboard-response,40,124839,null,"",null,,word,LOUD,,,,,,,,,,,,
html-keyboard-response,41,125044,null,"<div style=""font-size:42px;"">SMART</div><img id = ""stim"" ><div class = green_square id = ""topsquare"" ></div>",null,practice,word_square,SMART,prac_response,1,Top,32,true,,,,,,,
html-keyboard-response,42,125346,124.39999999850988,"<div style=""font-size:42px;"">SMART</div>",32,,word,SMART,,,,,,,,,,,,
html-keyboard-response,43,126849,null,"",null,,word,SMART,,,,,,,,,,,,
html-keyboard-response,44,127055,null,"<div style=""font-size:42px;"">SMOOTH</div><img id = ""stim"" ><div class = green_square id = ""bottomsquare"" ></div>",null,practice,word_square,SMOOTH,prac_response,1,Bottom,32,true,,,,,,,
html-keyboard-response,45,127357,196.5,"<div style=""font-size:42px;"">SMOOTH</div>",32,,word,SMOOTH,,,,,,,,,,,,
html-keyboard-response,46,128859,null,"",null,,word,SMOOTH,,,,,,,,,,,,
html-keyboard-response,47,129061,null,"<div style=""font-size:42px;"">DISHONEST</div><img id = ""stim"" ><div class = red_square id = ""bottomsquare"" ></div>",null,practice,word_square,DISHONEST,prac_response,0,Bottom,none,true,,,,,,,
html-keyboard-response,48,129364,null,"<div style=""font-size:42px;"">DISHONEST</div>",null,,word,DISHONEST,,,,,,,,,,,,
html-keyboard-response,49,130869,null,"",null,,word,DISHONEST,,,,,,,,,,,,
html-keyboard-response,50,131071,null,"<div style=""font-size:42px;"">WEALTHY</div><img id = ""stim"" ><div class = green_square id = ""topsquare"" ></div>",null,practice,word_square,WEALTHY,prac_response,1,Top,32,true,,,,,,,
html-keyboard-response,51,131373,113.69999999552965,"<div style=""font-size:42px;"">WEALTHY</div>",32,,word,WEALTHY,,,,,,,,,,,,
html-keyboard-response,52,132879,null,"",null,,word,WEALTHY,,,,,,,,,,,,
html-keyboard-response,53,133086,null,"<div style=""font-size:42px;"">BEAUTIFUL</div><img id = ""stim"" ><div class = red_square id = ""topsquare"" ></div>",null,practice,word_square,BEAUTIFUL,prac_response,0,Top,none,true,,,,,,,
html-keyboard-response,54,133390,null,"<div style=""font-size:42px;"">BEAUTIFUL</div>",null,,word,BEAUTIFUL,,,,,,,,,,,,
html-keyboard-response,55,134892,null,"",null,,word,BEAUTIFUL,,,,,,,,,,,,
html-keyboard-response,56,140549,5655.39999999851,"<p> Good job! You responded correctly to 100% of the trials. </p>
                  <p>Be sure to only press the spacebar if you see a GREEN square, and please keep your accuracy above 80%.</p>
                  <p>We're going to try once more to make sure you understand the task. press any key to continue. </p>",32,,,,,,,,,,,,,,,
html-keyboard-response,57,143868,3317.60000000149,"<p>You will see a list of words and colored squares in the following task.<p><p>Press the spacebar whenever you see a GREEN square.<p><p>Do not press a key if the square is RED<p><p>Press the spacebar to continue.</p>",32,,,,,,,,,,,,,,,
html-keyboard-response,58,146378,null,"<div style=""font-size:60px;"">+</div>",null,,,,,,,,,,,,,,,
html-keyboard-response,59,146585,null,"<div style=""font-size:42px;"">HAPPY</div><img id = ""stim"" ><div class = red_square id = ""bottomsquare"" ></div>",null,practice2,word_square,HAPPY,prac_response,0,Bottom,none,true,,,,,,,
html-keyboard-response,60,146892,null,"<div style=""font-size:42px;"">HAPPY</div>",null,,word,HAPPY,,,,,,,,,,,,
html-keyboard-response,61,148394,null,"",null,,word,HAPPY,,,,,,,,,,,,
html-keyboard-response,62,148599,null,"<div style=""font-size:42px;"">COLD</div><img id = ""stim"" ><div class = green_square id = ""bottomsquare"" ></div>",null,practice2,word_square,,prac_response,1,Bottom,32,true,,,,,,,
html-keyboard-response,63,148901,165.09999999403954,"<div style=""font-size:42px;"">COLD</div>",32,,word,COLD,,,,,,,,,,,,
html-keyboard-response,64,150404,null,"",null,,word,COLD,,,,,,,,,,,,
html-keyboard-response,65,150610,null,"<div style=""font-size:42px;"">HEAVY</div><img id = ""stim"" ><div class = green_square id = ""topsquare"" ></div>",null,practice2,word_square,,prac_response,1,Top,32,true,,,,,,,
html-keyboard-response,66,150912,118.80000000447035,"<div style=""font-size:42px;"">HEAVY</div>",32,,word,HEAVY,,,,,,,,,,,,
html-keyboard-response,67,152414,null,"",null,,word,HEAVY,,,,,,,,,,,,
html-keyboard-response,68,152618,null,"<div style=""font-size:42px;"">FUNNY</div><img id = ""stim"" ><div class = red_square id = ""topsquare"" ></div>",null,practice2,word_square,,prac_response,0,Top,none,true,,,,,,,
html-keyboard-response,69,152926,null,"<div style=""font-size:42px;"">FUNNY</div>",null,,word,FUNNY,,,,,,,,,,,,
html-keyboard-response,70,154428,null,"",null,,word,FUNNY,,,,,,,,,,,,
html-keyboard-response,71,154632,null,"<div style=""font-size:42px;"">SCARY</div><img id = ""stim"" ><div class = green_square id = ""bottomsquare"" ></div>",null,practice2,word_square,,prac_response,1,Bottom,32,true,,,,,,,
html-keyboard-response,72,154935,92.40000000596046,"<div style=""font-size:42px;"">SCARY</div>",32,,word,SCARY,,,,,,,,,,,,
html-keyboard-response,73,156440,null,"",null,,word,SCARY,,,,,,,,,,,,
html-keyboard-response,74,156644,null,"<div style=""font-size:42px;"">PEACEFUL</div><img id = ""stim"" ><div class = green_square id = ""topsquare"" ></div>",null,practice2,word_square,,prac_response,1,Top,32,true,,,,,,,
html-keyboard-response,75,156947,204.5,"<div style=""font-size:42px;"">PEACEFUL</div>",32,,word,PEACEFUL,,,,,,,,,,,,
html-keyboard-response,76,158450,null,"",null,,word,PEACEFUL,,,,,,,,,,,,
html-keyboard-response,77,158655,null,"<div style=""font-size:42px;"">LITTLE</div><img id = ""stim"" ><div class = red_square id = ""bottomsquare"" ></div>",null,practice2,word_square,LITTLE,prac_response,0,Bottom,none,false,,,,,,,
html-keyboard-response,78,158959,76.29999999701977,"<div style=""font-size:42px;"">LITTLE</div>",32,,word,LITTLE,,,,,,,,,,,,
html-keyboard-response,79,160461,null,"",null,,word,LITTLE,,,,,,,,,,,,
html-keyboard-response,80,160663,null,"<div style=""font-size:42px;"">TIRED</div><img id = ""stim"" ><div class = red_square id = ""topsquare"" ></div>",null,practice2,word_square,,prac_response,0,Top,none,true,,,,,,,
html-keyboard-response,81,160968,null,"<div style=""font-size:42px;"">TIRED</div>",null,,word,TIRED,,,,,,,,,,,,
html-keyboard-response,82,162470,null,"",null,,word,TIRED,,,,,,,,,,,,
html-keyboard-response,83,162677,null,"<div style=""font-size:42px;"">ENTERTAINING</div><img id = ""stim"" ><div class = red_square id = ""bottomsquare"" ></div>",null,practice2,word_square,ENTERTAINING,prac_response,0,Bottom,none,true,,,,,,,
html-keyboard-response,84,162978,null,"<div style=""font-size:42px;"">ENTERTAINING</div>",null,,word,ENTERTAINING,,,,,,,,,,,,
html-keyboard-response,85,164481,null,"",null,,word,ENTERTAINING,,,,,,,,,,,,
html-keyboard-response,86,164686,null,"<div style=""font-size:42px;"">GRATEFUL</div><img id = ""stim"" ><div class = green_square id = ""bottomsquare"" ></div>",null,practice2,word_square,,prac_response,1,Bottom,32,true,,,,,,,
html-keyboard-response,87,164988,197.29999999701977,"<div style=""font-size:42px;"">GRATEFUL</div>",32,,word,GRATEFUL,,,,,,,,,,,,
html-keyboard-response,88,166491,null,"",null,,word,GRATEFUL,,,,,,,,,,,,
html-keyboard-response,89,166696,null,"<div style=""font-size:42px;"">LOUD</div><img id = ""stim"" ><div class = red_square id = ""topsquare"" ></div>",null,practice2,word_square,,prac_response,0,Top,none,true,,,,,,,
html-keyboard-response,90,167000,null,"<div style=""font-size:42px;"">LOUD</div>",null,,word,LOUD,,,,,,,,,,,,
html-keyboard-response,91,168503,null,"",null,,word,LOUD,,,,,,,,,,,,
html-keyboard-response,92,168710,null,"<div style=""font-size:42px;"">SMART</div><img id = ""stim"" ><div class = green_square id = ""topsquare"" ></div>",null,practice2,word_square,,prac_response,1,Top,32,true,,,,,,,
html-keyboard-response,93,169014,157.09999999403954,"<div style=""font-size:42px;"">SMART</div>",32,,word,SMART,,,,,,,,,,,,
html-keyboard-response,94,170516,null,"",null,,word,SMART,,,,,,,,,,,,
html-keyboard-response,95,170721,null,"<div style=""font-size:42px;"">SMOOTH</div><img id = ""stim"" ><div class = green_square id = ""bottomsquare"" ></div>",null,practice2,word_square,,prac_response,1,Bottom,32,true,,,,,,,
html-keyboard-response,96,171024,88.09999999403954,"<div style=""font-size:42px;"">SMOOTH</div>",32,,word,SMOOTH,,,,,,,,,,,,
html-keyboard-response,97,172526,null,"",null,,word,SMOOTH,,,,,,,,,,,,
html-keyboard-response,98,172731,null,"<div style=""font-size:42px;"">DISHONEST</div><img id = ""stim"" ><div class = red_square id = ""bottomsquare"" ></div>",null,practice2,word_square,DISHONEST,prac_response,0,Bottom,none,true,,,,,,,
html-keyboard-response,99,173036,null,"<div style=""font-size:42px;"">DISHONEST</div>",null,,word,DISHONEST,,,,,,,,,,,,
html-keyboard-response,100,174538,null,"",null,,word,DISHONEST,,,,,,,,,,,,
html-keyboard-response,101,174744,null,"<div style=""font-size:42px;"">WEALTHY</div><img id = ""stim"" ><div class = green_square id = ""topsquare"" ></div>",null,practice2,word_square,,prac_response,1,Top,32,true,,,,,,,
html-keyboard-response,102,175048,164.69999999552965,"<div style=""font-size:42px;"">WEALTHY</div>",32,,word,WEALTHY,,,,,,,,,,,,
html-keyboard-response,103,176552,null,"",null,,word,WEALTHY,,,,,,,,,,,,
html-keyboard-response,104,176757,null,"<div style=""font-size:42px;"">BEAUTIFUL</div><img id = ""stim"" ><div class = red_square id = ""topsquare"" ></div>",null,practice2,word_square,,prac_response,0,Top,none,false,,,,,,,
html-keyboard-response,105,177060,null,"<div style=""font-size:42px;"">BEAUTIFUL</div>",null,,word,BEAUTIFUL,,,,,,,,,,,,
html-keyboard-response,106,178562,null,"",null,,word,BEAUTIFUL,,,,,,,,,,,,
html-keyboard-response,107,184059,5495.60000000149,"<p> Good job! You responded correctly to 94% of the trials. </p>
                    <p>Be sure to only press the spacebar if you see a GREEN square, and please keep your accuracy above 80%.</p>
                    <p>Press any key to begin the math and recall sections. Thank you! </p>",32,,,,,,,,,,,,,,,
call-function,108,184061,,"",,,,,,,,,,,,,,,,
html-keyboard-response,109,184163,null,"",null,,,,,,,,,,,,,,,
math-period,110,187491,5979.5999999940395,"",,,,,,,,,,,4,,,,,
html-keyboard-response,111,187593,null,"",null,,,,,,,,,,,,,,,
math-period,112,189899,4287.60000000149,"",,,,,,,,,,,4,,,,,
html-keyboard-response,113,190001,null,"",null,,,,,,,,,,,,,,,
math-period,114,196651,13120.90000000596,"",,,,,,,,,,,0,,,,,
html-keyboard-response,115,196753,null,"",null,,,,,,,,,,,,,,,
math-period,116,200084,11196.800000011921,"",,,,,,,,,,,3,,,,,
html-keyboard-response,117,200185,null,"",null,,,,,,,,,,,,,,,
math-period,118,202795,4847.5999999940395,"",,,,,,,,,,,5,,,,,
html-keyboard-response,119,202897,null,"",null,,,,,,,,,,,,,,,
math-period,120,205203,4399.999999992549,"",,,,,,,,,,,4,,,,,
html-keyboard-response,121,205305,null,"",null,,,,,,,,,,,,,,,
math-period,122,207259,3729.5000000074506,"",,,,,,,,,,,5,,,,,
html-keyboard-response,123,207362,null,"",null,,,,,,,,,,,,,,,
math-period,124,208062,null,"",,,,,,,,,,,,,,,,
html-keyboard-response,125,209066,null,"Recall Period!",null,,,,,,,,,,,,,,,
call-function,126,209067,,"",,,,,,,,,,,,,,,,
html-keyboard-response,127,209173,null,"",null,,,,,,,,,,,,,,,
recall-period,128,216067,65568.10000003129,"",,,,,,,,,,,entertaining,,,,,
html-keyboard-response,129,216172,null,"",null,,,,,,,,,,,,,,,
recall-period,130,218869,8612.89999999851,"",,,,,,,,,,,scary,,,,,
html-keyboard-response,131,218970,null,"",null,,,,,,,,,,,,,,,
recall-period,132,220995,7216.60000000149,"",,,,,,,,,,,happy,,,,,
html-keyboard-response,133,221098,null,"",null,,,,,,,,,,,,,,,
recall-period,134,222160,2555,"",,,,,,,,,,,cold,,,,,
html-keyboard-response,135,222263,null,"",null,,,,,,,,,,,,,,,
recall-period,136,228508,33227.0000000149,"",,,,,,,,,,,heavy,,,,,
html-keyboard-response,137,228612,null,"",null,,,,,,,,,,,,,,,
recall-period,138,231211,7954.999999992549,"",,,,,,,,,,,loud,,,,,
html-keyboard-response,139,231314,null,"",null,,,,,,,,,,,,,,,
recall-period,140,238740,41232.70000000298,"",,,,,,,,,,,tired,,,,,
html-keyboard-response,141,238844,null,"",null,,,,,,,,,,,,,,,
recall-period,142,248483,52584.29999998957,"",,,,,,,,,,,chill,,,,,
html-keyboard-response,143,248586,null,"",null,,,,,,,,,,,,,,,
recall-period,144,284073,null,"",,,,,,,,,,,,,,,,
html-keyboard-response,145,284576,null,"Time's Up!",null,,,,,,,,,,,,,,,
html-keyboard-response,146,288061,3484.39999999851,"<p>We will now begin the experiment!<p><p>Please try to remember all words from each list.<p><p>Press the spacebar whenever you see a GREEN square.<p><p><p><p>Press the spacebar to begin.</p>",32,,,,,,,,,,,,,,,
html-keyboard-response,147,290024,1461.2000000029802,"<div style=""font-size:48px;"">Press any key to begin list 1 of 16 </div>",32,,,,,,,,,,,,,,,
html-keyboard-response,148,292527,null,"<div style=""font-size:60px;"">+</div>",null,,,,,,,,,,,,,,,
html-keyboard-response,149,292733,null,"<div style=""font-size:42px;"">MUSHROOM</div><img id = ""stim"" ><div class = green_square id = topsquare></div>",null,encoding,word_square,,,1,topsquare,32,true,,,MUSHROOM,0,,,
html-keyboard-response,150,293040,null,"<div style=""font-size:42px;"">MUSHROOM</div>",null,,word,MUSHROOM,,,,,,,,,,,,
html-keyboard-response,151,294543,115.29999999701977,"",32,,word,MUSHROOM,,,,,,,,,,,,
html-keyboard-response,152,294748,null,"<div style=""font-size:42px;"">BEAKER</div><img id = ""stim"" ><div class = red_square id = bottomsquare></div>",null,encoding,word_square,,,0,bottomsquare,none,true,,,BEAKER,0,,,
html-keyboard-response,153,295054,null,"<div style=""font-size:42px;"">BEAKER</div>",null,,word,BEAKER,,,,,,,,,,,,
html-keyboard-response,154,296557,null,"",null,,word,BEAKER,,,,,,,,,,,,
html-keyboard-response,155,296759,null,"<div style=""font-size:42px;"">COBWEB</div><img id = ""stim"" ><div class = red_square id = topsquare></div>",null,encoding,word_square,,,0,topsquare,none,true,,,COBWEB,0,,,
html-keyboard-response,156,297062,null,"<div style=""font-size:42px;"">COBWEB</div>",null,,word,COBWEB,,,,,,,,,,,,
html-keyboard-response,157,298564,null,"",null,,word,COBWEB,,,,,,,,,,,,
html-keyboard-response,158,298770,null,"<div style=""font-size:42px;"">CREATURE</div><img id = ""stim"" ><div class = green_square id = bottomsquare></div>",null,encoding,word_square,,,1,bottomsquare,32,true,,,CREATURE,0,,,
html-keyboard-response,159,299076,156.79999999701977,"<div style=""font-size:42px;"">CREATURE</div>",32,,word,CREATURE,,,,,,,,,,,,
html-keyboard-response,160,300579,null,"",null,,word,CREATURE,,,,,,,,,,,,
html-keyboard-response,161,300784,null,"<div style=""font-size:42px;"">MARINE</div><img id = ""stim"" ><div class = red_square id = bottomsquare></div>",null,encoding,word_square,,,0,bottomsquare,none,true,,,MARINE,0,,,
html-keyboard-response,162,301087,null,"<div style=""font-size:42px;"">MARINE</div>",null,,word,MARINE,,,,,,,,,,,,
html-keyboard-response,163,302590,null,"",null,,word,MARINE,,,,,,,,,,,,
html-keyboard-response,164,302793,null,"<div style=""font-size:42px;"">RAFT</div><img id = ""stim"" ><div class = red_square id = topsquare></div>",null,encoding,word_square,,,0,topsquare,none,true,,,RAFT,0,,,
html-keyboard-response,165,303096,null,"<div style=""font-size:42px;"">RAFT</div>",null,,word,RAFT,,,,,,,,,,,,
html-keyboard-response,166,304598,null,"",null,,word,RAFT,,,,,,,,,,,,
html-keyboard-response,167,304803,null,"<div style=""font-size:42px;"">SOFTBALL</div><img id = ""stim"" ><div class = green_square id = topsquare></div>",null,encoding,word_square,,,1,topsquare,32,true,,,SOFTBALL,0,,,
html-keyboard-response,168,305109,152.5,"<div style=""font-size:42px;"">SOFTBALL</div>",32,,word,SOFTBALL,,,,,,,,,,,,
html-keyboard-response,169,306610,null,"",null,,word,SOFTBALL,,,,,,,,,,,,
html-keyboard-response,170,306814,null,"<div style=""font-size:42px;"">CRICKET</div><img id = ""stim"" ><div class = green_square id = bottomsquare></div>",null,encoding,word_square,,,1,bottomsquare,32,true,,,CRICKET,0,,,
html-keyboard-response,171,307118,null,"<div style=""font-size:42px;"">CRICKET</div>",null,,word,CRICKET,,,,,,,,,,,,
html-keyboard-response,172,308621,103.80000000447035,"",32,,word,CRICKET,,,,,,,,,,,,
html-keyboard-response,173,308826,null,"<div style=""font-size:42px;"">LOVER</div><img id = ""stim"" ><div class = green_square id = topsquare></div>",null,encoding,word_square,,,1,topsquare,32,true,,,LOVER,0,,,
html-keyboard-response,174,309130,161.80000000447035,"<div style=""font-size:42px;"">LOVER</div>",32,,word,LOVER,,,,,,,,,,,,
html-keyboard-response,175,310634,null,"",null,,word,LOVER,,,,,,,,,,,,
html-keyboard-response,176,310837,null,"<div style=""font-size:42px;"">NIGHTGOWN</div><img id = ""stim"" ><div class = red_square id = bottomsquare></div>",null,encoding,word_square,,,0,bottomsquare,none,true,,,NIGHTGOWN,0,,,
html-keyboard-response,177,311142,null,"<div style=""font-size:42px;"">NIGHTGOWN</div>",null,,word,NIGHTGOWN,,,,,,,,,,,,
html-keyboard-response,178,312644,null,"",null,,word,NIGHTGOWN,,,,,,,,,,,,
html-keyboard-response,179,312852,null,"<div style=""font-size:42px;"">LION</div><img id = ""stim"" ><div class = green_square id = bottomsquare></div>",null,encoding,word_square,,,1,bottomsquare,32,true,,,LION,0,,,
html-keyboard-response,180,313159,226.60000000149012,"<div style=""font-size:42px;"">LION</div>",32,,word,LION,,,,,,,,,,,,
html-keyboard-response,181,314664,null,"",null,,word,LION,,,,,,,,,,,,
html-keyboard-response,182,314868,null,"<div style=""font-size:42px;"">LAVA</div><img id = ""stim"" ><div class = red_square id = topsquare></div>",null,encoding,word_square,,,0,topsquare,none,true,,,LAVA,0,,,
html-keyboard-response,183,315173,null,"<div style=""font-size:42px;"">LAVA</div>",null,,word,LAVA,,,,,,,,,,,,
html-keyboard-response,184,316675,null,"",null,,word,LAVA,,,,,,,,,,,,
html-keyboard-response,185,316882,null,"<div style=""font-size:42px;"">BLOSSOM</div><img id = ""stim"" ><div class = red_square id = bottomsquare></div>",null,encoding,word_square,,,0,bottomsquare,none,true,,,BLOSSOM,0,,,
html-keyboard-response,186,317185,null,"<div style=""font-size:42px;"">BLOSSOM</div>",null,,word,BLOSSOM,,,,,,,,,,,,
html-keyboard-response,187,318687,null,"",null,,word,BLOSSOM,,,,,,,,,,,,
html-keyboard-response,188,318891,null,"<div style=""font-size:42px;"">SHACK</div><img id = ""stim"" ><div class = green_square id = topsquare></div>",null,encoding,word_square,,,1,topsquare,32,true,,,SHACK,0,,,
html-keyboard-response,189,319193,144.20000000298023,"<div style=""font-size:42px;"">SHACK</div>",32,,word,SHACK,,,,,,,,,,,,
html-keyboard-response,190,320695,null,"",null,,word,SHACK,,,,,,,,,,,,
html-keyboard-response,191,320898,null,"<div style=""font-size:42px;"">LAKE</div><img id = ""stim"" ><div class = green_square id = bottomsquare></div>",null,encoding,word_square,,,1,bottomsquare,32,true,,,LAKE,0,,,
html-keyboard-response,192,321202,123.39999999850988,"<div style=""font-size:42px;"">LAKE</div>",32,,word,LAKE,,,,,,,,,,,,
html-keyboard-response,193,322706,null,"",null,,word,LAKE,,,,,,,,,,,,
html-keyboard-response,194,322909,null,"<div style=""font-size:42px;"">BASEBALL</div><img id = ""stim"" ><div class = red_square id = topsquare></div>",null,encoding,word_square,,,0,topsquare,none,true,,,BASEBALL,0,,,
html-keyboard-response,195,323212,null,"<div style=""font-size:42px;"">BASEBALL</div>",null,,word,BASEBALL,,,,,,,,,,,,
html-keyboard-response,196,324715,null,"",null,,word,BASEBALL,,,,,,,,,,,,
call-function,197,324717,,"",,,,,,,,,,,,,,,,
html-keyboard-response,198,324819,null,"",null,,,,,,,,,,,,,,,
math-period,199,328949,10120.79999998957,"",,,,,,,,,,,5,,,,,
html-keyboard-response,200,329052,null,"",null,,,,,,,,,,,,,,,
math-period,201,332396,6446.000000007451,"",,,,,,,,,,,1,,,,,
html-keyboard-response,202,332499,null,"",null,,,,,,,,,,,,,,,
math-period,203,335437,5688.19999999553,"",,,,,,,,,,,2,,,,,
html-keyboard-response,204,335544,null,"",null,,,,,,,,,,,,,,,
math-period,205,337677,3391,"",,,,,,,,,,,3,,,,,
html-keyboard-response,206,337783,null,"",null,,,,,,,,,,,,,,,
math-period,207,340005,3865.8000000044703,"",,,,,,,,,,,3,,,,,
html-keyboard-response,208,340107,null,"",null,,,,,,,,,,,,,,,
math-period,209,342429,4128.5999999940395,"",,,,,,,,,,,4,,,,,
html-keyboard-response,210,342533,null,"",null,,,,,,,,,,,,,,,
math-period,211,345165,4869.5,"",,,,,,,,,,,3,,,,,
html-keyboard-response,212,345267,null,"",null,,,,,,,,,,,,,,,
math-period,213,348722,null,"",,,,,,,,,,,,,,,,
html-keyboard-response,214,349724,null,"Recall Period!",null,,,,,,,,,,,,,,,
call-function,215,349725,,"",,,,,,,,,,,,,,,,
html-keyboard-response,216,349831,null,"",null,,,,,,,,,,,,,,,
recall-period,217,354037,15558.999999985099,"",,,,,,,,,,,blossom,,,,,
html-keyboard-response,218,354140,null,"",null,,,,,,,,,,,,,,,
recall-period,219,357744,21514.999999970198,"",,,,,,,,,,,baseball,,,,,
html-keyboard-response,220,357847,null,"",null,,,,,,,,,,,,,,,
recall-period,221,360781,13440.5,"",,,,,,,,,,,cobweb,,,,,
html-keyboard-response,222,360887,null,"",null,,,,,,,,,,,,,,,
recall-period,223,366542,53082.79999998957,"",,,,,,,,,,,cricket,,,,,
html-keyboard-response,224,366647,null,"",null,,,,,,,,,,,,,,,
recall-period,225,368382,5519.499999977648,"",,,,,,,,,,,lover,,,,,
html-keyboard-response,226,368486,null,"",null,,,,,,,,,,,,,,,
recall-period,227,371485,11112.49999999255,"",,,,,,,,,,,mushroom,,,,,
html-keyboard-response,228,371590,null,"",null,,,,,,,,,,,,,,,
recall-period,229,393726,108003.79999998212,"",,,,,,,,,,,sail,,,,,
html-keyboard-response,230,393831,null,"",null,,,,,,,,,,,,,,,
recall-period,231,403510,45575.39999999106,"",,,,,,,,,,,lava,,,,,
html-keyboard-response,232,403614,null,"",null,,,,,,,,,,,,,,,
recall-period,233,424730,null,"",,,,,,,,,,,,,,,,
html-keyboard-response,234,425234,null,"Time's Up!",null,,,,,,,,,,,,,,,
html-keyboard-response,235,427703,2467,"<p> Good job! You have responded correctly to 100% of the trials. </p>
                      <p>Be sure to only press the spacebar if you see a GREEN square, and please keep your accuracy above 80%.</p>
                      <p> Press any key to continue the experiment. </p>",32,,,,,,,,,,,,,,,
html-keyboard-response,236,431753,4048.7999999970198,"<div style=""font-size:48px;"">Press any key to begin list 2 of 16 </div>",32,,,,,,,,,,,,,,,
html-keyboard-response,237,434265,null,"<div style=""font-size:60px;"">+</div>",null,,,,,,,,,,,,,,,
html-keyboard-response,238,434470,null,"<div style=""font-size:42px;"">HORSE</div><img id = ""stim"" ><div class = red_square id = topsquare></div>",null,encoding,word_square,,,0,topsquare,none,false,,,HORSE,1,,,
html-keyboard-response,239,434772,null,"<div style=""font-size:42px;"">HORSE</div>",null,,word,HORSE,,,,,,,,,,,,
html-keyboard-response,240,436276,216.70000000298023,"",32,,word,HORSE,,,,,,,,,,,,
html-keyboard-response,241,436480,null,"<div style=""font-size:42px;"">FIELD</div><img id = ""stim"" ><div class = green_square id = bottomsquare></div>",null,encoding,word_square,,,1,bottomsquare,32,true,,,FIELD,1,,,
html-keyboard-response,242,436782,142.89999999850988,"<div style=""font-size:42px;"">FIELD</div>",32,,word,FIELD,,,,,,,,,,,,
html-keyboard-response,243,438284,null,"",null,,word,FIELD,,,,,,,,,,,,
html-keyboard-response,244,438486,null,"<div style=""font-size:42px;"">BARLEY</div><img id = ""stim"" ><div class = green_square id = topsquare></div>",null,encoding,word_square,,,1,topsquare,32,true,,,BARLEY,1,,,
html-keyboard-response,245,438788,230.70000000298023,"<div style=""font-size:42px;"">BARLEY</div>",32,,word,BARLEY,,,,,,,,,,,,
html-keyboard-response,246,440292,null,"",null,,word,BARLEY,,,,,,,,,,,,
html-keyboard-response,247,440497,null,"<div style=""font-size:42px;"">HELMET</div><img id = ""stim"" ><div class = red_square id = bottomsquare></div>",null,encoding,word_square,,,0,bottomsquare,none,true,,,HELMET,1,,,
html-keyboard-response,248,440798,null,"<div style=""font-size:42px;"">HELMET</div>",null,,word,HELMET,,,,,,,,,,,,
html-keyboard-response,249,442301,null,"",null,,word,HELMET,,,,,,,,,,,,
html-keyboard-response,250,442503,null,"<div style=""font-size:42px;"">PEDAL</div><img id = ""stim"" ><div class = red_square id = topsquare></div>",null,encoding,word_square,,,0,topsquare,none,true,,,PEDAL,1,,,
html-keyboard-response,251,442806,null,"<div style=""font-size:42px;"">PEDAL</div>",null,,word,PEDAL,,,,,,,,,,,,
html-keyboard-response,252,444313,null,"",null,,word,PEDAL,,,,,,,,,,,,
html-keyboard-response,253,444516,null,"<div style=""font-size:42px;"">ROBIN</div><img id = ""stim"" ><div class = green_square id = bottomsquare></div>",null,encoding,word_square,,,1,bottomsquare,32,true,,,ROBIN,1,,,
html-keyboard-response,254,444820,212.29999999701977,"<div style=""font-size:42px;"">ROBIN</div>",32,,word,ROBIN,,,,,,,,,,,,
html-keyboard-response,255,446322,null,"",null,,word,ROBIN,,,,,,,,,,,,
html-keyboard-response,256,446526,null,"<div style=""font-size:42px;"">POND</div><img id = ""stim"" ><div class = red_square id = bottomsquare></div>",null,encoding,word_square,,,0,bottomsquare,none,true,,,POND,1,,,
html-keyboard-response,257,446828,null,"<div style=""font-size:42px;"">POND</div>",null,,word,POND,,,,,,,,,,,,
html-keyboard-response,258,448330,null,"",null,,word,POND,,,,,,,,,,,,
html-keyboard-response,259,448532,null,"<div style=""font-size:42px;"">BRANDY</div><img id = ""stim"" ><div class = green_square id = topsquare></div>",null,encoding,word_square,,,1,topsquare,32,true,,,BRANDY,1,,,
html-keyboard-response,260,448834,193.19999999552965,"<div style=""font-size:42px;"">BRANDY</div>",32,,word,BRANDY,,,,,,,,,,,,
html-keyboard-response,261,450342,null,"",null,,word,BRANDY,,,,,,,,,,,,
html-keyboard-response,262,450546,null,"<div style=""font-size:42px;"">STREAM</div><img id = ""stim"" ><div class = green_square id = bottomsquare></div>",null,encoding,word_square,,,1,bottomsquare,32,true,,,STREAM,1,,,
html-keyboard-response,263,450854,174.30000000447035,"<div style=""font-size:42px;"">STREAM</div>",32,,word,STREAM,,,,,,,,,,,,
html-keyboard-response,264,452357,null,"",null,,word,STREAM,,,,,,,,,,,,
html-keyboard-response,265,452560,null,"<div style=""font-size:42px;"">KNAPSACK</div><img id = ""stim"" ><div class = green_square id = topsquare></div>",null,encoding,word_square,,,1,topsquare,32,true,,,KNAPSACK,1,,,
html-keyboard-response,266,452866,null,"<div style=""font-size:42px;"">KNAPSACK</div>",null,,word,KNAPSACK,,,,,,,,,,,,
html-keyboard-response,267,454371,114.5,"",32,,word,KNAPSACK,,,,,,,,,,,,
html-keyboard-response,268,454577,null,"<div style=""font-size:42px;"">FRECKLE</div><img id = ""stim"" ><div class = red_square id = topsquare></div>",null,encoding,word_square,,,0,topsquare,none,true,,,FRECKLE,1,,,
html-keyboard-response,269,454881,null,"<div style=""font-size:42px;"">FRECKLE</div>",null,,word,FRECKLE,,,,,,,,,,,,
html-keyboard-response,270,456384,null,"",null,,word,FRECKLE,,,,,,,,,,,,
html-keyboard-response,271,456588,null,"<div style=""font-size:42px;"">PEOPLE</div><img id = ""stim"" ><div class = red_square id = bottomsquare></div>",null,encoding,word_square,,,0,bottomsquare,none,true,,,PEOPLE,1,,,
html-keyboard-response,272,456892,null,"<div style=""font-size:42px;"">PEOPLE</div>",null,,word,PEOPLE,,,,,,,,,,,,
html-keyboard-response,273,458395,null,"",null,,word,PEOPLE,,,,,,,,,,,,
html-keyboard-response,274,458597,null,"<div style=""font-size:42px;"">POLICE</div><img id = ""stim"" ><div class = green_square id = bottomsquare></div>",null,encoding,word_square,,,1,bottomsquare,32,true,,,POLICE,1,,,
html-keyboard-response,275,458898,211.89999999850988,"<div style=""font-size:42px;"">POLICE</div>",32,,word,POLICE,,,,,,,,,,,,
html-keyboard-response,276,460404,null,"",null,,word,POLICE,,,,,,,,,,,,
html-keyboard-response,277,460611,null,"<div style=""font-size:42px;"">SUSPECT</div><img id = ""stim"" ><div class = red_square id = topsquare></div>",null,encoding,word_square,,,0,topsquare,none,true,,,SUSPECT,1,,,
html-keyboard-response,278,460913,null,"<div style=""font-size:42px;"">SUSPECT</div>",null,,word,SUSPECT,,,,,,,,,,,,
html-keyboard-response,279,462415,null,"",null,,word,SUSPECT,,,,,,,,,,,,
html-keyboard-response,280,462622,null,"<div style=""font-size:42px;"">DIVER</div><img id = ""stim"" ><div class = red_square id = bottomsquare></div>",null,encoding,word_square,,,0,bottomsquare,none,true,,,DIVER,1,,,
html-keyboard-response,281,462929,null,"<div style=""font-size:42px;"">DIVER</div>",null,,word,DIVER,,,,,,,,,,,,
html-keyboard-response,282,464433,null,"",null,,word,DIVER,,,,,,,,,,,,
html-keyboard-response,283,464640,null,"<div style=""font-size:42px;"">LOBBY</div><img id = ""stim"" ><div class = green_square id = topsquare></div>",null,encoding,word_square,,,1,topsquare,32,true,,,LOBBY,1,,,
html-keyboard-response,284,464946,246.29999999701977,"<div style=""font-size:42px;"">LOBBY</div>",32,,word,LOBBY,,,,,,,,,,,,
html-keyboard-response,285,466450,null,"",null,,word,LOBBY,,,,,,,,,,,,
call-function,286,466451,,"",,,,,,,,,,,,,,,,
html-keyboard-response,287,466555,null,"",null,,,,,,,,,,,,,,,
math-period,288,468959,4340.5999999940395,"",,,,,,,,,,,4,,,,,
html-keyboard-response,289,469062,null,"",null,,,,,,,,,,,,,,,
math-period,290,471279,4046.2000000029802,"",,,,,,,,,,,4,,,,,
html-keyboard-response,291,471382,null,"",null,,,,,,,,,,,,,,,
math-period,292,475439,14407.599999986589,"",,,,,,,,,,,2,,,,,
html-keyboard-response,293,475542,null,"",null,,,,,,,,,,,,,,,
math-period,294,477439,3543.4000000059605,"",,,,,,,,,,,4,,,,,
html-keyboard-response,295,477542,null,"",null,,,,,,,,,,,,,,,
math-period,296,479007,2607.89999999851,"",,,,,,,,,,,2,,,,,
html-keyboard-response,297,479110,null,"",null,,,,,,,,,,,,,,,
math-period,298,483391,8342.20000000298,"",,,,,,,,,,,3,,,,,
html-keyboard-response,299,483495,null,"",null,,,,,,,,,,,,,,,
math-period,300,485703,4060.89999999851,"",,,,,,,,,,,5,,,,,
html-keyboard-response,301,485808,null,"",null,,,,,,,,,,,,,,,
math-period,302,488279,4546,"",,,,,,,,,,,5,,,,,
html-keyboard-response,303,488385,null,"",null,,,,,,,,,,,,,,,
math-period,304,490351,3464.89999999851,"",,,,,,,,,,,3,,,,,
html-keyboard-response,305,490454,null,"",null,,,,,,,,,,,,,,,
math-period,306,490456,null,"",,,,,,,,,,,,,,,,
html-keyboard-response,307,491461,null,"Recall Period!",null,,,,,,,,,,,,,,,
call-function,308,491463,,"",,,,,,,,,,,,,,,,
html-keyboard-response,309,491564,null,"",null,,,,,,,,,,,,,,,
recall-period,310,495111,19584.99999999255,"",,,,,,,,,,,police,,,,,
html-keyboard-response,311,495213,null,"",null,,,,,,,,,,,,,,,
recall-period,312,497463,9256.899999983609,"",,,,,,,,,,,suspect,,,,,
html-keyboard-response,313,497565,null,"",null,,,,,,,,,,,,,,,
recall-period,314,498719,3609,"",,,,,,,,,,,people,,,,,
html-keyboard-response,315,498823,null,"",null,,,,,,,,,,,,,,,
recall-period,316,500375,3834.2999999970198,"",,,,,,,,,,,diver,,,,,
html-keyboard-response,317,500478,null,"",null,,,,,,,,,,,,,,,
recall-period,318,503303,15391.69999999553,"",,,,,,,,,,,freckle,,,,,
html-keyboard-response,319,503409,null,"",null,,,,,,,,,,,,,,,
recall-period,320,506447,16324.39999999106,"",,,,,,,,,,,knapsack,,,,,
html-keyboard-response,321,506553,null,"",null,,,,,,,,,,,,,,,
recall-period,322,511112,27156.89999999851,"",,,,,,,,,,,stream,,,,,
html-keyboard-response,323,511214,null,"",null,,,,,,,,,,,,,,,
recall-period,324,512488,3488.7999999970198,"",,,,,,,,,,,pond,,,,,
html-keyboard-response,325,512593,null,"",null,,,,,,,,,,,,,,,
recall-period,326,566470,null,"",,,,,,,,,,,,,,,,
html-keyboard-response,327,566977,null,"Time's Up!",null,,,,,,,,,,,,,,,
html-keyboard-response,328,570793,3813.7000000029802,"<p> Good job! You have responded correctly to 97% of the trials. </p>
                      <p>Be sure to only press the spacebar if you see a GREEN square, and please keep your accuracy above 80%.</p>
                      <p> Press any key to continue the experiment. </p>",32,,,,,,,,,,,,,,,
html-keyboard-response,329,571683,889.3000000044703,"<div style=""font-size:48px;"">Press any key to begin list 3 of 16 </div>",32,,,,,,,,,,,,,,,
html-keyboard-response,330,574190,null,"<div style=""font-size:60px;"">+</div>",null,,,,,,,,,,,,,,,
html-keyboard-response,331,574396,null,"<div style=""font-size:42px;"">DOCK</div><img id = ""stim"" ><div class = red_square id = bottomsquare></div>",null,encoding,word_square,,,0,bottomsquare,none,true,,,DOCK,2,,,
html-keyboard-response,332,574703,null,"<div style=""font-size:42px;"">DOCK</div>",null,,word,DOCK,,,,,,,,,,,,
html-keyboard-response,333,576206,null,"",null,,word,DOCK,,,,,,,,,,,,
html-keyboard-response,334,576413,null,"<div style=""font-size:42px;"">CITRUS</div><img id = ""stim"" ><div class = green_square id = topsquare></div>",null,encoding,word_square,,,1,topsquare,32,true,,,CITRUS,2,,,
html-keyboard-response,335,576720,null,"<div style=""font-size:42px;"">CITRUS</div>",null,,word,CITRUS,,,,,,,,,,,,
html-keyboard-response,336,578222,14.5,"",32,,word,CITRUS,,,,,,,,,,,,
html-keyboard-response,337,578426,null,"<div style=""font-size:42px;"">NURSE</div><img id = ""stim"" ><div class = green_square id = bottomsquare></div>",null,encoding,word_square,,,1,bottomsquare,32,true,,,NURSE,2,,,
html-keyboard-response,338,578728,null,"<div style=""font-size:42px;"">NURSE</div>",null,,word,NURSE,,,,,,,,,,,,
html-keyboard-response,339,580230,148.40000000596046,"",32,,word,NURSE,,,,,,,,,,,,
html-keyboard-response,340,580436,null,"<div style=""font-size:42px;"">CONVICT</div><img id = ""stim"" ><div class = red_square id = topsquare></div>",null,encoding,word_square,,,0,topsquare,none,true,,,CONVICT,2,,,
html-keyboard-response,341,580740,null,"<div style=""font-size:42px;"">CONVICT</div>",null,,word,CONVICT,,,,,,,,,,,,
html-keyboard-response,342,582243,null,"",null,,word,CONVICT,,,,,,,,,,,,
html-keyboard-response,343,582448,null,"<div style=""font-size:42px;"">CRAB</div><img id = ""stim"" ><div class = green_square id = topsquare></div>",null,encoding,word_square,,,1,topsquare,32,true,,,CRAB,2,,,
html-keyboard-response,344,582756,238.70000000298023,"<div style=""font-size:42px;"">CRAB</div>",32,,word,CRAB,,,,,,,,,,,,
html-keyboard-response,345,584260,null,"",null,,word,CRAB,,,,,,,,,,,,
html-keyboard-response,346,584468,null,"<div style=""font-size:42px;"">SCAPEGOAT</div><img id = ""stim"" ><div class = green_square id = bottomsquare></div>",null,encoding,word_square,,,1,bottomsquare,32,true,,,SCAPEGOAT,2,,,
html-keyboard-response,347,584774,165.39999999850988,"<div style=""font-size:42px;"">SCAPEGOAT</div>",32,,word,SCAPEGOAT,,,,,,,,,,,,
html-keyboard-response,348,586277,null,"",null,,word,SCAPEGOAT,,,,,,,,,,,,
html-keyboard-response,349,586484,null,"<div style=""font-size:42px;"">OZONE</div><img id = ""stim"" ><div class = red_square id = bottomsquare></div>",null,encoding,word_square,,,0,bottomsquare,none,true,,,OZONE,2,,,
html-keyboard-response,350,586790,null,"<div style=""font-size:42px;"">OZONE</div>",null,,word,OZONE,,,,,,,,,,,,
html-keyboard-response,351,588292,null,"",null,,word,OZONE,,,,,,,,,,,,
html-keyboard-response,352,588500,null,"<div style=""font-size:42px;"">PLUM</div><img id = ""stim"" ><div class = red_square id = topsquare></div>",null,encoding,word_square,,,0,topsquare,none,true,,,PLUM,2,,,
html-keyboard-response,353,588807,null,"<div style=""font-size:42px;"">PLUM</div>",null,,word,PLUM,,,,,,,,,,,,
html-keyboard-response,354,590309,null,"",null,,word,PLUM,,,,,,,,,,,,
html-keyboard-response,355,590512,null,"<div style=""font-size:42px;"">SIDEWALK</div><img id = ""stim"" ><div class = red_square id = bottomsquare></div>",null,encoding,word_square,,,0,bottomsquare,none,true,,,SIDEWALK,2,,,
html-keyboard-response,356,590814,null,"<div style=""font-size:42px;"">SIDEWALK</div>",null,,word,SIDEWALK,,,,,,,,,,,,
html-keyboard-response,357,592318,null,"",null,,word,SIDEWALK,,,,,,,,,,,,
html-keyboard-response,358,592523,null,"<div style=""font-size:42px;"">TRIBE</div><img id = ""stim"" ><div class = green_square id = topsquare></div>",null,encoding,word_square,,,1,topsquare,32,true,,,TRIBE,2,,,
html-keyboard-response,359,592827,236.30000000447035,"<div style=""font-size:42px;"">TRIBE</div>",32,,word,TRIBE,,,,,,,,,,,,
html-keyboard-response,360,594330,null,"",null,,word,TRIBE,,,,,,,,,,,,
html-keyboard-response,361,594537,null,"<div style=""font-size:42px;"">COWBOY</div><img id = ""stim"" ><div class = red_square id = topsquare></div>",null,encoding,word_square,,,0,topsquare,none,true,,,COWBOY,2,,,
html-keyboard-response,362,594842,null,"<div style=""font-size:42px;"">COWBOY</div>",null,,word,COWBOY,,,,,,,,,,,,
html-keyboard-response,363,596346,null,"",null,,word,COWBOY,,,,,,,,,,,,
html-keyboard-response,364,596551,null,"<div style=""font-size:42px;"">EUROPE</div><img id = ""stim"" ><div class = green_square id = bottomsquare></div>",null,encoding,word_square,,,1,bottomsquare,32,true,,,EUROPE,2,,,
html-keyboard-response,365,596857,219.59999999403954,"<div style=""font-size:42px;"">EUROPE</div>",32,,word,EUROPE,,,,,,,,,,,,
html-keyboard-response,366,598359,null,"",null,,word,EUROPE,,,,,,,,,,,,
html-keyboard-response,367,598565,null,"<div style=""font-size:42px;"">SALAD</div><img id = ""stim"" ><div class = green_square id = topsquare></div>",null,encoding,word_square,,,1,topsquare,32,true,,,SALAD,2,,,
html-keyboard-response,368,598868,185.80000000447035,"<div style=""font-size:42px;"">SALAD</div>",32,,word,SALAD,,,,,,,,,,,,
html-keyboard-response,369,600371,null,"",null,,word,SALAD,,,,,,,,,,,,
html-keyboard-response,370,600577,null,"<div style=""font-size:42px;"">STALLION</div><img id = ""stim"" ><div class = red_square id = bottomsquare></div>",null,encoding,word_square,,,0,bottomsquare,none,true,,,STALLION,2,,,
html-keyboard-response,371,600881,null,"<div style=""font-size:42px;"">STALLION</div>",null,,word,STALLION,,,,,,,,,,,,
html-keyboard-response,372,602383,null,"",null,,word,STALLION,,,,,,,,,,,,
html-keyboard-response,373,602588,null,"<div style=""font-size:42px;"">SADDLE</div><img id = ""stim"" ><div class = red_square id = topsquare></div>",null,encoding,word_square,,,0,topsquare,none,true,,,SADDLE,2,,,
html-keyboard-response,374,602895,null,"<div style=""font-size:42px;"">SADDLE</div>",null,,word,SADDLE,,,,,,,,,,,,
html-keyboard-response,375,604398,null,"",null,,word,SADDLE,,,,,,,,,,,,
html-keyboard-response,376,604605,null,"<div style=""font-size:42px;"">ZEBRA</div><img id = ""stim"" ><div class = green_square id = bottomsquare></div>",null,encoding,word_square,,,1,bottomsquare,32,true,,,ZEBRA,2,,,
html-keyboard-response,377,604911,221,"<div style=""font-size:42px;"">ZEBRA</div>",32,,word,ZEBRA,,,,,,,,,,,,
html-keyboard-response,378,606413,null,"",null,,word,ZEBRA,,,,,,,,,,,,
call-function,379,606414,,"",,,,,,,,,,,,,,,,
html-keyboard-response,380,606517,null,"",null,,,,,,,,,,,,,,,
math-period,381,610283,7175.5,"",,,,,,,,,,,2,,,,,
html-keyboard-response,382,610389,null,"",null,,,,,,,,,,,,,,,
math-period,383,612017,2948.2999999970198,"",,,,,,,,,,,3,,,,,
html-keyboard-response,384,612122,null,"",null,,,,,,,,,,,,,,,
math-period,385,614177,3849.4000000059605,"",,,,,,,,,,,5,,,,,
html-keyboard-response,386,614279,null,"",null,,,,,,,,,,,,,,,
math-period,387,619065,9303.40000000596,"",,,,,,,,,,,3,,,,,
html-keyboard-response,388,619168,null,"",null,,,,,,,,,,,,,,,
math-period,389,624961,11422.89999999106,"",,,,,,,,,,,1,,,,,
html-keyboard-response,390,625066,null,"",null,,,,,,,,,,,,,,,
math-period,391,627065,3731,"",,,,,,,,,,,1,,,,,
html-keyboard-response,392,627169,null,"",null,,,,,,,,,,,,,,,
math-period,393,629249,3900.999999985099,"",,,,,,,,,,,4,,,,,
html-keyboard-response,394,629355,null,"",null,,,,,,,,,,,,,,,
math-period,395,630415,null,"",,,,,,,,,,,,,,,,
html-keyboard-response,396,631421,null,"Recall Period!",null,,,,,,,,,,,,,,,
call-function,397,631422,,"",,,,,,,,,,,,,,,,
html-keyboard-response,398,631527,null,"",null,,,,,,,,,,,,,,,
recall-period,399,637537,26068.599999964237,"",,,,,,,,,,,dock,,,,,
html-keyboard-response,400,637640,null,"",null,,,,,,,,,,,,,,,
recall-period,401,639881,10195.900000035763,"",,,,,,,,,,,citrus,,,,,
html-keyboard-response,402,639984,null,"",null,,,,,,,,,,,,,,,
recall-period,403,642377,8372.199999973178,"",,,,,,,,,,,plum,,,,,
html-keyboard-response,404,642482,null,"",null,,,,,,,,,,,,,,,
recall-period,405,644097,4607.399999991059,"",,,,,,,,,,,salad,,,,,
html-keyboard-response,406,644203,null,"",null,,,,,,,,,,,,,,,
recall-period,407,649050,36086.60000002384,"",,,,,,,,,,,sidewalk,,,,,
html-keyboard-response,408,649155,null,"",null,,,,,,,,,,,,,,,
recall-period,409,650729,5554.4000000059605,"",,,,,,,,,,,nurse,,,,,
html-keyboard-response,410,650835,null,"",null,,,,,,,,,,,,,,,
recall-period,411,655769,36158.60000000894,"",,,,,,,,,,,scapegoat,,,,,
html-keyboard-response,412,655871,null,"",null,,,,,,,,,,,,,,,
recall-period,413,661122,49378.799999937415,"",,,,,,,,,,,cowboy,,,,,
html-keyboard-response,414,661227,null,"",null,,,,,,,,,,,,,,,
recall-period,415,664410,15455.5,"",,,,,,,,,,,horse,,,,,
html-keyboard-response,416,664515,null,"",null,,,,,,,,,,,,,,,
recall-period,417,666097,6389.600000008941,"",,,,,,,,,,,saddle,,,,,
html-keyboard-response,418,666203,null,"",null,,,,,,,,,,,,,,,
recall-period,419,668361,6992.400000035763,"",,,,,,,,,,,zebra,,,,,
html-keyboard-response,420,668463,null,"",null,,,,,,,,,,,,,,,
recall-period,421,706427,null,"",,,,,,,,,,,,,,,,
html-keyboard-response,422,706935,null,"Time's Up!",null,,,,,,,,,,,,,,,
html-keyboard-response,423,708603,1665.9000000059605,"<p> Good job! You have responded correctly to 98% of the trials. </p>
                      <p>Be sure to only press the spacebar if you see a GREEN square, and please keep your accuracy above 80%.</p>
                      <p> Press any key to continue the experiment. </p>",32,,,,,,,,,,,,,,,
html-keyboard-response,424,710069,1465.1000000089407,"<div style=""font-size:48px;"">Press any key to begin list 4 of 16 </div>",32,,,,,,,,,,,,,,,
html-keyboard-response,425,712578,null,"<div style=""font-size:60px;"">+</div>",null,,,,,,,,,,,,,,,
html-keyboard-response,426,712781,null,"<div style=""font-size:42px;"">PIGEON</div><img id = ""stim"" ><div class = green_square id = bottomsquare></div>",null,encoding,word_square,,,1,bottomsquare,32,true,,,PIGEON,3,,,
html-keyboard-response,427,713083,null,"<div style=""font-size:42px;"">PIGEON</div>",null,,word,PIGEON,,,,,,,,,,,,
html-keyboard-response,428,714590,261.70000000298023,"",32,,word,PIGEON,,,,,,,,,,,,
html-keyboard-response,429,714794,null,"<div style=""font-size:42px;"">PARROT</div><img id = ""stim"" ><div class = red_square id = topsquare></div>",null,encoding,word_square,,,0,topsquare,none,true,,,PARROT,3,,,
html-keyboard-response,430,715098,null,"<div style=""font-size:42px;"">PARROT</div>",null,,word,PARROT,,,,,,,,,,,,
html-keyboard-response,431,716600,null,"",null,,word,PARROT,,,,,,,,,,,,
html-keyboard-response,432,716806,null,"<div style=""font-size:42px;"">SCOUT</div><img id = ""stim"" ><div class = red_square id = bottomsquare></div>",null,encoding,word_square,,,0,bottomsquare,none,true,,,SCOUT,3,,,
html-keyboard-response,433,717110,null,"<div style=""font-size:42px;"">SCOUT</div>",null,,word,SCOUT,,,,,,,,,,,,
html-keyboard-response,434,718612,null,"",null,,word,SCOUT,,,,,,,,,,,,
html-keyboard-response,435,718815,null,"<div style=""font-size:42px;"">DONKEY</div><img id = ""stim"" ><div class = green_square id = topsquare></div>",null,encoding,word_square,,,1,topsquare,32,true,,,DONKEY,3,,,
html-keyboard-response,436,719118,null,"<div style=""font-size:42px;"">DONKEY</div>",null,,word,DONKEY,,,,,,,,,,,,
html-keyboard-response,437,720621,244.29999999701977,"",32,,word,DONKEY,,,,,,,,,,,,
html-keyboard-response,438,720829,null,"<div style=""font-size:42px;"">FOREHEAD</div><img id = ""stim"" ><div class = green_square id = bottomsquare></div>",null,encoding,word_square,,,1,bottomsquare,32,true,,,FOREHEAD,3,,,
html-keyboard-response,439,721136,164.29999999701977,"<div style=""font-size:42px;"">FOREHEAD</div>",32,,word,FOREHEAD,,,,,,,,,,,,
html-keyboard-response,440,722639,null,"",null,,word,FOREHEAD,,,,,,,,,,,,
html-keyboard-response,441,722844,null,"<div style=""font-size:42px;"">SENATE</div><img id = ""stim"" ><div class = red_square id = topsquare></div>",null,encoding,word_square,,,0,topsquare,none,true,,,SENATE,3,,,
html-keyboard-response,442,723151,null,"<div style=""font-size:42px;"">SENATE</div>",null,,word,SENATE,,,,,,,,,,,,
html-keyboard-response,443,724653,null,"",null,,word,SENATE,,,,,,,,,,,,
html-keyboard-response,444,724856,null,"<div style=""font-size:42px;"">RAILROAD</div><img id = ""stim"" ><div class = green_square id = topsquare></div>",null,encoding,word_square,,,1,topsquare,32,true,,,RAILROAD,3,,,
html-keyboard-response,445,725160,212.09999999403954,"<div style=""font-size:42px;"">RAILROAD</div>",32,,word,RAILROAD,,,,,,,,,,,,
html-keyboard-response,446,726668,null,"",null,,word,RAILROAD,,,,,,,,,,,,
html-keyboard-response,447,726873,null,"<div style=""font-size:42px;"">HEART</div><img id = ""stim"" ><div class = red_square id = bottomsquare></div>",null,encoding,word_square,,,0,bottomsquare,none,true,,,HEART,3,,,
html-keyboard-response,448,727176,null,"<div style=""font-size:42px;"">HEART</div>",null,,word,HEART,,,,,,,,,,,,
html-keyboard-response,449,728678,null,"",null,,word,HEART,,,,,,,,,,,,
html-keyboard-response,450,728881,null,"<div style=""font-size:42px;"">LETTUCE</div><img id = ""stim"" ><div class = red_square id = topsquare></div>",null,encoding,word_square,,,0,topsquare,none,true,,,LETTUCE,3,,,
html-keyboard-response,451,729185,167.6000000089407,"<div style=""font-size:42px;"">LETTUCE</div>",32,,word,LETTUCE,,,,,,,,,,,,
html-keyboard-response,452,730688,null,"",null,,word,LETTUCE,,,,,,,,,,,,
html-keyboard-response,453,730892,null,"<div style=""font-size:42px;"">LEMON</div><img id = ""stim"" ><div class = red_square id = bottomsquare></div>",null,encoding,word_square,,,0,bottomsquare,none,true,,,LEMON,3,,,
html-keyboard-response,454,731196,null,"<div style=""font-size:42px;"">LEMON</div>",null,,word,LEMON,,,,,,,,,,,,
html-keyboard-response,455,732698,null,"",null,,word,LEMON,,,,,,,,,,,,
html-keyboard-response,456,732904,null,"<div style=""font-size:42px;"">SCARF</div><img id = ""stim"" ><div class = green_square id = bottomsquare></div>",null,encoding,word_square,,,1,bottomsquare,32,true,,,SCARF,3,,,
html-keyboard-response,457,733211,null,"<div style=""font-size:42px;"">SCARF</div>",null,,word,SCARF,,,,,,,,,,,,
html-keyboard-response,458,734715,56.29999999701977,"",32,,word,SCARF,,,,,,,,,,,,
html-keyboard-response,459,734917,null,"<div style=""font-size:42px;"">TORCH</div><img id = ""stim"" ><div class = green_square id = topsquare></div>",null,encoding,word_square,,,1,topsquare,32,true,,,TORCH,3,,,
html-keyboard-response,460,735221,null,"<div style=""font-size:42px;"">TORCH</div>",null,,word,TORCH,,,,,,,,,,,,
html-keyboard-response,461,736725,66.79999999701977,"",32,,word,TORCH,,,,,,,,,,,,
html-keyboard-response,462,736930,null,"<div style=""font-size:42px;"">PARENT</div><img id = ""stim"" ><div class = red_square id = topsquare></div>",null,encoding,word_square,,,0,topsquare,none,true,,,PARENT,3,,,
html-keyboard-response,463,737232,null,"<div style=""font-size:42px;"">PARENT</div>",null,,word,PARENT,,,,,,,,,,,,
html-keyboard-response,464,738735,null,"",null,,word,PARENT,,,,,,,,,,,,
html-keyboard-response,465,738941,null,"<div style=""font-size:42px;"">SWATTER</div><img id = ""stim"" ><div class = green_square id = bottomsquare></div>",null,encoding,word_square,,,1,bottomsquare,32,true,,,SWATTER,3,,,
html-keyboard-response,466,739248,280.20000000298023,"<div style=""font-size:42px;"">SWATTER</div>",32,,word,SWATTER,,,,,,,,,,,,
html-keyboard-response,467,740752,null,"",null,,word,SWATTER,,,,,,,,,,,,
html-keyboard-response,468,740957,null,"<div style=""font-size:42px;"">PATIENT</div><img id = ""stim"" ><div class = green_square id = topsquare></div>",null,encoding,word_square,,,1,topsquare,32,true,,,PATIENT,3,,,
html-keyboard-response,469,741263,228.30000001192093,"<div style=""font-size:42px;"">PATIENT</div>",32,,word,PATIENT,,,,,,,,,,,,
html-keyboard-response,470,742766,null,"",null,,word,PATIENT,,,,,,,,,,,,
html-keyboard-response,471,742972,null,"<div style=""font-size:42px;"">CRATER</div><img id = ""stim"" ><div class = red_square id = bottomsquare></div>",null,encoding,word_square,,,0,bottomsquare,none,true,,,CRATER,3,,,
html-keyboard-response,472,743275,null,"<div style=""font-size:42px;"">CRATER</div>",null,,word,CRATER,,,,,,,,,,,,
html-keyboard-response,473,744777,null,"",null,,word,CRATER,,,,,,,,,,,,
call-function,474,744778,,"",,,,,,,,,,,,,,,,
html-keyboard-response,475,744882,null,"",null,,,,,,,,,,,,,,,
math-period,476,746995,3903,"",,,,,,,,,,,4,,,,,
html-keyboard-response,477,747097,null,"",null,,,,,,,,,,,,,,,
math-period,478,751699,8936.300000011921,"",,,,,,,,,,,0,,,,,
html-keyboard-response,479,751801,null,"",null,,,,,,,,,,,,,,,
math-period,480,753691,3615.499999985099,"",,,,,,,,,,,5,,,,,
html-keyboard-response,481,753793,null,"",null,,,,,,,,,,,,,,,
math-period,482,757155,6360.29999999702,"",,,,,,,,,,,5,,,,,
html-keyboard-response,483,757260,null,"",null,,,,,,,,,,,,,,,
math-period,484,760387,5625.5,"",,,,,,,,,,,5,,,,,
html-keyboard-response,485,760489,null,"",null,,,,,,,,,,,,,,,
math-period,486,764235,7128.900000020862,"",,,,,,,,,,,0,,,,,
html-keyboard-response,487,764340,null,"",null,,,,,,,,,,,,,,,
math-period,488,766947,4803.0999999940395,"",,,,,,,,,,,2,,,,,
html-keyboard-response,489,767049,null,"",null,,,,,,,,,,,,,,,
math-period,490,768784,null,"",,,,,,,,,,,,,,,,
html-keyboard-response,491,769788,null,"Recall Period!",null,,,,,,,,,,,,,,,
call-function,492,769789,,"",,,,,,,,,,,,,,,,
html-keyboard-response,493,769891,null,"",null,,,,,,,,,,,,,,,
recall-period,494,773410,20229.100000038743,"",,,,,,,,,,,crater,,,,,
html-keyboard-response,495,773513,null,"",null,,,,,,,,,,,,,,,
recall-period,496,776643,18209.999999940395,"",,,,,,,,,,,forehead,,,,,
html-keyboard-response,497,776745,null,"",null,,,,,,,,,,,,,,,
recall-period,498,779923,14288.500000029802,"",,,,,,,,,,,parrot,,,,,
html-keyboard-response,499,780029,null,"",null,,,,,,,,,,,,,,,
recall-period,500,782155,8539.900000035763,"",,,,,,,,,,,scout,,,,,
html-keyboard-response,501,782261,null,"",null,,,,,,,,,,,,,,,
recall-period,502,783955,6279.699999958277,"",,,,,,,,,,,pigeon,,,,,
html-keyboard-response,503,784060,null,"",null,,,,,,,,,,,,,,,
recall-period,504,787291,19056.90000000596,"",,,,,,,,,,,parent,,,,,
html-keyboard-response,505,787394,null,"",null,,,,,,,,,,,,,,,
recall-period,506,789163,9256.400000035763,"",,,,,,,,,,,patient,,,,,
html-keyboard-response,507,789266,null,"",null,,,,,,,,,,,,,,,
recall-period,508,806004,125258.79999998212,"",,,,,,,,,,,lettuce,,,,,
html-keyboard-response,509,806109,null,"",null,,,,,,,,,,,,,,,
recall-period,510,844796,null,"",,,,,,,,,,,,,,,,
html-keyboard-response,511,845304,null,"Time's Up!",null,,,,,,,,,,,,,,,
html-keyboard-response,512,847133,1827.2999999970198,"<p> Good job! You have responded correctly to 98% of the trials. </p>
                      <p>Be sure to only press the spacebar if you see a GREEN square, and please keep your accuracy above 80%.</p>
                      <p> Press any key to continue the experiment. </p>",32,,,,,,,,,,,,,,,
html-keyboard-response,513,848103,969,"<div style=""font-size:48px;"">Press any key to begin list 5 of 16 </div>",32,,,,,,,,,,,,,,,
html-keyboard-response,514,850614,null,"<div style=""font-size:60px;"">+</div>",null,,,,,,,,,,,,,,,
html-keyboard-response,515,850818,null,"<div style=""font-size:42px;"">VALVE</div><img id = ""stim"" ><div class = green_square id = topsquare></div>",null,encoding,word_square,,,1,topsquare,32,true,,,VALVE,4,,,
html-keyboard-response,516,851122,null,"<div style=""font-size:42px;"">VALVE</div>",null,,word,VALVE,,,,,,,,,,,,
html-keyboard-response,517,852629,32.70000000298023,"",32,,word,VALVE,,,,,,,,,,,,
html-keyboard-response,518,852834,null,"<div style=""font-size:42px;"">ASIA</div><img id = ""stim"" ><div class = red_square id = bottomsquare></div>",null,encoding,word_square,,,0,bottomsquare,none,true,,,ASIA,4,,,
html-keyboard-response,519,853142,null,"<div style=""font-size:42px;"">ASIA</div>",null,,word,ASIA,,,,,,,,,,,,
html-keyboard-response,520,854645,null,"",null,,word,ASIA,,,,,,,,,,,,
html-keyboard-response,521,854850,null,"<div style=""font-size:42px;"">COUNTRY</div><img id = ""stim"" ><div class = red_square id = topsquare></div>",null,encoding,word_square,,,0,topsquare,none,true,,,COUNTRY,4,,,
html-keyboard-response,522,855157,null,"<div style=""font-size:42px;"">COUNTRY</div>",null,,word,COUNTRY,,,,,,,,,,,,
html-keyboard-response,523,856659,null,"",null,,word,COUNTRY,,,,,,,,,,,,
html-keyboard-response,524,856865,null,"<div style=""font-size:42px;"">LAPEL</div><img id = ""stim"" ><div class = green_square id = bottomsquare></div>",null,encoding,word_square,,,1,bottomsquare,32,true,,,LAPEL,4,,,
html-keyboard-response,525,857170,261,"<div style=""font-size:42px;"">LAPEL</div>",32,,word,LAPEL,,,,,,,,,,,,
html-keyboard-response,526,858672,null,"",null,,word,LAPEL,,,,,,,,,,,,
html-keyboard-response,527,858879,null,"<div style=""font-size:42px;"">WITNESS</div><img id = ""stim"" ><div class = red_square id = bottomsquare></div>",null,encoding,word_square,,,0,bottomsquare,none,true,,,WITNESS,4,,,
html-keyboard-response,528,859186,null,"<div style=""font-size:42px;"">WITNESS</div>",null,,word,WITNESS,,,,,,,,,,,,
html-keyboard-response,529,860690,null,"",null,,word,WITNESS,,,,,,,,,,,,
html-keyboard-response,530,860895,null,"<div style=""font-size:42px;"">BOUILLON</div><img id = ""stim"" ><div class = green_square id = topsquare></div>",null,encoding,word_square,,,1,topsquare,32,true,,,BOUILLON,4,,,
html-keyboard-response,531,861203,null,"<div style=""font-size:42px;"">BOUILLON</div>",null,,word,BOUILLON,,,,,,,,,,,,
html-keyboard-response,532,862706,71.8999999910593,"",32,,word,BOUILLON,,,,,,,,,,,,
html-keyboard-response,533,862911,null,"<div style=""font-size:42px;"">DENIM</div><img id = ""stim"" ><div class = green_square id = bottomsquare></div>",null,encoding,word_square,,,1,bottomsquare,32,true,,,DENIM,4,,,
html-keyboard-response,534,863215,null,"<div style=""font-size:42px;"">DENIM</div>",null,,word,DENIM,,,,,,,,,,,,
html-keyboard-response,535,864718,150.70000000298023,"",32,,word,DENIM,,,,,,,,,,,,
html-keyboard-response,536,864925,null,"<div style=""font-size:42px;"">WAGON</div><img id = ""stim"" ><div class = green_square id = topsquare></div>",null,encoding,word_square,,,1,topsquare,32,true,,,WAGON,4,,,
html-keyboard-response,537,865227,237.5,"<div style=""font-size:42px;"">WAGON</div>",32,,word,WAGON,,,,,,,,,,,,
html-keyboard-response,538,866730,null,"",null,,word,WAGON,,,,,,,,,,,,
html-keyboard-response,539,866935,null,"<div style=""font-size:42px;"">YACHT</div><img id = ""stim"" ><div class = red_square id = topsquare></div>",null,encoding,word_square,,,0,topsquare,none,true,,,YACHT,4,,,
html-keyboard-response,540,867237,null,"<div style=""font-size:42px;"">YACHT</div>",null,,word,YACHT,,,,,,,,,,,,
html-keyboard-response,541,868739,null,"",null,,word,YACHT,,,,,,,,,,,,
html-keyboard-response,542,868943,null,"<div style=""font-size:42px;"">CANAL</div><img id = ""stim"" ><div class = green_square id = bottomsquare></div>",null,encoding,word_square,,,1,bottomsquare,32,true,,,CANAL,4,,,
html-keyboard-response,543,869248,158.40000000596046,"<div style=""font-size:42px;"">CANAL</div>",32,,word,CANAL,,,,,,,,,,,,
html-keyboard-response,544,870752,null,"",null,,word,CANAL,,,,,,,,,,,,
html-keyboard-response,545,870956,null,"<div style=""font-size:42px;"">CHECKERS</div><img id = ""stim"" ><div class = red_square id = bottomsquare></div>",null,encoding,word_square,,,0,bottomsquare,none,true,,,CHECKERS,4,,,
html-keyboard-response,546,871261,null,"<div style=""font-size:42px;"">CHECKERS</div>",null,,word,CHECKERS,,,,,,,,,,,,
html-keyboard-response,547,872763,null,"",null,,word,CHECKERS,,,,,,,,,,,,
html-keyboard-response,548,872968,null,"<div style=""font-size:42px;"">GRASS</div><img id = ""stim"" ><div class = red_square id = topsquare></div>",null,encoding,word_square,,,0,topsquare,none,true,,,GRASS,4,,,
html-keyboard-response,549,873274,null,"<div style=""font-size:42px;"">GRASS</div>",null,,word,GRASS,,,,,,,,,,,,
html-keyboard-response,550,874778,null,"",null,,word,GRASS,,,,,,,,,,,,
html-keyboard-response,551,874983,null,"<div style=""font-size:42px;"">SPACE</div><img id = ""stim"" ><div class = green_square id = topsquare></div>",null,encoding,word_square,,,1,topsquare,32,true,,,SPACE,4,,,
html-keyboard-response,552,875285,null,"<div style=""font-size:42px;"">SPACE</div>",null,,word,SPACE,,,,,,,,,,,,
html-keyboard-response,553,876789,5.200000002980232,"",32,,word,SPACE,,,,,,,,,,,,
html-keyboard-response,554,876993,null,"<div style=""font-size:42px;"">TURTLE</div><img id = ""stim"" ><div class = red_square id = bottomsquare></div>",null,encoding,word_square,,,0,bottomsquare,none,true,,,TURTLE,4,,,
html-keyboard-response,555,877296,null,"<div style=""font-size:42px;"">TURTLE</div>",null,,word,TURTLE,,,,,,,,,,,,
html-keyboard-response,556,878799,null,"",null,,word,TURTLE,,,,,,,,,,,,
html-keyboard-response,557,879005,null,"<div style=""font-size:42px;"">CLAM</div><img id = ""stim"" ><div class = red_square id = topsquare></div>",null,encoding,word_square,,,0,topsquare,none,true,,,CLAM,4,,,
html-keyboard-response,558,879313,null,"<div style=""font-size:42px;"">CLAM</div>",null,,word,CLAM,,,,,,,,,,,,
html-keyboard-response,559,880817,null,"",null,,word,CLAM,,,,,,,,,,,,
html-keyboard-response,560,881023,null,"<div style=""font-size:42px;"">NEUTRON</div><img id = ""stim"" ><div class = green_square id = bottomsquare></div>",null,encoding,word_square,,,1,bottomsquare,32,true,,,NEUTRON,4,,,
html-keyboard-response,561,881326,270.79999999701977,"<div style=""font-size:42px;"">NEUTRON</div>",32,,word,NEUTRON,,,,,,,,,,,,
html-keyboard-response,562,882828,null,"",null,,word,NEUTRON,,,,,,,,,,,,
call-function,563,882830,,"",,,,,,,,,,,,,,,,
html-keyboard-response,564,882932,null,"",null,,,,,,,,,,,,,,,
math-period,565,885517,4413.9000000059605,"",,,,,,,,,,,2,,,,,
html-keyboard-response,566,885621,null,"",null,,,,,,,,,,,,,,,
math-period,567,890341,9293.000000014901,"",,,,,,,,,,,1,,,,,
html-keyboard-response,568,890448,null,"",null,,,,,,,,,,,,,,,
math-period,569,892957,4757.299999982119,"",,,,,,,,,,,2,,,,,
html-keyboard-response,570,893059,null,"",null,,,,,,,,,,,,,,,
math-period,571,895573,4592.300000011921,"",,,,,,,,,,,4,,,,,
html-keyboard-response,572,895678,null,"",null,,,,,,,,,,,,,,,
math-period,573,898117,4385.5999999940395,"",,,,,,,,,,,4,,,,,
html-keyboard-response,574,898222,null,"",null,,,,,,,,,,,,,,,
math-period,575,900125,3321.2999999970198,"",,,,,,,,,,,4,,,,,
html-keyboard-response,576,900230,null,"",null,,,,,,,,,,,,,,,
math-period,577,902165,3529.5999999940395,"",,,,,,,,,,,5,,,,,
html-keyboard-response,578,902267,null,"",null,,,,,,,,,,,,,,,
math-period,579,904597,4353.000000014901,"",,,,,,,,,,,5,,,,,
html-keyboard-response,580,904700,null,"",null,,,,,,,,,,,,,,,
math-period,581,906832,1839.5,"",,,,,,,,,,,3,,,,,
html-keyboard-response,582,907837,null,"Recall Period!",null,,,,,,,,,,,,,,,
call-function,583,907838,,"",,,,,,,,,,,,,,,,
html-keyboard-response,584,907943,null,"",null,,,,,,,,,,,,,,,
recall-period,585,911845,23830.399999931455,"",,,,,,,,,,,valve,,,,,
html-keyboard-response,586,911948,null,"",null,,,,,,,,,,,,,,,
recall-period,587,914533,10082.500000014901,"",,,,,,,,,,,lapel,,,,,
html-keyboard-response,588,914638,null,"",null,,,,,,,,,,,,,,,
recall-period,589,918398,16672.59999999404,"",,,,,,,,,,,yacht,,,,,
html-keyboard-response,590,918500,null,"",null,,,,,,,,,,,,,,,
recall-period,591,923276,43168.20000000298,"",,,,,,,,,,,checkers,,,,,
html-keyboard-response,592,923378,null,"",null,,,,,,,,,,,,,,,
recall-period,593,926293,14014.79999999702,"",,,,,,,,,,,space,,,,,
html-keyboard-response,594,926399,null,"",null,,,,,,,,,,,,,,,
recall-period,595,927558,3429.7000000327826,"",,,,,,,,,,,grass,,,,,
html-keyboard-response,596,927663,null,"",null,,,,,,,,,,,,,,,
recall-period,597,930029,10758.400000035763,"",,,,,,,,,,,turtle,,,,,
html-keyboard-response,598,930135,null,"",null,,,,,,,,,,,,,,,
recall-period,599,936773,73552.60000003874,"",,,,,,,,,,,neutron,,,,,
html-keyboard-response,600,936878,null,"",null,,,,,,,,,,,,,,,
recall-period,601,944365,67816.5,"",,,,,,,,,,,witness,,,,,
html-keyboard-response,602,944467,null,"",null,,,,,,,,,,,,,,,
recall-period,603,951774,37825.70000001788,"",,,,,,,,,,,canal,,,,,
html-keyboard-response,604,951876,null,"",null,,,,,,,,,,,,,,,
recall-period,605,958838,38909.0000000298,"",,,,,,,,,,,Asia,,,,,
html-keyboard-response,606,958940,null,"",null,,,,,,,,,,,,,,,
recall-period,607,982844,null,"",,,,,,,,,,,,,,,,
html-keyboard-response,608,983347,null,"Time's Up!",null,,,,,,,,,,,,,,,
html-keyboard-response,609,984431,1081.7000000029802,"<p> Good job! You have responded correctly to 99% of the trials. </p>
                      <p>Be sure to only press the spacebar if you see a GREEN square, and please keep your accuracy above 80%.</p>
                      <p> Press any key to continue the experiment. </p>",32,,,,,,,,,,,,,,,
html-keyboard-response,610,986041,1609.2999999970198,"<div style=""font-size:48px;"">Press any key to begin list 6 of 16 </div>",32,,,,,,,,,,,,,,,
html-keyboard-response,611,988547,null,"<div style=""font-size:60px;"">+</div>",null,,,,,,,,,,,,,,,
html-keyboard-response,612,988752,null,"<div style=""font-size:42px;"">PANTHER</div><img id = ""stim"" ><div class = green_square id = bottomsquare></div>",null,encoding,word_square,,,1,bottomsquare,32,true,,,PANTHER,5,,,
html-keyboard-response,613,989054,284.90000000596046,"<div style=""font-size:42px;"">PANTHER</div>",32,,word,PANTHER,,,,,,,,,,,,
html-keyboard-response,614,990556,null,"",null,,word,PANTHER,,,,,,,,,,,,
html-keyboard-response,615,990762,null,"<div style=""font-size:42px;"">TROMBONE</div><img id = ""stim"" ><div class = red_square id = topsquare></div>",null,encoding,word_square,,,0,topsquare,none,true,,,TROMBONE,5,,,
html-keyboard-response,616,991068,null,"<div style=""font-size:42px;"">TROMBONE</div>",null,,word,TROMBONE,,,,,,,,,,,,
html-keyboard-response,617,992570,null,"",null,,word,TROMBONE,,,,,,,,,,,,
html-keyboard-response,618,992773,null,"<div style=""font-size:42px;"">PERFUME</div><img id = ""stim"" ><div class = red_square id = bottomsquare></div>",null,encoding,word_square,,,0,bottomsquare,none,true,,,PERFUME,5,,,
html-keyboard-response,619,993080,null,"<div style=""font-size:42px;"">PERFUME</div>",null,,word,PERFUME,,,,,,,,,,,,
html-keyboard-response,620,994587,null,"",null,,word,PERFUME,,,,,,,,,,,,
html-keyboard-response,621,994794,null,"<div style=""font-size:42px;"">PIRATE</div><img id = ""stim"" ><div class = green_square id = topsquare></div>",null,encoding,word_square,,,1,topsquare,32,true,,,PIRATE,5,,,
html-keyboard-response,622,995096,197.79999999701977,"<div style=""font-size:42px;"">PIRATE</div>",32,,word,PIRATE,,,,,,,,,,,,
html-keyboard-response,623,996599,null,"",null,,word,PIRATE,,,,,,,,,,,,
html-keyboard-response,624,996807,null,"<div style=""font-size:42px;"">LOBSTER</div><img id = ""stim"" ><div class = red_square id = topsquare></div>",null,encoding,word_square,,,0,topsquare,none,true,,,LOBSTER,5,,,
html-keyboard-response,625,997113,null,"<div style=""font-size:42px;"">LOBSTER</div>",null,,word,LOBSTER,,,,,,,,,,,,
html-keyboard-response,626,998617,null,"",null,,word,LOBSTER,,,,,,,,,,,,
html-keyboard-response,627,998822,null,"<div style=""font-size:42px;"">CYCLONE</div><img id = ""stim"" ><div class = red_square id = bottomsquare></div>",null,encoding,word_square,,,0,bottomsquare,none,true,,,CYCLONE,5,,,
html-keyboard-response,628,999130,null,"<div style=""font-size:42px;"">CYCLONE</div>",null,,word,CYCLONE,,,,,,,,,,,,
html-keyboard-response,629,1000633,null,"",null,,word,CYCLONE,,,,,,,,,,,,
html-keyboard-response,630,1000840,null,"<div style=""font-size:42px;"">BRIDE</div><img id = ""stim"" ><div class = green_square id = bottomsquare></div>",null,encoding,word_square,,,1,bottomsquare,32,true,,,BRIDE,5,,,
html-keyboard-response,631,1001146,245.30000001192093,"<div style=""font-size:42px;"">BRIDE</div>",32,,word,BRIDE,,,,,,,,,,,,
html-keyboard-response,632,1002648,null,"",null,,word,BRIDE,,,,,,,,,,,,
html-keyboard-response,633,1002852,null,"<div style=""font-size:42px;"">WHISKERS</div><img id = ""stim"" ><div class = red_square id = topsquare></div>",null,encoding,word_square,,,0,topsquare,none,true,,,WHISKERS,5,,,
html-keyboard-response,634,1003154,null,"<div style=""font-size:42px;"">WHISKERS</div>",null,,word,WHISKERS,,,,,,,,,,,,
html-keyboard-response,635,1004660,null,"",null,,word,WHISKERS,,,,,,,,,,,,
html-keyboard-response,636,1004862,null,"<div style=""font-size:42px;"">MARSH</div><img id = ""stim"" ><div class = green_square id = topsquare></div>",null,encoding,word_square,,,1,topsquare,32,true,,,MARSH,5,,,
html-keyboard-response,637,1005168,211.6000000089407,"<div style=""font-size:42px;"">MARSH</div>",32,,word,MARSH,,,,,,,,,,,,
html-keyboard-response,638,1006671,null,"",null,,word,MARSH,,,,,,,,,,,,
html-keyboard-response,639,1006877,null,"<div style=""font-size:42px;"">HEDGE</div><img id = ""stim"" ><div class = green_square id = bottomsquare></div>",null,encoding,word_square,,,1,bottomsquare,32,true,,,HEDGE,5,,,
html-keyboard-response,640,1007184,null,"<div style=""font-size:42px;"">HEDGE</div>",null,,word,HEDGE,,,,,,,,,,,,
html-keyboard-response,641,1008688,115.5,"",32,,word,HEDGE,,,,,,,,,,,,
html-keyboard-response,642,1008894,null,"<div style=""font-size:42px;"">CLOUD</div><img id = ""stim"" ><div class = green_square id = topsquare></div>",null,encoding,word_square,,,1,topsquare,32,true,,,CLOUD,5,,,
html-keyboard-response,643,1009196,289.29999999701977,"<div style=""font-size:42px;"">CLOUD</div>",32,,word,CLOUD,,,,,,,,,,,,
html-keyboard-response,644,1010698,null,"",null,,word,CLOUD,,,,,,,,,,,,
html-keyboard-response,645,1010903,null,"<div style=""font-size:42px;"">WINDSHIELD</div><img id = ""stim"" ><div class = red_square id = bottomsquare></div>",null,encoding,word_square,,,0,bottomsquare,none,true,,,WINDSHIELD,5,,,
html-keyboard-response,646,1011210,null,"<div style=""font-size:42px;"">WINDSHIELD</div>",null,,word,WINDSHIELD,,,,,,,,,,,,
html-keyboard-response,647,1012713,null,"",null,,word,WINDSHIELD,,,,,,,,,,,,
html-keyboard-response,648,1012918,null,"<div style=""font-size:42px;"">VILLAGE</div><img id = ""stim"" ><div class = green_square id = bottomsquare></div>",null,encoding,word_square,,,1,bottomsquare,32,true,,,VILLAGE,5,,,
html-keyboard-response,649,1013225,166.09999999403954,"<div style=""font-size:42px;"">VILLAGE</div>",32,,word,VILLAGE,,,,,,,,,,,,
html-keyboard-response,650,1014728,null,"",null,,word,VILLAGE,,,,,,,,,,,,
html-keyboard-response,651,1014932,null,"<div style=""font-size:42px;"">LEG</div><img id = ""stim"" ><div class = red_square id = topsquare></div>",null,encoding,word_square,,,0,topsquare,none,true,,,LEG,5,,,
html-keyboard-response,652,1015234,null,"<div style=""font-size:42px;"">LEG</div>",null,,word,LEG,,,,,,,,,,,,
html-keyboard-response,653,1016739,null,"",null,,word,LEG,,,,,,,,,,,,
html-keyboard-response,654,1016945,null,"<div style=""font-size:42px;"">WRIST</div><img id = ""stim"" ><div class = red_square id = bottomsquare></div>",null,encoding,word_square,,,0,bottomsquare,none,true,,,WRIST,5,,,
html-keyboard-response,655,1017248,183.5,"<div style=""font-size:42px;"">WRIST</div>",32,,word,WRIST,,,,,,,,,,,,
html-keyboard-response,656,1018750,null,"",null,,word,WRIST,,,,,,,,,,,,
html-keyboard-response,657,1018956,null,"<div style=""font-size:42px;"">SKILLET</div><img id = ""stim"" ><div class = green_square id = topsquare></div>",null,encoding,word_square,,,1,topsquare,32,true,,,SKILLET,5,,,
html-keyboard-response,658,1019260,121.19999998807907,"<div style=""font-size:42px;"">SKILLET</div>",32,,word,SKILLET,,,,,,,,,,,,
html-keyboard-response,659,1020762,null,"",null,,word,SKILLET,,,,,,,,,,,,
call-function,660,1020764,,"",,,,,,,,,,,,,,,,
html-keyboard-response,661,1020866,null,"",null,,,,,,,,,,,,,,,
math-period,662,1023654,4734.499999985099,"",,,,,,,,,,,4,,,,,
html-keyboard-response,663,1023760,null,"",null,,,,,,,,,,,,,,,
math-period,664,1027687,7530.600000008941,"",,,,,,,,,,,3,,,,,
html-keyboard-response,665,1027791,null,"",null,,,,,,,,,,,,,,,
math-period,666,1030111,3962.699999988079,"",,,,,,,,,,,2,,,,,
html-keyboard-response,667,1030213,null,"",null,,,,,,,,,,,,,,,
math-period,668,1034023,7328.29999999702,"",,,,,,,,,,,2,,,,,
html-keyboard-response,669,1034125,null,"",null,,,,,,,,,,,,,,,
math-period,670,1038430,8279.40000000596,"",,,,,,,,,,,1,,,,,
html-keyboard-response,671,1038535,null,"",null,,,,,,,,,,,,,,,
math-period,672,1041127,4475.300000011921,"",,,,,,,,,,,5,,,,,
html-keyboard-response,673,1041232,null,"",null,,,,,,,,,,,,,,,
math-period,674,1043087,3434.5999999940395,"",,,,,,,,,,,4,,,,,
html-keyboard-response,675,1043191,null,"",null,,,,,,,,,,,,,,,
math-period,676,1044766,null,"",,,,,,,,,,,,,,,,
html-keyboard-response,677,1045771,null,"Recall Period!",null,,,,,,,,,,,,,,,
call-function,678,1045772,,"",,,,,,,,,,,,,,,,
html-keyboard-response,679,1045874,null,"",null,,,,,,,,,,,,,,,
recall-period,680,1049598,22338.600000038743,"",,,,,,,,,,,panther,,,,,
html-keyboard-response,681,1049701,null,"",null,,,,,,,,,,,,,,,
recall-period,682,1052855,20980.89999999106,"",,,,,,,,,,,trombone,,,,,
html-keyboard-response,683,1052960,null,"",null,,,,,,,,,,,,,,,
recall-period,684,1056135,21079.500000029802,"",,,,,,,,,,,wrist,,,,,
html-keyboard-response,685,1056237,null,"",null,,,,,,,,,,,,,,,
recall-period,686,1059095,7640.599999979138,"",,,,,,,,,,,skillet,,,,,
html-keyboard-response,687,1059199,null,"",null,,,,,,,,,,,,,,,
recall-period,688,1062358,13121.500000029802,"",,,,,,,,,,,forehead,,,,,
html-keyboard-response,689,1062464,null,"",null,,,,,,,,,,,,,,,
recall-period,690,1069279,35976.19999998808,"",,,,,,,,,,,bride,,,,,
html-keyboard-response,691,1069380,null,"",null,,,,,,,,,,,,,,,
recall-period,692,1078799,51246.0000000149,"",,,,,,,,,,,cloud,,,,,
html-keyboard-response,693,1078906,null,"",null,,,,,,,,,,,,,,,
recall-period,694,1080799,7907.900000035763,"",,,,,,,,,,,marsh,,,,,
html-keyboard-response,695,1080904,null,"",null,,,,,,,,,,,,,,,
recall-period,696,1088616,42263.9999999553,"",,,,,,,,,,,hedge,,,,,
html-keyboard-response,697,1088721,null,"",null,,,,,,,,,,,,,,,
recall-period,698,1120776,null,"",,,,,,,,,,,,,,,,
html-keyboard-response,699,1121282,null,"Time's Up!",null,,,,,,,,,,,,,,,
html-keyboard-response,700,1172377,51092.39999999106,"<p> Good job! You have responded correctly to 99% of the trials. </p>
                      <p>Be sure to only press the spacebar if you see a GREEN square, and please keep your accuracy above 80%.</p>
                      <p> Press any key to continue the experiment. </p>",32,,,,,,,,,,,,,,,
html-keyboard-response,701,1173409,1031.2999999970198,"<div style=""font-size:48px;"">Press any key to begin list 7 of 16 </div>",32,,,,,,,,,,,,,,,
html-keyboard-response,702,1175913,null,"<div style=""font-size:60px;"">+</div>",null,,,,,,,,,,,,,,,
html-keyboard-response,703,1176121,null,"<div style=""font-size:42px;"">SAPPHIRE</div><img id = ""stim"" ><div class = red_square id = bottomsquare></div>",null,encoding,word_square,,,0,bottomsquare,none,true,,,SAPPHIRE,6,,,
html-keyboard-response,704,1176424,null,"<div style=""font-size:42px;"">SAPPHIRE</div>",null,,word,SAPPHIRE,,,,,,,,,,,,
html-keyboard-response,705,1177926,null,"",null,,word,SAPPHIRE,,,,,,,,,,,,
html-keyboard-response,706,1178132,null,"<div style=""font-size:42px;"">LUNCH</div><img id = ""stim"" ><div class = green_square id = topsquare></div>",null,encoding,word_square,,,1,topsquare,32,true,,,LUNCH,6,,,
html-keyboard-response,707,1178439,266.90000000596046,"<div style=""font-size:42px;"">LUNCH</div>",32,,word,LUNCH,,,,,,,,,,,,
html-keyboard-response,708,1179942,null,"",null,,word,LUNCH,,,,,,,,,,,,
html-keyboard-response,709,1180149,null,"<div style=""font-size:42px;"">PICNIC</div><img id = ""stim"" ><div class = green_square id = bottomsquare></div>",null,encoding,word_square,,,1,bottomsquare,32,true,,,PICNIC,6,,,
html-keyboard-response,710,1180453,null,"<div style=""font-size:42px;"">PICNIC</div>",null,,word,PICNIC,,,,,,,,,,,,
html-keyboard-response,711,1181956,195.1000000089407,"",32,,word,PICNIC,,,,,,,,,,,,
html-keyboard-response,712,1182160,null,"<div style=""font-size:42px;"">PLAID</div><img id = ""stim"" ><div class = red_square id = topsquare></div>",null,encoding,word_square,,,0,topsquare,none,true,,,PLAID,6,,,
html-keyboard-response,713,1182464,null,"<div style=""font-size:42px;"">PLAID</div>",null,,word,PLAID,,,,,,,,,,,,
html-keyboard-response,714,1183967,null,"",null,,word,PLAID,,,,,,,,,,,,
html-keyboard-response,715,1184169,null,"<div style=""font-size:42px;"">QUAIL</div><img id = ""stim"" ><div class = green_square id = topsquare></div>",null,encoding,word_square,,,1,topsquare,32,true,,,QUAIL,6,,,
html-keyboard-response,716,1184475,null,"<div style=""font-size:42px;"">QUAIL</div>",null,,word,QUAIL,,,,,,,,,,,,
html-keyboard-response,717,1185977,211.29999999701977,"",32,,word,QUAIL,,,,,,,,,,,,
html-keyboard-response,718,1186182,null,"<div style=""font-size:42px;"">WAIST</div><img id = ""stim"" ><div class = red_square id = bottomsquare></div>",null,encoding,word_square,,,0,bottomsquare,none,true,,,WAIST,6,,,
html-keyboard-response,719,1186490,null,"<div style=""font-size:42px;"">WAIST</div>",null,,word,WAIST,,,,,,,,,,,,
html-keyboard-response,720,1187993,null,"",null,,word,WAIST,,,,,,,,,,,,
html-keyboard-response,721,1188199,null,"<div style=""font-size:42px;"">PIANO</div><img id = ""stim"" ><div class = red_square id = topsquare></div>",null,encoding,word_square,,,0,topsquare,none,true,,,PIANO,6,,,
html-keyboard-response,722,1188502,null,"<div style=""font-size:42px;"">PIANO</div>",null,,word,PIANO,,,,,,,,,,,,
html-keyboard-response,723,1190005,null,"",null,,word,PIANO,,,,,,,,,,,,
html-keyboard-response,724,1190210,null,"<div style=""font-size:42px;"">MAILBOX</div><img id = ""stim"" ><div class = red_square id = bottomsquare></div>",null,encoding,word_square,,,0,bottomsquare,none,true,,,MAILBOX,6,,,
html-keyboard-response,725,1190516,null,"<div style=""font-size:42px;"">MAILBOX</div>",null,,word,MAILBOX,,,,,,,,,,,,
html-keyboard-response,726,1192020,null,"",null,,word,MAILBOX,,,,,,,,,,,,
html-keyboard-response,727,1192224,null,"<div style=""font-size:42px;"">BOX</div><img id = ""stim"" ><div class = green_square id = bottomsquare></div>",null,encoding,word_square,,,1,bottomsquare,32,true,,,BOX,6,,,
html-keyboard-response,728,1192527,null,"<div style=""font-size:42px;"">BOX</div>",null,,word,BOX,,,,,,,,,,,,
html-keyboard-response,729,1194029,195.40000000596046,"",32,,word,BOX,,,,,,,,,,,,
html-keyboard-response,730,1194234,null,"<div style=""font-size:42px;"">OX</div><img id = ""stim"" ><div class = red_square id = topsquare></div>",null,encoding,word_square,,,0,topsquare,none,true,,,OX,6,,,
html-keyboard-response,731,1194541,null,"<div style=""font-size:42px;"">OX</div>",null,,word,OX,,,,,,,,,,,,
html-keyboard-response,732,1196043,null,"",null,,word,OX,,,,,,,,,,,,
html-keyboard-response,733,1196245,null,"<div style=""font-size:42px;"">PLUMBER</div><img id = ""stim"" ><div class = green_square id = topsquare></div>",null,encoding,word_square,,,1,topsquare,32,true,,,PLUMBER,6,,,
html-keyboard-response,734,1196552,null,"<div style=""font-size:42px;"">PLUMBER</div>",null,,word,PLUMBER,,,,,,,,,,,,
html-keyboard-response,735,1198055,47.5,"",32,,word,PLUMBER,,,,,,,,,,,,
html-keyboard-response,736,1198259,null,"<div style=""font-size:42px;"">KNUCKLE</div><img id = ""stim"" ><div class = green_square id = bottomsquare></div>",null,encoding,word_square,,,1,bottomsquare,32,true,,,KNUCKLE,6,,,
html-keyboard-response,737,1198565,222.8999999910593,"<div style=""font-size:42px;"">KNUCKLE</div>",32,,word,KNUCKLE,,,,,,,,,,,,
html-keyboard-response,738,1200069,null,"",null,,word,KNUCKLE,,,,,,,,,,,,
html-keyboard-response,739,1200271,null,"<div style=""font-size:42px;"">COUNTY</div><img id = ""stim"" ><div class = red_square id = bottomsquare></div>",null,encoding,word_square,,,0,bottomsquare,none,true,,,COUNTY,6,,,
html-keyboard-response,740,1200574,null,"<div style=""font-size:42px;"">COUNTY</div>",null,,word,COUNTY,,,,,,,,,,,,
html-keyboard-response,741,1202077,null,"",null,,word,COUNTY,,,,,,,,,,,,
html-keyboard-response,742,1202284,null,"<div style=""font-size:42px;"">JOKER</div><img id = ""stim"" ><div class = green_square id = topsquare></div>",null,encoding,word_square,,,1,topsquare,32,true,,,JOKER,6,,,
html-keyboard-response,743,1202590,null,"<div style=""font-size:42px;"">JOKER</div>",null,,word,JOKER,,,,,,,,,,,,
html-keyboard-response,744,1204093,16.400000005960464,"",32,,word,JOKER,,,,,,,,,,,,
html-keyboard-response,745,1204297,null,"<div style=""font-size:42px;"">TABLET</div><img id = ""stim"" ><div class = green_square id = bottomsquare></div>",null,encoding,word_square,,,1,bottomsquare,32,true,,,TABLET,6,,,
html-keyboard-response,746,1204605,null,"<div style=""font-size:42px;"">TABLET</div>",null,,word,TABLET,,,,,,,,,,,,
html-keyboard-response,747,1206109,133.5,"",32,,word,TABLET,,,,,,,,,,,,
html-keyboard-response,748,1206316,null,"<div style=""font-size:42px;"">MUMMY</div><img id = ""stim"" ><div class = red_square id = topsquare></div>",null,encoding,word_square,,,0,topsquare,none,true,,,MUMMY,6,,,
html-keyboard-response,749,1206622,null,"<div style=""font-size:42px;"">MUMMY</div>",null,,word,MUMMY,,,,,,,,,,,,
html-keyboard-response,750,1208125,null,"",null,,word,MUMMY,,,,,,,,,,,,
call-function,751,1208127,,"",,,,,,,,,,,,,,,,
html-keyboard-response,752,1208231,null,"",null,,,,,,,,,,,,,,,
math-period,753,1213593,10360.79999999702,"",,,,,,,,,,,0,,,,,
html-keyboard-response,754,1213696,null,"",null,,,,,,,,,,,,,,,
math-period,755,1216745,5630.899999991059,"",,,,,,,,,,,1,,,,,
html-keyboard-response,756,1216848,null,"",null,,,,,,,,,,,,,,,
math-period,757,1218697,3342.499999985099,"",,,,,,,,,,,2,,,,,
html-keyboard-response,758,1218800,null,"",null,,,,,,,,,,,,,,,
math-period,759,1222040,6244.5,"",,,,,,,,,,,3,,,,,
html-keyboard-response,760,1222142,null,"",null,,,,,,,,,,,,,,,
math-period,761,1224161,3690.4000000059605,"",,,,,,,,,,,5,,,,,
html-keyboard-response,762,1224263,null,"",null,,,,,,,,,,,,,,,
math-period,763,1227057,5345.199999988079,"",,,,,,,,,,,2,,,,,
html-keyboard-response,764,1227159,null,"",null,,,,,,,,,,,,,,,
math-period,765,1229088,3495.7000000029802,"",,,,,,,,,,,2,,,,,
html-keyboard-response,766,1229194,null,"",null,,,,,,,,,,,,,,,
math-period,767,1231553,4386.799999982119,"",,,,,,,,,,,5,,,,,
html-keyboard-response,768,1231655,null,"",null,,,,,,,,,,,,,,,
math-period,769,1232130,null,"",,,,,,,,,,,,,,,,
html-keyboard-response,770,1233134,null,"Recall Period!",null,,,,,,,,,,,,,,,
call-function,771,1233135,,"",,,,,,,,,,,,,,,,
html-keyboard-response,772,1233239,null,"",null,,,,,,,,,,,,,,,
recall-period,773,1235690,9252.70000000298,"",,,,,,,,,,,mummy,,,,,
html-keyboard-response,774,1235793,null,"",null,,,,,,,,,,,,,,,
recall-period,775,1239953,23843.400000035763,"",,,,,,,,,,,county,,,,,
html-keyboard-response,776,1240055,null,"",null,,,,,,,,,,,,,,,
recall-period,777,1241449,4576.500000014901,"",,,,,,,,,,,joker,,,,,
html-keyboard-response,778,1241555,null,"",null,,,,,,,,,,,,,,,
recall-period,779,1243690,7668.29999999702,"",,,,,,,,,,,quail,,,,,
html-keyboard-response,780,1243793,null,"",null,,,,,,,,,,,,,,,
recall-period,781,1245713,7688.600000008941,"",,,,,,,,,,,waist,,,,,
html-keyboard-response,782,1245816,null,"",null,,,,,,,,,,,,,,,
recall-period,783,1248385,13184.599999979138,"",,,,,,,,,,,picnic,,,,,
html-keyboard-response,784,1248487,null,"",null,,,,,,,,,,,,,,,
recall-period,785,1250514,7954.099999964237,"",,,,,,,,,,,lunch,,,,,
html-keyboard-response,786,1250617,null,"",null,,,,,,,,,,,,,,,
recall-period,787,1252274,5188.600000038743,"",,,,,,,,,,,plaid,,,,,
html-keyboard-response,788,1252380,null,"",null,,,,,,,,,,,,,,,
recall-period,789,1254729,15021.100000023842,"",,,,,,,,,,,sapphire,,,,,
html-keyboard-response,790,1254830,null,"",null,,,,,,,,,,,,,,,
recall-period,791,1257818,16554.30000001192,"",,,,,,,,,,,deputy,,,,,
html-keyboard-response,792,1257920,null,"",null,,,,,,,,,,,,,,,
recall-period,793,1265169,47507.60000000894,"",,,,,,,,,,,knuckle,,,,,
html-keyboard-response,794,1265272,null,"",null,,,,,,,,,,,,,,,
recall-period,795,1270298,19038.999999970198,"",,,,,,,,,,,box,,,,,
html-keyboard-response,796,1270403,null,"",null,,,,,,,,,,,,,,,
recall-period,797,1271081,1078.0999999791384,"",,,,,,,,,,,ox,,,,,
html-keyboard-response,798,1271192,null,"",null,,,,,,,,,,,,,,,
recall-period,799,1274330,20122.200000062585,"",,,,,,,,,,,mailbox,,,,,
html-keyboard-response,800,1274436,null,"",null,,,,,,,,,,,,,,,
recall-period,801,1308139,null,"",,,,,,,,,,,,,,,,
html-keyboard-response,802,1308646,null,"Time's Up!",null,,,,,,,,,,,,,,,
html-keyboard-response,803,1322795,14146.39999999106,"<p> Good job! You have responded correctly to 99% of the trials. </p>
                      <p>Be sure to only press the spacebar if you see a GREEN square, and please keep your accuracy above 80%.</p>
                      <p> Press any key to continue the experiment. </p>",32,,,,,,,,,,,,,,,
html-keyboard-response,804,1324086,1289.4000000059605,"<div style=""font-size:48px;"">Press any key to begin list 8 of 16 </div>",32,,,,,,,,,,,,,,,
html-keyboard-response,805,1326593,null,"<div style=""font-size:60px;"">+</div>",null,,,,,,,,,,,,,,,
html-keyboard-response,806,1326798,null,"<div style=""font-size:42px;"">RACCOON</div><img id = ""stim"" ><div class = red_square id = topsquare></div>",null,encoding,word_square,,,0,topsquare,none,true,,,RACCOON,7,,,
html-keyboard-response,807,1327100,null,"<div style=""font-size:42px;"">RACCOON</div>",null,,word,RACCOON,,,,,,,,,,,,
html-keyboard-response,808,1328603,null,"",null,,word,RACCOON,,,,,,,,,,,,
html-keyboard-response,809,1328808,null,"<div style=""font-size:42px;"">CROSS</div><img id = ""stim"" ><div class = green_square id = bottomsquare></div>",null,encoding,word_square,,,1,bottomsquare,32,true,,,CROSS,7,,,
html-keyboard-response,810,1329116,null,"<div style=""font-size:42px;"">CROSS</div>",null,,word,CROSS,,,,,,,,,,,,
html-keyboard-response,811,1330620,133.30000001192093,"",32,,word,CROSS,,,,,,,,,,,,
html-keyboard-response,812,1330827,null,"<div style=""font-size:42px;"">IDOL</div><img id = ""stim"" ><div class = green_square id = topsquare></div>",null,encoding,word_square,,,1,topsquare,32,true,,,IDOL,7,,,
html-keyboard-response,813,1331129,null,"<div style=""font-size:42px;"">IDOL</div>",null,,word,IDOL,,,,,,,,,,,,
html-keyboard-response,814,1332632,106.3999999910593,"",32,,word,IDOL,,,,,,,,,,,,
html-keyboard-response,815,1332837,null,"<div style=""font-size:42px;"">ANTLER</div><img id = ""stim"" ><div class = red_square id = bottomsquare></div>",null,encoding,word_square,,,0,bottomsquare,none,true,,,ANTLER,7,,,
html-keyboard-response,816,1333145,null,"<div style=""font-size:42px;"">ANTLER</div>",null,,word,ANTLER,,,,,,,,,,,,
html-keyboard-response,817,1334647,null,"",null,,word,ANTLER,,,,,,,,,,,,
html-keyboard-response,818,1334852,null,"<div style=""font-size:42px;"">GAZELLE</div><img id = ""stim"" ><div class = green_square id = bottomsquare></div>",null,encoding,word_square,,,1,bottomsquare,32,true,,,GAZELLE,7,,,
html-keyboard-response,819,1335159,141.79999999701977,"<div style=""font-size:42px;"">GAZELLE</div>",32,,word,GAZELLE,,,,,,,,,,,,
html-keyboard-response,820,1336663,null,"",null,,word,GAZELLE,,,,,,,,,,,,
html-keyboard-response,821,1336869,null,"<div style=""font-size:42px;"">BROTHER</div><img id = ""stim"" ><div class = green_square id = topsquare></div>",null,encoding,word_square,,,1,topsquare,32,true,,,BROTHER,7,,,
html-keyboard-response,822,1337173,null,"<div style=""font-size:42px;"">BROTHER</div>",null,,word,BROTHER,,,,,,,,,,,,
html-keyboard-response,823,1338676,199,"",32,,word,BROTHER,,,,,,,,,,,,
html-keyboard-response,824,1338881,null,"<div style=""font-size:42px;"">FRIEND</div><img id = ""stim"" ><div class = red_square id = topsquare></div>",null,encoding,word_square,,,0,topsquare,none,true,,,FRIEND,7,,,
html-keyboard-response,825,1339189,null,"<div style=""font-size:42px;"">FRIEND</div>",null,,word,FRIEND,,,,,,,,,,,,
html-keyboard-response,826,1340693,null,"",null,,word,FRIEND,,,,,,,,,,,,
html-keyboard-response,827,1340899,null,"<div style=""font-size:42px;"">POSSUM</div><img id = ""stim"" ><div class = green_square id = bottomsquare></div>",null,encoding,word_square,,,1,bottomsquare,32,true,,,POSSUM,7,,,
html-keyboard-response,828,1341206,null,"<div style=""font-size:42px;"">POSSUM</div>",null,,word,POSSUM,,,,,,,,,,,,
html-keyboard-response,829,1342709,18.899999991059303,"",32,,word,POSSUM,,,,,,,,,,,,
html-keyboard-response,830,1342912,null,"<div style=""font-size:42px;"">ARMY</div><img id = ""stim"" ><div class = red_square id = bottomsquare></div>",null,encoding,word_square,,,0,bottomsquare,none,true,,,ARMY,7,,,
html-keyboard-response,831,1343215,null,"<div style=""font-size:42px;"">ARMY</div>",null,,word,ARMY,,,,,,,,,,,,
html-keyboard-response,832,1344719,null,"",null,,word,ARMY,,,,,,,,,,,,
html-keyboard-response,833,1344925,null,"<div style=""font-size:42px;"">CLIPPERS</div><img id = ""stim"" ><div class = red_square id = topsquare></div>",null,encoding,word_square,,,0,topsquare,none,true,,,CLIPPERS,7,,,
html-keyboard-response,834,1345232,null,"<div style=""font-size:42px;"">CLIPPERS</div>",null,,word,CLIPPERS,,,,,,,,,,,,
html-keyboard-response,835,1346738,null,"",null,,word,CLIPPERS,,,,,,,,,,,,
html-keyboard-response,836,1346944,106.79999999701977,"<div style=""font-size:42px;"">GLASS</div><img id = ""stim"" ><div class = red_square id = bottomsquare></div>",32,encoding,word_square,,,0,bottomsquare,none,false,,,GLASS,7,,,
html-keyboard-response,837,1347247,null,"<div style=""font-size:42px;"">GLASS</div>",null,,word,GLASS,,,,,,,,,,,,
html-keyboard-response,838,1348752,null,"",null,,word,GLASS,,,,,,,,,,,,
html-keyboard-response,839,1348960,null,"<div style=""font-size:42px;"">YARN</div><img id = ""stim"" ><div class = green_square id = topsquare></div>",null,encoding,word_square,,,1,topsquare,32,true,,,YARN,7,,,
html-keyboard-response,840,1349267,201,"<div style=""font-size:42px;"">YARN</div>",32,,word,YARN,,,,,,,,,,,,
html-keyboard-response,841,1350772,null,"",null,,word,YARN,,,,,,,,,,,,
html-keyboard-response,842,1350977,null,"<div style=""font-size:42px;"">BASKET</div><img id = ""stim"" ><div class = red_square id = topsquare></div>",null,encoding,word_square,,,0,topsquare,none,true,,,BASKET,7,,,
html-keyboard-response,843,1351279,null,"<div style=""font-size:42px;"">BASKET</div>",null,,word,BASKET,,,,,,,,,,,,
html-keyboard-response,844,1352783,null,"",null,,word,BASKET,,,,,,,,,,,,
html-keyboard-response,845,1352988,null,"<div style=""font-size:42px;"">TRUMPET</div><img id = ""stim"" ><div class = green_square id = bottomsquare></div>",null,encoding,word_square,,,1,bottomsquare,32,true,,,TRUMPET,7,,,
html-keyboard-response,846,1353290,226.6000000089407,"<div style=""font-size:42px;"">TRUMPET</div>",32,,word,TRUMPET,,,,,,,,,,,,
html-keyboard-response,847,1354795,null,"",null,,word,TRUMPET,,,,,,,,,,,,
html-keyboard-response,848,1355001,null,"<div style=""font-size:42px;"">ISLAND</div><img id = ""stim"" ><div class = green_square id = topsquare></div>",null,encoding,word_square,,,1,topsquare,32,true,,,ISLAND,7,,,
html-keyboard-response,849,1355303,null,"<div style=""font-size:42px;"">ISLAND</div>",null,,word,ISLAND,,,,,,,,,,,,
html-keyboard-response,850,1356806,186.09999999403954,"",32,,word,ISLAND,,,,,,,,,,,,
html-keyboard-response,851,1357009,null,"<div style=""font-size:42px;"">MARKET</div><img id = ""stim"" ><div class = red_square id = bottomsquare></div>",null,encoding,word_square,,,0,bottomsquare,none,true,,,MARKET,7,,,
html-keyboard-response,852,1357313,null,"<div style=""font-size:42px;"">MARKET</div>",null,,word,MARKET,,,,,,,,,,,,
html-keyboard-response,853,1358815,null,"",null,,word,MARKET,,,,,,,,,,,,
call-function,854,1358817,,"",,,,,,,,,,,,,,,,
html-keyboard-response,855,1358922,null,"",null,,,,,,,,,,,,,,,
math-period,856,1361643,4439.899999991059,"",,,,,,,,,,,2,,,,,
html-keyboard-response,857,1361746,null,"",null,,,,,,,,,,,,,,,
math-period,858,1363651,3423.7999999970198,"",,,,,,,,,,,4,,,,,
html-keyboard-response,859,1363757,null,"",null,,,,,,,,,,,,,,,
math-period,860,1365691,3439.999999985099,"",,,,,,,,,,,3,,,,,
html-keyboard-response,861,1365793,null,"",null,,,,,,,,,,,,,,,
math-period,862,1367443,3007.3999999910593,"",,,,,,,,,,,2,,,,,
html-keyboard-response,863,1367546,null,"",null,,,,,,,,,,,,,,,
math-period,864,1369267,3175.800000011921,"",,,,,,,,,,,3,,,,,
html-keyboard-response,865,1369373,null,"",null,,,,,,,,,,,,,,,
math-period,866,1371148,3201.2999999970198,"",,,,,,,,,,,3,,,,,
html-keyboard-response,867,1371250,null,"",null,,,,,,,,,,,,,,,
math-period,868,1375811,8904.300000011921,"",,,,,,,,,,,2,,,,,
html-keyboard-response,869,1375917,null,"",null,,,,,,,,,,,,,,,
math-period,870,1380812,9570.20000000298,"",,,,,,,,,,,2,,,,,
html-keyboard-response,871,1380917,null,"",null,,,,,,,,,,,,,,,
math-period,872,1382821,null,"",,,,,,,,,,,,,,,,
html-keyboard-response,873,1383824,null,"Recall Period!",null,,,,,,,,,,,,,,,
call-function,874,1383825,,"",,,,,,,,,,,,,,,,
html-keyboard-response,875,1383926,null,"",null,,,,,,,,,,,,,,,
recall-period,876,1387140,9643,"",,,,,,,,,,,idol,,,,,
html-keyboard-response,877,1387245,null,"",null,,,,,,,,,,,,,,,
recall-period,878,1389267,6167.699999973178,"",,,,,,,,,,,cross,,,,,
html-keyboard-response,879,1389373,null,"",null,,,,,,,,,,,,,,,
recall-period,880,1392236,8184.300000026822,"",,,,,,,,,,,clippers,,,,,
html-keyboard-response,881,1392340,null,"",null,,,,,,,,,,,,,,,
recall-period,882,1395500,8074.499999985099,"",,,,,,,,,,,glass,,,,,
html-keyboard-response,883,1395605,null,"",null,,,,,,,,,,,,,,,
recall-period,884,1397916,10368.699999958277,"",,,,,,,,,,,possum,,,,,
html-keyboard-response,885,1398022,null,"",null,,,,,,,,,,,,,,,
recall-period,886,1400452,7667.700000017881,"",,,,,,,,,,,army,,,,,
html-keyboard-response,887,1400557,null,"",null,,,,,,,,,,,,,,,
recall-period,888,1403164,11584.499999955297,"",,,,,,,,,,,friend,,,,,
html-keyboard-response,889,1403266,null,"",null,,,,,,,,,,,,,,,
recall-period,890,1404956,8439.400000020862,"",,,,,,,,,,,brother,,,,,
html-keyboard-response,891,1405058,null,"",null,,,,,,,,,,,,,,,
recall-period,892,1407427,12643.700000032783,"",,,,,,,,,,,raccoon,,,,,
html-keyboard-response,893,1407528,null,"",null,,,,,,,,,,,,,,,
recall-period,894,1409076,4392.800000026822,"",,,,,,,,,,,antler,,,,,
html-keyboard-response,895,1409181,null,"",null,,,,,,,,,,,,,,,
recall-period,896,1410883,7143.899999961257,"",,,,,,,,,,,gazelle,,,,,
html-keyboard-response,897,1410991,null,"",null,,,,,,,,,,,,,,,
recall-period,898,1424972,92424.79999996722,"",,,,,,,,,,,island,,,,,
html-keyboard-response,899,1425075,null,"",null,,,,,,,,,,,,,,,
recall-period,900,1427189,7307.099999964237,"",,,,,,,,,,,market,,,,,
html-keyboard-response,901,1427291,null,"",null,,,,,,,,,,,,,,,
recall-period,902,1429820,14813.000000014901,"",,,,,,,,,,,trombone,,,,,
html-keyboard-response,903,1429923,null,"",null,,,,,,,,,,,,,,,
recall-period,904,1458831,null,"",,,,,,,,,,,,,,,,
html-keyboard-response,905,1459334,null,"Time's Up!",null,,,,,,,,,,,,,,,
html-keyboard-response,906,1461532,2196,"<p> Good job! You have responded correctly to 98% of the trials. </p>
                      <p>Be sure to only press the spacebar if you see a GREEN square, and please keep your accuracy above 80%.</p>
                      <p> Press any key to continue the experiment. </p>",32,,,,,,,,,,,,,,,
html-keyboard-response,907,1464304,2770.5,"<div style=""font-size:48px;"">Press any key to begin list 9 of 16 </div>",32,,,,,,,,,,,,,,,
html-keyboard-response,908,1466815,null,"<div style=""font-size:60px;"">+</div>",null,,,,,,,,,,,,,,,
html-keyboard-response,909,1467020,null,"<div style=""font-size:42px;"">FOLDER</div><img id = ""stim"" ><div class = green_square id = topsquare></div>",null,encoding,word_square,,,1,topsquare,32,true,,,FOLDER,8,,,
html-keyboard-response,910,1467326,null,"<div style=""font-size:42px;"">FOLDER</div>",null,,word,FOLDER,,,,,,,,,,,,
html-keyboard-response,911,1468829,445.40000000596046,"",32,,word,FOLDER,,,,,,,,,,,,
html-keyboard-response,912,1469034,null,"<div style=""font-size:42px;"">BATHTUB</div><img id = ""stim"" ><div class = red_square id = bottomsquare></div>",null,encoding,word_square,,,0,bottomsquare,none,true,,,BATHTUB,8,,,
html-keyboard-response,913,1469338,null,"<div style=""font-size:42px;"">BATHTUB</div>",null,,word,BATHTUB,,,,,,,,,,,,
html-keyboard-response,914,1470841,null,"",null,,word,BATHTUB,,,,,,,,,,,,
html-keyboard-response,915,1471047,null,"<div style=""font-size:42px;"">PAIL</div><img id = ""stim"" ><div class = red_square id = topsquare></div>",null,encoding,word_square,,,0,topsquare,none,true,,,PAIL,8,,,
html-keyboard-response,916,1471352,null,"<div style=""font-size:42px;"">PAIL</div>",null,,word,PAIL,,,,,,,,,,,,
html-keyboard-response,917,1472855,null,"",null,,word,PAIL,,,,,,,,,,,,
html-keyboard-response,918,1473061,null,"<div style=""font-size:42px;"">NOTEBOOK</div><img id = ""stim"" ><div class = green_square id = bottomsquare></div>",null,encoding,word_square,,,1,bottomsquare,32,true,,,NOTEBOOK,8,,,
html-keyboard-response,919,1473363,297.79999999701977,"<div style=""font-size:42px;"">NOTEBOOK</div>",32,,word,NOTEBOOK,,,,,,,,,,,,
html-keyboard-response,920,1474866,null,"",null,,word,NOTEBOOK,,,,,,,,,,,,
