trial_type,trial_index,time_elapsed,rt,stimulus,key_press,exp_phase,test_part,word,task,targ_cond,sq_pos,correctKeyCode,correct,value,response,Word,List,RecResp,serial_pos,colorChosen
pavlovia,0,2823,,"",,,,,,,,,,,,,,,,
external-html,1,27022,24047.799999998882,"",,,,,,,,,,,,,,,,
html-keyboard-response,2,29509,2483.5999999996275,"Welcome to the experiment. Press any key to begin.",13,,,,,,,,,,,,,,,
html-keyboard-response,3,41260,11749.400000000373,"<p>You will see a list of words and colored squares in the following task.<p><p>Press the spacebar whenever you see a GREEN square.<p><p>Do not press a key if the square is RED.<p><p>Press the spacebar to continue.</p>",32,,,,,,,,,,,,,,,
html-keyboard-response,4,55546,13781.699999999255,"<p>Please try to remember as many of the words as you can, and try to think about the meaning of each word as it appears.<p><p>After the detection and encoding task you will be asked to solve some math problems for 24 seconds.<p> Please solve as many problems as you can in the time given. <p><p><p>Press the spacebar to continue.</p>",32,,,,,,,,,,,,,,,
html-keyboard-response,5,72610,16553.699999999255,"After solving the math problems, you will be asked to type in as many words <p>from the previous list as you can remember for 75 seconds.<p> If you finish recalling before the 75 seconds are up,<p> just sit tight and try to think of any more words you could have missed. <p><p><p>Press the spacebar to continue.</p>",32,,,,,,,,,,,,,,,
html-keyboard-response,6,86061,12945.5,"There will be 16 lists of words and recall, followed  by<p><p> a recognition phase. The experiment is expected to take up to 90 minutes.<p>We will begin with a brief practice session.<p>Press the spacebar to begin the practice.</p>",32,,,,,,,,,,,,,,,
html-keyboard-response,7,88583,null,"<div style=""font-size:60px;"">+</div>",null,,,,,,,,,,,,,,,
html-keyboard-response,8,88797,null,"<div style=""font-size:42px;"">HAPPY</div><img id = ""stim"" ><div class = red_square id = ""bottomsquare"" ></div>",null,practice,word_square,HAPPY,prac_response,0,Bottom,none,true,,,,,,,
html-keyboard-response,9,89099,null,"<div style=""font-size:42px;"">HAPPY</div>",null,,word,HAPPY,,,,,,,,,,,,
html-keyboard-response,10,90604,null,"",null,,word,HAPPY,,,,,,,,,,,,
html-keyboard-response,11,90819,null,"<div style=""font-size:42px;"">COLD</div><img id = ""stim"" ><div class = green_square id = ""bottomsquare"" ></div>",null,practice,word_square,COLD,prac_response,1,Bottom,32,true,,,,,,,
html-keyboard-response,12,91121,300.09999999962747,"<div style=""font-size:42px;"">COLD</div>",32,,word,COLD,,,,,,,,,,,,
html-keyboard-response,13,92638,null,"",null,,word,COLD,,,,,,,,,,,,
html-keyboard-response,14,92851,null,"<div style=""font-size:42px;"">HEAVY</div><img id = ""stim"" ><div class = green_square id = ""topsquare"" ></div>",null,practice,word_square,HEAVY,prac_response,1,Top,32,true,,,,,,,
html-keyboard-response,15,93160,null,"<div style=""font-size:42px;"">HEAVY</div>",null,,word,HEAVY,,,,,,,,,,,,
html-keyboard-response,16,94671,296.59999999962747,"",32,,word,HEAVY,,,,,,,,,,,,
html-keyboard-response,17,94878,null,"<div style=""font-size:42px;"">FUNNY</div><img id = ""stim"" ><div class = red_square id = ""topsquare"" ></div>",null,practice,word_square,FUNNY,prac_response,0,Top,none,true,,,,,,,
html-keyboard-response,18,95195,null,"<div style=""font-size:42px;"">FUNNY</div>",null,,word,FUNNY,,,,,,,,,,,,
html-keyboard-response,19,96701,null,"",null,,word,FUNNY,,,,,,,,,,,,
html-keyboard-response,20,96915,null,"<div style=""font-size:42px;"">SCARY</div><img id = ""stim"" ><div class = green_square id = ""bottomsquare"" ></div>",null,practice,word_square,SCARY,prac_response,1,Bottom,32,true,,,,,,,
html-keyboard-response,21,97221,303.7000000011176,"<div style=""font-size:42px;"">SCARY</div>",32,,word,SCARY,,,,,,,,,,,,
html-keyboard-response,22,98730,null,"",null,,word,SCARY,,,,,,,,,,,,
html-keyboard-response,23,98937,null,"<div style=""font-size:42px;"">PEACEFUL</div><img id = ""stim"" ><div class = green_square id = ""topsquare"" ></div>",null,practice,word_square,PEACEFUL,prac_response,1,Top,32,true,,,,,,,
html-keyboard-response,24,99241,null,"<div style=""font-size:42px;"">PEACEFUL</div>",null,,word,PEACEFUL,,,,,,,,,,,,
html-keyboard-response,25,100751,371.2000000011176,"",32,,word,PEACEFUL,,,,,,,,,,,,
html-keyboard-response,26,100955,null,"<div style=""font-size:42px;"">LITTLE</div><img id = ""stim"" ><div class = red_square id = ""bottomsquare"" ></div>",null,practice,word_square,LITTLE,prac_response,0,Bottom,none,true,,,,,,,
html-keyboard-response,27,101267,null,"<div style=""font-size:42px;"">LITTLE</div>",null,,word,LITTLE,,,,,,,,,,,,
html-keyboard-response,28,102783,null,"",null,,word,LITTLE,,,,,,,,,,,,
html-keyboard-response,29,102998,null,"<div style=""font-size:42px;"">TIRED</div><img id = ""stim"" ><div class = red_square id = ""topsquare"" ></div>",null,practice,word_square,TIRED,prac_response,0,Top,none,true,,,,,,,
html-keyboard-response,30,103302,null,"<div style=""font-size:42px;"">TIRED</div>",null,,word,TIRED,,,,,,,,,,,,
html-keyboard-response,31,104806,null,"",null,,word,TIRED,,,,,,,,,,,,
html-keyboard-response,32,105020,null,"<div style=""font-size:42px;"">ENTERTAINING</div><img id = ""stim"" ><div class = red_square id = ""bottomsquare"" ></div>",null,practice,word_square,ENTERTAINING,prac_response,0,Bottom,none,true,,,,,,,
html-keyboard-response,33,105333,null,"<div style=""font-size:42px;"">ENTERTAINING</div>",null,,word,ENTERTAINING,,,,,,,,,,,,
html-keyboard-response,34,106843,null,"",null,,word,ENTERTAINING,,,,,,,,,,,,
html-keyboard-response,35,107056,null,"<div style=""font-size:42px;"">GRATEFUL</div><img id = ""stim"" ><div class = green_square id = ""bottomsquare"" ></div>",null,practice,word_square,GRATEFUL,prac_response,1,Bottom,32,true,,,,,,,
html-keyboard-response,36,107361,302.80000000074506,"<div style=""font-size:42px;"">GRATEFUL</div>",32,,word,GRATEFUL,,,,,,,,,,,,
html-keyboard-response,37,108872,null,"",null,,word,GRATEFUL,,,,,,,,,,,,
html-keyboard-response,38,109088,null,"<div style=""font-size:42px;"">LOUD</div><img id = ""stim"" ><div class = red_square id = ""topsquare"" ></div>",null,practice,word_square,LOUD,prac_response,0,Top,none,true,,,,,,,
html-keyboard-response,39,109396,null,"<div style=""font-size:42px;"">LOUD</div>",null,,word,LOUD,,,,,,,,,,,,
html-keyboard-response,40,110900,null,"",null,,word,LOUD,,,,,,,,,,,,
html-keyboard-response,41,111116,null,"<div style=""font-size:42px;"">SMART</div><img id = ""stim"" ><div class = green_square id = ""topsquare"" ></div>",null,practice,word_square,SMART,prac_response,1,Top,32,true,,,,,,,
html-keyboard-response,42,111424,75.70000000111759,"<div style=""font-size:42px;"">SMART</div>",32,,word,SMART,,,,,,,,,,,,
html-keyboard-response,43,112940,null,"",null,,word,SMART,,,,,,,,,,,,
html-keyboard-response,44,113154,null,"<div style=""font-size:42px;"">SMOOTH</div><img id = ""stim"" ><div class = green_square id = ""bottomsquare"" ></div>",null,practice,word_square,SMOOTH,prac_response,1,Bottom,32,true,,,,,,,
html-keyboard-response,45,113468,284.90000000037253,"<div style=""font-size:42px;"">SMOOTH</div>",32,,word,SMOOTH,,,,,,,,,,,,
html-keyboard-response,46,114971,null,"",null,,word,SMOOTH,,,,,,,,,,,,
html-keyboard-response,47,115174,null,"<div style=""font-size:42px;"">DISHONEST</div><img id = ""stim"" ><div class = red_square id = ""bottomsquare"" ></div>",null,practice,word_square,DISHONEST,prac_response,0,Bottom,none,true,,,,,,,
html-keyboard-response,48,115477,null,"<div style=""font-size:42px;"">DISHONEST</div>",null,,word,DISHONEST,,,,,,,,,,,,
html-keyboard-response,49,116979,null,"",null,,word,DISHONEST,,,,,,,,,,,,
html-keyboard-response,50,117186,null,"<div style=""font-size:42px;"">WEALTHY</div><img id = ""stim"" ><div class = green_square id = ""topsquare"" ></div>",null,practice,word_square,WEALTHY,prac_response,1,Top,32,true,,,,,,,
html-keyboard-response,51,117494,281.30000000074506,"<div style=""font-size:42px;"">WEALTHY</div>",32,,word,WEALTHY,,,,,,,,,,,,
html-keyboard-response,52,119006,null,"",null,,word,WEALTHY,,,,,,,,,,,,
html-keyboard-response,53,119220,null,"<div style=""font-size:42px;"">BEAUTIFUL</div><img id = ""stim"" ><div class = red_square id = ""topsquare"" ></div>",null,practice,word_square,BEAUTIFUL,prac_response,0,Top,none,true,,,,,,,
html-keyboard-response,54,119537,null,"<div style=""font-size:42px;"">BEAUTIFUL</div>",null,,word,BEAUTIFUL,,,,,,,,,,,,
html-keyboard-response,55,121047,null,"",null,,word,BEAUTIFUL,,,,,,,,,,,,
html-keyboard-response,56,130143,9093.800000000745,"<p> Good job! You responded correctly to 100% of the trials. </p>
                  <p>Be sure to only press the spacebar if you see a GREEN square, and please keep your accuracy above 80%.</p>
                  <p>We're going to try once more to make sure you understand the task. press any key to continue. </p>",32,,,,,,,,,,,,,,,
html-keyboard-response,57,134434,4289.39999999851,"<p>You will see a list of words and colored squares in the following task.<p><p>Press the spacebar whenever you see a GREEN square.<p><p>Do not press a key if the square is RED<p><p>Press the spacebar to continue.</p>",32,,,,,,,,,,,,,,,
html-keyboard-response,58,136955,null,"<div style=""font-size:60px;"">+</div>",null,,,,,,,,,,,,,,,
html-keyboard-response,59,137169,null,"<div style=""font-size:42px;"">HAPPY</div><img id = ""stim"" ><div class = red_square id = ""bottomsquare"" ></div>",null,practice2,word_square,HAPPY,prac_response,0,Bottom,none,true,,,,,,,
html-keyboard-response,60,137485,null,"<div style=""font-size:42px;"">HAPPY</div>",null,,word,HAPPY,,,,,,,,,,,,
html-keyboard-response,61,138993,null,"",null,,word,HAPPY,,,,,,,,,,,,
html-keyboard-response,62,139204,null,"<div style=""font-size:42px;"">COLD</div><img id = ""stim"" ><div class = green_square id = ""bottomsquare"" ></div>",null,practice2,word_square,,prac_response,1,Bottom,32,true,,,,,,,
html-keyboard-response,63,139512,278.90000000037253,"<div style=""font-size:42px;"">COLD</div>",32,,word,COLD,,,,,,,,,,,,
html-keyboard-response,64,141016,null,"",null,,word,COLD,,,,,,,,,,,,
html-keyboard-response,65,141225,null,"<div style=""font-size:42px;"">HEAVY</div><img id = ""stim"" ><div class = green_square id = ""topsquare"" ></div>",null,practice2,word_square,,prac_response,1,Top,32,true,,,,,,,
html-keyboard-response,66,141541,297.09999999962747,"<div style=""font-size:42px;"">HEAVY</div>",32,,word,HEAVY,,,,,,,,,,,,
html-keyboard-response,67,143046,null,"",null,,word,HEAVY,,,,,,,,,,,,
html-keyboard-response,68,143253,null,"<div style=""font-size:42px;"">FUNNY</div><img id = ""stim"" ><div class = red_square id = ""topsquare"" ></div>",null,practice2,word_square,,prac_response,0,Top,none,true,,,,,,,
html-keyboard-response,69,143570,null,"<div style=""font-size:42px;"">FUNNY</div>",null,,word,FUNNY,,,,,,,,,,,,
html-keyboard-response,70,145076,null,"",null,,word,FUNNY,,,,,,,,,,,,
html-keyboard-response,71,145292,null,"<div style=""font-size:42px;"">SCARY</div><img id = ""stim"" ><div class = green_square id = ""bottomsquare"" ></div>",null,practice2,word_square,,prac_response,1,Bottom,32,true,,,,,,,
html-keyboard-response,72,145597,143.40000000037253,"<div style=""font-size:42px;"">SCARY</div>",32,,word,SCARY,,,,,,,,,,,,
html-keyboard-response,73,147107,null,"",null,,word,SCARY,,,,,,,,,,,,
html-keyboard-response,74,147314,null,"<div style=""font-size:42px;"">PEACEFUL</div><img id = ""stim"" ><div class = green_square id = ""topsquare"" ></div>",null,practice2,word_square,,prac_response,1,Top,32,true,,,,,,,
html-keyboard-response,75,147616,301.5,"<div style=""font-size:42px;"">PEACEFUL</div>",32,,word,PEACEFUL,,,,,,,,,,,,
html-keyboard-response,76,149132,null,"",null,,word,PEACEFUL,,,,,,,,,,,,
html-keyboard-response,77,149341,null,"<div style=""font-size:42px;"">LITTLE</div><img id = ""stim"" ><div class = red_square id = ""bottomsquare"" ></div>",null,practice2,word_square,LITTLE,prac_response,0,Bottom,none,true,,,,,,,
html-keyboard-response,78,149649,null,"<div style=""font-size:42px;"">LITTLE</div>",null,,word,LITTLE,,,,,,,,,,,,
html-keyboard-response,79,151155,null,"",null,,word,LITTLE,,,,,,,,,,,,
html-keyboard-response,80,151369,null,"<div style=""font-size:42px;"">TIRED</div><img id = ""stim"" ><div class = red_square id = ""topsquare"" ></div>",null,practice2,word_square,,prac_response,0,Top,none,false,,,,,,,
html-keyboard-response,81,151678,144.59999999962747,"<div style=""font-size:42px;"">TIRED</div>",32,,word,TIRED,,,,,,,,,,,,
html-keyboard-response,82,153193,null,"",null,,word,TIRED,,,,,,,,,,,,
html-keyboard-response,83,153403,null,"<div style=""font-size:42px;"">ENTERTAINING</div><img id = ""stim"" ><div class = red_square id = ""bottomsquare"" ></div>",null,practice2,word_square,ENTERTAINING,prac_response,0,Bottom,none,true,,,,,,,
html-keyboard-response,84,153720,null,"<div style=""font-size:42px;"">ENTERTAINING</div>",null,,word,ENTERTAINING,,,,,,,,,,,,
html-keyboard-response,85,155236,null,"",null,,word,ENTERTAINING,,,,,,,,,,,,
html-keyboard-response,86,155443,null,"<div style=""font-size:42px;"">GRATEFUL</div><img id = ""stim"" ><div class = green_square id = ""bottomsquare"" ></div>",null,practice2,word_square,,prac_response,1,Bottom,32,true,,,,,,,
html-keyboard-response,87,155746,264.40000000037253,"<div style=""font-size:42px;"">GRATEFUL</div>",32,,word,GRATEFUL,,,,,,,,,,,,
html-keyboard-response,88,157259,null,"",null,,word,GRATEFUL,,,,,,,,,,,,
html-keyboard-response,89,157472,null,"<div style=""font-size:42px;"">LOUD</div><img id = ""stim"" ><div class = red_square id = ""topsquare"" ></div>",null,practice2,word_square,,prac_response,0,Top,none,true,,,,,,,
html-keyboard-response,90,157778,null,"<div style=""font-size:42px;"">LOUD</div>",null,,word,LOUD,,,,,,,,,,,,
html-keyboard-response,91,159283,null,"",null,,word,LOUD,,,,,,,,,,,,
html-keyboard-response,92,159493,null,"<div style=""font-size:42px;"">SMART</div><img id = ""stim"" ><div class = green_square id = ""topsquare"" ></div>",null,practice2,word_square,,prac_response,1,Top,32,true,,,,,,,
html-keyboard-response,93,159804,163.59999999962747,"<div style=""font-size:42px;"">SMART</div>",32,,word,SMART,,,,,,,,,,,,
html-keyboard-response,94,161315,null,"",null,,word,SMART,,,,,,,,,,,,
html-keyboard-response,95,161527,null,"<div style=""font-size:42px;"">SMOOTH</div><img id = ""stim"" ><div class = green_square id = ""bottomsquare"" ></div>",null,practice2,word_square,,prac_response,1,Bottom,32,true,,,,,,,
html-keyboard-response,96,161831,152,"<div style=""font-size:42px;"">SMOOTH</div>",32,,word,SMOOTH,,,,,,,,,,,,
html-keyboard-response,97,163336,null,"",null,,word,SMOOTH,,,,,,,,,,,,
html-keyboard-response,98,163552,null,"<div style=""font-size:42px;"">DISHONEST</div><img id = ""stim"" ><div class = red_square id = ""bottomsquare"" ></div>",null,practice2,word_square,DISHONEST,prac_response,0,Bottom,none,true,,,,,,,
html-keyboard-response,99,163861,null,"<div style=""font-size:42px;"">DISHONEST</div>",null,,word,DISHONEST,,,,,,,,,,,,
html-keyboard-response,100,165375,null,"",null,,word,DISHONEST,,,,,,,,,,,,
html-keyboard-response,101,165592,null,"<div style=""font-size:42px;"">WEALTHY</div><img id = ""stim"" ><div class = green_square id = ""topsquare"" ></div>",null,practice2,word_square,,prac_response,1,Top,32,true,,,,,,,
html-keyboard-response,102,165896,null,"<div style=""font-size:42px;"">WEALTHY</div>",null,,word,WEALTHY,,,,,,,,,,,,
html-keyboard-response,103,167407,131.59999999962747,"",32,,word,WEALTHY,,,,,,,,,,,,
html-keyboard-response,104,167614,null,"<div style=""font-size:42px;"">BEAUTIFUL</div><img id = ""stim"" ><div class = red_square id = ""topsquare"" ></div>",null,practice2,word_square,,prac_response,0,Top,none,false,,,,,,,
html-keyboard-response,105,167923,null,"<div style=""font-size:42px;"">BEAUTIFUL</div>",null,,word,BEAUTIFUL,,,,,,,,,,,,
html-keyboard-response,106,169435,null,"",null,,word,BEAUTIFUL,,,,,,,,,,,,
html-keyboard-response,107,402273,232837.59999999963,"<p> Good job! You responded correctly to 94% of the trials. </p>
                    <p>Be sure to only press the spacebar if you see a GREEN square, and please keep your accuracy above 80%.</p>
                    <p>Press any key to begin the math and recall sections. Thank you! </p>",32,,,,,,,,,,,,,,,
call-function,108,402275,,"",,,,,,,,,,,,,,,,
html-keyboard-response,109,402379,null,"",null,,,,,,,,,,,,,,,
math-period,110,406547,6749.999999998137,"",,,,,,,,,,,4,,,,,
html-keyboard-response,111,406663,null,"",null,,,,,,,,,,,,,,,
math-period,112,408642,3658.400000002235,"",,,,,,,,,,,1,,,,,
html-keyboard-response,113,408747,null,"",null,,,,,,,,,,,,,,,
math-period,114,410073,2475.89999999851,"",,,,,,,,,,,4,,,,,
html-keyboard-response,115,410174,null,"",null,,,,,,,,,,,,,,,
math-period,116,411356,2217.699999999255,"",,,,,,,,,,,4,,,,,
html-keyboard-response,117,411458,null,"",null,,,,,,,,,,,,,,,
math-period,118,412847,2617.5,"",,,,,,,,,,,3,,,,,
html-keyboard-response,119,412953,null,"",null,,,,,,,,,,,,,,,
math-period,120,413975,1893.7999999988824,"",,,,,,,,,,,3,,,,,
html-keyboard-response,121,414086,null,"",null,,,,,,,,,,,,,,,
math-period,122,416393,4206.299999998882,"",,,,,,,,,,,0,,,,,
html-keyboard-response,123,416500,null,"",null,,,,,,,,,,,,,,,
math-period,124,418242,3299.699999999255,"",,,,,,,,,,,5,,,,,
html-keyboard-response,125,418352,null,"",null,,,,,,,,,,,,,,,
math-period,126,420962,5102,"",,,,,,,,,,,2,,,,,
html-keyboard-response,127,421065,null,"",null,,,,,,,,,,,,,,,
math-period,128,422263,2291.300000000745,"",,,,,,,,,,,4,,,,,
html-keyboard-response,129,422376,null,"",null,,,,,,,,,,,,,,,
math-period,130,424910,4935.800000000745,"",,,,,,,,,,,1,,,,,
html-keyboard-response,131,425023,null,"",null,,,,,,,,,,,,,,,
math-period,132,426279,null,"",,,,,,,,,,,,,,,,
html-keyboard-response,133,427293,null,"Recall Period!",null,,,,,,,,,,,,,,,
call-function,134,427294,,"",,,,,,,,,,,,,,,,
html-keyboard-response,135,427407,null,"",null,,,,,,,,,,,,,,,
recall-period,136,431431,21221.700000001118,"",,,,,,,,,,,happy,,,,,
html-keyboard-response,137,431535,null,"",null,,,,,,,,,,,,,,,
recall-period,138,432942,6335.999999994412,"",,,,,,,,,,,little,,,,,
html-keyboard-response,139,433056,null,"",null,,,,,,,,,,,,,,,
recall-period,140,438036,26374.000000001863,"",,,,,,,,,,,tired,,,,,
html-keyboard-response,141,438143,null,"",null,,,,,,,,,,,,,,,
recall-period,142,451835,102852.79999999516,"",,,,,,,,,,,excited,,,,,
html-keyboard-response,143,451941,null,"",null,,,,,,,,,,,,,,,
recall-period,144,458034,28908.19999999553,"",,,,,,,,,,,cold,,,,,
html-keyboard-response,145,458136,null,"",null,,,,,,,,,,,,,,,
recall-period,146,502309,null,"",,,,,,,,,,,,,,,,
html-keyboard-response,147,502826,null,"Time's Up!",null,,,,,,,,,,,,,,,
html-keyboard-response,148,799622,296792.8999999985,"<p>We will now begin the experiment!<p><p>Please try to remember all words from each list.<p><p>Press the spacebar whenever you see a GREEN square.<p><p><p><p>Press the spacebar to begin.</p>",32,,,,,,,,,,,,,,,
html-keyboard-response,149,804503,4364.5,"<div style=""font-size:48px;"">Press any key to begin list 1 of 16 </div>",32,,,,,,,,,,,,,,,
html-keyboard-response,150,807025,null,"<div style=""font-size:60px;"">+</div>",null,,,,,,,,,,,,,,,
html-keyboard-response,151,807241,null,"<div style=""font-size:42px;"">SKETCH</div><img id = ""stim"" ><div class = green_square id = topsquare></div>",null,encoding,word_square,,,1,topsquare,32,true,,,SKETCH,0,,,
html-keyboard-response,152,807553,null,"<div style=""font-size:42px;"">SKETCH</div>",null,,word,SKETCH,,,,,,,,,,,,
html-keyboard-response,153,809056,39,"",32,,word,SKETCH,,,,,,,,,,,,
html-keyboard-response,154,809260,null,"<div style=""font-size:42px;"">SCALLOP</div><img id = ""stim"" ><div class = red_square id = bottomsquare></div>",null,encoding,word_square,,,0,bottomsquare,none,true,,,SCALLOP,0,,,
html-keyboard-response,155,809570,null,"<div style=""font-size:42px;"">SCALLOP</div>",null,,word,SCALLOP,,,,,,,,,,,,
html-keyboard-response,156,811086,null,"",null,,word,SCALLOP,,,,,,,,,,,,
html-keyboard-response,157,811293,null,"<div style=""font-size:42px;"">COD</div><img id = ""stim"" ><div class = red_square id = topsquare></div>",null,encoding,word_square,,,0,topsquare,none,true,,,COD,0,,,
html-keyboard-response,158,811604,null,"<div style=""font-size:42px;"">COD</div>",null,,word,COD,,,,,,,,,,,,
html-keyboard-response,159,813117,null,"",null,,word,COD,,,,,,,,,,,,
html-keyboard-response,160,813327,null,"<div style=""font-size:42px;"">DRESS</div><img id = ""stim"" ><div class = green_square id = bottomsquare></div>",null,encoding,word_square,,,1,bottomsquare,32,true,,,DRESS,0,,,
html-keyboard-response,161,813642,null,"<div style=""font-size:42px;"">DRESS</div>",null,,word,DRESS,,,,,,,,,,,,
html-keyboard-response,162,815146,62.100000001490116,"",32,,word,DRESS,,,,,,,,,,,,
html-keyboard-response,163,815361,null,"<div style=""font-size:42px;"">SILK</div><img id = ""stim"" ><div class = green_square id = topsquare></div>",null,encoding,word_square,,,1,topsquare,32,true,,,SILK,0,,,
html-keyboard-response,164,815665,null,"<div style=""font-size:42px;"">SILK</div>",null,,word,SILK,,,,,,,,,,,,
html-keyboard-response,165,817171,139.5,"",32,,word,SILK,,,,,,,,,,,,
html-keyboard-response,166,817376,null,"<div style=""font-size:42px;"">CANYON</div><img id = ""stim"" ><div class = red_square id = bottomsquare></div>",null,encoding,word_square,,,0,bottomsquare,none,true,,,CANYON,0,,,
html-keyboard-response,167,817686,null,"<div style=""font-size:42px;"">CANYON</div>",null,,word,CANYON,,,,,,,,,,,,
html-keyboard-response,168,819197,null,"",null,,word,CANYON,,,,,,,,,,,,
html-keyboard-response,169,819410,null,"<div style=""font-size:42px;"">JOURNAL</div><img id = ""stim"" ><div class = green_square id = bottomsquare></div>",null,encoding,word_square,,,1,bottomsquare,32,true,,,JOURNAL,0,,,
html-keyboard-response,170,819724,null,"<div style=""font-size:42px;"">JOURNAL</div>",null,,word,JOURNAL,,,,,,,,,,,,
html-keyboard-response,171,821238,332,"",32,,word,JOURNAL,,,,,,,,,,,,
html-keyboard-response,172,821444,null,"<div style=""font-size:42px;"">NOVEL</div><img id = ""stim"" ><div class = red_square id = topsquare></div>",null,encoding,word_square,,,0,topsquare,none,true,,,NOVEL,0,,,
html-keyboard-response,173,821755,null,"<div style=""font-size:42px;"">NOVEL</div>",null,,word,NOVEL,,,,,,,,,,,,
html-keyboard-response,174,823263,null,"",null,,word,NOVEL,,,,,,,,,,,,
html-keyboard-response,175,823467,null,"<div style=""font-size:42px;"">CIGAR</div><img id = ""stim"" ><div class = green_square id = topsquare></div>",null,encoding,word_square,,,1,topsquare,32,true,,,CIGAR,0,,,
html-keyboard-response,176,823770,165.5,"<div style=""font-size:42px;"">CIGAR</div>",32,,word,CIGAR,,,,,,,,,,,,
html-keyboard-response,177,825284,null,"",null,,word,CIGAR,,,,,,,,,,,,
html-keyboard-response,178,825489,null,"<div style=""font-size:42px;"">RADISH</div><img id = ""stim"" ><div class = green_square id = bottomsquare></div>",null,encoding,word_square,,,1,bottomsquare,32,true,,,RADISH,0,,,
html-keyboard-response,179,825805,281.59999999962747,"<div style=""font-size:42px;"">RADISH</div>",32,,word,RADISH,,,,,,,,,,,,
html-keyboard-response,180,827315,null,"",null,,word,RADISH,,,,,,,,,,,,
html-keyboard-response,181,827525,null,"<div style=""font-size:42px;"">LIVER</div><img id = ""stim"" ><div class = red_square id = bottomsquare></div>",null,encoding,word_square,,,0,bottomsquare,none,true,,,LIVER,0,,,
html-keyboard-response,182,827836,null,"<div style=""font-size:42px;"">LIVER</div>",null,,word,LIVER,,,,,,,,,,,,
html-keyboard-response,183,829344,null,"",null,,word,LIVER,,,,,,,,,,,,
html-keyboard-response,184,829560,null,"<div style=""font-size:42px;"">ASIA</div><img id = ""stim"" ><div class = red_square id = topsquare></div>",null,encoding,word_square,,,0,topsquare,none,true,,,ASIA,0,,,
html-keyboard-response,185,829872,null,"<div style=""font-size:42px;"">ASIA</div>",null,,word,ASIA,,,,,,,,,,,,
html-keyboard-response,186,831382,null,"",null,,word,ASIA,,,,,,,,,,,,
html-keyboard-response,187,831594,null,"<div style=""font-size:42px;"">RABBIT</div><img id = ""stim"" ><div class = green_square id = topsquare></div>",null,encoding,word_square,,,1,topsquare,32,true,,,RABBIT,0,,,
html-keyboard-response,188,831903,null,"<div style=""font-size:42px;"">RABBIT</div>",null,,word,RABBIT,,,,,,,,,,,,
html-keyboard-response,189,833415,100.20000000111759,"",32,,word,RABBIT,,,,,,,,,,,,
html-keyboard-response,190,833628,null,"<div style=""font-size:42px;"">CHISEL</div><img id = ""stim"" ><div class = green_square id = bottomsquare></div>",null,encoding,word_square,,,1,bottomsquare,32,true,,,CHISEL,0,,,
html-keyboard-response,191,833937,null,"<div style=""font-size:42px;"">CHISEL</div>",null,,word,CHISEL,,,,,,,,,,,,
html-keyboard-response,192,835447,15.799999998882413,"",32,,word,CHISEL,,,,,,,,,,,,
html-keyboard-response,193,835658,null,"<div style=""font-size:42px;"">CAMEL</div><img id = ""stim"" ><div class = red_square id = bottomsquare></div>",null,encoding,word_square,,,0,bottomsquare,none,true,,,CAMEL,0,,,
html-keyboard-response,194,835972,null,"<div style=""font-size:42px;"">CAMEL</div>",null,,word,CAMEL,,,,,,,,,,,,
html-keyboard-response,195,837488,null,"",null,,word,CAMEL,,,,,,,,,,,,
html-keyboard-response,196,837694,null,"<div style=""font-size:42px;"">SUMMIT</div><img id = ""stim"" ><div class = red_square id = topsquare></div>",null,encoding,word_square,,,0,topsquare,none,true,,,SUMMIT,0,,,
html-keyboard-response,197,838006,null,"<div style=""font-size:42px;"">SUMMIT</div>",null,,word,SUMMIT,,,,,,,,,,,,
html-keyboard-response,198,839509,null,"",null,,word,SUMMIT,,,,,,,,,,,,
call-function,199,839511,,"",,,,,,,,,,,,,,,,
html-keyboard-response,200,839616,null,"",null,,,,,,,,,,,,,,,
math-period,201,842884,6224.89999999851,"",,,,,,,,,,,4,,,,,
html-keyboard-response,202,842987,null,"",null,,,,,,,,,,,,,,,
math-period,203,844916,3699.9000000003725,"",,,,,,,,,,,2,,,,,
html-keyboard-response,204,845031,null,"",null,,,,,,,,,,,,,,,
math-period,205,846979,3646.89999999851,"",,,,,,,,,,,2,,,,,
html-keyboard-response,206,847082,null,"",null,,,,,,,,,,,,,,,
math-period,207,848298,2253.300000000745,"",,,,,,,,,,,3,,,,,
html-keyboard-response,208,848407,null,"",null,,,,,,,,,,,,,,,
math-period,209,849961,2859.699999999255,"",,,,,,,,,,,6,,,,,
html-keyboard-response,210,850067,null,"",null,,,,,,,,,,,,,,,
math-period,211,851277,2169.89999999851,"",,,,,,,,,,,3,,,,,
html-keyboard-response,212,851383,null,"",null,,,,,,,,,,,,,,,
math-period,213,853299,3648.60000000149,"",,,,,,,,,,,3,,,,,
html-keyboard-response,214,853416,null,"",null,,,,,,,,,,,,,,,
math-period,215,854710,2392.3000000026077,"",,,,,,,,,,,1,,,,,
html-keyboard-response,216,854817,null,"",null,,,,,,,,,,,,,,,
math-period,217,856104,2363.0999999996275,"",,,,,,,,,,,5,,,,,
html-keyboard-response,218,856215,null,"",null,,,,,,,,,,,,,,,
math-period,219,858366,4091.7999999988824,"",,,,,,,,,,,2,,,,,
html-keyboard-response,220,858482,null,"",null,,,,,,,,,,,,,,,
math-period,221,859830,2538.5999999996275,"",,,,,,,,,,,5,,,,,
html-keyboard-response,222,859934,null,"",null,,,,,,,,,,,,,,,
math-period,223,863512,4852.39999999851,"",,,,,,,,,,,undefined0,,,,,
html-keyboard-response,224,864521,null,"Recall Period!",null,,,,,,,,,,,,,,,
call-function,225,864522,,"",,,,,,,,,,,,,,,,
html-keyboard-response,226,864637,null,"",null,,,,,,,,,,,,,,,
recall-period,227,869132,16051.300000002608,"",,,,,,,,,,,cod,,,,,
html-keyboard-response,228,869237,null,"",null,,,,,,,,,,,,,,,
recall-period,229,871056,7248.89999999851,"",,,,,,,,,,,camel,,,,,
html-keyboard-response,230,871172,null,"",null,,,,,,,,,,,,,,,
recall-period,231,875695,27328.500000003725,"",,,,,,,,,,,radish,,,,,
html-keyboard-response,232,875804,null,"",null,,,,,,,,,,,,,,,
recall-period,233,881933,41600.500000003725,"",,,,,,,,,,,camel,,,,,
html-keyboard-response,234,882038,null,"",null,,,,,,,,,,,,,,,
recall-period,235,939551,null,"",,,,,,,,,,,,,,,,
html-keyboard-response,236,940062,null,"Time's Up!",null,,,,,,,,,,,,,,,
html-keyboard-response,237,955911,15846.599999999627,"<p> Good job! You have responded correctly to 100% of the trials. </p>
                      <p>Be sure to only press the spacebar if you see a GREEN square, and please keep your accuracy above 80%.</p>
                      <p> Press any key to continue the experiment. </p>",32,,,,,,,,,,,,,,,
html-keyboard-response,238,957026,1113,"<div style=""font-size:48px;"">Press any key to begin list 2 of 16 </div>",32,,,,,,,,,,,,,,,
html-keyboard-response,239,959540,null,"<div style=""font-size:60px;"">+</div>",null,,,,,,,,,,,,,,,
html-keyboard-response,240,959750,null,"<div style=""font-size:42px;"">GOBLIN</div><img id = ""stim"" ><div class = red_square id = topsquare></div>",null,encoding,word_square,,,0,topsquare,none,true,,,GOBLIN,1,,,
html-keyboard-response,241,960060,null,"<div style=""font-size:42px;"">GOBLIN</div>",null,,word,GOBLIN,,,,,,,,,,,,
html-keyboard-response,242,961574,null,"",null,,word,GOBLIN,,,,,,,,,,,,
html-keyboard-response,243,961782,null,"<div style=""font-size:42px;"">PUPIL</div><img id = ""stim"" ><div class = red_square id = bottomsquare></div>",null,encoding,word_square,,,0,bottomsquare,none,true,,,PUPIL,1,,,
html-keyboard-response,244,962094,null,"<div style=""font-size:42px;"">PUPIL</div>",null,,word,PUPIL,,,,,,,,,,,,
html-keyboard-response,245,963605,null,"",null,,word,PUPIL,,,,,,,,,,,,
html-keyboard-response,246,963815,null,"<div style=""font-size:42px;"">SEASHORE</div><img id = ""stim"" ><div class = green_square id = bottomsquare></div>",null,encoding,word_square,,,1,bottomsquare,32,true,,,SEASHORE,1,,,
html-keyboard-response,247,964127,null,"<div style=""font-size:42px;"">SEASHORE</div>",null,,word,SEASHORE,,,,,,,,,,,,
html-keyboard-response,248,965643,207.2000000011176,"",32,,word,SEASHORE,,,,,,,,,,,,
html-keyboard-response,249,965850,null,"<div style=""font-size:42px;"">THICKET</div><img id = ""stim"" ><div class = green_square id = topsquare></div>",null,encoding,word_square,,,1,topsquare,32,true,,,THICKET,1,,,
html-keyboard-response,250,966162,null,"<div style=""font-size:42px;"">THICKET</div>",null,,word,THICKET,,,,,,,,,,,,
html-keyboard-response,251,967669,43.19999999925494,"",32,,word,THICKET,,,,,,,,,,,,
html-keyboard-response,252,967882,null,"<div style=""font-size:42px;"">BUREAU</div><img id = ""stim"" ><div class = red_square id = topsquare></div>",null,encoding,word_square,,,0,topsquare,none,true,,,BUREAU,1,,,
html-keyboard-response,253,968193,null,"<div style=""font-size:42px;"">BUREAU</div>",null,,word,BUREAU,,,,,,,,,,,,
html-keyboard-response,254,969710,null,"",null,,word,BUREAU,,,,,,,,,,,,
html-keyboard-response,255,969915,null,"<div style=""font-size:42px;"">DRESSER</div><img id = ""stim"" ><div class = red_square id = bottomsquare></div>",null,encoding,word_square,,,0,bottomsquare,none,true,,,DRESSER,1,,,
html-keyboard-response,256,970227,null,"<div style=""font-size:42px;"">DRESSER</div>",null,,word,DRESSER,,,,,,,,,,,,
html-keyboard-response,257,971742,null,"",null,,word,DRESSER,,,,,,,,,,,,
html-keyboard-response,258,971950,null,"<div style=""font-size:42px;"">HATCHET</div><img id = ""stim"" ><div class = green_square id = bottomsquare></div>",null,encoding,word_square,,,1,bottomsquare,32,true,,,HATCHET,1,,,
html-keyboard-response,259,972260,92.59999999962747,"<div style=""font-size:42px;"">HATCHET</div>",32,,word,HATCHET,,,,,,,,,,,,
html-keyboard-response,260,973772,null,"",null,,word,HATCHET,,,,,,,,,,,,
html-keyboard-response,261,973983,null,"<div style=""font-size:42px;"">SPOON</div><img id = ""stim"" ><div class = green_square id = topsquare></div>",null,encoding,word_square,,,1,topsquare,32,true,,,SPOON,1,,,
html-keyboard-response,262,974292,202,"<div style=""font-size:42px;"">SPOON</div>",32,,word,SPOON,,,,,,,,,,,,
html-keyboard-response,263,975805,null,"",null,,word,SPOON,,,,,,,,,,,,
html-keyboard-response,264,976016,null,"<div style=""font-size:42px;"">SIDEWALK</div><img id = ""stim"" ><div class = red_square id = topsquare></div>",null,encoding,word_square,,,0,topsquare,none,true,,,SIDEWALK,1,,,
html-keyboard-response,265,976327,null,"<div style=""font-size:42px;"">SIDEWALK</div>",null,,word,SIDEWALK,,,,,,,,,,,,
html-keyboard-response,266,977831,null,"",null,,word,SIDEWALK,,,,,,,,,,,,
html-keyboard-response,267,978048,null,"<div style=""font-size:42px;"">HIKER</div><img id = ""stim"" ><div class = green_square id = bottomsquare></div>",null,encoding,word_square,,,1,bottomsquare,32,true,,,HIKER,1,,,
html-keyboard-response,268,978359,null,"<div style=""font-size:42px;"">HIKER</div>",null,,word,HIKER,,,,,,,,,,,,
html-keyboard-response,269,979871,6.599999999627471,"",32,,word,HIKER,,,,,,,,,,,,
html-keyboard-response,270,980084,null,"<div style=""font-size:42px;"">MONSTER</div><img id = ""stim"" ><div class = red_square id = bottomsquare></div>",null,encoding,word_square,,,0,bottomsquare,none,true,,,MONSTER,1,,,
html-keyboard-response,271,980394,null,"<div style=""font-size:42px;"">MONSTER</div>",null,,word,MONSTER,,,,,,,,,,,,
html-keyboard-response,272,981897,null,"",null,,word,MONSTER,,,,,,,,,,,,
html-keyboard-response,273,982115,null,"<div style=""font-size:42px;"">GALLON</div><img id = ""stim"" ><div class = green_square id = topsquare></div>",null,encoding,word_square,,,1,topsquare,32,true,,,GALLON,1,,,
html-keyboard-response,274,982427,58.20000000111759,"<div style=""font-size:42px;"">GALLON</div>",32,,word,GALLON,,,,,,,,,,,,
html-keyboard-response,275,983929,null,"",null,,word,GALLON,,,,,,,,,,,,
html-keyboard-response,276,984133,null,"<div style=""font-size:42px;"">MOUNTAIN</div><img id = ""stim"" ><div class = green_square id = bottomsquare></div>",null,encoding,word_square,,,1,bottomsquare,32,true,,,MOUNTAIN,1,,,
html-keyboard-response,277,984439,248.80000000074506,"<div style=""font-size:42px;"">MOUNTAIN</div>",32,,word,MOUNTAIN,,,,,,,,,,,,
html-keyboard-response,278,985957,null,"",null,,word,MOUNTAIN,,,,,,,,,,,,
html-keyboard-response,279,986166,null,"<div style=""font-size:42px;"">TEACHER</div><img id = ""stim"" ><div class = red_square id = topsquare></div>",null,encoding,word_square,,,0,topsquare,none,true,,,TEACHER,1,,,
html-keyboard-response,280,986476,null,"<div style=""font-size:42px;"">TEACHER</div>",null,,word,TEACHER,,,,,,,,,,,,
html-keyboard-response,281,987987,null,"",null,,word,TEACHER,,,,,,,,,,,,
html-keyboard-response,282,988199,null,"<div style=""font-size:42px;"">RELISH</div><img id = ""stim"" ><div class = red_square id = bottomsquare></div>",null,encoding,word_square,,,0,bottomsquare,none,true,,,RELISH,1,,,
html-keyboard-response,283,988509,null,"<div style=""font-size:42px;"">RELISH</div>",null,,word,RELISH,,,,,,,,,,,,
html-keyboard-response,284,990022,null,"",null,,word,RELISH,,,,,,,,,,,,
html-keyboard-response,285,990232,null,"<div style=""font-size:42px;"">CRYSTAL</div><img id = ""stim"" ><div class = green_square id = topsquare></div>",null,encoding,word_square,,,1,topsquare,32,true,,,CRYSTAL,1,,,
html-keyboard-response,286,990545,226.2000000011176,"<div style=""font-size:42px;"">CRYSTAL</div>",32,,word,CRYSTAL,,,,,,,,,,,,
html-keyboard-response,287,992058,null,"",null,,word,CRYSTAL,,,,,,,,,,,,
call-function,288,992060,,"",,,,,,,,,,,,,,,,
html-keyboard-response,289,992171,null,"",null,,,,,,,,,,,,,,,
math-period,290,993967,3299.10000000149,"",,,,,,,,,,,2,,,,,
html-keyboard-response,291,994072,null,"",null,,,,,,,,,,,,,,,
math-period,292,995527,2581.39999999851,"",,,,,,,,,,,4,,,,,
html-keyboard-response,293,995638,null,"",null,,,,,,,,,,,,,,,
math-period,294,997287,3020.2999999988824,"",,,,,,,,,,,6,,,,,
html-keyboard-response,295,997389,null,"",null,,,,,,,,,,,,,,,
math-period,296,998640,2247.300000000745,"",,,,,,,,,,,6,,,,,
html-keyboard-response,297,998756,null,"",null,,,,,,,,,,,,,,,
math-period,298,1000074,2303.9999999981374,"",,,,,,,,,,,5,,,,,
html-keyboard-response,299,1000181,null,"",null,,,,,,,,,,,,,,,
math-period,300,1001388,2171.900000002235,"",,,,,,,,,,,4,,,,,
html-keyboard-response,301,1001504,null,"",null,,,,,,,,,,,,,,,
math-period,302,1003546,3767.0999999996275,"",,,,,,,,,,,3,,,,,
html-keyboard-response,303,1003655,null,"",null,,,,,,,,,,,,,,,
math-period,304,1004840,2118.0999999996275,"",,,,,,,,,,,3,,,,,
html-keyboard-response,305,1004941,null,"",null,,,,,,,,,,,,,,,
math-period,306,1006008,1908.800000000745,"",,,,,,,,,,,3,,,,,
html-keyboard-response,307,1006110,null,"",null,,,,,,,,,,,,,,,
math-period,308,1008368,3572.60000000149,"",,,,,,,,,,,5,,,,,
html-keyboard-response,309,1008474,null,"",null,,,,,,,,,,,,,,,
math-period,310,1011532,5917.5,"",,,,,,,,,,,1,,,,,
html-keyboard-response,311,1011638,null,"",null,,,,,,,,,,,,,,,
math-period,312,1013169,2813.0000000018626,"",,,,,,,,,,,4,,,,,
html-keyboard-response,313,1013272,null,"",null,,,,,,,,,,,,,,,
math-period,314,1014723,2652.0999999996275,"",,,,,,,,,,,3,,,,,
html-keyboard-response,315,1014838,null,"",null,,,,,,,,,,,,,,,
math-period,316,1016075,1134.800000000745,"",,,,,,,,,,,5,,,,,
html-keyboard-response,317,1017091,null,"Recall Period!",null,,,,,,,,,,,,,,,
call-function,318,1017092,,"",,,,,,,,,,,,,,,,
html-keyboard-response,319,1017206,null,"",null,,,,,,,,,,,,,,,
recall-period,320,1019739,14696.599999999627,"",,,,,,,,,,,hatchet,,,,,
html-keyboard-response,321,1019841,null,"",null,,,,,,,,,,,,,,,
recall-period,322,1064296,44451.800000000745,"",,,,,,,,,,,,,,,,
html-keyboard-response,323,1064401,null,"",null,,,,,,,,,,,,,,,
recall-period,324,1092109,null,"",,,,,,,,,,,,,,,,
html-keyboard-response,325,1092618,null,"Time's Up!",null,,,,,,,,,,,,,,,
html-keyboard-response,326,1127514,34893.800000000745,"<p> Good job! You have responded correctly to 100% of the trials. </p>
                      <p>Be sure to only press the spacebar if you see a GREEN square, and please keep your accuracy above 80%.</p>
                      <p> Press any key to continue the experiment. </p>",32,,,,,,,,,,,,,,,
html-keyboard-response,327,1129289,1773.0999999996275,"<div style=""font-size:48px;"">Press any key to begin list 3 of 16 </div>",32,,,,,,,,,,,,,,,
html-keyboard-response,328,1131805,null,"<div style=""font-size:60px;"">+</div>",null,,,,,,,,,,,,,,,
html-keyboard-response,329,1132021,null,"<div style=""font-size:42px;"">BEAVER</div><img id = ""stim"" ><div class = red_square id = bottomsquare></div>",null,encoding,word_square,,,0,bottomsquare,none,true,,,BEAVER,2,,,
html-keyboard-response,330,1132329,null,"<div style=""font-size:42px;"">BEAVER</div>",null,,word,BEAVER,,,,,,,,,,,,
html-keyboard-response,331,1133835,null,"",null,,word,BEAVER,,,,,,,,,,,,
html-keyboard-response,332,1134040,null,"<div style=""font-size:42px;"">SQUIRREL</div><img id = ""stim"" ><div class = green_square id = topsquare></div>",null,encoding,word_square,,,1,topsquare,32,false,,,SQUIRREL,2,,,
html-keyboard-response,333,1134349,null,"<div style=""font-size:42px;"">SQUIRREL</div>",null,,word,SQUIRREL,,,,,,,,,,,,
html-keyboard-response,334,1135861,null,"",null,,word,SQUIRREL,,,,,,,,,,,,
html-keyboard-response,335,1136072,null,"<div style=""font-size:42px;"">POND</div><img id = ""stim"" ><div class = green_square id = bottomsquare></div>",null,encoding,word_square,,,1,bottomsquare,32,true,,,POND,2,,,
html-keyboard-response,336,1136384,null,"<div style=""font-size:42px;"">POND</div>",null,,word,POND,,,,,,,,,,,,
html-keyboard-response,337,1137894,440.19999999925494,"",32,,word,POND,,,,,,,,,,,,
html-keyboard-response,338,1138106,null,"<div style=""font-size:42px;"">SCARECROW</div><img id = ""stim"" ><div class = red_square id = topsquare></div>",null,encoding,word_square,,,0,topsquare,none,true,,,SCARECROW,2,,,
html-keyboard-response,339,1138415,null,"<div style=""font-size:42px;"">SCARECROW</div>",null,,word,SCARECROW,,,,,,,,,,,,
html-keyboard-response,340,1139923,null,"",null,,word,SCARECROW,,,,,,,,,,,,
html-keyboard-response,341,1140137,null,"<div style=""font-size:42px;"">BLOCKADE</div><img id = ""stim"" ><div class = red_square id = bottomsquare></div>",null,encoding,word_square,,,0,bottomsquare,none,true,,,BLOCKADE,2,,,
html-keyboard-response,342,1140449,null,"<div style=""font-size:42px;"">BLOCKADE</div>",null,,word,BLOCKADE,,,,,,,,,,,,
html-keyboard-response,343,1141965,null,"",null,,word,BLOCKADE,,,,,,,,,,,,
html-keyboard-response,344,1142172,null,"<div style=""font-size:42px;"">BUILDING</div><img id = ""stim"" ><div class = green_square id = topsquare></div>",null,encoding,word_square,,,1,topsquare,32,true,,,BUILDING,2,,,
html-keyboard-response,345,1142482,111.70000000111759,"<div style=""font-size:42px;"">BUILDING</div>",32,,word,BUILDING,,,,,,,,,,,,
html-keyboard-response,346,1143992,null,"",null,,word,BUILDING,,,,,,,,,,,,
html-keyboard-response,347,1144205,null,"<div style=""font-size:42px;"">SLACKS</div><img id = ""stim"" ><div class = red_square id = topsquare></div>",null,encoding,word_square,,,0,topsquare,none,true,,,SLACKS,2,,,
html-keyboard-response,348,1144517,null,"<div style=""font-size:42px;"">SLACKS</div>",null,,word,SLACKS,,,,,,,,,,,,
html-keyboard-response,349,1146031,null,"",null,,word,SLACKS,,,,,,,,,,,,
html-keyboard-response,350,1146239,null,"<div style=""font-size:42px;"">OINTMENT</div><img id = ""stim"" ><div class = green_square id = bottomsquare></div>",null,encoding,word_square,,,1,bottomsquare,32,true,,,OINTMENT,2,,,
html-keyboard-response,351,1146549,49.79999999888241,"<div style=""font-size:42px;"">OINTMENT</div>",32,,word,OINTMENT,,,,,,,,,,,,
html-keyboard-response,352,1148057,null,"",null,,word,OINTMENT,,,,,,,,,,,,
html-keyboard-response,353,1148271,null,"<div style=""font-size:42px;"">MAMMAL</div><img id = ""stim"" ><div class = red_square id = bottomsquare></div>",null,encoding,word_square,,,0,bottomsquare,none,true,,,MAMMAL,2,,,
html-keyboard-response,354,1148584,null,"<div style=""font-size:42px;"">MAMMAL</div>",null,,word,MAMMAL,,,,,,,,,,,,
html-keyboard-response,355,1150095,null,"",null,,word,MAMMAL,,,,,,,,,,,,
html-keyboard-response,356,1150308,null,"<div style=""font-size:42px;"">CREATURE</div><img id = ""stim"" ><div class = red_square id = topsquare></div>",null,encoding,word_square,,,0,topsquare,none,true,,,CREATURE,2,,,
html-keyboard-response,357,1150615,null,"<div style=""font-size:42px;"">CREATURE</div>",null,,word,CREATURE,,,,,,,,,,,,
html-keyboard-response,358,1152132,null,"",null,,word,CREATURE,,,,,,,,,,,,
html-keyboard-response,359,1152340,null,"<div style=""font-size:42px;"">LION</div><img id = ""stim"" ><div class = green_square id = topsquare></div>",null,encoding,word_square,,,1,topsquare,32,true,,,LION,2,,,
html-keyboard-response,360,1152649,212.59999999962747,"<div style=""font-size:42px;"">LION</div>",32,,word,LION,,,,,,,,,,,,
html-keyboard-response,361,1154162,null,"",null,,word,LION,,,,,,,,,,,,
html-keyboard-response,362,1154373,null,"<div style=""font-size:42px;"">BARLEY</div><img id = ""stim"" ><div class = green_square id = bottomsquare></div>",null,encoding,word_square,,,1,bottomsquare,32,true,,,BARLEY,2,,,
html-keyboard-response,363,1154685,285.7999999988824,"<div style=""font-size:42px;"">BARLEY</div>",32,,word,BARLEY,,,,,,,,,,,,
html-keyboard-response,364,1156197,null,"",null,,word,BARLEY,,,,,,,,,,,,
html-keyboard-response,365,1156406,null,"<div style=""font-size:42px;"">PORPOISE</div><img id = ""stim"" ><div class = red_square id = bottomsquare></div>",null,encoding,word_square,,,0,bottomsquare,none,true,,,PORPOISE,2,,,
html-keyboard-response,366,1156719,null,"<div style=""font-size:42px;"">PORPOISE</div>",null,,word,PORPOISE,,,,,,,,,,,,
html-keyboard-response,367,1158231,null,"",null,,word,PORPOISE,,,,,,,,,,,,
html-keyboard-response,368,1158440,null,"<div style=""font-size:42px;"">LOVER</div><img id = ""stim"" ><div class = red_square id = topsquare></div>",null,encoding,word_square,,,0,topsquare,none,true,,,LOVER,2,,,
html-keyboard-response,369,1158755,null,"<div style=""font-size:42px;"">LOVER</div>",null,,word,LOVER,,,,,,,,,,,,
html-keyboard-response,370,1160269,null,"",null,,word,LOVER,,,,,,,,,,,,
html-keyboard-response,371,1160472,null,"<div style=""font-size:42px;"">PARTNER</div><img id = ""stim"" ><div class = green_square id = topsquare></div>",null,encoding,word_square,,,1,topsquare,32,true,,,PARTNER,2,,,
html-keyboard-response,372,1160784,118.59999999962747,"<div style=""font-size:42px;"">PARTNER</div>",32,,word,PARTNER,,,,,,,,,,,,
html-keyboard-response,373,1162293,null,"",null,,word,PARTNER,,,,,,,,,,,,
html-keyboard-response,374,1162504,null,"<div style=""font-size:42px;"">LEOPARD</div><img id = ""stim"" ><div class = green_square id = bottomsquare></div>",null,encoding,word_square,,,1,bottomsquare,32,true,,,LEOPARD,2,,,
html-keyboard-response,375,1162819,220.60000000149012,"<div style=""font-size:42px;"">LEOPARD</div>",32,,word,LEOPARD,,,,,,,,,,,,
html-keyboard-response,376,1164334,null,"",null,,word,LEOPARD,,,,,,,,,,,,
call-function,377,1164335,,"",,,,,,,,,,,,,,,,
html-keyboard-response,378,1164445,null,"",null,,,,,,,,,,,,,,,
math-period,379,1166545,3500.699999999255,"",,,,,,,,,,,2,,,,,
html-keyboard-response,380,1166657,null,"",null,,,,,,,,,,,,,,,
math-period,381,1167652,1838.4000000003725,"",,,,,,,,,,,3,,,,,
html-keyboard-response,382,1167763,null,"",null,,,,,,,,,,,,,,,
math-period,383,1169061,2415.199999999255,"",,,,,,,,,,,5,,,,,
html-keyboard-response,384,1169173,null,"",null,,,,,,,,,,,,,,,
math-period,385,1171135,3787.9000000003725,"",,,,,,,,,,,3,,,,,
html-keyboard-response,386,1171243,null,"",null,,,,,,,,,,,,,,,
math-period,387,1172594,2511.4000000003725,"",,,,,,,,,,,4,,,,,
html-keyboard-response,388,1172705,null,"",null,,,,,,,,,,,,,,,
math-period,389,1173915,2286.5999999996275,"",,,,,,,,,,,5,,,,,
html-keyboard-response,390,1174030,null,"",null,,,,,,,,,,,,,,,
math-period,391,1175604,2974.300000000745,"",,,,,,,,,,,5,,,,,
html-keyboard-response,392,1175710,null,"",null,,,,,,,,,,,,,,,
math-period,393,1176698,1852.1000000014901,"",,,,,,,,,,,2,,,,,
html-keyboard-response,394,1176813,null,"",null,,,,,,,,,,,,,,,
math-period,395,1177534,1311.0000000018626,"",,,,,,,,,,,2,,,,,
html-keyboard-response,396,1177645,null,"",null,,,,,,,,,,,,,,,
math-period,397,1180763,9244.599999999627,"",,,,,,,,,,,1,,,,,
html-keyboard-response,398,1180879,null,"",null,,,,,,,,,,,,,,,
math-period,399,1181808,1724.0999999996275,"",,,,,,,,,,,2,,,,,
html-keyboard-response,400,1181912,null,"",null,,,,,,,,,,,,,,,
math-period,401,1183267,2478.5,"",,,,,,,,,,,4,,,,,
html-keyboard-response,402,1183369,null,"",null,,,,,,,,,,,,,,,
math-period,403,1184516,2140.7999999988824,"",,,,,,,,,,,2,,,,,
html-keyboard-response,404,1184620,null,"",null,,,,,,,,,,,,,,,
math-period,405,1185742,2116.5,"",,,,,,,,,,,5,,,,,
html-keyboard-response,406,1185846,null,"",null,,,,,,,,,,,,,,,
math-period,407,1187089,2362.2000000011176,"",,,,,,,,,,,4,,,,,
html-keyboard-response,408,1187192,null,"",null,,,,,,,,,,,,,,,
math-period,409,1188337,1044.300000000745,"",,,,,,,,,,,4,,,,,
html-keyboard-response,410,1189339,null,"Recall Period!",null,,,,,,,,,,,,,,,
call-function,411,1189340,,"",,,,,,,,,,,,,,,,
html-keyboard-response,412,1189456,null,"",null,,,,,,,,,,,,,,,
recall-period,413,1192299,17346.19999999553,"",,,,,,,,,,,suirrel,,,,,
html-keyboard-response,414,1192411,null,"",null,,,,,,,,,,,,,,,
recall-period,415,1198205,37265.80000000447,"",,,,,,,,,,,beaver,,,,,
html-keyboard-response,416,1198309,null,"",null,,,,,,,,,,,,,,,
recall-period,417,1264349,null,"",,,,,,,,,,,,,,,,
html-keyboard-response,418,1264859,null,"Time's Up!",null,,,,,,,,,,,,,,,
html-keyboard-response,419,1589250,324389.50000000186,"<p> Good job! You have responded correctly to 98% of the trials. </p>
                      <p>Be sure to only press the spacebar if you see a GREEN square, and please keep your accuracy above 80%.</p>
                      <p> Press any key to continue the experiment. </p>",32,,,,,,,,,,,,,,,
html-keyboard-response,420,1590401,1148.300000000745,"<div style=""font-size:48px;"">Press any key to begin list 4 of 16 </div>",32,,,,,,,,,,,,,,,
html-keyboard-response,421,1592914,null,"<div style=""font-size:60px;"">+</div>",null,,,,,,,,,,,,,,,
html-keyboard-response,422,1593122,null,"<div style=""font-size:42px;"">SISTER</div><img id = ""stim"" ><div class = green_square id = bottomsquare></div>",null,encoding,word_square,,,1,bottomsquare,32,true,,,SISTER,3,,,
html-keyboard-response,423,1593434,null,"<div style=""font-size:42px;"">SISTER</div>",null,,word,SISTER,,,,,,,,,,,,
html-keyboard-response,424,1594950,73.89999999850988,"",32,,word,SISTER,,,,,,,,,,,,
html-keyboard-response,425,1595154,null,"<div style=""font-size:42px;"">LOUNGE</div><img id = ""stim"" ><div class = green_square id = topsquare></div>",null,encoding,word_square,,,1,topsquare,32,true,,,LOUNGE,3,,,
html-keyboard-response,426,1595463,null,"<div style=""font-size:42px;"">LOUNGE</div>",null,,word,LOUNGE,,,,,,,,,,,,
html-keyboard-response,427,1596977,132.19999999925494,"",32,,word,LOUNGE,,,,,,,,,,,,
html-keyboard-response,428,1597191,null,"<div style=""font-size:42px;"">LIST</div><img id = ""stim"" ><div class = red_square id = topsquare></div>",null,encoding,word_square,,,0,topsquare,none,true,,,LIST,3,,,
html-keyboard-response,429,1597500,null,"<div style=""font-size:42px;"">LIST</div>",null,,word,LIST,,,,,,,,,,,,
html-keyboard-response,430,1599013,null,"",null,,word,LIST,,,,,,,,,,,,
html-keyboard-response,431,1599225,null,"<div style=""font-size:42px;"">SUBWAY</div><img id = ""stim"" ><div class = red_square id = bottomsquare></div>",null,encoding,word_square,,,0,bottomsquare,none,true,,,SUBWAY,3,,,
html-keyboard-response,432,1599537,null,"<div style=""font-size:42px;"">SUBWAY</div>",null,,word,SUBWAY,,,,,,,,,,,,
html-keyboard-response,433,1601046,null,"",null,,word,SUBWAY,,,,,,,,,,,,
html-keyboard-response,434,1601256,null,"<div style=""font-size:42px;"">SHORTS</div><img id = ""stim"" ><div class = green_square id = bottomsquare></div>",null,encoding,word_square,,,1,bottomsquare,32,true,,,SHORTS,3,,,
html-keyboard-response,435,1601569,288.30000000074506,"<div style=""font-size:42px;"">SHORTS</div>",32,,word,SHORTS,,,,,,,,,,,,
html-keyboard-response,436,1603085,null,"",null,,word,SHORTS,,,,,,,,,,,,
html-keyboard-response,437,1603291,null,"<div style=""font-size:42px;"">WASHER</div><img id = ""stim"" ><div class = green_square id = topsquare></div>",null,encoding,word_square,,,1,topsquare,32,true,,,WASHER,3,,,
html-keyboard-response,438,1603600,177.40000000223517,"<div style=""font-size:42px;"">WASHER</div>",32,,word,WASHER,,,,,,,,,,,,
html-keyboard-response,439,1605114,null,"",null,,word,WASHER,,,,,,,,,,,,
html-keyboard-response,440,1605320,null,"<div style=""font-size:42px;"">LEG</div><img id = ""stim"" ><div class = red_square id = topsquare></div>",null,encoding,word_square,,,0,topsquare,none,false,,,LEG,3,,,
html-keyboard-response,441,1605625,null,"<div style=""font-size:42px;"">LEG</div>",null,,word,LEG,,,,,,,,,,,,
html-keyboard-response,442,1607137,190.80000000074506,"",32,,word,LEG,,,,,,,,,,,,
html-keyboard-response,443,1607340,null,"<div style=""font-size:42px;"">BANK</div><img id = ""stim"" ><div class = red_square id = bottomsquare></div>",null,encoding,word_square,,,0,bottomsquare,none,true,,,BANK,3,,,
html-keyboard-response,444,1607652,null,"<div style=""font-size:42px;"">BANK</div>",null,,word,BANK,,,,,,,,,,,,
html-keyboard-response,445,1609168,null,"",null,,word,BANK,,,,,,,,,,,,
html-keyboard-response,446,1609379,null,"<div style=""font-size:42px;"">BISON</div><img id = ""stim"" ><div class = green_square id = bottomsquare></div>",null,encoding,word_square,,,1,bottomsquare,32,true,,,BISON,3,,,
html-keyboard-response,447,1609686,149.19999999925494,"<div style=""font-size:42px;"">BISON</div>",32,,word,BISON,,,,,,,,,,,,
html-keyboard-response,448,1611196,null,"",null,,word,BISON,,,,,,,,,,,,
html-keyboard-response,449,1611407,null,"<div style=""font-size:42px;"">SEAL</div><img id = ""stim"" ><div class = red_square id = topsquare></div>",null,encoding,word_square,,,0,topsquare,none,true,,,SEAL,3,,,
html-keyboard-response,450,1611719,null,"<div style=""font-size:42px;"">SEAL</div>",null,,word,SEAL,,,,,,,,,,,,
html-keyboard-response,451,1613236,null,"",null,,word,SEAL,,,,,,,,,,,,
html-keyboard-response,452,1613440,null,"<div style=""font-size:42px;"">BEAST</div><img id = ""stim"" ><div class = green_square id = topsquare></div>",null,encoding,word_square,,,1,topsquare,32,true,,,BEAST,3,,,
html-keyboard-response,453,1613751,155.5,"<div style=""font-size:42px;"">BEAST</div>",32,,word,BEAST,,,,,,,,,,,,
html-keyboard-response,454,1615256,null,"",null,,word,BEAST,,,,,,,,,,,,
html-keyboard-response,455,1615464,null,"<div style=""font-size:42px;"">SNACK</div><img id = ""stim"" ><div class = red_square id = bottomsquare></div>",null,encoding,word_square,,,0,bottomsquare,none,true,,,SNACK,3,,,
html-keyboard-response,456,1615770,null,"<div style=""font-size:42px;"">SNACK</div>",null,,word,SNACK,,,,,,,,,,,,
html-keyboard-response,457,1617273,null,"",null,,word,SNACK,,,,,,,,,,,,
html-keyboard-response,458,1617491,null,"<div style=""font-size:42px;"">BOUILLON</div><img id = ""stim"" ><div class = red_square id = topsquare></div>",null,encoding,word_square,,,0,topsquare,none,true,,,BOUILLON,3,,,
html-keyboard-response,459,1617803,null,"<div style=""font-size:42px;"">BOUILLON</div>",null,,word,BOUILLON,,,,,,,,,,,,
html-keyboard-response,460,1619310,null,"",null,,word,BOUILLON,,,,,,,,,,,,
html-keyboard-response,461,1619524,null,"<div style=""font-size:42px;"">APPLE</div><img id = ""stim"" ><div class = green_square id = bottomsquare></div>",null,encoding,word_square,,,1,bottomsquare,32,true,,,APPLE,3,,,
html-keyboard-response,462,1619838,253,"<div style=""font-size:42px;"">APPLE</div>",32,,word,APPLE,,,,,,,,,,,,
html-keyboard-response,463,1621346,null,"",null,,word,APPLE,,,,,,,,,,,,
html-keyboard-response,464,1621558,null,"<div style=""font-size:42px;"">WAITER</div><img id = ""stim"" ><div class = green_square id = topsquare></div>",null,encoding,word_square,,,1,topsquare,32,true,,,WAITER,3,,,
html-keyboard-response,465,1621868,null,"<div style=""font-size:42px;"">WAITER</div>",null,,word,WAITER,,,,,,,,,,,,
html-keyboard-response,466,1623381,0.09999999776482582,"",32,,word,WAITER,,,,,,,,,,,,
html-keyboard-response,467,1623592,null,"<div style=""font-size:42px;"">DAGGER</div><img id = ""stim"" ><div class = red_square id = bottomsquare></div>",null,encoding,word_square,,,0,bottomsquare,none,true,,,DAGGER,3,,,
html-keyboard-response,468,1623901,107.59999999776483,"<div style=""font-size:42px;"">DAGGER</div>",32,,word,DAGGER,,,,,,,,,,,,
html-keyboard-response,469,1625418,null,"",null,,word,DAGGER,,,,,,,,,,,,
call-function,470,1625419,,"",,,,,,,,,,,,,,,,
html-keyboard-response,471,1625529,null,"",null,,,,,,,,,,,,,,,
math-period,472,1628251,6367.29999999702,"",,,,,,,,,,,3,,,,,
html-keyboard-response,473,1628364,null,"",null,,,,,,,,,,,,,,,
math-period,474,1629425,2006.9000000022352,"",,,,,,,,,,,4,,,,,
html-keyboard-response,475,1629531,null,"",null,,,,,,,,,,,,,,,
math-period,476,1630642,2114.1999999955297,"",,,,,,,,,,,3,,,,,
html-keyboard-response,477,1630748,null,"",null,,,,,,,,,,,,,,,
math-period,478,1632515,3380.300000000745,"",,,,,,,,,,,3,,,,,
html-keyboard-response,479,1632617,null,"",null,,,,,,,,,,,,,,,
math-period,480,1633918,2439.800000000745,"",,,,,,,,,,,5,,,,,
html-keyboard-response,481,1634030,null,"",null,,,,,,,,,,,,,,,
math-period,482,1635518,2876.5,"",,,,,,,,,,,2,,,,,
html-keyboard-response,483,1635630,null,"",null,,,,,,,,,,,,,,,
math-period,484,1636522,1668.6000000014901,"",,,,,,,,,,,3,,,,,
html-keyboard-response,485,1636631,null,"",null,,,,,,,,,,,,,,,
math-period,486,1638519,3631,"",,,,,,,,,,,2,,,,,
html-keyboard-response,487,1638631,null,"",null,,,,,,,,,,,,,,,
math-period,488,1640168,2902.699999999255,"",,,,,,,,,,,5,,,,,
html-keyboard-response,489,1640273,null,"",null,,,,,,,,,,,,,,,
math-period,490,1641680,2648.5,"",,,,,,,,,,,3,,,,,
html-keyboard-response,491,1641795,null,"",null,,,,,,,,,,,,,,,
math-period,492,1643531,3354.800000000745,"",,,,,,,,,,,2,,,,,
html-keyboard-response,493,1643633,null,"",null,,,,,,,,,,,,,,,
math-period,494,1645293,3046.89999999851,"",,,,,,,,,,,6,,,,,
html-keyboard-response,495,1645397,null,"",null,,,,,,,,,,,,,,,
math-period,496,1646515,2058.2000000029802,"",,,,,,,,,,,3,,,,,
html-keyboard-response,497,1646618,null,"",null,,,,,,,,,,,,,,,
math-period,498,1647827,2335.5000000037253,"",,,,,,,,,,,6,,,,,
html-keyboard-response,499,1647933,null,"",null,,,,,,,,,,,,,,,
math-period,500,1649422,null,"",,,,,,,,,,,,,,,,
html-keyboard-response,501,1650446,null,"Recall Period!",null,,,,,,,,,,,,,,,
call-function,502,1650447,,"",,,,,,,,,,,,,,,,
html-keyboard-response,503,1650550,null,"",null,,,,,,,,,,,,,,,
recall-period,504,1656321,56533.99999998137,"",,,,,,,,,,,sister,,,,,
html-keyboard-response,505,1656429,null,"",null,,,,,,,,,,,,,,,
recall-period,506,1661312,55665.59999996796,"",,,,,,,,,,,lounge,,,,,
html-keyboard-response,507,1661422,null,"",null,,,,,,,,,,,,,,,
recall-period,508,1662813,3899.800000000745,"",,,,,,,,,,,list,,,,,
html-keyboard-response,509,1662917,null,"",null,,,,,,,,,,,,,,,
recall-period,510,1725471,null,"",,,,,,,,,,,,,,,,
html-keyboard-response,511,1725984,null,"Time's Up!",null,,,,,,,,,,,,,,,
html-keyboard-response,512,1775198,49212.099999997765,"<p> Good job! You have responded correctly to 97% of the trials. </p>
                      <p>Be sure to only press the spacebar if you see a GREEN square, and please keep your accuracy above 80%.</p>
                      <p> Press any key to continue the experiment. </p>",32,,,,,,,,,,,,,,,
html-keyboard-response,513,1775508,309,"<div style=""font-size:48px;"">Press any key to begin list 5 of 16 </div>",32,,,,,,,,,,,,,,,
html-keyboard-response,514,1778023,null,"<div style=""font-size:60px;"">+</div>",null,,,,,,,,,,,,,,,
html-keyboard-response,515,1778230,null,"<div style=""font-size:42px;"">STAKE</div><img id = ""stim"" ><div class = green_square id = topsquare></div>",null,encoding,word_square,,,1,topsquare,32,true,,,STAKE,4,,,
html-keyboard-response,516,1778543,292.4000000022352,"<div style=""font-size:42px;"">STAKE</div>",32,,word,STAKE,,,,,,,,,,,,
html-keyboard-response,517,1780053,null,"",null,,word,STAKE,,,,,,,,,,,,
html-keyboard-response,518,1780264,null,"<div style=""font-size:42px;"">LUMBER</div><img id = ""stim"" ><div class = red_square id = bottomsquare></div>",null,encoding,word_square,,,0,bottomsquare,none,true,,,LUMBER,4,,,
html-keyboard-response,519,1780575,null,"<div style=""font-size:42px;"">LUMBER</div>",null,,word,LUMBER,,,,,,,,,,,,
html-keyboard-response,520,1782091,null,"",null,,word,LUMBER,,,,,,,,,,,,
html-keyboard-response,521,1782295,null,"<div style=""font-size:42px;"">ELK</div><img id = ""stim"" ><div class = red_square id = topsquare></div>",null,encoding,word_square,,,0,topsquare,none,true,,,ELK,4,,,
html-keyboard-response,522,1782608,null,"<div style=""font-size:42px;"">ELK</div>",null,,word,ELK,,,,,,,,,,,,
html-keyboard-response,523,1784113,null,"",null,,word,ELK,,,,,,,,,,,,
html-keyboard-response,524,1784330,null,"<div style=""font-size:42px;"">FLASK</div><img id = ""stim"" ><div class = green_square id = bottomsquare></div>",null,encoding,word_square,,,1,bottomsquare,32,true,,,FLASK,4,,,
html-keyboard-response,525,1784642,null,"<div style=""font-size:42px;"">FLASK</div>",null,,word,FLASK,,,,,,,,,,,,
html-keyboard-response,526,1786151,350.80000000074506,"",32,,word,FLASK,,,,,,,,,,,,
html-keyboard-response,527,1786362,null,"<div style=""font-size:42px;"">FIST</div><img id = ""stim"" ><div class = green_square id = topsquare></div>",null,encoding,word_square,,,1,topsquare,32,true,,,FIST,4,,,
html-keyboard-response,528,1786672,null,"<div style=""font-size:42px;"">FIST</div>",null,,word,FIST,,,,,,,,,,,,
html-keyboard-response,529,1788183,34.30000000074506,"",32,,word,FIST,,,,,,,,,,,,
html-keyboard-response,530,1788396,null,"<div style=""font-size:42px;"">RIVER</div><img id = ""stim"" ><div class = green_square id = bottomsquare></div>",null,encoding,word_square,,,1,bottomsquare,32,true,,,RIVER,4,,,
html-keyboard-response,531,1788708,null,"<div style=""font-size:42px;"">RIVER</div>",null,,word,RIVER,,,,,,,,,,,,
html-keyboard-response,532,1790214,360.5,"",32,,word,RIVER,,,,,,,,,,,,
html-keyboard-response,533,1790430,null,"<div style=""font-size:42px;"">CANAL</div><img id = ""stim"" ><div class = red_square id = bottomsquare></div>",null,encoding,word_square,,,0,bottomsquare,none,true,,,CANAL,4,,,
html-keyboard-response,534,1790739,null,"<div style=""font-size:42px;"">CANAL</div>",null,,word,CANAL,,,,,,,,,,,,
html-keyboard-response,535,1792253,null,"",null,,word,CANAL,,,,,,,,,,,,
html-keyboard-response,536,1792464,null,"<div style=""font-size:42px;"">LAKE</div><img id = ""stim"" ><div class = green_square id = topsquare></div>",null,encoding,word_square,,,1,topsquare,32,true,,,LAKE,4,,,
html-keyboard-response,537,1792776,null,"<div style=""font-size:42px;"">LAKE</div>",null,,word,LAKE,,,,,,,,,,,,
html-keyboard-response,538,1794293,40.80000000074506,"",32,,word,LAKE,,,,,,,,,,,,
html-keyboard-response,539,1794499,null,"<div style=""font-size:42px;"">BISCUIT</div><img id = ""stim"" ><div class = red_square id = topsquare></div>",null,encoding,word_square,,,0,topsquare,none,true,,,BISCUIT,4,,,
html-keyboard-response,540,1794809,null,"<div style=""font-size:42px;"">BISCUIT</div>",null,,word,BISCUIT,,,,,,,,,,,,
html-keyboard-response,541,1796320,null,"",null,,word,BISCUIT,,,,,,,,,,,,
html-keyboard-response,542,1796526,null,"<div style=""font-size:42px;"">ADULT</div><img id = ""stim"" ><div class = red_square id = bottomsquare></div>",null,encoding,word_square,,,0,bottomsquare,none,true,,,ADULT,4,,,
html-keyboard-response,543,1796840,null,"<div style=""font-size:42px;"">ADULT</div>",null,,word,ADULT,,,,,,,,,,,,
html-keyboard-response,544,1798345,null,"",null,,word,ADULT,,,,,,,,,,,,
html-keyboard-response,545,1798548,null,"<div style=""font-size:42px;"">SCOTCH</div><img id = ""stim"" ><div class = green_square id = bottomsquare></div>",null,encoding,word_square,,,1,bottomsquare,32,true,,,SCOTCH,4,,,
html-keyboard-response,546,1798857,195.19999999925494,"<div style=""font-size:42px;"">SCOTCH</div>",32,,word,SCOTCH,,,,,,,,,,,,
html-keyboard-response,547,1800369,null,"",null,,word,SCOTCH,,,,,,,,,,,,
html-keyboard-response,548,1800581,null,"<div style=""font-size:42px;"">SALAD</div><img id = ""stim"" ><div class = red_square id = topsquare></div>",null,encoding,word_square,,,0,topsquare,none,true,,,SALAD,4,,,
html-keyboard-response,549,1800884,null,"<div style=""font-size:42px;"">SALAD</div>",null,,word,SALAD,,,,,,,,,,,,
html-keyboard-response,550,1802389,null,"",null,,word,SALAD,,,,,,,,,,,,
html-keyboard-response,551,1802600,null,"<div style=""font-size:42px;"">ATOM</div><img id = ""stim"" ><div class = green_square id = topsquare></div>",null,encoding,word_square,,,1,topsquare,32,true,,,ATOM,4,,,
html-keyboard-response,552,1802907,283.8999999985099,"<div style=""font-size:42px;"">ATOM</div>",32,,word,ATOM,,,,,,,,,,,,
html-keyboard-response,553,1804418,null,"",null,,word,ATOM,,,,,,,,,,,,
html-keyboard-response,554,1804630,null,"<div style=""font-size:42px;"">CHEMIST</div><img id = ""stim"" ><div class = red_square id = bottomsquare></div>",null,encoding,word_square,,,0,bottomsquare,none,true,,,CHEMIST,4,,,
html-keyboard-response,555,1804941,null,"<div style=""font-size:42px;"">CHEMIST</div>",null,,word,CHEMIST,,,,,,,,,,,,
html-keyboard-response,556,1806458,null,"",null,,word,CHEMIST,,,,,,,,,,,,
html-keyboard-response,557,1806664,null,"<div style=""font-size:42px;"">ROOSTER</div><img id = ""stim"" ><div class = red_square id = topsquare></div>",null,encoding,word_square,,,0,topsquare,none,true,,,ROOSTER,4,,,
html-keyboard-response,558,1806974,null,"<div style=""font-size:42px;"">ROOSTER</div>",null,,word,ROOSTER,,,,,,,,,,,,
html-keyboard-response,559,1808487,null,"",null,,word,ROOSTER,,,,,,,,,,,,
html-keyboard-response,560,1808692,null,"<div style=""font-size:42px;"">GIRAFFE</div><img id = ""stim"" ><div class = green_square id = bottomsquare></div>",null,encoding,word_square,,,1,bottomsquare,32,true,,,GIRAFFE,4,,,
html-keyboard-response,561,1809009,null,"<div style=""font-size:42px;"">GIRAFFE</div>",null,,word,GIRAFFE,,,,,,,,,,,,
html-keyboard-response,562,1810523,73.69999999925494,"",32,,word,GIRAFFE,,,,,,,,,,,,
call-function,563,1810525,,"",,,,,,,,,,,,,,,,
html-keyboard-response,564,1810637,null,"",null,,,,,,,,,,,,,,,
math-period,565,1813652,5765.5,"",,,,,,,,,,,1,,,,,
html-keyboard-response,566,1813768,null,"",null,,,,,,,,,,,,,,,
math-period,567,1814850,1947.4000000022352,"",,,,,,,,,,,3,,,,,
html-keyboard-response,568,1814956,null,"",null,,,,,,,,,,,,,,,
math-period,569,1816322,2589.5,"",,,,,,,,,,,5,,,,,
html-keyboard-response,570,1816433,null,"",null,,,,,,,,,,,,,,,
math-period,571,1817896,2729.099999997765,"",,,,,,,,,,,4,,,,,
html-keyboard-response,572,1818005,null,"",null,,,,,,,,,,,,,,,
math-period,573,1819078,2015.5999999977648,"",,,,,,,,,,,3,,,,,
html-keyboard-response,574,1819180,null,"",null,,,,,,,,,,,,,,,
math-period,575,1820507,2419.7000000029802,"",,,,,,,,,,,2,,,,,
html-keyboard-response,576,1820613,null,"",null,,,,,,,,,,,,,,,
math-period,577,1821734,2089.39999999851,"",,,,,,,,,,,3,,,,,
html-keyboard-response,578,1821837,null,"",null,,,,,,,,,,,,,,,
math-period,579,1823540,3163.699999999255,"",,,,,,,,,,,5,,,,,
html-keyboard-response,580,1823651,null,"",null,,,,,,,,,,,,,,,
math-period,581,1824572,1716.5999999977648,"",,,,,,,,,,,2,,,,,
html-keyboard-response,582,1824688,null,"",null,,,,,,,,,,,,,,,
math-period,583,1825345,1187.1000000014901,"",,,,,,,,,,,2,,,,,
html-keyboard-response,584,1825447,null,"",null,,,,,,,,,,,,,,,
math-period,585,1826519,2032.4999999962747,"",,,,,,,,,,,4,,,,,
html-keyboard-response,586,1826621,null,"",null,,,,,,,,,,,,,,,
math-period,587,1827607,1895.1000000052154,"",,,,,,,,,,,3,,,,,
html-keyboard-response,588,1827725,null,"",null,,,,,,,,,,,,,,,
math-period,589,1828950,2298,"",,,,,,,,,,,6,,,,,
html-keyboard-response,590,1829055,null,"",null,,,,,,,,,,,,,,,
math-period,591,1830268,2309.5000000037253,"",,,,,,,,,,,4,,,,,
html-keyboard-response,592,1830372,null,"",null,,,,,,,,,,,,,,,
math-period,593,1832596,4239.099999997765,"",,,,,,,,,,,1,,,,,
html-keyboard-response,594,1832704,null,"",null,,,,,,,,,,,,,,,
math-period,595,1834536,1770.800000000745,"",,,,,,,,,,,0,,,,,
html-keyboard-response,596,1835550,null,"Recall Period!",null,,,,,,,,,,,,,,,
call-function,597,1835551,,"",,,,,,,,,,,,,,,,
html-keyboard-response,598,1835668,null,"",null,,,,,,,,,,,,,,,
recall-period,599,1837341,6682.89999999851,"",,,,,,,,,,,stake,,,,,
html-keyboard-response,600,1837448,null,"",null,,,,,,,,,,,,,,,
recall-period,601,1838996,6156.9000000059605,"",,,,,,,,,,,lumber,,,,,
html-keyboard-response,602,1839100,null,"",null,,,,,,,,,,,,,,,
recall-period,603,1842292,12073.800000000745,"",,,,,,,,,,,flask,,,,,
html-keyboard-response,604,1842400,null,"",null,,,,,,,,,,,,,,,
recall-period,605,1844955,12407.699999991804,"",,,,,,,,,,,giraffe,,,,,
html-keyboard-response,606,1845064,null,"",null,,,,,,,,,,,,,,,
recall-period,607,1847145,11318.600000005215,"",,,,,,,,,,,chemist,,,,,
html-keyboard-response,608,1847250,null,"",null,,,,,,,,,,,,,,,
recall-period,609,1910561,null,"",,,,,,,,,,,,,,,,
html-keyboard-response,610,1911077,null,"Time's Up!",null,,,,,,,,,,,,,,,
html-keyboard-response,611,1913548,2469.400000002235,"<p> Good job! You have responded correctly to 98% of the trials. </p>
                      <p>Be sure to only press the spacebar if you see a GREEN square, and please keep your accuracy above 80%.</p>
                      <p> Press any key to continue the experiment. </p>",13,,,,,,,,,,,,,,,
html-keyboard-response,612,1914684,1134.3999999985099,"<div style=""font-size:48px;"">Press any key to begin list 6 of 16 </div>",13,,,,,,,,,,,,,,,
html-keyboard-response,613,1917198,null,"<div style=""font-size:60px;"">+</div>",null,,,,,,,,,,,,,,,
html-keyboard-response,614,1917403,null,"<div style=""font-size:42px;"">SHEPHERD</div><img id = ""stim"" ><div class = green_square id = bottomsquare></div>",null,encoding,word_square,,,1,bottomsquare,32,false,,,SHEPHERD,5,,,
html-keyboard-response,615,1917712,null,"<div style=""font-size:42px;"">SHEPHERD</div>",null,,word,SHEPHERD,,,,,,,,,,,,
html-keyboard-response,616,1919226,148.29999999701977,"",13,,word,SHEPHERD,,,,,,,,,,,,
html-keyboard-response,617,1919432,null,"<div style=""font-size:42px;"">SHARK</div><img id = ""stim"" ><div class = red_square id = topsquare></div>",null,encoding,word_square,,,0,topsquare,none,true,,,SHARK,5,,,
html-keyboard-response,618,1919746,null,"<div style=""font-size:42px;"">SHARK</div>",null,,word,SHARK,,,,,,,,,,,,
html-keyboard-response,619,1921249,null,"",null,,word,SHARK,,,,,,,,,,,,
html-keyboard-response,620,1921452,null,"<div style=""font-size:42px;"">PRIMATE</div><img id = ""stim"" ><div class = red_square id = bottomsquare></div>",null,encoding,word_square,,,0,bottomsquare,none,true,,,PRIMATE,5,,,
html-keyboard-response,621,1921762,null,"<div style=""font-size:42px;"">PRIMATE</div>",null,,word,PRIMATE,,,,,,,,,,,,
html-keyboard-response,622,1923273,null,"",null,,word,PRIMATE,,,,,,,,,,,,
html-keyboard-response,623,1923484,null,"<div style=""font-size:42px;"">NURSE</div><img id = ""stim"" ><div class = green_square id = topsquare></div>",null,encoding,word_square,,,1,topsquare,32,false,,,NURSE,5,,,
html-keyboard-response,624,1923795,178.19999999925494,"<div style=""font-size:42px;"">NURSE</div>",13,,word,NURSE,,,,,,,,,,,,
html-keyboard-response,625,1925310,null,"",null,,word,NURSE,,,,,,,,,,,,
html-keyboard-response,626,1925522,null,"<div style=""font-size:42px;"">MARKER</div><img id = ""stim"" ><div class = red_square id = topsquare></div>",null,encoding,word_square,,,0,topsquare,none,true,,,MARKER,5,,,
html-keyboard-response,627,1925826,null,"<div style=""font-size:42px;"">MARKER</div>",null,,word,MARKER,,,,,,,,,,,,
html-keyboard-response,628,1927332,null,"",null,,word,MARKER,,,,,,,,,,,,
html-keyboard-response,629,1927538,null,"<div style=""font-size:42px;"">SCOUT</div><img id = ""stim"" ><div class = green_square id = bottomsquare></div>",null,encoding,word_square,,,1,bottomsquare,32,false,,,SCOUT,5,,,
html-keyboard-response,630,1927846,267.19999999925494,"<div style=""font-size:42px;"">SCOUT</div>",13,,word,SCOUT,,,,,,,,,,,,
html-keyboard-response,631,1929355,null,"",null,,word,SCOUT,,,,,,,,,,,,
html-keyboard-response,632,1929560,null,"<div style=""font-size:42px;"">FEAST</div><img id = ""stim"" ><div class = red_square id = bottomsquare></div>",null,encoding,word_square,,,0,bottomsquare,none,true,,,FEAST,5,,,
html-keyboard-response,633,1929865,null,"<div style=""font-size:42px;"">FEAST</div>",null,,word,FEAST,,,,,,,,,,,,
html-keyboard-response,634,1931376,null,"",null,,word,FEAST,,,,,,,,,,,,
html-keyboard-response,635,1931590,null,"<div style=""font-size:42px;"">SALMON</div><img id = ""stim"" ><div class = red_square id = topsquare></div>",null,encoding,word_square,,,0,topsquare,none,true,,,SALMON,5,,,
html-keyboard-response,636,1931896,null,"<div style=""font-size:42px;"">SALMON</div>",null,,word,SALMON,,,,,,,,,,,,
html-keyboard-response,637,1933412,null,"",null,,word,SALMON,,,,,,,,,,,,
html-keyboard-response,638,1933620,null,"<div style=""font-size:42px;"">LAGOON</div><img id = ""stim"" ><div class = green_square id = topsquare></div>",null,encoding,word_square,,,1,topsquare,32,false,,,LAGOON,5,,,
html-keyboard-response,639,1933930,212.39999999850988,"<div style=""font-size:42px;"">LAGOON</div>",13,,word,LAGOON,,,,,,,,,,,,
html-keyboard-response,640,1935447,null,"",null,,word,LAGOON,,,,,,,,,,,,
html-keyboard-response,641,1935654,null,"<div style=""font-size:42px;"">BUCKET</div><img id = ""stim"" ><div class = red_square id = bottomsquare></div>",null,encoding,word_square,,,0,bottomsquare,none,true,,,BUCKET,5,,,
html-keyboard-response,642,1935968,null,"<div style=""font-size:42px;"">BUCKET</div>",null,,word,BUCKET,,,,,,,,,,,,
html-keyboard-response,643,1937472,null,"",null,,word,BUCKET,,,,,,,,,,,,
html-keyboard-response,644,1937687,null,"<div style=""font-size:42px;"">LIGHTNING</div><img id = ""stim"" ><div class = green_square id = bottomsquare></div>",null,encoding,word_square,,,1,bottomsquare,32,false,,,LIGHTNING,5,,,
html-keyboard-response,645,1938001,null,"<div style=""font-size:42px;"">LIGHTNING</div>",null,,word,LIGHTNING,,,,,,,,,,,,
html-keyboard-response,646,1939516,104.30000000074506,"",13,,word,LIGHTNING,,,,,,,,,,,,
html-keyboard-response,647,1939720,null,"<div style=""font-size:42px;"">DONKEY</div><img id = ""stim"" ><div class = green_square id = topsquare></div>",null,encoding,word_square,,,1,topsquare,32,false,,,DONKEY,5,,,
html-keyboard-response,648,1940030,245.39999999850988,"<div style=""font-size:42px;"">DONKEY</div>",13,,word,DONKEY,,,,,,,,,,,,
html-keyboard-response,649,1941541,null,"",null,,word,DONKEY,,,,,,,,,,,,
html-keyboard-response,650,1941752,null,"<div style=""font-size:42px;"">HORSE</div><img id = ""stim"" ><div class = green_square id = bottomsquare></div>",null,encoding,word_square,,,1,bottomsquare,32,false,,,HORSE,5,,,
html-keyboard-response,651,1942064,null,"<div style=""font-size:42px;"">HORSE</div>",null,,word,HORSE,,,,,,,,,,,,
html-keyboard-response,652,1943580,71.89999999850988,"",13,,word,HORSE,,,,,,,,,,,,
html-keyboard-response,653,1943785,null,"<div style=""font-size:42px;"">DWARF</div><img id = ""stim"" ><div class = red_square id = topsquare></div>",null,encoding,word_square,,,0,topsquare,none,true,,,DWARF,5,,,
html-keyboard-response,654,1944097,null,"<div style=""font-size:42px;"">DWARF</div>",null,,word,DWARF,,,,,,,,,,,,
html-keyboard-response,655,1945609,null,"",null,,word,DWARF,,,,,,,,,,,,
html-keyboard-response,656,1945822,null,"<div style=""font-size:42px;"">NOTEBOOK</div><img id = ""stim"" ><div class = red_square id = bottomsquare></div>",null,encoding,word_square,,,0,bottomsquare,none,true,,,NOTEBOOK,5,,,
html-keyboard-response,657,1946133,null,"<div style=""font-size:42px;"">NOTEBOOK</div>",null,,word,NOTEBOOK,,,,,,,,,,,,
html-keyboard-response,658,1947639,null,"",null,,word,NOTEBOOK,,,,,,,,,,,,
html-keyboard-response,659,1947852,null,"<div style=""font-size:42px;"">BUSH</div><img id = ""stim"" ><div class = green_square id = topsquare></div>",null,encoding,word_square,,,1,topsquare,32,false,,,BUSH,5,,,
html-keyboard-response,660,1948162,239.10000000149012,"<div style=""font-size:42px;"">BUSH</div>",13,,word,BUSH,,,,,,,,,,,,
html-keyboard-response,661,1949677,null,"",null,,word,BUSH,,,,,,,,,,,,
call-function,662,1949679,,"",,,,,,,,,,,,,,,,
html-keyboard-response,663,1949791,null,"",null,,,,,,,,,,,,,,,
math-period,664,1951371,2996.9999999962747,"",,,,,,,,,,,2,,,,,
html-keyboard-response,665,1951476,null,"",null,,,,,,,,,,,,,,,
math-period,666,1956033,8999.19999999553,"",,,,,,,,,,,1,,,,,
html-keyboard-response,667,1956142,null,"",null,,,,,,,,,,,,,,,
math-period,668,1958007,3535.60000000149,"",,,,,,,,,,,0,,,,,
html-keyboard-response,669,1958109,null,"",null,,,,,,,,,,,,,,,
math-period,670,1959608,2833.800000000745,"",,,,,,,,,,,6,,,,,
html-keyboard-response,671,1959712,null,"",null,,,,,,,,,,,,,,,
math-period,672,1960878,2172.6999999955297,"",,,,,,,,,,,4,,,,,
html-keyboard-response,673,1960985,null,"",null,,,,,,,,,,,,,,,
math-period,674,1962178,2266,"",,,,,,,,,,,4,,,,,
html-keyboard-response,675,1962294,null,"",null,,,,,,,,,,,,,,,
math-period,676,1963674,2646.9999999962747,"",,,,,,,,,,,3,,,,,
html-keyboard-response,677,1963776,null,"",null,,,,,,,,,,,,,,,
math-period,678,1964685,1699.9999999962747,"",,,,,,,,,,,3,,,,,
html-keyboard-response,679,1964792,null,"",null,,,,,,,,,,,,,,,
math-period,680,1965864,1966.8999999985099,"",,,,,,,,,,,2,,,,,
html-keyboard-response,681,1965977,null,"",null,,,,,,,,,,,,,,,
math-period,682,1967126,2179.699999999255,"",,,,,,,,,,,4,,,,,
html-keyboard-response,683,1967229,null,"",null,,,,,,,,,,,,,,,
math-period,684,1968450,2303.300000000745,"",,,,,,,,,,,2,,,,,
html-keyboard-response,685,1968552,null,"",null,,,,,,,,,,,,,,,
math-period,686,1969780,2351.2000000029802,"",,,,,,,,,,,6,,,,,
html-keyboard-response,687,1969883,null,"",null,,,,,,,,,,,,,,,
math-period,688,1971237,2584.8000000044703,"",,,,,,,,,,,4,,,,,
html-keyboard-response,689,1971343,null,"",null,,,,,,,,,,,,,,,
math-period,690,1972657,2492,"",,,,,,,,,,,4,,,,,
html-keyboard-response,691,1972763,null,"",null,,,,,,,,,,,,,,,
math-period,692,1973681,null,"",,,,,,,,,,,,,,,,
html-keyboard-response,693,1974694,null,"Recall Period!",null,,,,,,,,,,,,,,,
call-function,694,1974695,,"",,,,,,,,,,,,,,,,
html-keyboard-response,695,1974811,null,"",null,,,,,,,,,,,,,,,
recall-period,696,1977917,25153.10000000894,"",,,,,,,,,,,chepherd,,,,,
html-keyboard-response,697,1978026,null,"",null,,,,,,,,,,,,,,,
recall-period,698,1981760,19486.60000000894,"",,,,,,,,,,,sheperd,,,,,
html-keyboard-response,699,1981877,null,"",null,,,,,,,,,,,,,,,
recall-period,700,2049704,null,"",,,,,,,,,,,,,,,,
html-keyboard-response,701,2050207,null,"Time's Up!",null,,,,,,,,,,,,,,,
html-keyboard-response,702,2079002,28805.5,"<p> Good job! You have responded correctly to 90% of the trials. </p>
                      <p>Be sure to only press the spacebar if you see a GREEN square, and please keep your accuracy above 80%.</p>
                      <p> Press any key to continue the experiment. </p>",32,,,,,,,,,,,,,,,
html-keyboard-response,703,2079727,723.4000000022352,"<div style=""font-size:48px;"">Press any key to begin list 7 of 16 </div>",32,,,,,,,,,,,,,,,
html-keyboard-response,704,2082237,null,"<div style=""font-size:60px;"">+</div>",null,,,,,,,,,,,,,,,
html-keyboard-response,705,2082448,null,"<div style=""font-size:42px;"">MARINE</div><img id = ""stim"" ><div class = red_square id = bottomsquare></div>",null,encoding,word_square,,,0,bottomsquare,none,true,,,MARINE,6,,,
html-keyboard-response,706,2082757,null,"<div style=""font-size:42px;"">MARINE</div>",null,,word,MARINE,,,,,,,,,,,,
html-keyboard-response,707,2084269,null,"",null,,word,MARINE,,,,,,,,,,,,
html-keyboard-response,708,2084481,null,"<div style=""font-size:42px;"">JOINT</div><img id = ""stim"" ><div class = green_square id = topsquare></div>",null,encoding,word_square,,,1,topsquare,32,true,,,JOINT,6,,,
html-keyboard-response,709,2084792,null,"<div style=""font-size:42px;"">JOINT</div>",null,,word,JOINT,,,,,,,,,,,,
html-keyboard-response,710,2086304,87.80000000074506,"",32,,word,JOINT,,,,,,,,,,,,
html-keyboard-response,711,2086511,null,"<div style=""font-size:42px;"">VESSEL</div><img id = ""stim"" ><div class = green_square id = bottomsquare></div>",null,encoding,word_square,,,1,bottomsquare,32,true,,,VESSEL,6,,,
html-keyboard-response,712,2086814,300.9000000022352,"<div style=""font-size:42px;"">VESSEL</div>",32,,word,VESSEL,,,,,,,,,,,,
html-keyboard-response,713,2088327,null,"",null,,word,VESSEL,,,,,,,,,,,,
html-keyboard-response,714,2088541,null,"<div style=""font-size:42px;"">COWBOY</div><img id = ""stim"" ><div class = red_square id = topsquare></div>",null,encoding,word_square,,,0,topsquare,none,false,,,COWBOY,6,,,
html-keyboard-response,715,2088856,null,"<div style=""font-size:42px;"">COWBOY</div>",null,,word,COWBOY,,,,,,,,,,,,
html-keyboard-response,716,2090370,131.20000000298023,"",32,,word,COWBOY,,,,,,,,,,,,
html-keyboard-response,717,2090582,null,"<div style=""font-size:42px;"">CONVICT</div><img id = ""stim"" ><div class = red_square id = bottomsquare></div>",null,encoding,word_square,,,0,bottomsquare,none,true,,,CONVICT,6,,,
html-keyboard-response,718,2090890,null,"<div style=""font-size:42px;"">CONVICT</div>",null,,word,CONVICT,,,,,,,,,,,,
html-keyboard-response,719,2092397,null,"",null,,word,CONVICT,,,,,,,,,,,,
html-keyboard-response,720,2092614,null,"<div style=""font-size:42px;"">COOK</div><img id = ""stim"" ><div class = red_square id = topsquare></div>",null,encoding,word_square,,,0,topsquare,none,true,,,COOK,6,,,
html-keyboard-response,721,2092918,null,"<div style=""font-size:42px;"">COOK</div>",null,,word,COOK,,,,,,,,,,,,
html-keyboard-response,722,2094436,null,"",null,,word,COOK,,,,,,,,,,,,
html-keyboard-response,723,2094643,null,"<div style=""font-size:42px;"">FROG</div><img id = ""stim"" ><div class = green_square id = topsquare></div>",null,encoding,word_square,,,1,topsquare,32,true,,,FROG,6,,,
html-keyboard-response,724,2094945,300.1000000014901,"<div style=""font-size:42px;"">FROG</div>",32,,word,FROG,,,,,,,,,,,,
html-keyboard-response,725,2096462,null,"",null,,word,FROG,,,,,,,,,,,,
html-keyboard-response,726,2096679,null,"<div style=""font-size:42px;"">PREACHER</div><img id = ""stim"" ><div class = red_square id = bottomsquare></div>",null,encoding,word_square,,,0,bottomsquare,none,true,,,PREACHER,6,,,
html-keyboard-response,727,2096994,null,"<div style=""font-size:42px;"">PREACHER</div>",null,,word,PREACHER,,,,,,,,,,,,
html-keyboard-response,728,2098500,null,"",null,,word,PREACHER,,,,,,,,,,,,
html-keyboard-response,729,2098712,null,"<div style=""font-size:42px;"">LAUNDRY</div><img id = ""stim"" ><div class = green_square id = bottomsquare></div>",null,encoding,word_square,,,1,bottomsquare,32,true,,,LAUNDRY,6,,,
html-keyboard-response,730,2099026,263.19999999925494,"<div style=""font-size:42px;"">LAUNDRY</div>",32,,word,LAUNDRY,,,,,,,,,,,,
html-keyboard-response,731,2100542,null,"",null,,word,LAUNDRY,,,,,,,,,,,,
html-keyboard-response,732,2100747,null,"<div style=""font-size:42px;"">TWISTER</div><img id = ""stim"" ><div class = green_square id = topsquare></div>",null,encoding,word_square,,,1,topsquare,32,true,,,TWISTER,6,,,
html-keyboard-response,733,2101059,248.90000000223517,"<div style=""font-size:42px;"">TWISTER</div>",32,,word,TWISTER,,,,,,,,,,,,
html-keyboard-response,734,2102571,null,"",null,,word,TWISTER,,,,,,,,,,,,
html-keyboard-response,735,2102780,null,"<div style=""font-size:42px;"">STAR</div><img id = ""stim"" ><div class = red_square id = topsquare></div>",null,encoding,word_square,,,0,topsquare,none,true,,,STAR,6,,,
html-keyboard-response,736,2103091,null,"<div style=""font-size:42px;"">STAR</div>",null,,word,STAR,,,,,,,,,,,,
html-keyboard-response,737,2104600,null,"",null,,word,STAR,,,,,,,,,,,,
html-keyboard-response,738,2104813,null,"<div style=""font-size:42px;"">MARS</div><img id = ""stim"" ><div class = green_square id = bottomsquare></div>",null,encoding,word_square,,,1,bottomsquare,32,true,,,MARS,6,,,
html-keyboard-response,739,2105124,null,"<div style=""font-size:42px;"">MARS</div>",null,,word,MARS,,,,,,,,,,,,
html-keyboard-response,740,2106638,27.199999999254942,"",32,,word,MARS,,,,,,,,,,,,
html-keyboard-response,741,2106851,null,"<div style=""font-size:42px;"">SADDLE</div><img id = ""stim"" ><div class = red_square id = bottomsquare></div>",null,encoding,word_square,,,0,bottomsquare,none,true,,,SADDLE,6,,,
html-keyboard-response,742,2107158,null,"<div style=""font-size:42px;"">SADDLE</div>",null,,word,SADDLE,,,,,,,,,,,,
html-keyboard-response,743,2108668,null,"",null,,word,SADDLE,,,,,,,,,,,,
html-keyboard-response,744,2108881,null,"<div style=""font-size:42px;"">CYCLONE</div><img id = ""stim"" ><div class = green_square id = topsquare></div>",null,encoding,word_square,,,1,topsquare,32,true,,,CYCLONE,6,,,
html-keyboard-response,745,2109191,258.5,"<div style=""font-size:42px;"">CYCLONE</div>",32,,word,CYCLONE,,,,,,,,,,,,
html-keyboard-response,746,2110701,null,"",null,,word,CYCLONE,,,,,,,,,,,,
html-keyboard-response,747,2110917,null,"<div style=""font-size:42px;"">SHEARS</div><img id = ""stim"" ><div class = green_square id = bottomsquare></div>",null,encoding,word_square,,,1,bottomsquare,32,true,,,SHEARS,6,,,
html-keyboard-response,748,2111233,250.89999999850988,"<div style=""font-size:42px;"">SHEARS</div>",32,,word,SHEARS,,,,,,,,,,,,
html-keyboard-response,749,2112736,null,"",null,,word,SHEARS,,,,,,,,,,,,
html-keyboard-response,750,2112948,null,"<div style=""font-size:42px;"">CLAM</div><img id = ""stim"" ><div class = red_square id = topsquare></div>",null,encoding,word_square,,,0,topsquare,none,true,,,CLAM,6,,,
html-keyboard-response,751,2113259,null,"<div style=""font-size:42px;"">CLAM</div>",null,,word,CLAM,,,,,,,,,,,,
html-keyboard-response,752,2114775,null,"",null,,word,CLAM,,,,,,,,,,,,
call-function,753,2114776,,"",,,,,,,,,,,,,,,,
html-keyboard-response,754,2114887,null,"",null,,,,,,,,,,,,,,,
math-period,755,2116681,3365.4999999962747,"",,,,,,,,,,,3,,,,,
html-keyboard-response,756,2116787,null,"",null,,,,,,,,,,,,,,,
math-period,757,2117981,2244,"",,,,,,,,,,,4,,,,,
html-keyboard-response,758,2118088,null,"",null,,,,,,,,,,,,,,,
math-period,759,2119313,2302.599999997765,"",,,,,,,,,,,5,,,,,
html-keyboard-response,760,2119421,null,"",null,,,,,,,,,,,,,,,
math-period,761,2120833,2676.2000000029802,"",,,,,,,,,,,3,,,,,
html-keyboard-response,762,2120938,null,"",null,,,,,,,,,,,,,,,
math-period,763,2122895,3795.599999997765,"",,,,,,,,,,,2,,,,,
html-keyboard-response,764,2123001,null,"",null,,,,,,,,,,,,,,,
math-period,765,2124205,2302.89999999851,"",,,,,,,,,,,4,,,,,
html-keyboard-response,766,2124307,null,"",null,,,,,,,,,,,,,,,
math-period,767,2126296,3842.5000000037253,"",,,,,,,,,,,1,,,,,
html-keyboard-response,768,2126398,null,"",null,,,,,,,,,,,,,,,
math-period,769,2127646,2385.89999999851,"",,,,,,,,,,,5,,,,,
html-keyboard-response,770,2127752,null,"",null,,,,,,,,,,,,,,,
math-period,771,2129485,3350.5,"",,,,,,,,,,,1,,,,,
html-keyboard-response,772,2129588,null,"",null,,,,,,,,,,,,,,,
math-period,773,2130858,2440.2999999970198,"",,,,,,,,,,,5,,,,,
html-keyboard-response,774,2130964,null,"",null,,,,,,,,,,,,,,,
math-period,775,2132351,2669.7999999970198,"",,,,,,,,,,,1,,,,,
html-keyboard-response,776,2132453,null,"",null,,,,,,,,,,,,,,,
math-period,777,2133638,2247.300000000745,"",,,,,,,,,,,4,,,,,
html-keyboard-response,778,2133745,null,"",null,,,,,,,,,,,,,,,
math-period,779,2135857,4082.39999999851,"",,,,,,,,,,,5,,,,,
html-keyboard-response,780,2135973,null,"",null,,,,,,,,,,,,,,,
math-period,781,2137204,2324.099999997765,"",,,,,,,,,,,3,,,,,
html-keyboard-response,782,2137314,null,"",null,,,,,,,,,,,,,,,
math-period,783,2138785,null,"",,,,,,,,,,,,,,,,
html-keyboard-response,784,2139813,null,"Recall Period!",null,,,,,,,,,,,,,,,
call-function,785,2139814,,"",,,,,,,,,,,,,,,,
html-keyboard-response,786,2139916,null,"",null,,,,,,,,,,,,,,,
recall-period,787,2142711,14631.699999991804,"",,,,,,,,,,,clam,,,,,
html-keyboard-response,788,2142817,null,"",null,,,,,,,,,,,,,,,
recall-period,789,2144345,3688.7999999970198,"",,,,,,,,,,,cook,,,,,
html-keyboard-response,790,2144449,null,"",null,,,,,,,,,,,,,,,
recall-period,791,2214816,null,"",,,,,,,,,,,,,,,,
html-keyboard-response,792,2215328,null,"Time's Up!",null,,,,,,,,,,,,,,,
html-keyboard-response,793,2216358,1028,"<p> Good job! You have responded correctly to 90% of the trials. </p>
                      <p>Be sure to only press the spacebar if you see a GREEN square, and please keep your accuracy above 80%.</p>
                      <p> Press any key to continue the experiment. </p>",32,,,,,,,,,,,,,,,
html-keyboard-response,794,2216887,527.7999999970198,"<div style=""font-size:48px;"">Press any key to begin list 8 of 16 </div>",32,,,,,,,,,,,,,,,
html-keyboard-response,795,2219407,null,"<div style=""font-size:60px;"">+</div>",null,,,,,,,,,,,,,,,
html-keyboard-response,796,2219614,null,"<div style=""font-size:42px;"">CABIN</div><img id = ""stim"" ><div class = red_square id = topsquare></div>",null,encoding,word_square,,,0,topsquare,none,true,,,CABIN,7,,,
html-keyboard-response,797,2219924,null,"<div style=""font-size:42px;"">CABIN</div>",null,,word,CABIN,,,,,,,,,,,,
html-keyboard-response,798,2221430,null,"",null,,word,CABIN,,,,,,,,,,,,
html-keyboard-response,799,2221648,null,"<div style=""font-size:42px;"">HOOK</div><img id = ""stim"" ><div class = green_square id = bottomsquare></div>",null,encoding,word_square,,,1,bottomsquare,32,true,,,HOOK,7,,,
html-keyboard-response,800,2221951,206.89999999850988,"<div style=""font-size:42px;"">HOOK</div>",32,,word,HOOK,,,,,,,,,,,,
html-keyboard-response,801,2223469,null,"",null,,word,HOOK,,,,,,,,,,,,
html-keyboard-response,802,2223686,null,"<div style=""font-size:42px;"">ANGEL</div><img id = ""stim"" ><div class = green_square id = topsquare></div>",null,encoding,word_square,,,1,topsquare,32,true,,,ANGEL,7,,,
html-keyboard-response,803,2223988,256.0999999977648,"<div style=""font-size:42px;"">ANGEL</div>",32,,word,ANGEL,,,,,,,,,,,,
html-keyboard-response,804,2225504,null,"",null,,word,ANGEL,,,,,,,,,,,,
html-keyboard-response,805,2225707,null,"<div style=""font-size:42px;"">TRIBE</div><img id = ""stim"" ><div class = red_square id = bottomsquare></div>",null,encoding,word_square,,,0,bottomsquare,none,true,,,TRIBE,7,,,
html-keyboard-response,806,2226019,null,"<div style=""font-size:42px;"">TRIBE</div>",null,,word,TRIBE,,,,,,,,,,,,
html-keyboard-response,807,2227529,null,"",null,,word,TRIBE,,,,,,,,,,,,
html-keyboard-response,808,2227731,null,"<div style=""font-size:42px;"">HANDBAG</div><img id = ""stim"" ><div class = green_square id = bottomsquare></div>",null,encoding,word_square,,,1,bottomsquare,32,true,,,HANDBAG,7,,,
html-keyboard-response,809,2228042,168.29999999701977,"<div style=""font-size:42px;"">HANDBAG</div>",32,,word,HANDBAG,,,,,,,,,,,,
html-keyboard-response,810,2229554,null,"",null,,word,HANDBAG,,,,,,,,,,,,
html-keyboard-response,811,2229757,null,"<div style=""font-size:42px;"">ICEBERG</div><img id = ""stim"" ><div class = red_square id = topsquare></div>",null,encoding,word_square,,,0,topsquare,none,true,,,ICEBERG,7,,,
html-keyboard-response,812,2230064,null,"<div style=""font-size:42px;"">ICEBERG</div>",null,,word,ICEBERG,,,,,,,,,,,,
html-keyboard-response,813,2231574,null,"",null,,word,ICEBERG,,,,,,,,,,,,
html-keyboard-response,814,2231792,null,"<div style=""font-size:42px;"">CURTAIN</div><img id = ""stim"" ><div class = green_square id = topsquare></div>",null,encoding,word_square,,,1,topsquare,32,true,,,CURTAIN,7,,,
html-keyboard-response,815,2232107,267,"<div style=""font-size:42px;"">CURTAIN</div>",32,,word,CURTAIN,,,,,,,,,,,,
html-keyboard-response,816,2233615,null,"",null,,word,CURTAIN,,,,,,,,,,,,
html-keyboard-response,817,2233829,null,"<div style=""font-size:42px;"">WINDOW</div><img id = ""stim"" ><div class = green_square id = bottomsquare></div>",null,encoding,word_square,,,1,bottomsquare,32,true,,,WINDOW,7,,,
html-keyboard-response,818,2234143,290.69999999925494,"<div style=""font-size:42px;"">WINDOW</div>",32,,word,WINDOW,,,,,,,,,,,,
html-keyboard-response,819,2235653,null,"",null,,word,WINDOW,,,,,,,,,,,,
html-keyboard-response,820,2235866,null,"<div style=""font-size:42px;"">ARM</div><img id = ""stim"" ><div class = red_square id = bottomsquare></div>",null,encoding,word_square,,,0,bottomsquare,none,true,,,ARM,7,,,
html-keyboard-response,821,2236174,null,"<div style=""font-size:42px;"">ARM</div>",null,,word,ARM,,,,,,,,,,,,
html-keyboard-response,822,2237682,null,"",null,,word,ARM,,,,,,,,,,,,
html-keyboard-response,823,2237897,null,"<div style=""font-size:42px;"">TROUT</div><img id = ""stim"" ><div class = green_square id = topsquare></div>",null,encoding,word_square,,,1,topsquare,32,true,,,TROUT,7,,,
html-keyboard-response,824,2238208,125.19999999925494,"<div style=""font-size:42px;"">TROUT</div>",32,,word,TROUT,,,,,,,,,,,,
html-keyboard-response,825,2239720,null,"",null,,word,TROUT,,,,,,,,,,,,
html-keyboard-response,826,2239925,null,"<div style=""font-size:42px;"">MARROW</div><img id = ""stim"" ><div class = red_square id = topsquare></div>",null,encoding,word_square,,,0,topsquare,none,true,,,MARROW,7,,,
html-keyboard-response,827,2240243,null,"<div style=""font-size:42px;"">MARROW</div>",null,,word,MARROW,,,,,,,,,,,,
html-keyboard-response,828,2241757,null,"",null,,word,MARROW,,,,,,,,,,,,
html-keyboard-response,829,2241964,null,"<div style=""font-size:42px;"">BODY</div><img id = ""stim"" ><div class = red_square id = bottomsquare></div>",null,encoding,word_square,,,0,bottomsquare,none,true,,,BODY,7,,,
html-keyboard-response,830,2242275,null,"<div style=""font-size:42px;"">BODY</div>",null,,word,BODY,,,,,,,,,,,,
html-keyboard-response,831,2243786,null,"",null,,word,BODY,,,,,,,,,,,,
html-keyboard-response,832,2243999,null,"<div style=""font-size:42px;"">KNIFE</div><img id = ""stim"" ><div class = red_square id = topsquare></div>",null,encoding,word_square,,,0,topsquare,none,true,,,KNIFE,7,,,
html-keyboard-response,833,2244306,null,"<div style=""font-size:42px;"">KNIFE</div>",null,,word,KNIFE,,,,,,,,,,,,
html-keyboard-response,834,2245810,null,"",null,,word,KNIFE,,,,,,,,,,,,
html-keyboard-response,835,2246014,null,"<div style=""font-size:42px;"">PEOPLE</div><img id = ""stim"" ><div class = green_square id = bottomsquare></div>",null,encoding,word_square,,,1,bottomsquare,32,true,,,PEOPLE,7,,,
html-keyboard-response,836,2246327,281.69999999925494,"<div style=""font-size:42px;"">PEOPLE</div>",32,,word,PEOPLE,,,,,,,,,,,,
html-keyboard-response,837,2247838,null,"",null,,word,PEOPLE,,,,,,,,,,,,
html-keyboard-response,838,2248049,null,"<div style=""font-size:42px;"">KLEENEX</div><img id = ""stim"" ><div class = green_square id = topsquare></div>",null,encoding,word_square,,,1,topsquare,32,true,,,KLEENEX,7,,,
html-keyboard-response,839,2248364,212,"<div style=""font-size:42px;"">KLEENEX</div>",32,,word,KLEENEX,,,,,,,,,,,,
html-keyboard-response,840,2249869,null,"",null,,word,KLEENEX,,,,,,,,,,,,
html-keyboard-response,841,2250082,null,"<div style=""font-size:42px;"">SERGEANT</div><img id = ""stim"" ><div class = red_square id = bottomsquare></div>",null,encoding,word_square,,,0,bottomsquare,none,true,,,SERGEANT,7,,,
html-keyboard-response,842,2250394,null,"<div style=""font-size:42px;"">SERGEANT</div>",null,,word,SERGEANT,,,,,,,,,,,,
html-keyboard-response,843,2251899,null,"",null,,word,SERGEANT,,,,,,,,,,,,
call-function,844,2251901,,"",,,,,,,,,,,,,,,,
html-keyboard-response,845,2252003,null,"",null,,,,,,,,,,,,,,,
math-period,846,2254172,3731.900000002235,"",,,,,,,,,,,3,,,,,
html-keyboard-response,847,2254274,null,"",null,,,,,,,,,,,,,,,
math-period,848,2255507,2315.300000000745,"",,,,,,,,,,,1,,,,,
html-keyboard-response,849,2255612,null,"",null,,,,,,,,,,,,,,,
math-period,850,2257403,3407.400000002235,"",,,,,,,,,,,3,,,,,
html-keyboard-response,851,2257520,null,"",null,,,,,,,,,,,,,,,
math-period,852,2259825,7418.80000000447,"",,,,,,,,,,,4,,,,,
html-keyboard-response,853,2259937,null,"",null,,,,,,,,,,,,,,,
math-period,854,2260925,1868.0000000037253,"",,,,,,,,,,,3,,,,,
html-keyboard-response,855,2261040,null,"",null,,,,,,,,,,,,,,,
math-period,856,2262369,2509.300000000745,"",,,,,,,,,,,5,,,,,
html-keyboard-response,857,2262486,null,"",null,,,,,,,,,,,,,,,
math-period,858,2263714,2324.9999999962747,"",,,,,,,,,,,5,,,,,
html-keyboard-response,859,2263822,null,"",null,,,,,,,,,,,,,,,
math-period,860,2266149,7926.30000000447,"",,,,,,,,,,,2,,,,,
html-keyboard-response,861,2266255,null,"",null,,,,,,,,,,,,,,,
math-period,862,2267569,2451.099999997765,"",,,,,,,,,,,5,,,,,
html-keyboard-response,863,2267671,null,"",null,,,,,,,,,,,,,,,
math-period,864,2268996,2461.699999999255,"",,,,,,,,,,,4,,,,,
html-keyboard-response,865,2269102,null,"",null,,,,,,,,,,,,,,,
math-period,866,2270290,2241.10000000149,"",,,,,,,,,,,2,,,,,
html-keyboard-response,867,2270407,null,"",null,,,,,,,,,,,,,,,
math-period,868,2271565,2160.8000000044703,"",,,,,,,,,,,3,,,,,
html-keyboard-response,869,2271672,null,"",null,,,,,,,,,,,,,,,
math-period,870,2272668,1855.4000000022352,"",,,,,,,,,,,3,,,,,
html-keyboard-response,871,2272772,null,"",null,,,,,,,,,,,,,,,
math-period,872,2274100,2502.7999999970198,"",,,,,,,,,,,2,,,,,
html-keyboard-response,873,2274205,null,"",null,,,,,,,,,,,,,,,
math-period,874,2275326,2128.3000000044703,"",,,,,,,,,,,3,,,,,
html-keyboard-response,875,2275439,null,"",null,,,,,,,,,,,,,,,
math-period,876,2275904,null,"",,,,,,,,,,,,,,,,
html-keyboard-response,877,2276917,null,"Recall Period!",null,,,,,,,,,,,,,,,
call-function,878,2276919,,"",,,,,,,,,,,,,,,,
html-keyboard-response,879,2277021,null,"",null,,,,,,,,,,,,,,,
recall-period,880,2298367,164751.30000000447,"",,,,,,,,,,,joint,,,,,
html-keyboard-response,881,2298472,null,"",null,,,,,,,,,,,,,,,
recall-period,882,2351920,null,"",,,,,,,,,,,,,,,,
html-keyboard-response,883,2352433,null,"Time's Up!",null,,,,,,,,,,,,,,,
html-keyboard-response,884,2368646,16211.300000000745,"<p> Good job! You have responded correctly to 91% of the trials. </p>
                      <p>Be sure to only press the spacebar if you see a GREEN square, and please keep your accuracy above 80%.</p>
                      <p> Press any key to continue the experiment. </p>",32,,,,,,,,,,,,,,,
html-keyboard-response,885,2369925,1277.800000000745,"<div style=""font-size:48px;"">Press any key to begin list 9 of 16 </div>",32,,,,,,,,,,,,,,,
html-keyboard-response,886,2372449,null,"<div style=""font-size:60px;"">+</div>",null,,,,,,,,,,,,,,,
html-keyboard-response,887,2372653,null,"<div style=""font-size:42px;"">PORT</div><img id = ""stim"" ><div class = green_square id = topsquare></div>",null,encoding,word_square,,,1,topsquare,32,false,,,PORT,8,,,
html-keyboard-response,888,2372963,null,"<div style=""font-size:42px;"">PORT</div>",null,,word,PORT,,,,,,,,,,,,
html-keyboard-response,889,2374475,null,"",null,,word,PORT,,,,,,,,,,,,
html-keyboard-response,890,2374688,null,"<div style=""font-size:42px;"">CAPE</div><img id = ""stim"" ><div class = green_square id = bottomsquare></div>",null,encoding,word_square,,,1,bottomsquare,32,true,,,CAPE,8,,,
html-keyboard-response,891,2374995,null,"<div style=""font-size:42px;"">CAPE</div>",null,,word,CAPE,,,,,,,,,,,,
html-keyboard-response,892,2376510,146.69999999925494,"",32,,word,CAPE,,,,,,,,,,,,
html-keyboard-response,893,2376717,null,"<div style=""font-size:42px;"">ICING</div><img id = ""stim"" ><div class = red_square id = bottomsquare></div>",null,encoding,word_square,,,0,bottomsquare,none,true,,,ICING,8,,,
html-keyboard-response,894,2377029,null,"<div style=""font-size:42px;"">ICING</div>",null,,word,ICING,,,,,,,,,,,,
html-keyboard-response,895,2378536,null,"",null,,word,ICING,,,,,,,,,,,,
html-keyboard-response,896,2378751,null,"<div style=""font-size:42px;"">PISTOL</div><img id = ""stim"" ><div class = red_square id = topsquare></div>",null,encoding,word_square,,,0,topsquare,none,true,,,PISTOL,8,,,
html-keyboard-response,897,2379062,null,"<div style=""font-size:42px;"">PISTOL</div>",null,,word,PISTOL,,,,,,,,,,,,
html-keyboard-response,898,2380567,null,"",null,,word,PISTOL,,,,,,,,,,,,
html-keyboard-response,899,2380770,null,"<div style=""font-size:42px;"">CATCHER</div><img id = ""stim"" ><div class = green_square id = topsquare></div>",null,encoding,word_square,,,1,topsquare,32,true,,,CATCHER,8,,,
html-keyboard-response,900,2381079,null,"<div style=""font-size:42px;"">CATCHER</div>",null,,word,CATCHER,,,,,,,,,,,,
html-keyboard-response,901,2382587,31.899999998509884,"",32,,word,CATCHER,,,,,,,,,,,,
html-keyboard-response,902,2382803,null,"<div style=""font-size:42px;"">SHAMPOO</div><img id = ""stim"" ><div class = red_square id = bottomsquare></div>",null,encoding,word_square,,,0,bottomsquare,none,true,,,SHAMPOO,8,,,
html-keyboard-response,903,2383114,null,"<div style=""font-size:42px;"">SHAMPOO</div>",null,,word,SHAMPOO,,,,,,,,,,,,
html-keyboard-response,904,2384626,null,"",null,,word,SHAMPOO,,,,,,,,,,,,
html-keyboard-response,905,2384837,null,"<div style=""font-size:42px;"">LITTER</div><img id = ""stim"" ><div class = green_square id = bottomsquare></div>",null,encoding,word_square,,,1,bottomsquare,32,true,,,LITTER,8,,,
html-keyboard-response,906,2385149,230.30000000074506,"<div style=""font-size:42px;"">LITTER</div>",32,,word,LITTER,,,,,,,,,,,,
html-keyboard-response,907,2386665,null,"",null,,word,LITTER,,,,,,,,,,,,
html-keyboard-response,908,2386875,null,"<div style=""font-size:42px;"">COUNTRY</div><img id = ""stim"" ><div class = green_square id = topsquare></div>",null,encoding,word_square,,,1,topsquare,32,true,,,COUNTRY,8,,,
