trial_type,trial_index,time_elapsed,rt,stimulus,key_press,exp_phase,test_part,word,task,targ_cond,sq_pos,correctKeyCode,correct,value,response,Word,List,RecResp,serial_pos,colorChosen
pavlovia,0,2902,,"",,,,,,,,,,,,,,,,
external-html,1,140163,137102.89999997616,"",,,,,,,,,,,,,,,,
html-keyboard-response,2,142412,2244.199999988079,"Welcome to the experiment. Press any key to begin.",32,,,,,,,,,,,,,,,
html-keyboard-response,3,149970,7554.100000023842,"<p>You will see a list of words and colored squares in the following task.<p><p>Press the spacebar whenever you see a GREEN square.<p><p>Do not press a key if the square is RED.<p><p>Press the spacebar to continue.</p>",32,,,,,,,,,,,,,,,
html-keyboard-response,4,164658,14183.299999952316,"<p>Please try to remember as many of the words as you can, and try to think about the meaning of each word as it appears.<p><p>After the detection and encoding task you will be asked to solve some math problems for 24 seconds.<p> Please solve as many problems as you can in the time given. <p><p><p>Press the spacebar to continue.</p>",32,,,,,,,,,,,,,,,
html-keyboard-response,5,178354,13192,"After solving the math problems, you will be asked to type in as many words <p>from the previous list as you can remember for 75 seconds.<p> If you finish recalling before the 75 seconds are up,<p> just sit tight and try to think of any more words you could have missed. <p><p><p>Press the spacebar to continue.</p>",32,,,,,,,,,,,,,,,
html-keyboard-response,6,185284,6426.199999988079,"There will be 16 lists of words and recall, followed  by<p><p> a recognition phase. The experiment is expected to take up to 90 minutes.<p>We will begin with a brief practice session.<p>Press the spacebar to begin the practice.</p>",32,,,,,,,,,,,,,,,
html-keyboard-response,7,187794,null,"<div style=""font-size:60px;"">+</div>",null,,,,,,,,,,,,,,,
html-keyboard-response,8,188005,null,"<div style=""font-size:42px;"">HAPPY</div><img id = ""stim"" ><div class = red_square id = ""bottomsquare"" ></div>",null,practice,word_square,HAPPY,prac_response,0,Bottom,none,true,,,,,,,
html-keyboard-response,9,188315,null,"<div style=""font-size:42px;"">HAPPY</div>",null,,word,HAPPY,,,,,,,,,,,,
html-keyboard-response,10,189822,null,"",null,,word,HAPPY,,,,,,,,,,,,
html-keyboard-response,11,190031,null,"<div style=""font-size:42px;"">COLD</div><img id = ""stim"" ><div class = green_square id = ""bottomsquare"" ></div>",null,practice,word_square,COLD,prac_response,1,Bottom,32,true,,,,,,,
html-keyboard-response,12,190340,null,"<div style=""font-size:42px;"">COLD</div>",null,,word,COLD,,,,,,,,,,,,
html-keyboard-response,13,191844,325,"",32,,word,COLD,,,,,,,,,,,,
html-keyboard-response,14,192053,null,"<div style=""font-size:42px;"">HEAVY</div><img id = ""stim"" ><div class = green_square id = ""topsquare"" ></div>",null,practice,word_square,HEAVY,prac_response,1,Top,32,true,,,,,,,
html-keyboard-response,15,192360,181.20000004768372,"<div style=""font-size:42px;"">HEAVY</div>",32,,word,HEAVY,,,,,,,,,,,,
html-keyboard-response,16,193865,null,"",null,,word,HEAVY,,,,,,,,,,,,
html-keyboard-response,17,194073,null,"<div style=""font-size:42px;"">FUNNY</div><img id = ""stim"" ><div class = red_square id = ""topsquare"" ></div>",null,practice,word_square,FUNNY,prac_response,0,Top,none,true,,,,,,,
html-keyboard-response,18,194382,null,"<div style=""font-size:42px;"">FUNNY</div>",null,,word,FUNNY,,,,,,,,,,,,
html-keyboard-response,19,195886,null,"",null,,word,FUNNY,,,,,,,,,,,,
html-keyboard-response,20,196094,null,"<div style=""font-size:42px;"">SCARY</div><img id = ""stim"" ><div class = green_square id = ""bottomsquare"" ></div>",null,practice,word_square,SCARY,prac_response,1,Bottom,32,true,,,,,,,
html-keyboard-response,21,196401,151.69999998807907,"<div style=""font-size:42px;"">SCARY</div>",32,,word,SCARY,,,,,,,,,,,,
html-keyboard-response,22,197903,null,"",null,,word,SCARY,,,,,,,,,,,,
html-keyboard-response,23,198111,null,"<div style=""font-size:42px;"">PEACEFUL</div><img id = ""stim"" ><div class = green_square id = ""topsquare"" ></div>",null,practice,word_square,PEACEFUL,prac_response,1,Top,32,true,,,,,,,
html-keyboard-response,24,198419,156.5,"<div style=""font-size:42px;"">PEACEFUL</div>",32,,word,PEACEFUL,,,,,,,,,,,,
html-keyboard-response,25,199923,null,"",null,,word,PEACEFUL,,,,,,,,,,,,
html-keyboard-response,26,200131,null,"<div style=""font-size:42px;"">LITTLE</div><img id = ""stim"" ><div class = red_square id = ""bottomsquare"" ></div>",null,practice,word_square,LITTLE,prac_response,0,Bottom,none,true,,,,,,,
html-keyboard-response,27,200440,null,"<div style=""font-size:42px;"">LITTLE</div>",null,,word,LITTLE,,,,,,,,,,,,
html-keyboard-response,28,201943,null,"",null,,word,LITTLE,,,,,,,,,,,,
html-keyboard-response,29,202152,null,"<div style=""font-size:42px;"">TIRED</div><img id = ""stim"" ><div class = red_square id = ""topsquare"" ></div>",null,practice,word_square,TIRED,prac_response,0,Top,none,true,,,,,,,
html-keyboard-response,30,202460,null,"<div style=""font-size:42px;"">TIRED</div>",null,,word,TIRED,,,,,,,,,,,,
html-keyboard-response,31,203965,null,"",null,,word,TIRED,,,,,,,,,,,,
html-keyboard-response,32,204172,null,"<div style=""font-size:42px;"">ENTERTAINING</div><img id = ""stim"" ><div class = red_square id = ""bottomsquare"" ></div>",null,practice,word_square,ENTERTAINING,prac_response,0,Bottom,none,true,,,,,,,
html-keyboard-response,33,204478,null,"<div style=""font-size:42px;"">ENTERTAINING</div>",null,,word,ENTERTAINING,,,,,,,,,,,,
html-keyboard-response,34,205981,null,"",null,,word,ENTERTAINING,,,,,,,,,,,,
html-keyboard-response,35,206190,null,"<div style=""font-size:42px;"">GRATEFUL</div><img id = ""stim"" ><div class = green_square id = ""bottomsquare"" ></div>",null,practice,word_square,GRATEFUL,prac_response,1,Bottom,32,true,,,,,,,
html-keyboard-response,36,206498,159.60000002384186,"<div style=""font-size:42px;"">GRATEFUL</div>",32,,word,GRATEFUL,,,,,,,,,,,,
html-keyboard-response,37,208002,null,"",null,,word,GRATEFUL,,,,,,,,,,,,
html-keyboard-response,38,208211,null,"<div style=""font-size:42px;"">LOUD</div><img id = ""stim"" ><div class = red_square id = ""topsquare"" ></div>",null,practice,word_square,LOUD,prac_response,0,Top,none,true,,,,,,,
html-keyboard-response,39,208519,null,"<div style=""font-size:42px;"">LOUD</div>",null,,word,LOUD,,,,,,,,,,,,
html-keyboard-response,40,210023,null,"",null,,word,LOUD,,,,,,,,,,,,
html-keyboard-response,41,210231,null,"<div style=""font-size:42px;"">SMART</div><img id = ""stim"" ><div class = green_square id = ""topsquare"" ></div>",null,practice,word_square,SMART,prac_response,1,Top,32,true,,,,,,,
html-keyboard-response,42,210537,213.10000002384186,"<div style=""font-size:42px;"">SMART</div>",32,,word,SMART,,,,,,,,,,,,
html-keyboard-response,43,212041,null,"",null,,word,SMART,,,,,,,,,,,,
html-keyboard-response,44,212250,null,"<div style=""font-size:42px;"">SMOOTH</div><img id = ""stim"" ><div class = green_square id = ""bottomsquare"" ></div>",null,practice,word_square,SMOOTH,prac_response,1,Bottom,32,true,,,,,,,
html-keyboard-response,45,212559,155.19999998807907,"<div style=""font-size:42px;"">SMOOTH</div>",32,,word,SMOOTH,,,,,,,,,,,,
html-keyboard-response,46,214065,null,"",null,,word,SMOOTH,,,,,,,,,,,,
html-keyboard-response,47,214274,null,"<div style=""font-size:42px;"">DISHONEST</div><img id = ""stim"" ><div class = red_square id = ""bottomsquare"" ></div>",null,practice,word_square,DISHONEST,prac_response,0,Bottom,none,true,,,,,,,
html-keyboard-response,48,214582,null,"<div style=""font-size:42px;"">DISHONEST</div>",null,,word,DISHONEST,,,,,,,,,,,,
html-keyboard-response,49,216087,null,"",null,,word,DISHONEST,,,,,,,,,,,,
html-keyboard-response,50,216296,null,"<div style=""font-size:42px;"">WEALTHY</div><img id = ""stim"" ><div class = green_square id = ""topsquare"" ></div>",null,practice,word_square,WEALTHY,prac_response,1,Top,32,true,,,,,,,
html-keyboard-response,51,216605,168.30000001192093,"<div style=""font-size:42px;"">WEALTHY</div>",32,,word,WEALTHY,,,,,,,,,,,,
html-keyboard-response,52,218110,null,"",null,,word,WEALTHY,,,,,,,,,,,,
html-keyboard-response,53,218318,null,"<div style=""font-size:42px;"">BEAUTIFUL</div><img id = ""stim"" ><div class = red_square id = ""topsquare"" ></div>",null,practice,word_square,BEAUTIFUL,prac_response,0,Top,none,true,,,,,,,
html-keyboard-response,54,218626,null,"<div style=""font-size:42px;"">BEAUTIFUL</div>",null,,word,BEAUTIFUL,,,,,,,,,,,,
html-keyboard-response,55,220132,null,"",null,,word,BEAUTIFUL,,,,,,,,,,,,
html-keyboard-response,56,230399,10264.100000023842,"<p> Good job! You responded correctly to 100% of the trials. </p>
                  <p>Be sure to only press the spacebar if you see a GREEN square, and please keep your accuracy above 80%.</p>
                  <p>We're going to try once more to make sure you understand the task. press any key to continue. </p>",32,,,,,,,,,,,,,,,
html-keyboard-response,57,238664,8262.899999976158,"<p>You will see a list of words and colored squares in the following task.<p><p>Press the spacebar whenever you see a GREEN square.<p><p>Do not press a key if the square is RED<p><p>Press the spacebar to continue.</p>",32,,,,,,,,,,,,,,,
html-keyboard-response,58,241175,null,"<div style=""font-size:60px;"">+</div>",null,,,,,,,,,,,,,,,
html-keyboard-response,59,241383,null,"<div style=""font-size:42px;"">HAPPY</div><img id = ""stim"" ><div class = red_square id = ""bottomsquare"" ></div>",null,practice2,word_square,HAPPY,prac_response,0,Bottom,none,true,,,,,,,
html-keyboard-response,60,241690,null,"<div style=""font-size:42px;"">HAPPY</div>",null,,word,HAPPY,,,,,,,,,,,,
html-keyboard-response,61,243195,null,"",null,,word,HAPPY,,,,,,,,,,,,
html-keyboard-response,62,243404,null,"<div style=""font-size:42px;"">COLD</div><img id = ""stim"" ><div class = green_square id = ""bottomsquare"" ></div>",null,practice2,word_square,,prac_response,1,Bottom,32,true,,,,,,,
html-keyboard-response,63,243709,192.5,"<div style=""font-size:42px;"">COLD</div>",32,,word,COLD,,,,,,,,,,,,
html-keyboard-response,64,245213,null,"",null,,word,COLD,,,,,,,,,,,,
html-keyboard-response,65,245422,null,"<div style=""font-size:42px;"">HEAVY</div><img id = ""stim"" ><div class = green_square id = ""topsquare"" ></div>",null,practice2,word_square,,prac_response,1,Top,32,true,,,,,,,
html-keyboard-response,66,245731,121.5,"<div style=""font-size:42px;"">HEAVY</div>",32,,word,HEAVY,,,,,,,,,,,,
html-keyboard-response,67,247237,null,"",null,,word,HEAVY,,,,,,,,,,,,
html-keyboard-response,68,247446,null,"<div style=""font-size:42px;"">FUNNY</div><img id = ""stim"" ><div class = red_square id = ""topsquare"" ></div>",null,practice2,word_square,,prac_response,0,Top,none,true,,,,,,,
html-keyboard-response,69,247751,null,"<div style=""font-size:42px;"">FUNNY</div>",null,,word,FUNNY,,,,,,,,,,,,
html-keyboard-response,70,249255,null,"",null,,word,FUNNY,,,,,,,,,,,,
html-keyboard-response,71,249460,null,"<div style=""font-size:42px;"">SCARY</div><img id = ""stim"" ><div class = green_square id = ""bottomsquare"" ></div>",null,practice2,word_square,,prac_response,1,Bottom,32,true,,,,,,,
html-keyboard-response,72,249769,167.89999997615814,"<div style=""font-size:42px;"">SCARY</div>",32,,word,SCARY,,,,,,,,,,,,
html-keyboard-response,73,251273,null,"",null,,word,SCARY,,,,,,,,,,,,
html-keyboard-response,74,251482,null,"<div style=""font-size:42px;"">PEACEFUL</div><img id = ""stim"" ><div class = green_square id = ""topsquare"" ></div>",null,practice2,word_square,,prac_response,1,Top,32,true,,,,,,,
html-keyboard-response,75,251787,139.30000001192093,"<div style=""font-size:42px;"">PEACEFUL</div>",32,,word,PEACEFUL,,,,,,,,,,,,
html-keyboard-response,76,253293,null,"",null,,word,PEACEFUL,,,,,,,,,,,,
html-keyboard-response,77,253497,null,"<div style=""font-size:42px;"">LITTLE</div><img id = ""stim"" ><div class = red_square id = ""bottomsquare"" ></div>",null,practice2,word_square,LITTLE,prac_response,0,Bottom,none,true,,,,,,,
html-keyboard-response,78,253804,null,"<div style=""font-size:42px;"">LITTLE</div>",null,,word,LITTLE,,,,,,,,,,,,
html-keyboard-response,79,255309,null,"",null,,word,LITTLE,,,,,,,,,,,,
html-keyboard-response,80,255515,null,"<div style=""font-size:42px;"">TIRED</div><img id = ""stim"" ><div class = red_square id = ""topsquare"" ></div>",null,practice2,word_square,,prac_response,0,Top,none,true,,,,,,,
html-keyboard-response,81,255823,null,"<div style=""font-size:42px;"">TIRED</div>",null,,word,TIRED,,,,,,,,,,,,
html-keyboard-response,82,257328,null,"",null,,word,TIRED,,,,,,,,,,,,
html-keyboard-response,83,257537,null,"<div style=""font-size:42px;"">ENTERTAINING</div><img id = ""stim"" ><div class = red_square id = ""bottomsquare"" ></div>",null,practice2,word_square,ENTERTAINING,prac_response,0,Bottom,none,true,,,,,,,
html-keyboard-response,84,257841,null,"<div style=""font-size:42px;"">ENTERTAINING</div>",null,,word,ENTERTAINING,,,,,,,,,,,,
html-keyboard-response,85,259345,null,"",null,,word,ENTERTAINING,,,,,,,,,,,,
html-keyboard-response,86,259550,null,"<div style=""font-size:42px;"">GRATEFUL</div><img id = ""stim"" ><div class = green_square id = ""bottomsquare"" ></div>",null,practice2,word_square,,prac_response,1,Bottom,32,true,,,,,,,
html-keyboard-response,87,259859,143.69999998807907,"<div style=""font-size:42px;"">GRATEFUL</div>",32,,word,GRATEFUL,,,,,,,,,,,,
html-keyboard-response,88,261362,null,"",null,,word,GRATEFUL,,,,,,,,,,,,
html-keyboard-response,89,261571,null,"<div style=""font-size:42px;"">LOUD</div><img id = ""stim"" ><div class = red_square id = ""topsquare"" ></div>",null,practice2,word_square,,prac_response,0,Top,none,true,,,,,,,
html-keyboard-response,90,261880,null,"<div style=""font-size:42px;"">LOUD</div>",null,,word,LOUD,,,,,,,,,,,,
html-keyboard-response,91,263385,null,"",null,,word,LOUD,,,,,,,,,,,,
html-keyboard-response,92,263594,null,"<div style=""font-size:42px;"">SMART</div><img id = ""stim"" ><div class = green_square id = ""topsquare"" ></div>",null,practice2,word_square,,prac_response,1,Top,32,true,,,,,,,
html-keyboard-response,93,263902,131.89999997615814,"<div style=""font-size:42px;"">SMART</div>",32,,word,SMART,,,,,,,,,,,,
html-keyboard-response,94,265406,null,"",null,,word,SMART,,,,,,,,,,,,
html-keyboard-response,95,265615,null,"<div style=""font-size:42px;"">SMOOTH</div><img id = ""stim"" ><div class = green_square id = ""bottomsquare"" ></div>",null,practice2,word_square,,prac_response,1,Bottom,32,true,,,,,,,
html-keyboard-response,96,265923,175,"<div style=""font-size:42px;"">SMOOTH</div>",32,,word,SMOOTH,,,,,,,,,,,,
html-keyboard-response,97,267428,null,"",null,,word,SMOOTH,,,,,,,,,,,,
html-keyboard-response,98,267634,null,"<div style=""font-size:42px;"">DISHONEST</div><img id = ""stim"" ><div class = red_square id = ""bottomsquare"" ></div>",null,practice2,word_square,DISHONEST,prac_response,0,Bottom,none,true,,,,,,,
html-keyboard-response,99,267943,null,"<div style=""font-size:42px;"">DISHONEST</div>",null,,word,DISHONEST,,,,,,,,,,,,
html-keyboard-response,100,269447,null,"",null,,word,DISHONEST,,,,,,,,,,,,
html-keyboard-response,101,269651,null,"<div style=""font-size:42px;"">WEALTHY</div><img id = ""stim"" ><div class = green_square id = ""topsquare"" ></div>",null,practice2,word_square,,prac_response,1,Top,32,true,,,,,,,
html-keyboard-response,102,269960,123.5,"<div style=""font-size:42px;"">WEALTHY</div>",32,,word,WEALTHY,,,,,,,,,,,,
html-keyboard-response,103,271464,null,"",null,,word,WEALTHY,,,,,,,,,,,,
html-keyboard-response,104,271668,null,"<div style=""font-size:42px;"">BEAUTIFUL</div><img id = ""stim"" ><div class = red_square id = ""topsquare"" ></div>",null,practice2,word_square,,prac_response,0,Top,none,false,,,,,,,
html-keyboard-response,105,271975,null,"<div style=""font-size:42px;"">BEAUTIFUL</div>",null,,word,BEAUTIFUL,,,,,,,,,,,,
html-keyboard-response,106,273480,null,"",null,,word,BEAUTIFUL,,,,,,,,,,,,
html-keyboard-response,107,278289,4804.300000011921,"<p> Good job! You responded correctly to 100% of the trials. </p>
                    <p>Be sure to only press the spacebar if you see a GREEN square, and please keep your accuracy above 80%.</p>
                    <p>Press any key to begin the math and recall sections. Thank you! </p>",32,,,,,,,,,,,,,,,
call-function,108,278291,,"",,,,,,,,,,,,,,,,
html-keyboard-response,109,278394,null,"",null,,,,,,,,,,,,,,,
math-period,110,283309,9083.5,"",,,,,,,,,,,2,,,,,
html-keyboard-response,111,283415,null,"",null,,,,,,,,,,,,,,,
math-period,112,286371,5823.5,"",,,,,,,,,,,2,,,,,
html-keyboard-response,113,286480,null,"",null,,,,,,,,,,,,,,,
math-period,114,288453,3765.0000000596046,"",,,,,,,,,,,5,,,,,
html-keyboard-response,115,288557,null,"",null,,,,,,,,,,,,,,,
math-period,116,290542,3858.5000000596046,"",,,,,,,,,,,5,,,,,
html-keyboard-response,117,290645,null,"",null,,,,,,,,,,,,,,,
math-period,118,292340,3266.100000023842,"",,,,,,,,,,,2,,,,,
html-keyboard-response,119,292446,null,"",null,,,,,,,,,,,,,,,
math-period,120,294341,3705.099999964237,"",,,,,,,,,,,4,,,,,
html-keyboard-response,121,294445,null,"",null,,,,,,,,,,,,,,,
math-period,122,296310,3619.699999988079,"",,,,,,,,,,,4,,,,,
html-keyboard-response,123,296415,null,"",null,,,,,,,,,,,,,,,
math-period,124,297736,2512.1999999284744,"",,,,,,,,,,,2,,,,,
html-keyboard-response,125,297841,null,"",null,,,,,,,,,,,,,,,
math-period,126,298883,1984.6000000238419,"",,,,,,,,,,,3,,,,,
html-keyboard-response,127,298988,null,"",null,,,,,,,,,,,,,,,
math-period,128,300143,2206.599999964237,"",,,,,,,,,,,4,,,,,
html-keyboard-response,129,300248,null,"",null,,,,,,,,,,,,,,,
math-period,130,302295,null,"",,,,,,,,,,,,,,,,
html-keyboard-response,131,303299,null,"Recall Period!",null,,,,,,,,,,,,,,,
call-function,132,303300,,"",,,,,,,,,,,,,,,,
html-keyboard-response,133,303403,null,"",null,,,,,,,,,,,,,,,
recall-period,134,307903,28262.39999985695,"",,,,,,,,,,,smooth,,,,,
html-keyboard-response,135,308007,null,"",null,,,,,,,,,,,,,,,
recall-period,136,309038,4011.299999833107,"",,,,,,,,,,,happy,,,,,
html-keyboard-response,137,309145,null,"",null,,,,,,,,,,,,,,,
recall-period,138,310461,5765.000000238419,"",,,,,,,,,,,funny,,,,,
html-keyboard-response,139,310565,null,"",null,,,,,,,,,,,,,,,
recall-period,140,311953,6920.900000095367,"",,,,,,,,,,,wealthy,,,,,
html-keyboard-response,141,312058,null,"",null,,,,,,,,,,,,,,,
recall-period,142,313978,8219.899999916553,"",,,,,,,,,,,smart,,,,,
html-keyboard-response,143,314082,null,"",null,,,,,,,,,,,,,,,
recall-period,144,318154,20709.899999976158,"",,,,,,,,,,,scary,,,,,
html-keyboard-response,145,318258,null,"",null,,,,,,,,,,,,,,,
recall-period,146,349861,186566.39999991655,"",,,,,,,,,,,scary,,,,,
html-keyboard-response,147,349964,null,"",null,,,,,,,,,,,,,,,
recall-period,148,378302,null,"",,,,,,,,,,,,,,,,
html-keyboard-response,149,378806,null,"Time's Up!",null,,,,,,,,,,,,,,,
html-keyboard-response,150,386167,7358.300000011921,"<p>We will now begin the experiment!<p><p>Please try to remember all words from each list.<p><p>Press the spacebar whenever you see a GREEN square.<p><p><p><p>Press the spacebar to begin.</p>",32,,,,,,,,,,,,,,,
html-keyboard-response,151,390034,3361.699999988079,"<div style=""font-size:48px;"">Press any key to begin list 1 of 16 </div>",32,,,,,,,,,,,,,,,
html-keyboard-response,152,392544,null,"<div style=""font-size:60px;"">+</div>",null,,,,,,,,,,,,,,,
html-keyboard-response,153,392751,null,"<div style=""font-size:42px;"">BROOK</div><img id = ""stim"" ><div class = green_square id = topsquare></div>",null,encoding,word_square,,,1,topsquare,32,true,,,BROOK,0,,,
html-keyboard-response,154,393060,166.70000004768372,"<div style=""font-size:42px;"">BROOK</div>",32,,word,BROOK,,,,,,,,,,,,
html-keyboard-response,155,394565,null,"",null,,word,BROOK,,,,,,,,,,,,
html-keyboard-response,156,394775,null,"<div style=""font-size:42px;"">PUDDLE</div><img id = ""stim"" ><div class = red_square id = bottomsquare></div>",null,encoding,word_square,,,0,bottomsquare,none,true,,,PUDDLE,0,,,
html-keyboard-response,157,395084,null,"<div style=""font-size:42px;"">PUDDLE</div>",null,,word,PUDDLE,,,,,,,,,,,,
html-keyboard-response,158,396589,null,"",null,,word,PUDDLE,,,,,,,,,,,,
html-keyboard-response,159,396797,null,"<div style=""font-size:42px;"">LAPEL</div><img id = ""stim"" ><div class = green_square id = bottomsquare></div>",null,encoding,word_square,,,1,bottomsquare,32,true,,,LAPEL,0,,,
html-keyboard-response,160,397106,null,"<div style=""font-size:42px;"">LAPEL</div>",null,,word,LAPEL,,,,,,,,,,,,
html-keyboard-response,161,398610,98.10000002384186,"",32,,word,LAPEL,,,,,,,,,,,,
html-keyboard-response,162,398819,null,"<div style=""font-size:42px;"">MUSTARD</div><img id = ""stim"" ><div class = red_square id = topsquare></div>",null,encoding,word_square,,,0,topsquare,none,true,,,MUSTARD,0,,,
html-keyboard-response,163,399126,null,"<div style=""font-size:42px;"">MUSTARD</div>",null,,word,MUSTARD,,,,,,,,,,,,
html-keyboard-response,164,400630,null,"",null,,word,MUSTARD,,,,,,,,,,,,
html-keyboard-response,165,400839,null,"<div style=""font-size:42px;"">BRACES</div><img id = ""stim"" ><div class = red_square id = bottomsquare></div>",null,encoding,word_square,,,0,bottomsquare,none,true,,,BRACES,0,,,
html-keyboard-response,166,401145,null,"<div style=""font-size:42px;"">BRACES</div>",null,,word,BRACES,,,,,,,,,,,,
html-keyboard-response,167,402649,null,"",null,,word,BRACES,,,,,,,,,,,,
html-keyboard-response,168,402858,null,"<div style=""font-size:42px;"">AWARD</div><img id = ""stim"" ><div class = green_square id = topsquare></div>",null,encoding,word_square,,,1,topsquare,32,true,,,AWARD,0,,,
html-keyboard-response,169,403167,232,"<div style=""font-size:42px;"">AWARD</div>",32,,word,AWARD,,,,,,,,,,,,
html-keyboard-response,170,404673,null,"",null,,word,AWARD,,,,,,,,,,,,
html-keyboard-response,171,404879,null,"<div style=""font-size:42px;"">LUMBER</div><img id = ""stim"" ><div class = green_square id = bottomsquare></div>",null,encoding,word_square,,,1,bottomsquare,32,true,,,LUMBER,0,,,
html-keyboard-response,172,405182,194.30000001192093,"<div style=""font-size:42px;"">LUMBER</div>",32,,word,LUMBER,,,,,,,,,,,,
html-keyboard-response,173,406688,null,"",null,,word,LUMBER,,,,,,,,,,,,
html-keyboard-response,174,406896,null,"<div style=""font-size:42px;"">STAR</div><img id = ""stim"" ><div class = red_square id = topsquare></div>",null,encoding,word_square,,,0,topsquare,none,true,,,STAR,0,,,
html-keyboard-response,175,407205,146.10000002384186,"<div style=""font-size:42px;"">STAR</div>",32,,word,STAR,,,,,,,,,,,,
html-keyboard-response,176,408710,null,"",null,,word,STAR,,,,,,,,,,,,
html-keyboard-response,177,408919,null,"<div style=""font-size:42px;"">BENCH</div><img id = ""stim"" ><div class = red_square id = bottomsquare></div>",null,encoding,word_square,,,0,bottomsquare,none,true,,,BENCH,0,,,
html-keyboard-response,178,409227,null,"<div style=""font-size:42px;"">BENCH</div>",null,,word,BENCH,,,,,,,,,,,,
html-keyboard-response,179,410733,null,"",null,,word,BENCH,,,,,,,,,,,,
html-keyboard-response,180,410939,null,"<div style=""font-size:42px;"">COFFIN</div><img id = ""stim"" ><div class = green_square id = topsquare></div>",null,encoding,word_square,,,1,topsquare,32,true,,,COFFIN,0,,,
html-keyboard-response,181,411244,162.0999999642372,"<div style=""font-size:42px;"">COFFIN</div>",32,,word,COFFIN,,,,,,,,,,,,
html-keyboard-response,182,412749,null,"",null,,word,COFFIN,,,,,,,,,,,,
html-keyboard-response,183,412958,null,"<div style=""font-size:42px;"">BANDIT</div><img id = ""stim"" ><div class = red_square id = topsquare></div>",null,encoding,word_square,,,0,topsquare,none,true,,,BANDIT,0,,,
html-keyboard-response,184,413266,null,"<div style=""font-size:42px;"">BANDIT</div>",null,,word,BANDIT,,,,,,,,,,,,
html-keyboard-response,185,414772,null,"",null,,word,BANDIT,,,,,,,,,,,,
html-keyboard-response,186,414981,null,"<div style=""font-size:42px;"">DUSTPAN</div><img id = ""stim"" ><div class = green_square id = bottomsquare></div>",null,encoding,word_square,,,1,bottomsquare,32,true,,,DUSTPAN,0,,,
html-keyboard-response,187,415289,null,"<div style=""font-size:42px;"">DUSTPAN</div>",null,,word,DUSTPAN,,,,,,,,,,,,
html-keyboard-response,188,416794,22.599999964237213,"",32,,word,DUSTPAN,,,,,,,,,,,,
html-keyboard-response,189,417003,null,"<div style=""font-size:42px;"">JACKET</div><img id = ""stim"" ><div class = green_square id = topsquare></div>",null,encoding,word_square,,,1,topsquare,32,true,,,JACKET,0,,,
html-keyboard-response,190,417312,226.5,"<div style=""font-size:42px;"">JACKET</div>",32,,word,JACKET,,,,,,,,,,,,
html-keyboard-response,191,418818,null,"",null,,word,JACKET,,,,,,,,,,,,
html-keyboard-response,192,419024,null,"<div style=""font-size:42px;"">YARN</div><img id = ""stim"" ><div class = red_square id = bottomsquare></div>",null,encoding,word_square,,,0,bottomsquare,none,true,,,YARN,0,,,
html-keyboard-response,193,419333,null,"<div style=""font-size:42px;"">YARN</div>",null,,word,YARN,,,,,,,,,,,,
html-keyboard-response,194,420837,null,"",null,,word,YARN,,,,,,,,,,,,
html-keyboard-response,195,421044,null,"<div style=""font-size:42px;"">DOCK</div><img id = ""stim"" ><div class = red_square id = topsquare></div>",null,encoding,word_square,,,0,topsquare,none,true,,,DOCK,0,,,
html-keyboard-response,196,421350,null,"<div style=""font-size:42px;"">DOCK</div>",null,,word,DOCK,,,,,,,,,,,,
html-keyboard-response,197,422855,null,"",null,,word,DOCK,,,,,,,,,,,,
html-keyboard-response,198,423064,null,"<div style=""font-size:42px;"">COLLEGE</div><img id = ""stim"" ><div class = green_square id = bottomsquare></div>",null,encoding,word_square,,,1,bottomsquare,32,true,,,COLLEGE,0,,,
html-keyboard-response,199,423373,170.10000002384186,"<div style=""font-size:42px;"">COLLEGE</div>",32,,word,COLLEGE,,,,,,,,,,,,
html-keyboard-response,200,424878,null,"",null,,word,COLLEGE,,,,,,,,,,,,
call-function,201,424879,,"",,,,,,,,,,,,,,,,
html-keyboard-response,202,424985,null,"",null,,,,,,,,,,,,,,,
math-period,203,427353,4345.599999964237,"",,,,,,,,,,,5,,,,,
html-keyboard-response,204,427457,null,"",null,,,,,,,,,,,,,,,
math-period,205,429475,3904.2999999523163,"",,,,,,,,,,,4,,,,,
html-keyboard-response,206,429583,null,"",null,,,,,,,,,,,,,,,
math-period,207,430864,2439.900000035763,"",,,,,,,,,,,4,,,,,
html-keyboard-response,208,430968,null,"",null,,,,,,,,,,,,,,,
math-period,209,432487,2942.900000035763,"",,,,,,,,,,,5,,,,,
html-keyboard-response,210,432595,null,"",null,,,,,,,,,,,,,,,
math-period,211,434236,3221.5000000596046,"",,,,,,,,,,,4,,,,,
html-keyboard-response,212,434342,null,"",null,,,,,,,,,,,,,,,
math-period,213,435217,1666.8999999761581,"",,,,,,,,,,,3,,,,,
html-keyboard-response,214,435322,null,"",null,,,,,,,,,,,,,,,
math-period,215,436744,2761.0000000596046,"",,,,,,,,,,,3,,,,,
html-keyboard-response,216,436852,null,"",null,,,,,,,,,,,,,,,
math-period,217,438384,2963.199999988079,"",,,,,,,,,,,6,,,,,
html-keyboard-response,218,438491,null,"",null,,,,,,,,,,,,,,,
math-period,219,440598,4097.399999976158,"",,,,,,,,,,,5,,,,,
html-keyboard-response,220,440702,null,"",null,,,,,,,,,,,,,,,
math-period,221,442766,4025.599999964237,"",,,,,,,,,,,2,,,,,
html-keyboard-response,222,442875,null,"",null,,,,,,,,,,,,,,,
math-period,223,445658,5500.800000011921,"",,,,,,,,,,,2,,,,,
html-keyboard-response,224,445764,null,"",null,,,,,,,,,,,,,,,
math-period,225,447221,2804.9999999403954,"",,,,,,,,,,,4,,,,,
html-keyboard-response,226,447328,null,"",null,,,,,,,,,,,,,,,
math-period,227,448884,null,"",,,,,,,,,,,,,,,,
html-keyboard-response,228,449888,null,"Recall Period!",null,,,,,,,,,,,,,,,
call-function,229,449890,,"",,,,,,,,,,,,,,,,
html-keyboard-response,230,449996,null,"",null,,,,,,,,,,,,,,,
recall-period,231,452380,11920.599999964237,"",,,,,,,,,,,brook,,,,,
html-keyboard-response,232,452484,null,"",null,,,,,,,,,,,,,,,
recall-period,233,453646,5395.400000154972,"",,,,,,,,,,,puddle,,,,,
html-keyboard-response,234,453751,null,"",null,,,,,,,,,,,,,,,
recall-period,235,454786,3621.199999988079,"",,,,,,,,,,,lapel,,,,,
html-keyboard-response,236,454889,null,"",null,,,,,,,,,,,,,,,
recall-period,237,456412,7276.100000143051,"",,,,,,,,,,,mustard,,,,,
html-keyboard-response,238,456516,null,"",null,,,,,,,,,,,,,,,
recall-period,239,457507,4232.8999999165535,"",,,,,,,,,,,jacket,,,,,
html-keyboard-response,240,457612,null,"",null,,,,,,,,,,,,,,,
recall-period,241,459388,10362.799999713898,"",,,,,,,,,,,bracelet,,,,,
html-keyboard-response,242,459491,null,"",null,,,,,,,,,,,,,,,
recall-period,243,461591,9441.800000011921,"",,,,,,,,,,,dustpan,,,,,
html-keyboard-response,244,461694,null,"",null,,,,,,,,,,,,,,,
recall-period,245,463095,5908.600000023842,"",,,,,,,,,,,college,,,,,
html-keyboard-response,246,463199,null,"",null,,,,,,,,,,,,,,,
recall-period,247,477318,107769.70000004768,"",,,,,,,,,,,mustard,,,,,
html-keyboard-response,248,477423,null,"",null,,,,,,,,,,,,,,,
recall-period,249,508770,31344.700000047684,"",,,,,,,,,,,,,,,,
html-keyboard-response,250,508874,null,"",null,,,,,,,,,,,,,,,
recall-period,251,524894,null,"",,,,,,,,,,,,,,,,
html-keyboard-response,252,525403,null,"Time's Up!",null,,,,,,,,,,,,,,,
html-keyboard-response,253,530942,5535.100000023842,"<p> Good job! You have responded correctly to 100% of the trials. </p>
                      <p>Be sure to only press the spacebar if you see a GREEN square, and please keep your accuracy above 80%.</p>
                      <p> Press any key to continue the experiment. </p>",32,,,,,,,,,,,,,,,
html-keyboard-response,254,531972,1027.2999999523163,"<div style=""font-size:48px;"">Press any key to begin list 2 of 16 </div>",32,,,,,,,,,,,,,,,
html-keyboard-response,255,534478,null,"<div style=""font-size:60px;"">+</div>",null,,,,,,,,,,,,,,,
html-keyboard-response,256,534682,null,"<div style=""font-size:42px;"">MARSH</div><img id = ""stim"" ><div class = green_square id = bottomsquare></div>",null,encoding,word_square,,,1,bottomsquare,32,true,,,MARSH,1,,,
html-keyboard-response,257,534991,158.4000000357628,"<div style=""font-size:42px;"">MARSH</div>",32,,word,MARSH,,,,,,,,,,,,
html-keyboard-response,258,536493,null,"",null,,word,MARSH,,,,,,,,,,,,
html-keyboard-response,259,536699,null,"<div style=""font-size:42px;"">PADDLE</div><img id = ""stim"" ><div class = red_square id = topsquare></div>",null,encoding,word_square,,,0,topsquare,none,true,,,PADDLE,1,,,
html-keyboard-response,260,537007,null,"<div style=""font-size:42px;"">PADDLE</div>",null,,word,PADDLE,,,,,,,,,,,,
html-keyboard-response,261,538514,null,"",null,,word,PADDLE,,,,,,,,,,,,
html-keyboard-response,262,538722,null,"<div style=""font-size:42px;"">PLAQUE</div><img id = ""stim"" ><div class = red_square id = bottomsquare></div>",null,encoding,word_square,,,0,bottomsquare,none,true,,,PLAQUE,1,,,
html-keyboard-response,263,539027,null,"<div style=""font-size:42px;"">PLAQUE</div>",null,,word,PLAQUE,,,,,,,,,,,,
html-keyboard-response,264,540531,null,"",null,,word,PLAQUE,,,,,,,,,,,,
html-keyboard-response,265,540739,null,"<div style=""font-size:42px;"">VAMPIRE</div><img id = ""stim"" ><div class = green_square id = topsquare></div>",null,encoding,word_square,,,1,topsquare,32,true,,,VAMPIRE,1,,,
html-keyboard-response,266,541048,243.80000001192093,"<div style=""font-size:42px;"">VAMPIRE</div>",32,,word,VAMPIRE,,,,,,,,,,,,
html-keyboard-response,267,542554,null,"",null,,word,VAMPIRE,,,,,,,,,,,,
html-keyboard-response,268,542764,null,"<div style=""font-size:42px;"">HAYSTACK</div><img id = ""stim"" ><div class = green_square id = bottomsquare></div>",null,encoding,word_square,,,1,bottomsquare,32,true,,,HAYSTACK,1,,,
html-keyboard-response,269,543069,153,"<div style=""font-size:42px;"">HAYSTACK</div>",32,,word,HAYSTACK,,,,,,,,,,,,
html-keyboard-response,270,544573,null,"",null,,word,HAYSTACK,,,,,,,,,,,,
html-keyboard-response,271,544782,null,"<div style=""font-size:42px;"">VICTIM</div><img id = ""stim"" ><div class = red_square id = topsquare></div>",null,encoding,word_square,,,0,topsquare,none,true,,,VICTIM,1,,,
html-keyboard-response,272,545090,null,"<div style=""font-size:42px;"">VICTIM</div>",null,,word,VICTIM,,,,,,,,,,,,
html-keyboard-response,273,546595,null,"",null,,word,VICTIM,,,,,,,,,,,,
html-keyboard-response,274,546804,null,"<div style=""font-size:42px;"">LODGE</div><img id = ""stim"" ><div class = green_square id = topsquare></div>",null,encoding,word_square,,,1,topsquare,32,true,,,LODGE,1,,,
html-keyboard-response,275,547109,199.5999999642372,"<div style=""font-size:42px;"">LODGE</div>",32,,word,LODGE,,,,,,,,,,,,
html-keyboard-response,276,548614,null,"",null,,word,LODGE,,,,,,,,,,,,
html-keyboard-response,277,548823,null,"<div style=""font-size:42px;"">LAKE</div><img id = ""stim"" ><div class = red_square id = bottomsquare></div>",null,encoding,word_square,,,0,bottomsquare,none,true,,,LAKE,1,,,
html-keyboard-response,278,549132,null,"<div style=""font-size:42px;"">LAKE</div>",null,,word,LAKE,,,,,,,,,,,,
html-keyboard-response,279,550637,null,"",null,,word,LAKE,,,,,,,,,,,,
html-keyboard-response,280,550847,null,"<div style=""font-size:42px;"">ANGEL</div><img id = ""stim"" ><div class = red_square id = topsquare></div>",null,encoding,word_square,,,0,topsquare,none,true,,,ANGEL,1,,,
html-keyboard-response,281,551156,null,"<div style=""font-size:42px;"">ANGEL</div>",null,,word,ANGEL,,,,,,,,,,,,
html-keyboard-response,282,552662,null,"",null,,word,ANGEL,,,,,,,,,,,,
html-keyboard-response,283,552871,null,"<div style=""font-size:42px;"">VIKING</div><img id = ""stim"" ><div class = green_square id = bottomsquare></div>",null,encoding,word_square,,,1,bottomsquare,32,true,,,VIKING,1,,,
html-keyboard-response,284,553180,131.5999999642372,"<div style=""font-size:42px;"">VIKING</div>",32,,word,VIKING,,,,,,,,,,,,
html-keyboard-response,285,554684,null,"",null,,word,VIKING,,,,,,,,,,,,
html-keyboard-response,286,554893,null,"<div style=""font-size:42px;"">CRACKER</div><img id = ""stim"" ><div class = green_square id = topsquare></div>",null,encoding,word_square,,,1,topsquare,32,true,,,CRACKER,1,,,
html-keyboard-response,287,555202,212,"<div style=""font-size:42px;"">CRACKER</div>",32,,word,CRACKER,,,,,,,,,,,,
html-keyboard-response,288,556707,null,"",null,,word,CRACKER,,,,,,,,,,,,
html-keyboard-response,289,556915,null,"<div style=""font-size:42px;"">HEDGE</div><img id = ""stim"" ><div class = red_square id = bottomsquare></div>",null,encoding,word_square,,,0,bottomsquare,none,true,,,HEDGE,1,,,
html-keyboard-response,290,557224,null,"<div style=""font-size:42px;"">HEDGE</div>",null,,word,HEDGE,,,,,,,,,,,,
html-keyboard-response,291,558730,null,"",null,,word,HEDGE,,,,,,,,,,,,
html-keyboard-response,292,558938,null,"<div style=""font-size:42px;"">SADDLE</div><img id = ""stim"" ><div class = red_square id = topsquare></div>",null,encoding,word_square,,,0,topsquare,none,false,,,SADDLE,1,,,
html-keyboard-response,293,559243,135.20000004768372,"<div style=""font-size:42px;"">SADDLE</div>",32,,word,SADDLE,,,,,,,,,,,,
html-keyboard-response,294,560748,124.80000001192093,"",32,,word,SADDLE,,,,,,,,,,,,
html-keyboard-response,295,560957,null,"<div style=""font-size:42px;"">WAGON</div><img id = ""stim"" ><div class = green_square id = bottomsquare></div>",null,encoding,word_square,,,1,bottomsquare,32,true,,,WAGON,1,,,
html-keyboard-response,296,561266,157.69999998807907,"<div style=""font-size:42px;"">WAGON</div>",32,,word,WAGON,,,,,,,,,,,,
html-keyboard-response,297,562771,null,"",null,,word,WAGON,,,,,,,,,,,,
html-keyboard-response,298,562975,null,"<div style=""font-size:42px;"">HAND</div><img id = ""stim"" ><div class = red_square id = bottomsquare></div>",null,encoding,word_square,,,0,bottomsquare,none,true,,,HAND,1,,,
html-keyboard-response,299,563284,null,"<div style=""font-size:42px;"">HAND</div>",null,,word,HAND,,,,,,,,,,,,
html-keyboard-response,300,564789,null,"",null,,word,HAND,,,,,,,,,,,,
html-keyboard-response,301,564996,null,"<div style=""font-size:42px;"">DANDRUFF</div><img id = ""stim"" ><div class = green_square id = topsquare></div>",null,encoding,word_square,,,1,topsquare,32,true,,,DANDRUFF,1,,,
html-keyboard-response,302,565301,229.4000000357628,"<div style=""font-size:42px;"">DANDRUFF</div>",32,,word,DANDRUFF,,,,,,,,,,,,
html-keyboard-response,303,566805,null,"",null,,word,DANDRUFF,,,,,,,,,,,,
call-function,304,566807,,"",,,,,,,,,,,,,,,,
html-keyboard-response,305,566913,null,"",null,,,,,,,,,,,,,,,
math-period,306,568820,3738.300000011921,"",,,,,,,,,,,4,,,,,
html-keyboard-response,307,568924,null,"",null,,,,,,,,,,,,,,,
math-period,308,570243,2549.2000000476837,"",,,,,,,,,,,4,,,,,
html-keyboard-response,309,570348,null,"",null,,,,,,,,,,,,,,,
math-period,310,571657,2548.5,"",,,,,,,,,,,5,,,,,
html-keyboard-response,311,571765,null,"",null,,,,,,,,,,,,,,,
math-period,312,573084,2574.099999964237,"",,,,,,,,,,,5,,,,,
html-keyboard-response,313,573188,null,"",null,,,,,,,,,,,,,,,
math-period,314,574274,2117.800000011921,"",,,,,,,,,,,6,,,,,
html-keyboard-response,315,574382,null,"",null,,,,,,,,,,,,,,,
math-period,316,575618,2407.2999999523163,"",,,,,,,,,,,3,,,,,
html-keyboard-response,317,575725,null,"",null,,,,,,,,,,,,,,,
math-period,318,576881,2278.699999988079,"",,,,,,,,,,,6,,,,,
html-keyboard-response,319,576986,null,"",null,,,,,,,,,,,,,,,
math-period,320,578598,3148.600000023842,"",,,,,,,,,,,4,,,,,
html-keyboard-response,321,578705,null,"",null,,,,,,,,,,,,,,,
math-period,322,580101,2775.699999988079,"",,,,,,,,,,,3,,,,,
html-keyboard-response,323,580205,null,"",null,,,,,,,,,,,,,,,
math-period,324,582306,4144.099999964237,"",,,,,,,,,,,5,,,,,
html-keyboard-response,325,582411,null,"",null,,,,,,,,,,,,,,,
math-period,326,583919,2988.300000011921,"",,,,,,,,,,,2,,,,,
html-keyboard-response,327,584026,null,"",null,,,,,,,,,,,,,,,
math-period,328,585238,2385.100000023842,"",,,,,,,,,,,4,,,,,
html-keyboard-response,329,585345,null,"",null,,,,,,,,,,,,,,,
math-period,330,587384,4044.100000023842,"",,,,,,,,,,,5,,,,,
html-keyboard-response,331,587491,null,"",null,,,,,,,,,,,,,,,
math-period,332,589068,3090.800000011921,"",,,,,,,,,,,4,,,,,
html-keyboard-response,333,589177,null,"",null,,,,,,,,,,,,,,,
math-period,334,590289,2138.6999999284744,"",,,,,,,,,,,3,,,,,
html-keyboard-response,335,590398,null,"",null,,,,,,,,,,,,,,,
math-period,336,590813,null,"",,,,,,,,,,,,,,,,
html-keyboard-response,337,591817,null,"Recall Period!",null,,,,,,,,,,,,,,,
call-function,338,591819,,"",,,,,,,,,,,,,,,,
html-keyboard-response,339,591926,null,"",null,,,,,,,,,,,,,,,
recall-period,340,593416,7851.299999892712,"",,,,,,,,,,,puddle,,,,,
html-keyboard-response,341,593521,null,"",null,,,,,,,,,,,,,,,
recall-period,342,595427,9471.899999976158,"",,,,,,,,,,,haystack,,,,,
html-keyboard-response,343,595531,null,"",null,,,,,,,,,,,,,,,
recall-period,344,597228,4174.699999928474,"",,,,,,,,,,,lake,,,,,
html-keyboard-response,345,597333,null,"",null,,,,,,,,,,,,,,,
recall-period,346,598720,6750.400000095367,"",,,,,,,,,,,vampire,,,,,
html-keyboard-response,347,598823,null,"",null,,,,,,,,,,,,,,,
recall-period,348,601204,8747.000000178814,"",,,,,,,,,,,paddle,,,,,
html-keyboard-response,349,601308,null,"",null,,,,,,,,,,,,,,,
recall-period,350,665201,443483.9999998212,"",,,,,,,,,,,plaque,,,,,
html-keyboard-response,351,665305,null,"",null,,,,,,,,,,,,,,,
recall-period,352,666821,null,"",,,,,,,,,,,,,,,,
html-keyboard-response,353,667328,null,"Time's Up!",null,,,,,,,,,,,,,,,
html-keyboard-response,354,676219,8888.600000023842,"<p> Good job! You have responded correctly to 97% of the trials. </p>
                      <p>Be sure to only press the spacebar if you see a GREEN square, and please keep your accuracy above 80%.</p>
                      <p> Press any key to continue the experiment. </p>",74,,,,,,,,,,,,,,,
html-keyboard-response,355,679832,3609,"<div style=""font-size:48px;"">Press any key to begin list 3 of 16 </div>",74,,,,,,,,,,,,,,,
html-keyboard-response,356,682340,null,"<div style=""font-size:60px;"">+</div>",null,,,,,,,,,,,,,,,
html-keyboard-response,357,682546,null,"<div style=""font-size:42px;"">CHECKERS</div><img id = ""stim"" ><div class = red_square id = bottomsquare></div>",null,encoding,word_square,,,0,bottomsquare,none,true,,,CHECKERS,2,,,
html-keyboard-response,358,682855,null,"<div style=""font-size:42px;"">CHECKERS</div>",null,,word,CHECKERS,,,,,,,,,,,,
html-keyboard-response,359,684361,null,"",null,,word,CHECKERS,,,,,,,,,,,,
html-keyboard-response,360,684570,null,"<div style=""font-size:42px;"">GLASSES</div><img id = ""stim"" ><div class = green_square id = topsquare></div>",null,encoding,word_square,,,1,topsquare,32,true,,,GLASSES,2,,,
html-keyboard-response,361,684874,206.29999995231628,"<div style=""font-size:42px;"">GLASSES</div>",32,,word,GLASSES,,,,,,,,,,,,
html-keyboard-response,362,686379,null,"",null,,word,GLASSES,,,,,,,,,,,,
html-keyboard-response,363,686588,null,"<div style=""font-size:42px;"">SOCKET</div><img id = ""stim"" ><div class = red_square id = topsquare></div>",null,encoding,word_square,,,0,topsquare,none,true,,,SOCKET,2,,,
html-keyboard-response,364,686893,null,"<div style=""font-size:42px;"">SOCKET</div>",null,,word,SOCKET,,,,,,,,,,,,
html-keyboard-response,365,688397,null,"",null,,word,SOCKET,,,,,,,,,,,,
html-keyboard-response,366,688606,null,"<div style=""font-size:42px;"">BUTLER</div><img id = ""stim"" ><div class = green_square id = bottomsquare></div>",null,encoding,word_square,,,1,bottomsquare,32,true,,,BUTLER,2,,,
html-keyboard-response,367,688915,166.30000001192093,"<div style=""font-size:42px;"">BUTLER</div>",32,,word,BUTLER,,,,,,,,,,,,
html-keyboard-response,368,690421,null,"",null,,word,BUTLER,,,,,,,,,,,,
html-keyboard-response,369,690630,null,"<div style=""font-size:42px;"">DRAWING</div><img id = ""stim"" ><div class = green_square id = topsquare></div>",null,encoding,word_square,,,1,topsquare,32,true,,,DRAWING,2,,,
html-keyboard-response,370,690939,null,"<div style=""font-size:42px;"">DRAWING</div>",null,,word,DRAWING,,,,,,,,,,,,
html-keyboard-response,371,692445,17.399999976158142,"",32,,word,DRAWING,,,,,,,,,,,,
html-keyboard-response,372,692650,null,"<div style=""font-size:42px;"">CANOE</div><img id = ""stim"" ><div class = red_square id = bottomsquare></div>",null,encoding,word_square,,,0,bottomsquare,none,true,,,CANOE,2,,,
html-keyboard-response,373,692959,null,"<div style=""font-size:42px;"">CANOE</div>",null,,word,CANOE,,,,,,,,,,,,
html-keyboard-response,374,694463,null,"",null,,word,CANOE,,,,,,,,,,,,
html-keyboard-response,375,694668,null,"<div style=""font-size:42px;"">SCULPTURE</div><img id = ""stim"" ><div class = red_square id = topsquare></div>",null,encoding,word_square,,,0,topsquare,none,true,,,SCULPTURE,2,,,
html-keyboard-response,376,694977,null,"<div style=""font-size:42px;"">SCULPTURE</div>",null,,word,SCULPTURE,,,,,,,,,,,,
html-keyboard-response,377,696481,null,"",null,,word,SCULPTURE,,,,,,,,,,,,
html-keyboard-response,378,696690,null,"<div style=""font-size:42px;"">SKETCH</div><img id = ""stim"" ><div class = green_square id = bottomsquare></div>",null,encoding,word_square,,,1,bottomsquare,32,true,,,SKETCH,2,,,
html-keyboard-response,379,696998,228.5,"<div style=""font-size:42px;"">SKETCH</div>",32,,word,SKETCH,,,,,,,,,,,,
html-keyboard-response,380,698502,null,"",null,,word,SKETCH,,,,,,,,,,,,
html-keyboard-response,381,698708,null,"<div style=""font-size:42px;"">SHOVEL</div><img id = ""stim"" ><div class = green_square id = topsquare></div>",null,encoding,word_square,,,1,topsquare,32,true,,,SHOVEL,2,,,
html-keyboard-response,382,699017,177.30000001192093,"<div style=""font-size:42px;"">SHOVEL</div>",32,,word,SHOVEL,,,,,,,,,,,,
html-keyboard-response,383,700521,null,"",null,,word,SHOVEL,,,,,,,,,,,,
html-keyboard-response,384,700726,null,"<div style=""font-size:42px;"">CASHIER</div><img id = ""stim"" ><div class = red_square id = bottomsquare></div>",null,encoding,word_square,,,0,bottomsquare,none,true,,,CASHIER,2,,,
html-keyboard-response,385,701033,null,"<div style=""font-size:42px;"">CASHIER</div>",null,,word,CASHIER,,,,,,,,,,,,
html-keyboard-response,386,702538,null,"",null,,word,CASHIER,,,,,,,,,,,,
html-keyboard-response,387,702747,null,"<div style=""font-size:42px;"">PARENT</div><img id = ""stim"" ><div class = green_square id = bottomsquare></div>",null,encoding,word_square,,,1,bottomsquare,32,true,,,PARENT,2,,,
html-keyboard-response,388,703053,164,"<div style=""font-size:42px;"">PARENT</div>",32,,word,PARENT,,,,,,,,,,,,
html-keyboard-response,389,704558,null,"",null,,word,PARENT,,,,,,,,,,,,
html-keyboard-response,390,704767,null,"<div style=""font-size:42px;"">CUSTARD</div><img id = ""stim"" ><div class = red_square id = topsquare></div>",null,encoding,word_square,,,0,topsquare,none,true,,,CUSTARD,2,,,
html-keyboard-response,391,705073,240.19999998807907,"<div style=""font-size:42px;"">CUSTARD</div>",32,,word,CUSTARD,,,,,,,,,,,,
html-keyboard-response,392,706577,null,"",null,,word,CUSTARD,,,,,,,,,,,,
html-keyboard-response,393,706787,null,"<div style=""font-size:42px;"">GIRL</div><img id = ""stim"" ><div class = red_square id = bottomsquare></div>",null,encoding,word_square,,,0,bottomsquare,none,true,,,GIRL,2,,,
html-keyboard-response,394,707094,null,"<div style=""font-size:42px;"">GIRL</div>",null,,word,GIRL,,,,,,,,,,,,
html-keyboard-response,395,708599,null,"",null,,word,GIRL,,,,,,,,,,,,
html-keyboard-response,396,708806,null,"<div style=""font-size:42px;"">DAUGHTER</div><img id = ""stim"" ><div class = green_square id = topsquare></div>",null,encoding,word_square,,,1,topsquare,32,true,,,DAUGHTER,2,,,
html-keyboard-response,397,709112,202.80000001192093,"<div style=""font-size:42px;"">DAUGHTER</div>",32,,word,DAUGHTER,,,,,,,,,,,,
html-keyboard-response,398,710616,null,"",null,,word,DAUGHTER,,,,,,,,,,,,
html-keyboard-response,399,710821,null,"<div style=""font-size:42px;"">SUPPER</div><img id = ""stim"" ><div class = green_square id = bottomsquare></div>",null,encoding,word_square,,,1,bottomsquare,32,true,,,SUPPER,2,,,
html-keyboard-response,400,711128,226,"<div style=""font-size:42px;"">SUPPER</div>",32,,word,SUPPER,,,,,,,,,,,,
html-keyboard-response,401,712631,null,"",null,,word,SUPPER,,,,,,,,,,,,
html-keyboard-response,402,712840,null,"<div style=""font-size:42px;"">BALLOON</div><img id = ""stim"" ><div class = red_square id = topsquare></div>",null,encoding,word_square,,,0,topsquare,none,true,,,BALLOON,2,,,
html-keyboard-response,403,713149,null,"<div style=""font-size:42px;"">BALLOON</div>",null,,word,BALLOON,,,,,,,,,,,,
html-keyboard-response,404,714653,null,"",null,,word,BALLOON,,,,,,,,,,,,
call-function,405,714655,,"",,,,,,,,,,,,,,,,
html-keyboard-response,406,714762,null,"",null,,,,,,,,,,,,,,,
math-period,407,718005,6459.799999952316,"",,,,,,,,,,,2,,,,,
html-keyboard-response,408,718113,null,"",null,,,,,,,,,,,,,,,
math-period,409,719680,3038.3000000715256,"",,,,,,,,,,,6,,,,,
html-keyboard-response,410,719786,null,"",null,,,,,,,,,,,,,,,
math-period,411,721081,2521,"",,,,,,,,,,,4,,,,,
html-keyboard-response,412,721190,null,"",null,,,,,,,,,,,,,,,
math-period,413,722516,2540.899999976158,"",,,,,,,,,,,3,,,,,
html-keyboard-response,414,722621,null,"",null,,,,,,,,,,,,,,,
math-period,415,724374,3398.100000023842,"",,,,,,,,,,,2,,,,,
html-keyboard-response,416,724478,null,"",null,,,,,,,,,,,,,,,
math-period,417,726473,3865.099999964237,"",,,,,,,,,,,1,,,,,
html-keyboard-response,418,726577,null,"",null,,,,,,,,,,,,,,,
math-period,419,727973,2685.699999988079,"",,,,,,,,,,,5,,,,,
html-keyboard-response,420,728078,null,"",null,,,,,,,,,,,,,,,
math-period,421,729278,2287.800000011921,"",,,,,,,,,,,6,,,,,
html-keyboard-response,422,729382,null,"",null,,,,,,,,,,,,,,,
math-period,423,730679,2494,"",,,,,,,,,,,5,,,,,
html-keyboard-response,424,730787,null,"",null,,,,,,,,,,,,,,,
math-period,425,733983,6124.899999976158,"",,,,,,,,,,,0,,,,,
html-keyboard-response,426,734087,null,"",null,,,,,,,,,,,,,,,
math-period,427,735963,3492.199999988079,"",,,,,,,,,,,5,,,,,
html-keyboard-response,428,736068,null,"",null,,,,,,,,,,,,,,,
math-period,429,737272,2210.600000023842,"",,,,,,,,,,,3,,,,,
html-keyboard-response,430,737377,null,"",null,,,,,,,,,,,,,,,
math-period,431,738583,2271.400000035763,"",,,,,,,,,,,3,,,,,
html-keyboard-response,432,738689,null,"",null,,,,,,,,,,,,,,,
math-period,433,738692,null,"",,,,,,,,,,,,,,,,
html-keyboard-response,434,739697,null,"Recall Period!",null,,,,,,,,,,,,,,,
call-function,435,739698,,"",,,,,,,,,,,,,,,,
html-keyboard-response,436,739803,null,"",null,,,,,,,,,,,,,,,
recall-period,437,741724,6160.999999940395,"",,,,,,,,,,,butler,,,,,
html-keyboard-response,438,741831,null,"",null,,,,,,,,,,,,,,,
recall-period,439,743964,11131.500000059605,"",,,,,,,,,,,drawing,,,,,
html-keyboard-response,440,744066,null,"",null,,,,,,,,,,,,,,,
recall-period,441,746044,12207.500000298023,"",,,,,,,,,,,sculpture,,,,,
html-keyboard-response,442,746147,null,"",null,,,,,,,,,,,,,,,
recall-period,443,747070,3791.6999999284744,"",,,,,,,,,,,parent,,,,,
html-keyboard-response,444,747177,null,"",null,,,,,,,,,,,,,,,
recall-period,445,749256,5341.200000107288,"",,,,,,,,,,,canoe,,,,,
html-keyboard-response,446,749359,null,"",null,,,,,,,,,,,,,,,
recall-period,447,761017,78191.19999980927,"",,,,,,,,,,,socket,,,,,
html-keyboard-response,448,761121,null,"",null,,,,,,,,,,,,,,,
recall-period,449,774025,104677.10000014305,"",,,,,,,,,,,glasses,,,,,
html-keyboard-response,450,774130,null,"",null,,,,,,,,,,,,,,,
recall-period,451,814699,null,"",,,,,,,,,,,,,,,,
html-keyboard-response,452,815207,null,"Time's Up!",null,,,,,,,,,,,,,,,
html-keyboard-response,453,817775,2564.400000035763,"<p> Good job! You have responded correctly to 98% of the trials. </p>
                      <p>Be sure to only press the spacebar if you see a GREEN square, and please keep your accuracy above 80%.</p>
                      <p> Press any key to continue the experiment. </p>",32,,,,,,,,,,,,,,,
html-keyboard-response,454,818678,900.8000000119209,"<div style=""font-size:48px;"">Press any key to begin list 4 of 16 </div>",32,,,,,,,,,,,,,,,
html-keyboard-response,455,821190,null,"<div style=""font-size:60px;"">+</div>",null,,,,,,,,,,,,,,,
html-keyboard-response,456,821399,null,"<div style=""font-size:42px;"">CROOK</div><img id = ""stim"" ><div class = red_square id = topsquare></div>",null,encoding,word_square,,,0,topsquare,none,true,,,CROOK,3,,,
html-keyboard-response,457,821707,null,"<div style=""font-size:42px;"">CROOK</div>",null,,word,CROOK,,,,,,,,,,,,
html-keyboard-response,458,823213,null,"",null,,word,CROOK,,,,,,,,,,,,
html-keyboard-response,459,823422,null,"<div style=""font-size:42px;"">CURTAIN</div><img id = ""stim"" ><div class = green_square id = bottomsquare></div>",null,encoding,word_square,,,1,bottomsquare,32,true,,,CURTAIN,3,,,
html-keyboard-response,460,823731,233.0999999642372,"<div style=""font-size:42px;"">CURTAIN</div>",32,,word,CURTAIN,,,,,,,,,,,,
html-keyboard-response,461,825237,null,"",null,,word,CURTAIN,,,,,,,,,,,,
html-keyboard-response,462,825442,null,"<div style=""font-size:42px;"">SERPENT</div><img id = ""stim"" ><div class = green_square id = topsquare></div>",null,encoding,word_square,,,1,topsquare,32,true,,,SERPENT,3,,,
html-keyboard-response,463,825751,252.89999997615814,"<div style=""font-size:42px;"">SERPENT</div>",32,,word,SERPENT,,,,,,,,,,,,
html-keyboard-response,464,827256,null,"",null,,word,SERPENT,,,,,,,,,,,,
html-keyboard-response,465,827461,null,"<div style=""font-size:42px;"">CANAL</div><img id = ""stim"" ><div class = red_square id = bottomsquare></div>",null,encoding,word_square,,,0,bottomsquare,none,true,,,CANAL,3,,,
html-keyboard-response,466,827770,null,"<div style=""font-size:42px;"">CANAL</div>",null,,word,CANAL,,,,,,,,,,,,
html-keyboard-response,467,829275,null,"",null,,word,CANAL,,,,,,,,,,,,
html-keyboard-response,468,829485,null,"<div style=""font-size:42px;"">MAPLE</div><img id = ""stim"" ><div class = red_square id = topsquare></div>",null,encoding,word_square,,,0,topsquare,none,true,,,MAPLE,3,,,
html-keyboard-response,469,829794,null,"<div style=""font-size:42px;"">MAPLE</div>",null,,word,MAPLE,,,,,,,,,,,,
html-keyboard-response,470,831299,null,"",null,,word,MAPLE,,,,,,,,,,,,
html-keyboard-response,471,831507,null,"<div style=""font-size:42px;"">TWIG</div><img id = ""stim"" ><div class = green_square id = bottomsquare></div>",null,encoding,word_square,,,1,bottomsquare,32,true,,,TWIG,3,,,
html-keyboard-response,472,831816,262.60000002384186,"<div style=""font-size:42px;"">TWIG</div>",32,,word,TWIG,,,,,,,,,,,,
html-keyboard-response,473,833322,null,"",null,,word,TWIG,,,,,,,,,,,,
html-keyboard-response,474,833531,null,"<div style=""font-size:42px;"">LEMON</div><img id = ""stim"" ><div class = red_square id = bottomsquare></div>",null,encoding,word_square,,,0,bottomsquare,none,true,,,LEMON,3,,,
html-keyboard-response,475,833839,null,"<div style=""font-size:42px;"">LEMON</div>",null,,word,LEMON,,,,,,,,,,,,
html-keyboard-response,476,835344,null,"",null,,word,LEMON,,,,,,,,,,,,
html-keyboard-response,477,835554,null,"<div style=""font-size:42px;"">GYMNAST</div><img id = ""stim"" ><div class = green_square id = topsquare></div>",null,encoding,word_square,,,1,topsquare,32,true,,,GYMNAST,3,,,
html-keyboard-response,478,835861,268.5,"<div style=""font-size:42px;"">GYMNAST</div>",32,,word,GYMNAST,,,,,,,,,,,,
html-keyboard-response,479,837365,null,"",null,,word,GYMNAST,,,,,,,,,,,,
html-keyboard-response,480,837572,null,"<div style=""font-size:42px;"">PASSAGE</div><img id = ""stim"" ><div class = green_square id = bottomsquare></div>",null,encoding,word_square,,,1,bottomsquare,32,true,,,PASSAGE,3,,,
html-keyboard-response,481,837881,156.5999999642372,"<div style=""font-size:42px;"">PASSAGE</div>",32,,word,PASSAGE,,,,,,,,,,,,
html-keyboard-response,482,839386,null,"",null,,word,PASSAGE,,,,,,,,,,,,
html-keyboard-response,483,839593,null,"<div style=""font-size:42px;"">COOK</div><img id = ""stim"" ><div class = red_square id = topsquare></div>",null,encoding,word_square,,,0,topsquare,none,true,,,COOK,3,,,
html-keyboard-response,484,839899,null,"<div style=""font-size:42px;"">COOK</div>",null,,word,COOK,,,,,,,,,,,,
html-keyboard-response,485,841403,null,"",null,,word,COOK,,,,,,,,,,,,
html-keyboard-response,486,841612,null,"<div style=""font-size:42px;"">SNACK</div><img id = ""stim"" ><div class = red_square id = bottomsquare></div>",null,encoding,word_square,,,0,bottomsquare,none,true,,,SNACK,3,,,
html-keyboard-response,487,841922,null,"<div style=""font-size:42px;"">SNACK</div>",null,,word,SNACK,,,,,,,,,,,,
html-keyboard-response,488,843428,null,"",null,,word,SNACK,,,,,,,,,,,,
html-keyboard-response,489,843637,null,"<div style=""font-size:42px;"">OATMEAL</div><img id = ""stim"" ><div class = green_square id = topsquare></div>",null,encoding,word_square,,,1,topsquare,32,true,,,OATMEAL,3,,,
html-keyboard-response,490,843942,249.60000002384186,"<div style=""font-size:42px;"">OATMEAL</div>",32,,word,OATMEAL,,,,,,,,,,,,
html-keyboard-response,491,845447,null,"",null,,word,OATMEAL,,,,,,,,,,,,
html-keyboard-response,492,845650,null,"<div style=""font-size:42px;"">HEART</div><img id = ""stim"" ><div class = green_square id = bottomsquare></div>",null,encoding,word_square,,,1,bottomsquare,32,true,,,HEART,3,,,
html-keyboard-response,493,845957,288.4000000357628,"<div style=""font-size:42px;"">HEART</div>",32,,word,HEART,,,,,,,,,,,,
html-keyboard-response,494,847461,null,"",null,,word,HEART,,,,,,,,,,,,
html-keyboard-response,495,847668,null,"<div style=""font-size:42px;"">SHRUB</div><img id = ""stim"" ><div class = red_square id = topsquare></div>",null,encoding,word_square,,,0,topsquare,none,true,,,SHRUB,3,,,
html-keyboard-response,496,847976,null,"<div style=""font-size:42px;"">SHRUB</div>",null,,word,SHRUB,,,,,,,,,,,,
html-keyboard-response,497,849481,null,"",null,,word,SHRUB,,,,,,,,,,,,
html-keyboard-response,498,849690,null,"<div style=""font-size:42px;"">KEEPER</div><img id = ""stim"" ><div class = green_square id = topsquare></div>",null,encoding,word_square,,,1,topsquare,32,true,,,KEEPER,3,,,
html-keyboard-response,499,849999,252.0999999642372,"<div style=""font-size:42px;"">KEEPER</div>",32,,word,KEEPER,,,,,,,,,,,,
html-keyboard-response,500,851503,null,"",null,,word,KEEPER,,,,,,,,,,,,
html-keyboard-response,501,851709,null,"<div style=""font-size:42px;"">WAITRESS</div><img id = ""stim"" ><div class = red_square id = bottomsquare></div>",null,encoding,word_square,,,0,bottomsquare,none,true,,,WAITRESS,3,,,
html-keyboard-response,502,852018,null,"<div style=""font-size:42px;"">WAITRESS</div>",null,,word,WAITRESS,,,,,,,,,,,,
html-keyboard-response,503,853523,null,"",null,,word,WAITRESS,,,,,,,,,,,,
call-function,504,853525,,"",,,,,,,,,,,,,,,,
html-keyboard-response,505,853628,null,"",null,,,,,,,,,,,,,,,
math-period,506,856502,5579.400000095367,"",,,,,,,,,,,1,,,,,
html-keyboard-response,507,856606,null,"",null,,,,,,,,,,,,,,,
math-period,508,858593,3903.099999964237,"",,,,,,,,,,,1,,,,,
html-keyboard-response,509,858701,null,"",null,,,,,,,,,,,,,,,
math-period,510,860116,2761.5000000596046,"",,,,,,,,,,,1,,,,,
html-keyboard-response,511,860221,null,"",null,,,,,,,,,,,,,,,
math-period,512,862199,3860.899999976158,"",,,,,,,,,,,2,,,,,
html-keyboard-response,513,862303,null,"",null,,,,,,,,,,,,,,,
math-period,514,863530,2383.099999964237,"",,,,,,,,,,,2,,,,,
html-keyboard-response,515,863636,null,"",null,,,,,,,,,,,,,,,
math-period,516,865038,2773.900000035763,"",,,,,,,,,,,1,,,,,
html-keyboard-response,517,865144,null,"",null,,,,,,,,,,,,,,,
math-period,518,866526,2731.199999988079,"",,,,,,,,,,,4,,,,,
html-keyboard-response,519,866633,null,"",null,,,,,,,,,,,,,,,
math-period,520,868776,4194.700000047684,"",,,,,,,,,,,6,,,,,
html-keyboard-response,521,868880,null,"",null,,,,,,,,,,,,,,,
math-period,522,871104,4271.999999940395,"",,,,,,,,,,,2,,,,,
html-keyboard-response,523,871208,null,"",null,,,,,,,,,,,,,,,
math-period,524,875173,7624.100000023842,"",,,,,,,,,,,3,,,,,
html-keyboard-response,525,875277,null,"",null,,,,,,,,,,,,,,,
math-period,526,877050,3358.9999999403954,"",,,,,,,,,,,4,,,,,
html-keyboard-response,527,877156,null,"",null,,,,,,,,,,,,,,,
math-period,528,877529,null,"",,,,,,,,,,,,,,,,
html-keyboard-response,529,878532,null,"Recall Period!",null,,,,,,,,,,,,,,,
call-function,530,878533,,"",,,,,,,,,,,,,,,,
html-keyboard-response,531,878640,null,"",null,,,,,,,,,,,,,,,
recall-period,532,880958,10374.700000107288,"",,,,,,,,,,,waitress,,,,,
html-keyboard-response,533,881062,null,"",null,,,,,,,,,,,,,,,
recall-period,534,883879,13891.49999988079,"",,,,,,,,,,,lemon,,,,,
html-keyboard-response,535,883984,null,"",null,,,,,,,,,,,,,,,
recall-period,536,886573,16411.19999986887,"",,,,,,,,,,,curtains,,,,,
html-keyboard-response,537,886679,null,"",null,,,,,,,,,,,,,,,
recall-period,538,889356,19901.399999678135,"",,,,,,,,,,,crook,,,,,
html-keyboard-response,539,889459,null,"",null,,,,,,,,,,,,,,,
recall-period,540,890485,2647.300000011921,"",,,,,,,,,,,cook,,,,,
html-keyboard-response,541,890589,null,"",null,,,,,,,,,,,,,,,
recall-period,542,892584,7977.199999988079,"",,,,,,,,,,,serpent,,,,,
html-keyboard-response,543,892692,null,"",null,,,,,,,,,,,,,,,
recall-period,544,896439,13584.199999988079,"",,,,,,,,,,,canal,,,,,
html-keyboard-response,545,896542,null,"",null,,,,,,,,,,,,,,,
recall-period,546,901444,25587.600000023842,"",,,,,,,,,,,shrub,,,,,
html-keyboard-response,547,901549,null,"",null,,,,,,,,,,,,,,,
recall-period,548,925920,143963.90000015497,"",,,,,,,,,,,snack,,,,,
html-keyboard-response,549,926025,null,"",null,,,,,,,,,,,,,,,
recall-period,550,927880,9113.400000214577,"",,,,,,,,,,,oatmeal,,,,,
html-keyboard-response,551,927984,null,"",null,,,,,,,,,,,,,,,
recall-period,552,929216,5028.999999821186,"",,,,,,,,,,,heart,,,,,
html-keyboard-response,553,929321,null,"",null,,,,,,,,,,,,,,,
recall-period,554,953538,null,"",,,,,,,,,,,,,,,,
html-keyboard-response,555,954047,null,"Time's Up!",null,,,,,,,,,,,,,,,
html-keyboard-response,556,956148,2097.7999999523163,"<p> Good job! You have responded correctly to 98% of the trials. </p>
                      <p>Be sure to only press the spacebar if you see a GREEN square, and please keep your accuracy above 80%.</p>
                      <p> Press any key to continue the experiment. </p>",32,,,,,,,,,,,,,,,
html-keyboard-response,557,957411,1259.4000000357628,"<div style=""font-size:48px;"">Press any key to begin list 5 of 16 </div>",32,,,,,,,,,,,,,,,
html-keyboard-response,558,959918,null,"<div style=""font-size:60px;"">+</div>",null,,,,,,,,,,,,,,,
html-keyboard-response,559,960127,null,"<div style=""font-size:42px;"">TART</div><img id = ""stim"" ><div class = green_square id = topsquare></div>",null,encoding,word_square,,,1,topsquare,32,true,,,TART,4,,,
html-keyboard-response,560,960433,264.5,"<div style=""font-size:42px;"">TART</div>",32,,word,TART,,,,,,,,,,,,
html-keyboard-response,561,961938,null,"",null,,word,TART,,,,,,,,,,,,
html-keyboard-response,562,962147,null,"<div style=""font-size:42px;"">CLERK</div><img id = ""stim"" ><div class = red_square id = bottomsquare></div>",null,encoding,word_square,,,0,bottomsquare,none,true,,,CLERK,4,,,
html-keyboard-response,563,962455,null,"<div style=""font-size:42px;"">CLERK</div>",null,,word,CLERK,,,,,,,,,,,,
html-keyboard-response,564,963962,null,"",null,,word,CLERK,,,,,,,,,,,,
html-keyboard-response,565,964171,null,"<div style=""font-size:42px;"">FIREMAN</div><img id = ""stim"" ><div class = red_square id = topsquare></div>",null,encoding,word_square,,,0,topsquare,none,true,,,FIREMAN,4,,,
html-keyboard-response,566,964479,null,"<div style=""font-size:42px;"">FIREMAN</div>",null,,word,FIREMAN,,,,,,,,,,,,
html-keyboard-response,567,965986,983.1999999880791,"",73,,word,FIREMAN,,,,,,,,,,,,
html-keyboard-response,568,966190,null,"<div style=""font-size:42px;"">BLENDER</div><img id = ""stim"" ><div class = green_square id = bottomsquare></div>",null,encoding,word_square,,,1,bottomsquare,32,true,,,BLENDER,4,,,
html-keyboard-response,569,966494,null,"<div style=""font-size:42px;"">BLENDER</div>",null,,word,BLENDER,,,,,,,,,,,,
html-keyboard-response,570,967999,213.70000004768372,"",32,,word,BLENDER,,,,,,,,,,,,
html-keyboard-response,571,968208,null,"<div style=""font-size:42px;"">PISTON</div><img id = ""stim"" ><div class = green_square id = topsquare></div>",null,encoding,word_square,,,1,topsquare,32,true,,,PISTON,4,,,
html-keyboard-response,572,968517,232.39999997615814,"<div style=""font-size:42px;"">PISTON</div>",32,,word,PISTON,,,,,,,,,,,,
html-keyboard-response,573,970023,null,"",null,,word,PISTON,,,,,,,,,,,,
html-keyboard-response,574,970233,null,"<div style=""font-size:42px;"">PRIEST</div><img id = ""stim"" ><div class = red_square id = bottomsquare></div>",null,encoding,word_square,,,0,bottomsquare,none,true,,,PRIEST,4,,,
html-keyboard-response,575,970537,null,"<div style=""font-size:42px;"">PRIEST</div>",null,,word,PRIEST,,,,,,,,,,,,
html-keyboard-response,576,972041,null,"",null,,word,PRIEST,,,,,,,,,,,,
html-keyboard-response,577,972250,null,"<div style=""font-size:42px;"">SPHINX</div><img id = ""stim"" ><div class = red_square id = topsquare></div>",null,encoding,word_square,,,0,topsquare,none,true,,,SPHINX,4,,,
html-keyboard-response,578,972555,null,"<div style=""font-size:42px;"">SPHINX</div>",null,,word,SPHINX,,,,,,,,,,,,
html-keyboard-response,579,974060,null,"",null,,word,SPHINX,,,,,,,,,,,,
html-keyboard-response,580,974269,null,"<div style=""font-size:42px;"">PANTHER</div><img id = ""stim"" ><div class = green_square id = bottomsquare></div>",null,encoding,word_square,,,1,bottomsquare,32,true,,,PANTHER,4,,,
html-keyboard-response,581,974578,207.80000001192093,"<div style=""font-size:42px;"">PANTHER</div>",32,,word,PANTHER,,,,,,,,,,,,
html-keyboard-response,582,976085,null,"",null,,word,PANTHER,,,,,,,,,,,,
html-keyboard-response,583,976292,null,"<div style=""font-size:42px;"">JOKER</div><img id = ""stim"" ><div class = green_square id = topsquare></div>",null,encoding,word_square,,,1,topsquare,32,true,,,JOKER,4,,,
html-keyboard-response,584,976598,281.80000001192093,"<div style=""font-size:42px;"">JOKER</div>",32,,word,JOKER,,,,,,,,,,,,
html-keyboard-response,585,978103,null,"",null,,word,JOKER,,,,,,,,,,,,
html-keyboard-response,586,978308,null,"<div style=""font-size:42px;"">PAPER</div><img id = ""stim"" ><div class = green_square id = bottomsquare></div>",null,encoding,word_square,,,1,bottomsquare,32,true,,,PAPER,4,,,
html-keyboard-response,587,978617,223.30000001192093,"<div style=""font-size:42px;"">PAPER</div>",32,,word,PAPER,,,,,,,,,,,,
html-keyboard-response,588,980122,null,"",null,,word,PAPER,,,,,,,,,,,,
html-keyboard-response,589,980330,null,"<div style=""font-size:42px;"">JUDGE</div><img id = ""stim"" ><div class = red_square id = bottomsquare></div>",null,encoding,word_square,,,0,bottomsquare,none,true,,,JUDGE,4,,,
html-keyboard-response,590,980639,null,"<div style=""font-size:42px;"">JUDGE</div>",null,,word,JUDGE,,,,,,,,,,,,
html-keyboard-response,591,982144,null,"",null,,word,JUDGE,,,,,,,,,,,,
html-keyboard-response,592,982353,null,"<div style=""font-size:42px;"">JELLY</div><img id = ""stim"" ><div class = green_square id = topsquare></div>",null,encoding,word_square,,,1,topsquare,32,true,,,JELLY,4,,,
html-keyboard-response,593,982659,154.80000001192093,"<div style=""font-size:42px;"">JELLY</div>",32,,word,JELLY,,,,,,,,,,,,
html-keyboard-response,594,984164,null,"",null,,word,JELLY,,,,,,,,,,,,
html-keyboard-response,595,984369,null,"<div style=""font-size:42px;"">GRAVE</div><img id = ""stim"" ><div class = red_square id = topsquare></div>",null,encoding,word_square,,,0,topsquare,none,true,,,GRAVE,4,,,
html-keyboard-response,596,984675,null,"<div style=""font-size:42px;"">GRAVE</div>",null,,word,GRAVE,,,,,,,,,,,,
html-keyboard-response,597,986181,null,"",null,,word,GRAVE,,,,,,,,,,,,
html-keyboard-response,598,986390,null,"<div style=""font-size:42px;"">TOMBSTONE</div><img id = ""stim"" ><div class = green_square id = bottomsquare></div>",null,encoding,word_square,,,1,bottomsquare,32,true,,,TOMBSTONE,4,,,
html-keyboard-response,599,986696,114.19999998807907,"<div style=""font-size:42px;"">TOMBSTONE</div>",32,,word,TOMBSTONE,,,,,,,,,,,,
html-keyboard-response,600,988200,null,"",null,,word,TOMBSTONE,,,,,,,,,,,,
html-keyboard-response,601,988410,null,"<div style=""font-size:42px;"">DRILL</div><img id = ""stim"" ><div class = red_square id = bottomsquare></div>",null,encoding,word_square,,,0,bottomsquare,none,true,,,DRILL,4,,,
html-keyboard-response,602,988717,null,"<div style=""font-size:42px;"">DRILL</div>",null,,word,DRILL,,,,,,,,,,,,
html-keyboard-response,603,990222,null,"",null,,word,DRILL,,,,,,,,,,,,
html-keyboard-response,604,990431,null,"<div style=""font-size:42px;"">CONCRETE</div><img id = ""stim"" ><div class = red_square id = topsquare></div>",null,encoding,word_square,,,0,topsquare,none,true,,,CONCRETE,4,,,
html-keyboard-response,605,990740,null,"<div style=""font-size:42px;"">CONCRETE</div>",null,,word,CONCRETE,,,,,,,,,,,,
html-keyboard-response,606,992246,null,"",null,,word,CONCRETE,,,,,,,,,,,,
call-function,607,992248,,"",,,,,,,,,,,,,,,,
html-keyboard-response,608,992354,null,"",null,,,,,,,,,,,,,,,
math-period,609,994188,3541.8000000715256,"",,,,,,,,,,,3,,,,,
html-keyboard-response,610,994291,null,"",null,,,,,,,,,,,,,,,
math-period,611,995641,2599.899999976158,"",,,,,,,,,,,2,,,,,
html-keyboard-response,612,995749,null,"",null,,,,,,,,,,,,,,,
math-period,613,996864,2125.2000000476837,"",,,,,,,,,,,3,,,,,
html-keyboard-response,614,996972,null,"",null,,,,,,,,,,,,,,,
math-period,615,998961,3858,"",,,,,,,,,,,1,,,,,
html-keyboard-response,616,999066,null,"",null,,,,,,,,,,,,,,,
math-period,617,1001915,5600.600000023842,"",,,,,,,,,,,1,,,,,
html-keyboard-response,618,1002022,null,"",null,,,,,,,,,,,,,,,
math-period,619,1003084,2016.1000000238419,"",,,,,,,,,,,3,,,,,
html-keyboard-response,620,1003190,null,"",null,,,,,,,,,,,,,,,
math-period,621,1004736,2990.800000011921,"",,,,,,,,,,,2,,,,,
html-keyboard-response,622,1004845,null,"",null,,,,,,,,,,,,,,,
math-period,623,1007398,8830.600000083447,"",,,,,,,,,,,2,,,,,
html-keyboard-response,624,1007502,null,"",null,,,,,,,,,,,,,,,
math-period,625,1008993,2868.100000023842,"",,,,,,,,,,,1,,,,,
html-keyboard-response,626,1009098,null,"",null,,,,,,,,,,,,,,,
math-period,627,1010040,1792.2000000476837,"",,,,,,,,,,,3,,,,,
html-keyboard-response,628,1010149,null,"",null,,,,,,,,,,,,,,,
math-period,629,1011583,2677.2999999523163,"",,,,,,,,,,,6,,,,,
html-keyboard-response,630,1011688,null,"",null,,,,,,,,,,,,,,,
math-period,631,1013604,3674.5,"",,,,,,,,,,,5,,,,,
html-keyboard-response,632,1013708,null,"",null,,,,,,,,,,,,,,,
math-period,633,1016253,2246,"",,,,,,,,,,,5,,,,,
html-keyboard-response,634,1017258,null,"Recall Period!",null,,,,,,,,,,,,,,,
call-function,635,1017259,,"",,,,,,,,,,,,,,,,
html-keyboard-response,636,1017365,null,"",null,,,,,,,,,,,,,,,
recall-period,637,1021967,46947.90000027418,"",,,,,,,,,,,joker,,,,,
html-keyboard-response,638,1022076,null,"",null,,,,,,,,,,,,,,,
recall-period,639,1029885,43600.60000002384,"",,,,,,,,,,,clerk,,,,,
html-keyboard-response,640,1029990,null,"",null,,,,,,,,,,,,,,,
recall-period,641,1031866,5964.80000013113,"",,,,,,,,,,,fireman,,,,,
html-keyboard-response,642,1031969,null,"",null,,,,,,,,,,,,,,,
recall-period,643,1034823,8447.900000154972,"",,,,,,,,,,,tart,,,,,
html-keyboard-response,644,1034928,null,"",null,,,,,,,,,,,,,,,
recall-period,645,1040328,36827.79999983311,"",,,,,,,,,,,hamster,,,,,
html-keyboard-response,646,1040436,null,"",null,,,,,,,,,,,,,,,
recall-period,647,1043197,8411.400000035763,"",,,,,,,,,,,sphynx,,,,,
html-keyboard-response,648,1043302,null,"",null,,,,,,,,,,,,,,,
recall-period,649,1045603,14421.699999928474,"",,,,,,,,,,,panther,,,,,
html-keyboard-response,650,1045707,null,"",null,,,,,,,,,,,,,,,
recall-period,651,1092261,null,"",,,,,,,,,,,,,,,,
html-keyboard-response,652,1092765,null,"Time's Up!",null,,,,,,,,,,,,,,,
html-keyboard-response,653,1095673,2904.5,"<p> Good job! You have responded correctly to 99% of the trials. </p>
                      <p>Be sure to only press the spacebar if you see a GREEN square, and please keep your accuracy above 80%.</p>
                      <p> Press any key to continue the experiment. </p>",32,,,,,,,,,,,,,,,
html-keyboard-response,654,1096278,601.3999999761581,"<div style=""font-size:48px;"">Press any key to begin list 6 of 16 </div>",32,,,,,,,,,,,,,,,
html-keyboard-response,655,1098784,null,"<div style=""font-size:60px;"">+</div>",null,,,,,,,,,,,,,,,
html-keyboard-response,656,1098993,null,"<div style=""font-size:42px;"">NAPKIN</div><img id = ""stim"" ><div class = red_square id = topsquare></div>",null,encoding,word_square,,,0,topsquare,none,true,,,NAPKIN,5,,,
html-keyboard-response,657,1099302,null,"<div style=""font-size:42px;"">NAPKIN</div>",null,,word,NAPKIN,,,,,,,,,,,,
html-keyboard-response,658,1100807,null,"",null,,word,NAPKIN,,,,,,,,,,,,
html-keyboard-response,659,1101017,null,"<div style=""font-size:42px;"">SURGEON</div><img id = ""stim"" ><div class = red_square id = bottomsquare></div>",null,encoding,word_square,,,0,bottomsquare,none,true,,,SURGEON,5,,,
html-keyboard-response,660,1101325,null,"<div style=""font-size:42px;"">SURGEON</div>",null,,word,SURGEON,,,,,,,,,,,,
html-keyboard-response,661,1102831,null,"",null,,word,SURGEON,,,,,,,,,,,,
html-keyboard-response,662,1103040,null,"<div style=""font-size:42px;"">STAKE</div><img id = ""stim"" ><div class = green_square id = bottomsquare></div>",null,encoding,word_square,,,1,bottomsquare,32,true,,,STAKE,5,,,
html-keyboard-response,663,1103349,null,"<div style=""font-size:42px;"">STAKE</div>",null,,word,STAKE,,,,,,,,,,,,
html-keyboard-response,664,1104856,20.69999998807907,"",32,,word,STAKE,,,,,,,,,,,,
html-keyboard-response,665,1105065,null,"<div style=""font-size:42px;"">CORAL</div><img id = ""stim"" ><div class = red_square id = topsquare></div>",null,encoding,word_square,,,0,topsquare,none,true,,,CORAL,5,,,
html-keyboard-response,666,1105370,null,"<div style=""font-size:42px;"">CORAL</div>",null,,word,CORAL,,,,,,,,,,,,
html-keyboard-response,667,1106874,null,"",null,,word,CORAL,,,,,,,,,,,,
html-keyboard-response,668,1107082,null,"<div style=""font-size:42px;"">PEBBLE</div><img id = ""stim"" ><div class = green_square id = topsquare></div>",null,encoding,word_square,,,1,topsquare,32,true,,,PEBBLE,5,,,
html-keyboard-response,669,1107389,302.5999999642372,"<div style=""font-size:42px;"">PEBBLE</div>",32,,word,PEBBLE,,,,,,,,,,,,
html-keyboard-response,670,1108894,null,"",null,,word,PEBBLE,,,,,,,,,,,,
html-keyboard-response,671,1109103,null,"<div style=""font-size:42px;"">STRING</div><img id = ""stim"" ><div class = red_square id = bottomsquare></div>",null,encoding,word_square,,,0,bottomsquare,none,true,,,STRING,5,,,
html-keyboard-response,672,1109412,null,"<div style=""font-size:42px;"">STRING</div>",null,,word,STRING,,,,,,,,,,,,
html-keyboard-response,673,1110918,null,"",null,,word,STRING,,,,,,,,,,,,
html-keyboard-response,674,1111125,null,"<div style=""font-size:42px;"">ATHLETE</div><img id = ""stim"" ><div class = green_square id = bottomsquare></div>",null,encoding,word_square,,,1,bottomsquare,32,true,,,ATHLETE,5,,,
html-keyboard-response,675,1111432,253.9000000357628,"<div style=""font-size:42px;"">ATHLETE</div>",32,,word,ATHLETE,,,,,,,,,,,,
html-keyboard-response,676,1112938,null,"",null,,word,ATHLETE,,,,,,,,,,,,
html-keyboard-response,677,1113147,null,"<div style=""font-size:42px;"">COUNTY</div><img id = ""stim"" ><div class = green_square id = topsquare></div>",null,encoding,word_square,,,1,topsquare,32,true,,,COUNTY,5,,,
html-keyboard-response,678,1113455,267.69999998807907,"<div style=""font-size:42px;"">COUNTY</div>",32,,word,COUNTY,,,,,,,,,,,,
html-keyboard-response,679,1114961,null,"",null,,word,COUNTY,,,,,,,,,,,,
html-keyboard-response,680,1115170,null,"<div style=""font-size:42px;"">NOVEL</div><img id = ""stim"" ><div class = green_square id = bottomsquare></div>",null,encoding,word_square,,,1,bottomsquare,32,true,,,NOVEL,5,,,
html-keyboard-response,681,1115479,167.5,"<div style=""font-size:42px;"">NOVEL</div>",32,,word,NOVEL,,,,,,,,,,,,
html-keyboard-response,682,1116985,null,"",null,,word,NOVEL,,,,,,,,,,,,
html-keyboard-response,683,1117194,null,"<div style=""font-size:42px;"">MISTER</div><img id = ""stim"" ><div class = red_square id = topsquare></div>",null,encoding,word_square,,,0,topsquare,none,true,,,MISTER,5,,,
html-keyboard-response,684,1117503,null,"<div style=""font-size:42px;"">MISTER</div>",null,,word,MISTER,,,,,,,,,,,,
html-keyboard-response,685,1119009,null,"",null,,word,MISTER,,,,,,,,,,,,
html-keyboard-response,686,1119219,null,"<div style=""font-size:42px;"">PAVEMENT</div><img id = ""stim"" ><div class = red_square id = bottomsquare></div>",null,encoding,word_square,,,0,bottomsquare,none,true,,,PAVEMENT,5,,,
html-keyboard-response,687,1119525,null,"<div style=""font-size:42px;"">PAVEMENT</div>",null,,word,PAVEMENT,,,,,,,,,,,,
html-keyboard-response,688,1121032,null,"",null,,word,PAVEMENT,,,,,,,,,,,,
html-keyboard-response,689,1121238,null,"<div style=""font-size:42px;"">SOFA</div><img id = ""stim"" ><div class = green_square id = topsquare></div>",null,encoding,word_square,,,1,topsquare,32,true,,,SOFA,5,,,
html-keyboard-response,690,1121545,null,"<div style=""font-size:42px;"">SOFA</div>",null,,word,SOFA,,,,,,,,,,,,
html-keyboard-response,691,1123050,21.80000001192093,"",32,,word,SOFA,,,,,,,,,,,,
html-keyboard-response,692,1123259,null,"<div style=""font-size:42px;"">TRIBE</div><img id = ""stim"" ><div class = green_square id = bottomsquare></div>",null,encoding,word_square,,,1,bottomsquare,32,true,,,TRIBE,5,,,
html-keyboard-response,693,1123563,115.09999996423721,"<div style=""font-size:42px;"">TRIBE</div>",32,,word,TRIBE,,,,,,,,,,,,
html-keyboard-response,694,1125068,null,"",null,,word,TRIBE,,,,,,,,,,,,
html-keyboard-response,695,1125274,null,"<div style=""font-size:42px;"">NOMAD</div><img id = ""stim"" ><div class = red_square id = topsquare></div>",null,encoding,word_square,,,0,topsquare,none,true,,,NOMAD,5,,,
html-keyboard-response,696,1125582,null,"<div style=""font-size:42px;"">NOMAD</div>",null,,word,NOMAD,,,,,,,,,,,,
html-keyboard-response,697,1127087,null,"",null,,word,NOMAD,,,,,,,,,,,,
html-keyboard-response,698,1127294,null,"<div style=""font-size:42px;"">DIVER</div><img id = ""stim"" ><div class = red_square id = bottomsquare></div>",null,encoding,word_square,,,0,bottomsquare,none,true,,,DIVER,5,,,
html-keyboard-response,699,1127601,null,"<div style=""font-size:42px;"">DIVER</div>",null,,word,DIVER,,,,,,,,,,,,
html-keyboard-response,700,1129107,null,"",null,,word,DIVER,,,,,,,,,,,,
html-keyboard-response,701,1129316,null,"<div style=""font-size:42px;"">RAFT</div><img id = ""stim"" ><div class = green_square id = topsquare></div>",null,encoding,word_square,,,1,topsquare,32,true,,,RAFT,5,,,
html-keyboard-response,702,1129625,278.9000000357628,"<div style=""font-size:42px;"">RAFT</div>",32,,word,RAFT,,,,,,,,,,,,
html-keyboard-response,703,1131132,null,"",null,,word,RAFT,,,,,,,,,,,,
call-function,704,1131135,,"",,,,,,,,,,,,,,,,
html-keyboard-response,705,1131242,null,"",null,,,,,,,,,,,,,,,
math-period,706,1134243,5893.399999976158,"",,,,,,,,,,,5,,,,,
html-keyboard-response,707,1134347,null,"",null,,,,,,,,,,,,,,,
math-period,708,1136282,3749.3000000715256,"",,,,,,,,,,,4,,,,,
html-keyboard-response,709,1136387,null,"",null,,,,,,,,,,,,,,,
math-period,710,1138049,3212.5000000596046,"",,,,,,,,,,,5,,,,,
html-keyboard-response,711,1138152,null,"",null,,,,,,,,,,,,,,,
math-period,712,1139366,2399.5000000596046,"",,,,,,,,,,,3,,,,,
html-keyboard-response,713,1139473,null,"",null,,,,,,,,,,,,,,,
math-period,714,1141519,3989.199999988079,"",,,,,,,,,,,3,,,,,
html-keyboard-response,715,1141626,null,"",null,,,,,,,,,,,,,,,
math-period,716,1144014,4632.800000011921,"",,,,,,,,,,,1,,,,,
html-keyboard-response,717,1144118,null,"",null,,,,,,,,,,,,,,,
math-period,718,1145534,2645.2000000476837,"",,,,,,,,,,,3,,,,,
html-keyboard-response,719,1145638,null,"",null,,,,,,,,,,,,,,,
math-period,720,1146911,2366.399999976158,"",,,,,,,,,,,2,,,,,
html-keyboard-response,721,1147019,null,"",null,,,,,,,,,,,,,,,
math-period,722,1149372,6356.599999964237,"",,,,,,,,,,,2,,,,,
html-keyboard-response,723,1149478,null,"",null,,,,,,,,,,,,,,,
math-period,724,1151798,4470.700000047684,"",,,,,,,,,,,4,,,,,
html-keyboard-response,725,1151903,null,"",null,,,,,,,,,,,,,,,
math-period,726,1153345,2766.900000035763,"",,,,,,,,,,,1,,,,,
html-keyboard-response,727,1153449,null,"",null,,,,,,,,,,,,,,,
math-period,728,1155140,null,"",,,,,,,,,,,,,,,,
html-keyboard-response,729,1156145,null,"Recall Period!",null,,,,,,,,,,,,,,,
call-function,730,1156147,,"",,,,,,,,,,,,,,,,
html-keyboard-response,731,1156254,null,"",null,,,,,,,,,,,,,,,
recall-period,732,1157661,6848.6000000834465,"",,,,,,,,,,,surgeon,,,,,
html-keyboard-response,733,1157767,null,"",null,,,,,,,,,,,,,,,
recall-period,734,1161102,20283.39999961853,"",,,,,,,,,,,athlete,,,,,
html-keyboard-response,735,1161206,null,"",null,,,,,,,,,,,,,,,
recall-period,736,1164850,13153.599999964237,"",,,,,,,,,,,raft,,,,,
html-keyboard-response,737,1164954,null,"",null,,,,,,,,,,,,,,,
recall-period,738,1166867,7914.3999999165535,"",,,,,,,,,,,napkin,,,,,
html-keyboard-response,739,1166970,null,"",null,,,,,,,,,,,,,,,
recall-period,740,1168608,6156.5,"",,,,,,,,,,,tribe,,,,,
html-keyboard-response,741,1168711,null,"",null,,,,,,,,,,,,,,,
recall-period,742,1170136,5435.599999964237,"",,,,,,,,,,,nomad,,,,,
html-keyboard-response,743,1170241,null,"",null,,,,,,,,,,,,,,,
recall-period,744,1181597,55127.39999997616,"",,,,,,,,,,,sofa,,,,,
html-keyboard-response,745,1181703,null,"",null,,,,,,,,,,,,,,,
recall-period,746,1199084,102676.79999989271,"",,,,,,,,,,,diver,,,,,
html-keyboard-response,747,1199191,null,"",null,,,,,,,,,,,,,,,
recall-period,748,1231148,null,"",,,,,,,,,,,,,,,,
html-keyboard-response,749,1231656,null,"Time's Up!",null,,,,,,,,,,,,,,,
html-keyboard-response,750,1232680,1020.3999999761581,"<p> Good job! You have responded correctly to 99% of the trials. </p>
                      <p>Be sure to only press the spacebar if you see a GREEN square, and please keep your accuracy above 80%.</p>
                      <p> Press any key to continue the experiment. </p>",32,,,,,,,,,,,,,,,
html-keyboard-response,751,1235007,2323.2999999523163,"<div style=""font-size:48px;"">Press any key to begin list 7 of 16 </div>",32,,,,,,,,,,,,,,,
html-keyboard-response,752,1237516,null,"<div style=""font-size:60px;"">+</div>",null,,,,,,,,,,,,,,,
html-keyboard-response,753,1237723,null,"<div style=""font-size:42px;"">KEYBOARD</div><img id = ""stim"" ><div class = red_square id = bottomsquare></div>",null,encoding,word_square,,,0,bottomsquare,none,true,,,KEYBOARD,6,,,
html-keyboard-response,754,1238031,null,"<div style=""font-size:42px;"">KEYBOARD</div>",null,,word,KEYBOARD,,,,,,,,,,,,
html-keyboard-response,755,1239535,null,"",null,,word,KEYBOARD,,,,,,,,,,,,
html-keyboard-response,756,1239741,null,"<div style=""font-size:42px;"">AIRCRAFT</div><img id = ""stim"" ><div class = green_square id = topsquare></div>",null,encoding,word_square,,,1,topsquare,32,true,,,AIRCRAFT,6,,,
html-keyboard-response,757,1240049,273.10000002384186,"<div style=""font-size:42px;"">AIRCRAFT</div>",32,,word,AIRCRAFT,,,,,,,,,,,,
html-keyboard-response,758,1241556,null,"",null,,word,AIRCRAFT,,,,,,,,,,,,
html-keyboard-response,759,1241766,null,"<div style=""font-size:42px;"">ROBOT</div><img id = ""stim"" ><div class = green_square id = bottomsquare></div>",null,encoding,word_square,,,1,bottomsquare,32,true,,,ROBOT,6,,,
html-keyboard-response,760,1242075,203.39999997615814,"<div style=""font-size:42px;"">ROBOT</div>",32,,word,ROBOT,,,,,,,,,,,,
html-keyboard-response,761,1243581,null,"",null,,word,ROBOT,,,,,,,,,,,,
html-keyboard-response,762,1243790,null,"<div style=""font-size:42px;"">BULLET</div><img id = ""stim"" ><div class = red_square id = topsquare></div>",null,encoding,word_square,,,0,topsquare,none,true,,,BULLET,6,,,
html-keyboard-response,763,1244099,null,"<div style=""font-size:42px;"">BULLET</div>",null,,word,BULLET,,,,,,,,,,,,
html-keyboard-response,764,1245605,null,"",null,,word,BULLET,,,,,,,,,,,,
html-keyboard-response,765,1245814,null,"<div style=""font-size:42px;"">DRUG</div><img id = ""stim"" ><div class = red_square id = bottomsquare></div>",null,encoding,word_square,,,0,bottomsquare,none,true,,,DRUG,6,,,
html-keyboard-response,766,1246118,null,"<div style=""font-size:42px;"">DRUG</div>",null,,word,DRUG,,,,,,,,,,,,
html-keyboard-response,767,1247624,null,"",null,,word,DRUG,,,,,,,,,,,,
html-keyboard-response,768,1247831,null,"<div style=""font-size:42px;"">SPOUSE</div><img id = ""stim"" ><div class = green_square id = topsquare></div>",null,encoding,word_square,,,1,topsquare,32,true,,,SPOUSE,6,,,
html-keyboard-response,769,1248139,277.10000002384186,"<div style=""font-size:42px;"">SPOUSE</div>",32,,word,SPOUSE,,,,,,,,,,,,
html-keyboard-response,770,1249644,null,"",null,,word,SPOUSE,,,,,,,,,,,,
html-keyboard-response,771,1249849,null,"<div style=""font-size:42px;"">BUSH</div><img id = ""stim"" ><div class = green_square id = bottomsquare></div>",null,encoding,word_square,,,1,bottomsquare,32,true,,,BUSH,6,,,
html-keyboard-response,772,1250157,179.69999998807907,"<div style=""font-size:42px;"">BUSH</div>",32,,word,BUSH,,,,,,,,,,,,
html-keyboard-response,773,1251663,null,"",null,,word,BUSH,,,,,,,,,,,,
html-keyboard-response,774,1251872,null,"<div style=""font-size:42px;"">CEILING</div><img id = ""stim"" ><div class = red_square id = topsquare></div>",null,encoding,word_square,,,0,topsquare,none,true,,,CEILING,6,,,
html-keyboard-response,775,1252181,null,"<div style=""font-size:42px;"">CEILING</div>",null,,word,CEILING,,,,,,,,,,,,
html-keyboard-response,776,1253688,null,"",null,,word,CEILING,,,,,,,,,,,,
html-keyboard-response,777,1253894,null,"<div style=""font-size:42px;"">CARTON</div><img id = ""stim"" ><div class = red_square id = bottomsquare></div>",null,encoding,word_square,,,0,bottomsquare,none,true,,,CARTON,6,,,
html-keyboard-response,778,1254199,null,"<div style=""font-size:42px;"">CARTON</div>",null,,word,CARTON,,,,,,,,,,,,
html-keyboard-response,779,1255704,null,"",null,,word,CARTON,,,,,,,,,,,,
html-keyboard-response,780,1255910,null,"<div style=""font-size:42px;"">TIMBER</div><img id = ""stim"" ><div class = red_square id = topsquare></div>",null,encoding,word_square,,,0,topsquare,none,true,,,TIMBER,6,,,
html-keyboard-response,781,1256217,null,"<div style=""font-size:42px;"">TIMBER</div>",null,,word,TIMBER,,,,,,,,,,,,
html-keyboard-response,782,1257723,null,"",null,,word,TIMBER,,,,,,,,,,,,
html-keyboard-response,783,1257933,null,"<div style=""font-size:42px;"">LEOPARD</div><img id = ""stim"" ><div class = green_square id = topsquare></div>",null,encoding,word_square,,,1,topsquare,32,true,,,LEOPARD,6,,,
html-keyboard-response,784,1258241,280.80000001192093,"<div style=""font-size:42px;"">LEOPARD</div>",32,,word,LEOPARD,,,,,,,,,,,,
html-keyboard-response,785,1259748,null,"",null,,word,LEOPARD,,,,,,,,,,,,
html-keyboard-response,786,1259958,null,"<div style=""font-size:42px;"">HUMAN</div><img id = ""stim"" ><div class = red_square id = bottomsquare></div>",null,encoding,word_square,,,0,bottomsquare,none,true,,,HUMAN,6,,,
html-keyboard-response,787,1260267,null,"<div style=""font-size:42px;"">HUMAN</div>",null,,word,HUMAN,,,,,,,,,,,,
html-keyboard-response,788,1261773,null,"",null,,word,HUMAN,,,,,,,,,,,,
html-keyboard-response,789,1261982,null,"<div style=""font-size:42px;"">CREATURE</div><img id = ""stim"" ><div class = green_square id = bottomsquare></div>",null,encoding,word_square,,,1,bottomsquare,32,true,,,CREATURE,6,,,
html-keyboard-response,790,1262287,191.39999997615814,"<div style=""font-size:42px;"">CREATURE</div>",32,,word,CREATURE,,,,,,,,,,,,
html-keyboard-response,791,1263791,null,"",null,,word,CREATURE,,,,,,,,,,,,
html-keyboard-response,792,1264001,null,"<div style=""font-size:42px;"">LIVER</div><img id = ""stim"" ><div class = red_square id = topsquare></div>",null,encoding,word_square,,,0,topsquare,none,true,,,LIVER,6,,,
html-keyboard-response,793,1264310,null,"<div style=""font-size:42px;"">LIVER</div>",null,,word,LIVER,,,,,,,,,,,,
html-keyboard-response,794,1265817,null,"",null,,word,LIVER,,,,,,,,,,,,
html-keyboard-response,795,1266028,null,"<div style=""font-size:42px;"">BUTCHER</div><img id = ""stim"" ><div class = green_square id = topsquare></div>",null,encoding,word_square,,,1,topsquare,32,true,,,BUTCHER,6,,,
html-keyboard-response,796,1266335,181.5,"<div style=""font-size:42px;"">BUTCHER</div>",32,,word,BUTCHER,,,,,,,,,,,,
html-keyboard-response,797,1267840,null,"",null,,word,BUTCHER,,,,,,,,,,,,
html-keyboard-response,798,1268050,null,"<div style=""font-size:42px;"">BUCKET</div><img id = ""stim"" ><div class = green_square id = bottomsquare></div>",null,encoding,word_square,,,1,bottomsquare,32,true,,,BUCKET,6,,,
html-keyboard-response,799,1268359,null,"<div style=""font-size:42px;"">BUCKET</div>",null,,word,BUCKET,,,,,,,,,,,,
html-keyboard-response,800,1269865,51.09999996423721,"",32,,word,BUCKET,,,,,,,,,,,,
call-function,801,1269867,,"",,,,,,,,,,,,,,,,
html-keyboard-response,802,1269970,null,"",null,,,,,,,,,,,,,,,
math-period,803,1274425,8799.400000035763,"",,,,,,,,,,,5,,,,,
html-keyboard-response,804,1274530,null,"",null,,,,,,,,,,,,,,,
math-period,805,1275658,2122.199999988079,"",,,,,,,,,,,4,,,,,
html-keyboard-response,806,1275764,null,"",null,,,,,,,,,,,,,,,
math-period,807,1277302,2863.599999964237,"",,,,,,,,,,,2,,,,,
html-keyboard-response,808,1277410,null,"",null,,,,,,,,,,,,,,,
math-period,809,1280200,5456.400000035763,"",,,,,,,,,,,5,,,,,
html-keyboard-response,810,1280304,null,"",null,,,,,,,,,,,,,,,
math-period,811,1282060,3349.900000035763,"",,,,,,,,,,,2,,,,,
html-keyboard-response,812,1282165,null,"",null,,,,,,,,,,,,,,,
math-period,813,1283478,2495.800000011921,"",,,,,,,,,,,6,,,,,
html-keyboard-response,814,1283582,null,"",null,,,,,,,,,,,,,,,
math-period,815,1285068,2834,"",,,,,,,,,,,4,,,,,
html-keyboard-response,816,1285172,null,"",null,,,,,,,,,,,,,,,
math-period,817,1286684,2856.9000000953674,"",,,,,,,,,,,4,,,,,
html-keyboard-response,818,1286788,null,"",null,,,,,,,,,,,,,,,
math-period,819,1288097,2482.5000000596046,"",,,,,,,,,,,4,,,,,
html-keyboard-response,820,1288205,null,"",null,,,,,,,,,,,,,,,
math-period,821,1289900,3286.7000000476837,"",,,,,,,,,,,2,,,,,
html-keyboard-response,822,1290008,null,"",null,,,,,,,,,,,,,,,
math-period,823,1293871,null,"",,,,,,,,,,,,,,,,
html-keyboard-response,824,1294876,null,"Recall Period!",null,,,,,,,,,,,,,,,
call-function,825,1294878,,"",,,,,,,,,,,,,,,,
html-keyboard-response,826,1294985,null,"",null,,,,,,,,,,,,,,,
recall-period,827,1298657,21331.800000071526,"",,,,,,,,,,,spouse,,,,,
html-keyboard-response,828,1298761,null,"",null,,,,,,,,,,,,,,,
recall-period,829,1301299,9401.099999845028,"",,,,,,,,,,,aircraft,,,,,
html-keyboard-response,830,1301402,null,"",null,,,,,,,,,,,,,,,
recall-period,831,1303435,11303.899999856949,"",,,,,,,,,,,keyboard,,,,,
html-keyboard-response,832,1303540,null,"",null,,,,,,,,,,,,,,,
recall-period,833,1305275,5738.19999986887,"",,,,,,,,,,,human,,,,,
html-keyboard-response,834,1305379,null,"",null,,,,,,,,,,,,,,,
recall-period,835,1308155,11730.899999916553,"",,,,,,,,,,,drug,,,,,
html-keyboard-response,836,1308259,null,"",null,,,,,,,,,,,,,,,
recall-period,837,1310328,9452.099999964237,"",,,,,,,,,,,aircraft,,,,,
html-keyboard-response,838,1310432,null,"",null,,,,,,,,,,,,,,,
recall-period,839,1311684,5325.499999880791,"",,,,,,,,,,,bullet,,,,,
html-keyboard-response,840,1311793,null,"",null,,,,,,,,,,,,,,,
recall-period,841,1316887,28687.299999952316,"",,,,,,,,,,,liver,,,,,
html-keyboard-response,842,1316994,null,"",null,,,,,,,,,,,,,,,
recall-period,843,1319770,17428.799999773502,"",,,,,,,,,,,butcher,,,,,
html-keyboard-response,844,1319875,null,"",null,,,,,,,,,,,,,,,
recall-period,845,1323489,30319.400000035763,"",,,,,,,,,,,leopard,,,,,
html-keyboard-response,846,1323592,null,"",null,,,,,,,,,,,,,,,
recall-period,847,1369882,null,"",,,,,,,,,,,,,,,,
html-keyboard-response,848,1370386,null,"Time's Up!",null,,,,,,,,,,,,,,,
html-keyboard-response,849,1371830,1438.9000000357628,"<p> Good job! You have responded correctly to 99% of the trials. </p>
                      <p>Be sure to only press the spacebar if you see a GREEN square, and please keep your accuracy above 80%.</p>
                      <p> Press any key to continue the experiment. </p>",32,,,,,,,,,,,,,,,
html-keyboard-response,850,1375671,3838.2000000476837,"<div style=""font-size:48px;"">Press any key to begin list 8 of 16 </div>",32,,,,,,,,,,,,,,,
html-keyboard-response,851,1378178,null,"<div style=""font-size:60px;"">+</div>",null,,,,,,,,,,,,,,,
html-keyboard-response,852,1378384,null,"<div style=""font-size:42px;"">BARREL</div><img id = ""stim"" ><div class = green_square id = bottomsquare></div>",null,encoding,word_square,,,1,bottomsquare,32,true,,,BARREL,7,,,
html-keyboard-response,853,1378688,200.0999999642372,"<div style=""font-size:42px;"">BARREL</div>",32,,word,BARREL,,,,,,,,,,,,
html-keyboard-response,854,1380195,null,"",null,,word,BARREL,,,,,,,,,,,,
html-keyboard-response,855,1380405,null,"<div style=""font-size:42px;"">SPOON</div><img id = ""stim"" ><div class = green_square id = topsquare></div>",null,encoding,word_square,,,1,topsquare,32,true,,,SPOON,7,,,
html-keyboard-response,856,1380713,207.80000001192093,"<div style=""font-size:42px;"">SPOON</div>",32,,word,SPOON,,,,,,,,,,,,
html-keyboard-response,857,1382219,null,"",null,,word,SPOON,,,,,,,,,,,,
html-keyboard-response,858,1382429,null,"<div style=""font-size:42px;"">PARTY</div><img id = ""stim"" ><div class = red_square id = topsquare></div>",null,encoding,word_square,,,0,topsquare,none,true,,,PARTY,7,,,
html-keyboard-response,859,1382737,null,"<div style=""font-size:42px;"">PARTY</div>",null,,word,PARTY,,,,,,,,,,,,
html-keyboard-response,860,1384243,null,"",null,,word,PARTY,,,,,,,,,,,,
html-keyboard-response,861,1384453,null,"<div style=""font-size:42px;"">UMPIRE</div><img id = ""stim"" ><div class = green_square id = bottomsquare></div>",null,encoding,word_square,,,1,bottomsquare,32,true,,,UMPIRE,7,,,
html-keyboard-response,862,1384758,261.2999999523163,"<div style=""font-size:42px;"">UMPIRE</div>",32,,word,UMPIRE,,,,,,,,,,,,
html-keyboard-response,863,1386263,null,"",null,,word,UMPIRE,,,,,,,,,,,,
html-keyboard-response,864,1386473,null,"<div style=""font-size:42px;"">FRIEND</div><img id = ""stim"" ><div class = red_square id = bottomsquare></div>",null,encoding,word_square,,,0,bottomsquare,none,true,,,FRIEND,7,,,
html-keyboard-response,865,1386781,null,"<div style=""font-size:42px;"">FRIEND</div>",null,,word,FRIEND,,,,,,,,,,,,
html-keyboard-response,866,1388286,null,"",null,,word,FRIEND,,,,,,,,,,,,
html-keyboard-response,867,1388492,null,"<div style=""font-size:42px;"">ROBIN</div><img id = ""stim"" ><div class = green_square id = topsquare></div>",null,encoding,word_square,,,1,topsquare,32,true,,,ROBIN,7,,,
html-keyboard-response,868,1388796,196.5999999642372,"<div style=""font-size:42px;"">ROBIN</div>",32,,word,ROBIN,,,,,,,,,,,,
html-keyboard-response,869,1390303,null,"",null,,word,ROBIN,,,,,,,,,,,,
html-keyboard-response,870,1390513,null,"<div style=""font-size:42px;"">SHEPHERD</div><img id = ""stim"" ><div class = red_square id = topsquare></div>",null,encoding,word_square,,,0,topsquare,none,true,,,SHEPHERD,7,,,
html-keyboard-response,871,1390821,157.0999999642372,"<div style=""font-size:42px;"">SHEPHERD</div>",32,,word,SHEPHERD,,,,,,,,,,,,
html-keyboard-response,872,1392327,null,"",null,,word,SHEPHERD,,,,,,,,,,,,
html-keyboard-response,873,1392537,null,"<div style=""font-size:42px;"">TRUCK</div><img id = ""stim"" ><div class = red_square id = bottomsquare></div>",null,encoding,word_square,,,0,bottomsquare,none,true,,,TRUCK,7,,,
html-keyboard-response,874,1392846,null,"<div style=""font-size:42px;"">TRUCK</div>",null,,word,TRUCK,,,,,,,,,,,,
html-keyboard-response,875,1394353,null,"",null,,word,TRUCK,,,,,,,,,,,,
html-keyboard-response,876,1394558,null,"<div style=""font-size:42px;"">JAPAN</div><img id = ""stim"" ><div class = red_square id = topsquare></div>",null,encoding,word_square,,,0,topsquare,none,true,,,JAPAN,7,,,
html-keyboard-response,877,1394867,null,"<div style=""font-size:42px;"">JAPAN</div>",null,,word,JAPAN,,,,,,,,,,,,
html-keyboard-response,878,1396372,null,"",null,,word,JAPAN,,,,,,,,,,,,
html-keyboard-response,879,1396582,null,"<div style=""font-size:42px;"">ASIA</div><img id = ""stim"" ><div class = green_square id = bottomsquare></div>",null,encoding,word_square,,,1,bottomsquare,32,true,,,ASIA,7,,,
html-keyboard-response,880,1396886,296.30000001192093,"<div style=""font-size:42px;"">ASIA</div>",32,,word,ASIA,,,,,,,,,,,,
html-keyboard-response,881,1398390,null,"",null,,word,ASIA,,,,,,,,,,,,
html-keyboard-response,882,1398599,null,"<div style=""font-size:42px;"">SCALPEL</div><img id = ""stim"" ><div class = green_square id = topsquare></div>",null,encoding,word_square,,,1,topsquare,32,true,,,SCALPEL,7,,,
html-keyboard-response,883,1398905,183.60000002384186,"<div style=""font-size:42px;"">SCALPEL</div>",32,,word,SCALPEL,,,,,,,,,,,,
html-keyboard-response,884,1400410,null,"",null,,word,SCALPEL,,,,,,,,,,,,
html-keyboard-response,885,1400620,null,"<div style=""font-size:42px;"">SEAGULL</div><img id = ""stim"" ><div class = red_square id = bottomsquare></div>",null,encoding,word_square,,,0,bottomsquare,none,true,,,SEAGULL,7,,,
html-keyboard-response,886,1400929,null,"<div style=""font-size:42px;"">SEAGULL</div>",null,,word,SEAGULL,,,,,,,,,,,,
html-keyboard-response,887,1402435,null,"",null,,word,SEAGULL,,,,,,,,,,,,
html-keyboard-response,888,1402641,null,"<div style=""font-size:42px;"">SCARECROW</div><img id = ""stim"" ><div class = red_square id = topsquare></div>",null,encoding,word_square,,,0,topsquare,none,true,,,SCARECROW,7,,,
html-keyboard-response,889,1402950,null,"<div style=""font-size:42px;"">SCARECROW</div>",null,,word,SCARECROW,,,,,,,,,,,,
html-keyboard-response,890,1404455,null,"",null,,word,SCARECROW,,,,,,,,,,,,
html-keyboard-response,891,1404662,null,"<div style=""font-size:42px;"">PAINTING</div><img id = ""stim"" ><div class = green_square id = bottomsquare></div>",null,encoding,word_square,,,1,bottomsquare,32,true,,,PAINTING,7,,,
html-keyboard-response,892,1404971,281.39999997615814,"<div style=""font-size:42px;"">PAINTING</div>",32,,word,PAINTING,,,,,,,,,,,,
html-keyboard-response,893,1406478,null,"",null,,word,PAINTING,,,,,,,,,,,,
html-keyboard-response,894,1406683,null,"<div style=""font-size:42px;"">VESSEL</div><img id = ""stim"" ><div class = green_square id = topsquare></div>",null,encoding,word_square,,,1,topsquare,32,true,,,VESSEL,7,,,
html-keyboard-response,895,1406991,null,"<div style=""font-size:42px;"">VESSEL</div>",null,,word,VESSEL,,,,,,,,,,,,
html-keyboard-response,896,1408497,42.80000001192093,"",32,,word,VESSEL,,,,,,,,,,,,
html-keyboard-response,897,1408704,null,"<div style=""font-size:42px;"">ANCHOR</div><img id = ""stim"" ><div class = red_square id = bottomsquare></div>",null,encoding,word_square,,,0,bottomsquare,none,true,,,ANCHOR,7,,,
html-keyboard-response,898,1409013,null,"<div style=""font-size:42px;"">ANCHOR</div>",null,,word,ANCHOR,,,,,,,,,,,,
html-keyboard-response,899,1410519,null,"",null,,word,ANCHOR,,,,,,,,,,,,
call-function,900,1410522,,"",,,,,,,,,,,,,,,,
html-keyboard-response,901,1410627,null,"",null,,,,,,,,,,,,,,,
math-period,902,1412315,3247.599999964237,"",,,,,,,,,,,3,,,,,
html-keyboard-response,903,1412419,null,"",null,,,,,,,,,,,,,,,
math-period,904,1413601,2269.6999999284744,"",,,,,,,,,,,3,,,,,
html-keyboard-response,905,1413710,null,"",null,,,,,,,,,,,,,,,
math-period,906,1414999,2433.300000011921,"",,,,,,,,,,,6,,,,,
html-keyboard-response,907,1415104,null,"",null,,,,,,,,,,,,,,,
math-period,908,1417223,4133.200000047684,"",,,,,,,,,,,1,,,,,
html-keyboard-response,909,1417332,null,"",null,,,,,,,,,,,,,,,
math-period,910,1419878,4909,"",,,,,,,,,,,4,,,,,
html-keyboard-response,911,1419982,null,"",null,,,,,,,,,,,,,,,
math-period,912,1420977,1912.7999999523163,"",,,,,,,,,,,3,,,,,
html-keyboard-response,913,1421082,null,"",null,,,,,,,,,,,,,,,
math-period,914,1422894,3478.2999999523163,"",,,,,,,,,,,4,,,,,
html-keyboard-response,915,1422998,null,"",null,,,,,,,,,,,,,,,
math-period,916,1424347,2572.900000035763,"",,,,,,,,,,,5,,,,,
html-keyboard-response,917,1424451,null,"",null,,,,,,,,,,,,,,,
math-period,918,1426119,3226.199999988079,"",,,,,,,,,,,3,,,,,
html-keyboard-response,919,1426227,null,"",null,,,,,,,,,,,,,,,
math-period,920,1427943,3289.2000000476837,"",,,,,,,,,,,4,,,,,
html-keyboard-response,921,1428048,null,"",null,,,,,,,,,,,,,,,
math-period,922,1429302,2450.100000023842,"",,,,,,,,,,,3,,,,,
html-keyboard-response,923,1429409,null,"",null,,,,,,,,,,,,,,,
math-period,924,1431016,3087.899999976158,"",,,,,,,,,,,4,,,,,
html-keyboard-response,925,1431122,null,"",null,,,,,,,,,,,,,,,
math-period,926,1434525,null,"",,,,,,,,,,,,,,,,
html-keyboard-response,927,1435529,null,"Recall Period!",null,,,,,,,,,,,,,,,
call-function,928,1435531,,"",,,,,,,,,,,,,,,,
html-keyboard-response,929,1435635,null,"",null,,,,,,,,,,,,,,,
recall-period,930,1437564,9791.600000023842,"",,,,,,,,,,,scalpel,,,,,
html-keyboard-response,931,1437668,null,"",null,,,,,,,,,,,,,,,
recall-period,932,1439355,7280.499999821186,"",,,,,,,,,,,seagull,,,,,
html-keyboard-response,933,1439460,null,"",null,,,,,,,,,,,,,,,
recall-period,934,1441178,8068.199999928474,"",,,,,,,,,,,vessel,,,,,
html-keyboard-response,935,1441281,null,"",null,,,,,,,,,,,,,,,
recall-period,936,1442914,5182,"",,,,,,,,,,,ship,,,,,
html-keyboard-response,937,1443019,null,"",null,,,,,,,,,,,,,,,
recall-period,938,1446279,14491.500000059605,"",,,,,,,,,,,shepherd,,,,,
html-keyboard-response,939,1446383,null,"",null,,,,,,,,,,,,,,,
recall-period,940,1449564,16557.10000014305,"",,,,,,,,,,,japan,,,,,
html-keyboard-response,941,1449670,null,"",null,,,,,,,,,,,,,,,
