trial_type,trial_index,time_elapsed,rt,stimulus,key_press,exp_phase,test_part,word,task,targ_cond,sq_pos,correctKeyCode,correct,value,response,Word,List,RecResp,serial_pos,colorChosen
pavlovia,0,2532,,"",,,,,,,,,,,,,,,,
external-html,1,5208,2524.699999999255,"",,,,,,,,,,,,,,,,
html-keyboard-response,2,8367,3157.7000000001863,"Welcome to the experiment. Press any key to begin.",75,,,,,,,,,,,,,,,
html-keyboard-response,3,19831,11464.299999999814,"<p>You will see a list of words and colored squares in the following task.<p><p>Press the spacebar whenever you see a GREEN square.<p><p>Do not press a key if the square is RED.<p><p>Press the spacebar to continue.</p>",32,,,,,,,,,,,,,,,
html-keyboard-response,4,27769,7431.700000000186,"<p>Please try to remember as many of the words as you can, and try to think about the meaning of each word as it appears.<p><p>After the detection and encoding task you will be asked to solve some math problems for 24 seconds.<p> Please solve as many problems as you can in the time given. <p><p><p>Press the spacebar to continue.</p>",32,,,,,,,,,,,,,,,
html-keyboard-response,5,34793,6518.200000000186,"After solving the math problems, you will be asked to type in as many words <p>from the previous list as you can remember for 75 seconds.<p> If you finish recalling before the 75 seconds are up,<p> just sit tight and try to think of any more words you could have missed. <p><p><p>Press the spacebar to continue.</p>",32,,,,,,,,,,,,,,,
html-keyboard-response,6,38986,3680.899999999441,"There will be 16 lists of words and recall, followed  by<p><p> a recognition phase. The experiment is expected to take up to 90 minutes.<p>We will begin with a brief practice session.<p>Press the spacebar to begin the practice.</p>",32,,,,,,,,,,,,,,,
html-keyboard-response,7,41505,null,"<div style=""font-size:60px;"">+</div>",null,,,,,,,,,,,,,,,
html-keyboard-response,8,41719,null,"<div style=""font-size:42px;"">HAPPY</div><img id = ""stim"" ><div class = red_square id = ""bottomsquare"" ></div>",null,practice,word_square,HAPPY,prac_response,0,Bottom,none,true,,,,,,,
html-keyboard-response,9,42027,null,"<div style=""font-size:42px;"">HAPPY</div>",null,,word,HAPPY,,,,,,,,,,,,
html-keyboard-response,10,43532,null,"",null,,word,HAPPY,,,,,,,,,,,,
html-keyboard-response,11,43733,null,"<div style=""font-size:42px;"">COLD</div><img id = ""stim"" ><div class = green_square id = ""bottomsquare"" ></div>",null,practice,word_square,COLD,prac_response,1,Bottom,32,true,,,,,,,
html-keyboard-response,12,44035,243.90000000037253,"<div style=""font-size:42px;"">COLD</div>",32,,word,COLD,,,,,,,,,,,,
html-keyboard-response,13,45549,null,"",null,,word,COLD,,,,,,,,,,,,
html-keyboard-response,14,45764,null,"<div style=""font-size:42px;"">HEAVY</div><img id = ""stim"" ><div class = green_square id = ""topsquare"" ></div>",null,practice,word_square,HEAVY,prac_response,1,Top,32,true,,,,,,,
html-keyboard-response,15,46073,52.90000000037253,"<div style=""font-size:42px;"">HEAVY</div>",32,,word,HEAVY,,,,,,,,,,,,
html-keyboard-response,16,47581,null,"",null,,word,HEAVY,,,,,,,,,,,,
html-keyboard-response,17,47783,null,"<div style=""font-size:42px;"">FUNNY</div><img id = ""stim"" ><div class = red_square id = ""topsquare"" ></div>",null,practice,word_square,FUNNY,prac_response,0,Top,none,false,,,,,,,
html-keyboard-response,18,48085,242.5,"<div style=""font-size:42px;"">FUNNY</div>",32,,word,FUNNY,,,,,,,,,,,,
html-keyboard-response,19,49588,null,"",null,,word,FUNNY,,,,,,,,,,,,
html-keyboard-response,20,49789,null,"<div style=""font-size:42px;"">SCARY</div><img id = ""stim"" ><div class = green_square id = ""bottomsquare"" ></div>",null,practice,word_square,SCARY,prac_response,1,Bottom,32,true,,,,,,,
html-keyboard-response,21,50101,173.09999999962747,"<div style=""font-size:42px;"">SCARY</div>",32,,word,SCARY,,,,,,,,,,,,
html-keyboard-response,22,51614,null,"",null,,word,SCARY,,,,,,,,,,,,
html-keyboard-response,23,51818,null,"<div style=""font-size:42px;"">PEACEFUL</div><img id = ""stim"" ><div class = green_square id = ""topsquare"" ></div>",null,practice,word_square,PEACEFUL,prac_response,1,Top,32,true,,,,,,,
html-keyboard-response,24,52123,167.79999999981374,"<div style=""font-size:42px;"">PEACEFUL</div>",32,,word,PEACEFUL,,,,,,,,,,,,
html-keyboard-response,25,53626,null,"",null,,word,PEACEFUL,,,,,,,,,,,,
html-keyboard-response,26,53841,null,"<div style=""font-size:42px;"">LITTLE</div><img id = ""stim"" ><div class = red_square id = ""bottomsquare"" ></div>",null,practice,word_square,LITTLE,prac_response,0,Bottom,none,true,,,,,,,
html-keyboard-response,27,54146,null,"<div style=""font-size:42px;"">LITTLE</div>",null,,word,LITTLE,,,,,,,,,,,,
html-keyboard-response,28,55655,null,"",null,,word,LITTLE,,,,,,,,,,,,
html-keyboard-response,29,55859,null,"<div style=""font-size:42px;"">TIRED</div><img id = ""stim"" ><div class = red_square id = ""topsquare"" ></div>",null,practice,word_square,TIRED,prac_response,0,Top,none,false,,,,,,,
html-keyboard-response,30,56161,207.19999999925494,"<div style=""font-size:42px;"">TIRED</div>",32,,word,TIRED,,,,,,,,,,,,
html-keyboard-response,31,57669,null,"",null,,word,TIRED,,,,,,,,,,,,
html-keyboard-response,32,57872,null,"<div style=""font-size:42px;"">ENTERTAINING</div><img id = ""stim"" ><div class = red_square id = ""bottomsquare"" ></div>",null,practice,word_square,ENTERTAINING,prac_response,0,Bottom,none,true,,,,,,,
html-keyboard-response,33,58181,null,"<div style=""font-size:42px;"">ENTERTAINING</div>",null,,word,ENTERTAINING,,,,,,,,,,,,
html-keyboard-response,34,59690,null,"",null,,word,ENTERTAINING,,,,,,,,,,,,
html-keyboard-response,35,59893,null,"<div style=""font-size:42px;"">GRATEFUL</div><img id = ""stim"" ><div class = green_square id = ""bottomsquare"" ></div>",null,practice,word_square,GRATEFUL,prac_response,1,Bottom,32,true,,,,,,,
html-keyboard-response,36,60196,205.70000000018626,"<div style=""font-size:42px;"">GRATEFUL</div>",32,,word,GRATEFUL,,,,,,,,,,,,
html-keyboard-response,37,61697,null,"",null,,word,GRATEFUL,,,,,,,,,,,,
html-keyboard-response,38,61900,null,"<div style=""font-size:42px;"">LOUD</div><img id = ""stim"" ><div class = red_square id = ""topsquare"" ></div>",null,practice,word_square,LOUD,prac_response,0,Top,none,false,,,,,,,
html-keyboard-response,39,62201,null,"<div style=""font-size:42px;"">LOUD</div>",null,,word,LOUD,,,,,,,,,,,,
html-keyboard-response,40,63702,249.79999999981374,"",32,,word,LOUD,,,,,,,,,,,,
html-keyboard-response,41,63905,null,"<div style=""font-size:42px;"">SMART</div><img id = ""stim"" ><div class = green_square id = ""topsquare"" ></div>",null,practice,word_square,SMART,prac_response,1,Top,32,false,,,,,,,
html-keyboard-response,42,64207,null,"<div style=""font-size:42px;"">SMART</div>",null,,word,SMART,,,,,,,,,,,,
html-keyboard-response,43,65720,null,"",null,,word,SMART,,,,,,,,,,,,
html-keyboard-response,44,65923,null,"<div style=""font-size:42px;"">SMOOTH</div><img id = ""stim"" ><div class = green_square id = ""bottomsquare"" ></div>",null,practice,word_square,SMOOTH,prac_response,1,Bottom,32,false,,,,,,,
html-keyboard-response,45,66228,null,"<div style=""font-size:42px;"">SMOOTH</div>",null,,word,SMOOTH,,,,,,,,,,,,
html-keyboard-response,46,67733,null,"",null,,word,SMOOTH,,,,,,,,,,,,
html-keyboard-response,47,67949,null,"<div style=""font-size:42px;"">DISHONEST</div><img id = ""stim"" ><div class = red_square id = ""bottomsquare"" ></div>",null,practice,word_square,DISHONEST,prac_response,0,Bottom,none,true,,,,,,,
html-keyboard-response,48,68257,null,"<div style=""font-size:42px;"">DISHONEST</div>",null,,word,DISHONEST,,,,,,,,,,,,
html-keyboard-response,49,69765,null,"",null,,word,DISHONEST,,,,,,,,,,,,
html-keyboard-response,50,69979,null,"<div style=""font-size:42px;"">WEALTHY</div><img id = ""stim"" ><div class = green_square id = ""topsquare"" ></div>",null,practice,word_square,WEALTHY,prac_response,1,Top,32,true,,,,,,,
html-keyboard-response,51,70285,168.3999999994412,"<div style=""font-size:42px;"">WEALTHY</div>",32,,word,WEALTHY,,,,,,,,,,,,
html-keyboard-response,52,71799,null,"",null,,word,WEALTHY,,,,,,,,,,,,
html-keyboard-response,53,72001,null,"<div style=""font-size:42px;"">BEAUTIFUL</div><img id = ""stim"" ><div class = red_square id = ""topsquare"" ></div>",null,practice,word_square,BEAUTIFUL,prac_response,0,Top,none,false,,,,,,,
html-keyboard-response,54,72303,218.90000000037253,"<div style=""font-size:42px;"">BEAUTIFUL</div>",32,,word,BEAUTIFUL,,,,,,,,,,,,
html-keyboard-response,55,73805,null,"",null,,word,BEAUTIFUL,,,,,,,,,,,,
html-keyboard-response,56,83014,9207.299999999814,"<p> Uh oh. You responded correctly to only 63% of the trials. </p>
                  <p>Be sure to only press the spacebar if you see a GREEN square, and please keep your accuracy above 80%.</p>
                  <p>We're going to try once more to make sure you understand the task. press any key to continue.</p>",32,,,,,,,,,,,,,,,
html-keyboard-response,57,84574,1559.2999999998137,"<p>You will see a list of words and colored squares in the following task.<p><p>Press the spacebar whenever you see a GREEN square.<p><p>Do not press a key if the square is RED<p><p>Press the spacebar to continue.</p>",32,,,,,,,,,,,,,,,
html-keyboard-response,58,87081,null,"<div style=""font-size:60px;"">+</div>",null,,,,,,,,,,,,,,,
html-keyboard-response,59,87285,null,"<div style=""font-size:42px;"">HAPPY</div><img id = ""stim"" ><div class = red_square id = ""bottomsquare"" ></div>",null,practice2,word_square,HAPPY,prac_response,0,Bottom,none,true,,,,,,,
html-keyboard-response,60,87597,null,"<div style=""font-size:42px;"">HAPPY</div>",null,,word,HAPPY,,,,,,,,,,,,
html-keyboard-response,61,89108,null,"",null,,word,HAPPY,,,,,,,,,,,,
html-keyboard-response,62,89309,null,"<div style=""font-size:42px;"">COLD</div><img id = ""stim"" ><div class = green_square id = ""bottomsquare"" ></div>",null,practice2,word_square,,prac_response,1,Bottom,32,true,,,,,,,
html-keyboard-response,63,89610,232.70000000018626,"<div style=""font-size:42px;"">COLD</div>",32,,word,COLD,,,,,,,,,,,,
html-keyboard-response,64,91126,null,"",null,,word,COLD,,,,,,,,,,,,
html-keyboard-response,65,91341,null,"<div style=""font-size:42px;"">HEAVY</div><img id = ""stim"" ><div class = green_square id = ""topsquare"" ></div>",null,practice2,word_square,,prac_response,1,Top,32,true,,,,,,,
html-keyboard-response,66,91642,216.80000000074506,"<div style=""font-size:42px;"">HEAVY</div>",32,,word,HEAVY,,,,,,,,,,,,
html-keyboard-response,67,93150,null,"",null,,word,HEAVY,,,,,,,,,,,,
html-keyboard-response,68,93366,null,"<div style=""font-size:42px;"">FUNNY</div><img id = ""stim"" ><div class = red_square id = ""topsquare"" ></div>",null,practice2,word_square,,prac_response,0,Top,none,true,,,,,,,
html-keyboard-response,69,93675,null,"<div style=""font-size:42px;"">FUNNY</div>",null,,word,FUNNY,,,,,,,,,,,,
html-keyboard-response,70,95182,null,"",null,,word,FUNNY,,,,,,,,,,,,
html-keyboard-response,71,95385,null,"<div style=""font-size:42px;"">SCARY</div><img id = ""stim"" ><div class = green_square id = ""bottomsquare"" ></div>",null,practice2,word_square,,prac_response,1,Bottom,32,true,,,,,,,
html-keyboard-response,72,95697,197.79999999981374,"<div style=""font-size:42px;"">SCARY</div>",32,,word,SCARY,,,,,,,,,,,,
html-keyboard-response,73,97209,null,"",null,,word,SCARY,,,,,,,,,,,,
html-keyboard-response,74,97413,null,"<div style=""font-size:42px;"">PEACEFUL</div><img id = ""stim"" ><div class = green_square id = ""topsquare"" ></div>",null,practice2,word_square,,prac_response,1,Top,32,true,,,,,,,
html-keyboard-response,75,97724,128.80000000074506,"<div style=""font-size:42px;"">PEACEFUL</div>",32,,word,PEACEFUL,,,,,,,,,,,,
html-keyboard-response,76,99238,null,"",null,,word,PEACEFUL,,,,,,,,,,,,
html-keyboard-response,77,99439,null,"<div style=""font-size:42px;"">LITTLE</div><img id = ""stim"" ><div class = red_square id = ""bottomsquare"" ></div>",null,practice2,word_square,LITTLE,prac_response,0,Bottom,none,true,,,,,,,
html-keyboard-response,78,99749,null,"<div style=""font-size:42px;"">LITTLE</div>",null,,word,LITTLE,,,,,,,,,,,,
html-keyboard-response,79,101253,null,"",null,,word,LITTLE,,,,,,,,,,,,
html-keyboard-response,80,101456,null,"<div style=""font-size:42px;"">TIRED</div><img id = ""stim"" ><div class = red_square id = ""topsquare"" ></div>",null,practice2,word_square,,prac_response,0,Top,none,true,,,,,,,
html-keyboard-response,81,101766,null,"<div style=""font-size:42px;"">TIRED</div>",null,,word,TIRED,,,,,,,,,,,,
html-keyboard-response,82,103270,null,"",null,,word,TIRED,,,,,,,,,,,,
html-keyboard-response,83,103471,null,"<div style=""font-size:42px;"">ENTERTAINING</div><img id = ""stim"" ><div class = red_square id = ""bottomsquare"" ></div>",null,practice2,word_square,ENTERTAINING,prac_response,0,Bottom,none,true,,,,,,,
html-keyboard-response,84,103781,null,"<div style=""font-size:42px;"">ENTERTAINING</div>",null,,word,ENTERTAINING,,,,,,,,,,,,
html-keyboard-response,85,105295,null,"",null,,word,ENTERTAINING,,,,,,,,,,,,
html-keyboard-response,86,105499,null,"<div style=""font-size:42px;"">GRATEFUL</div><img id = ""stim"" ><div class = green_square id = ""bottomsquare"" ></div>",null,practice2,word_square,,prac_response,1,Bottom,32,true,,,,,,,
html-keyboard-response,87,105800,221,"<div style=""font-size:42px;"">GRATEFUL</div>",32,,word,GRATEFUL,,,,,,,,,,,,
html-keyboard-response,88,107306,null,"",null,,word,GRATEFUL,,,,,,,,,,,,
html-keyboard-response,89,107509,null,"<div style=""font-size:42px;"">LOUD</div><img id = ""stim"" ><div class = red_square id = ""topsquare"" ></div>",null,practice2,word_square,,prac_response,0,Top,none,true,,,,,,,
html-keyboard-response,90,107820,null,"<div style=""font-size:42px;"">LOUD</div>",null,,word,LOUD,,,,,,,,,,,,
html-keyboard-response,91,109334,null,"",null,,word,LOUD,,,,,,,,,,,,
html-keyboard-response,92,109550,null,"<div style=""font-size:42px;"">SMART</div><img id = ""stim"" ><div class = green_square id = ""topsquare"" ></div>",null,practice2,word_square,,prac_response,1,Top,32,true,,,,,,,
html-keyboard-response,93,109858,113.19999999925494,"<div style=""font-size:42px;"">SMART</div>",32,,word,SMART,,,,,,,,,,,,
html-keyboard-response,94,111365,null,"",null,,word,SMART,,,,,,,,,,,,
html-keyboard-response,95,111567,null,"<div style=""font-size:42px;"">SMOOTH</div><img id = ""stim"" ><div class = green_square id = ""bottomsquare"" ></div>",null,practice2,word_square,,prac_response,1,Bottom,32,true,,,,,,,
html-keyboard-response,96,111879,192.30000000074506,"<div style=""font-size:42px;"">SMOOTH</div>",32,,word,SMOOTH,,,,,,,,,,,,
html-keyboard-response,97,113381,null,"",null,,word,SMOOTH,,,,,,,,,,,,
html-keyboard-response,98,113597,null,"<div style=""font-size:42px;"">DISHONEST</div><img id = ""stim"" ><div class = red_square id = ""bottomsquare"" ></div>",null,practice2,word_square,DISHONEST,prac_response,0,Bottom,none,true,,,,,,,
html-keyboard-response,99,113906,null,"<div style=""font-size:42px;"">DISHONEST</div>",null,,word,DISHONEST,,,,,,,,,,,,
html-keyboard-response,100,115416,null,"",null,,word,DISHONEST,,,,,,,,,,,,
html-keyboard-response,101,115618,null,"<div style=""font-size:42px;"">WEALTHY</div><img id = ""stim"" ><div class = green_square id = ""topsquare"" ></div>",null,practice2,word_square,,prac_response,1,Top,32,true,,,,,,,
html-keyboard-response,102,115930,167.19999999925494,"<div style=""font-size:42px;"">WEALTHY</div>",32,,word,WEALTHY,,,,,,,,,,,,
html-keyboard-response,103,117441,null,"",null,,word,WEALTHY,,,,,,,,,,,,
html-keyboard-response,104,117642,null,"<div style=""font-size:42px;"">BEAUTIFUL</div><img id = ""stim"" ><div class = red_square id = ""topsquare"" ></div>",null,practice2,word_square,,prac_response,0,Top,none,false,,,,,,,
html-keyboard-response,105,117957,null,"<div style=""font-size:42px;"">BEAUTIFUL</div>",null,,word,BEAUTIFUL,,,,,,,,,,,,
html-keyboard-response,106,119459,null,"",null,,word,BEAUTIFUL,,,,,,,,,,,,
html-keyboard-response,107,124114,4654.5999999996275,"<p> Good job! You responded correctly to 100% of the trials. </p>
                    <p>Be sure to only press the spacebar if you see a GREEN square, and please keep your accuracy above 80%.</p>
                    <p>Press any key to begin the math and recall sections. Thank you! </p>",32,,,,,,,,,,,,,,,
call-function,108,124115,,"",,,,,,,,,,,,,,,,
html-keyboard-response,109,124221,null,"",null,,,,,,,,,,,,,,,
math-period,110,130003,9705.800000000745,"",,,,,,,,,,,5numpad,,,,,
html-keyboard-response,111,130107,null,"",null,,,,,,,,,,,,,,,
math-period,112,134291,7808,"",,,,,,,,,,,2,,,,,
html-keyboard-response,113,134396,null,"",null,,,,,,,,,,,,,,,
math-period,114,139060,8791.100000000559,"",,,,,,,,,,,5,,,,,
html-keyboard-response,115,139162,null,"",null,,,,,,,,,,,,,,,
math-period,116,142884,7084.0999999996275,"",,,,,,,,,,,1,,,,,
html-keyboard-response,117,142986,null,"",null,,,,,,,,,,,,,,,
math-period,118,146741,7027.9000000003725,"",,,,,,,,,,,4,,,,,
html-keyboard-response,119,146842,null,"",null,,,,,,,,,,,,,,,
math-period,120,148123,null,"",,,,,,,,,,,,,,,,
html-keyboard-response,121,149130,null,"Recall Period!",null,,,,,,,,,,,,,,,
call-function,122,149130,,"",,,,,,,,,,,,,,,,
html-keyboard-response,123,149238,null,"",null,,,,,,,,,,,,,,,
recall-period,124,158318,9079.700000000186,"",,,,,,,,,,,,,,,,
html-keyboard-response,125,158431,null,"",null,,,,,,,,,,,,,,,
recall-period,126,224134,null,"",,,,,,,,,,,,,,,,
html-keyboard-response,127,224645,null,"Time's Up!",null,,,,,,,,,,,,,,,
html-keyboard-response,128,229982,5335.899999999441,"<p>We will now begin the experiment!<p><p>Please try to remember all words from each list.<p><p>Press the spacebar whenever you see a GREEN square.<p><p><p><p>Press the spacebar to begin.</p>",32,,,,,,,,,,,,,,,
html-keyboard-response,129,233286,2800.600000000559,"<div style=""font-size:48px;"">Press any key to begin list 1 of 16 </div>",32,,,,,,,,,,,,,,,
html-keyboard-response,130,235809,null,"<div style=""font-size:60px;"">+</div>",null,,,,,,,,,,,,,,,
html-keyboard-response,131,236026,null,"<div style=""font-size:42px;"">SKETCH</div><img id = ""stim"" ><div class = green_square id = topsquare></div>",null,encoding,word_square,,,1,topsquare,32,true,,,SKETCH,0,,,
html-keyboard-response,132,236327,292,"<div style=""font-size:42px;"">SKETCH</div>",32,,word,SKETCH,,,,,,,,,,,,
html-keyboard-response,133,237842,null,"",null,,word,SKETCH,,,,,,,,,,,,
html-keyboard-response,134,238058,null,"<div style=""font-size:42px;"">SCALLOP</div><img id = ""stim"" ><div class = red_square id = bottomsquare></div>",null,encoding,word_square,,,0,bottomsquare,none,true,,,SCALLOP,0,,,
html-keyboard-response,135,238366,null,"<div style=""font-size:42px;"">SCALLOP</div>",null,,word,SCALLOP,,,,,,,,,,,,
html-keyboard-response,136,239874,null,"",null,,word,SCALLOP,,,,,,,,,,,,
html-keyboard-response,137,240090,null,"<div style=""font-size:42px;"">COD</div><img id = ""stim"" ><div class = green_square id = bottomsquare></div>",null,encoding,word_square,,,1,bottomsquare,32,true,,,COD,0,,,
html-keyboard-response,138,240392,219.70000000018626,"<div style=""font-size:42px;"">COD</div>",32,,word,COD,,,,,,,,,,,,
html-keyboard-response,139,241903,null,"",null,,word,COD,,,,,,,,,,,,
html-keyboard-response,140,242118,null,"<div style=""font-size:42px;"">DRESS</div><img id = ""stim"" ><div class = green_square id = topsquare></div>",null,encoding,word_square,,,1,topsquare,32,true,,,DRESS,0,,,
html-keyboard-response,141,242429,null,"<div style=""font-size:42px;"">DRESS</div>",null,,word,DRESS,,,,,,,,,,,,
html-keyboard-response,142,243941,97.20000000018626,"",32,,word,DRESS,,,,,,,,,,,,
html-keyboard-response,143,244156,null,"<div style=""font-size:42px;"">SILK</div><img id = ""stim"" ><div class = red_square id = topsquare></div>",null,encoding,word_square,,,0,topsquare,none,true,,,SILK,0,,,
html-keyboard-response,144,244469,null,"<div style=""font-size:42px;"">SILK</div>",null,,word,SILK,,,,,,,,,,,,
html-keyboard-response,145,245981,null,"",null,,word,SILK,,,,,,,,,,,,
html-keyboard-response,146,246197,null,"<div style=""font-size:42px;"">CANYON</div><img id = ""stim"" ><div class = red_square id = bottomsquare></div>",null,encoding,word_square,,,0,bottomsquare,none,true,,,CANYON,0,,,
html-keyboard-response,147,246503,null,"<div style=""font-size:42px;"">CANYON</div>",null,,word,CANYON,,,,,,,,,,,,
html-keyboard-response,148,248018,null,"",null,,word,CANYON,,,,,,,,,,,,
html-keyboard-response,149,248234,null,"<div style=""font-size:42px;"">JOURNAL</div><img id = ""stim"" ><div class = green_square id = bottomsquare></div>",null,encoding,word_square,,,1,bottomsquare,32,true,,,JOURNAL,0,,,
html-keyboard-response,150,248544,308.79999999981374,"<div style=""font-size:42px;"">JOURNAL</div>",32,,word,JOURNAL,,,,,,,,,,,,
html-keyboard-response,151,250048,null,"",null,,word,JOURNAL,,,,,,,,,,,,
html-keyboard-response,152,250264,null,"<div style=""font-size:42px;"">NOVEL</div><img id = ""stim"" ><div class = green_square id = topsquare></div>",null,encoding,word_square,,,1,topsquare,32,true,,,NOVEL,0,,,
html-keyboard-response,153,250574,null,"<div style=""font-size:42px;"">NOVEL</div>",null,,word,NOVEL,,,,,,,,,,,,
html-keyboard-response,154,252089,321.5,"",32,,word,NOVEL,,,,,,,,,,,,
html-keyboard-response,155,252306,null,"<div style=""font-size:42px;"">CIGAR</div><img id = ""stim"" ><div class = red_square id = topsquare></div>",null,encoding,word_square,,,0,topsquare,none,true,,,CIGAR,0,,,
html-keyboard-response,156,252614,null,"<div style=""font-size:42px;"">CIGAR</div>",null,,word,CIGAR,,,,,,,,,,,,
html-keyboard-response,157,254120,null,"",null,,word,CIGAR,,,,,,,,,,,,
html-keyboard-response,158,254336,null,"<div style=""font-size:42px;"">RADISH</div><img id = ""stim"" ><div class = red_square id = bottomsquare></div>",null,encoding,word_square,,,0,bottomsquare,none,true,,,RADISH,0,,,
html-keyboard-response,159,254643,null,"<div style=""font-size:42px;"">RADISH</div>",null,,word,RADISH,,,,,,,,,,,,
html-keyboard-response,160,256145,null,"",null,,word,RADISH,,,,,,,,,,,,
html-keyboard-response,161,256347,null,"<div style=""font-size:42px;"">LIVER</div><img id = ""stim"" ><div class = green_square id = bottomsquare></div>",null,encoding,word_square,,,1,bottomsquare,32,true,,,LIVER,0,,,
html-keyboard-response,162,256659,null,"<div style=""font-size:42px;"">LIVER</div>",null,,word,LIVER,,,,,,,,,,,,
html-keyboard-response,163,258167,100.59999999962747,"",32,,word,LIVER,,,,,,,,,,,,
html-keyboard-response,164,258381,null,"<div style=""font-size:42px;"">ASIA</div><img id = ""stim"" ><div class = green_square id = topsquare></div>",null,encoding,word_square,,,1,topsquare,32,true,,,ASIA,0,,,
html-keyboard-response,165,258693,null,"<div style=""font-size:42px;"">ASIA</div>",null,,word,ASIA,,,,,,,,,,,,
html-keyboard-response,166,260197,322.59999999962747,"",32,,word,ASIA,,,,,,,,,,,,
html-keyboard-response,167,260414,null,"<div style=""font-size:42px;"">RABBIT</div><img id = ""stim"" ><div class = red_square id = topsquare></div>",null,encoding,word_square,,,0,topsquare,none,true,,,RABBIT,0,,,
html-keyboard-response,168,260721,null,"<div style=""font-size:42px;"">RABBIT</div>",null,,word,RABBIT,,,,,,,,,,,,
html-keyboard-response,169,262231,null,"",null,,word,RABBIT,,,,,,,,,,,,
html-keyboard-response,170,262439,null,"<div style=""font-size:42px;"">CHISEL</div><img id = ""stim"" ><div class = red_square id = bottomsquare></div>",null,encoding,word_square,,,0,bottomsquare,none,true,,,CHISEL,0,,,
html-keyboard-response,171,262741,209.70000000018626,"<div style=""font-size:42px;"">CHISEL</div>",32,,word,CHISEL,,,,,,,,,,,,
html-keyboard-response,172,264242,null,"",null,,word,CHISEL,,,,,,,,,,,,
html-keyboard-response,173,264443,null,"<div style=""font-size:42px;"">CAMEL</div><img id = ""stim"" ><div class = green_square id = bottomsquare></div>",null,encoding,word_square,,,1,bottomsquare,32,true,,,CAMEL,0,,,
html-keyboard-response,174,264752,189.79999999981374,"<div style=""font-size:42px;"">CAMEL</div>",32,,word,CAMEL,,,,,,,,,,,,
html-keyboard-response,175,266262,null,"",null,,word,CAMEL,,,,,,,,,,,,
html-keyboard-response,176,266465,null,"<div style=""font-size:42px;"">SUMMIT</div><img id = ""stim"" ><div class = red_square id = topsquare></div>",null,encoding,word_square,,,0,topsquare,none,true,,,SUMMIT,0,,,
html-keyboard-response,177,266775,null,"<div style=""font-size:42px;"">SUMMIT</div>",null,,word,SUMMIT,,,,,,,,,,,,
html-keyboard-response,178,268287,null,"",null,,word,SUMMIT,,,,,,,,,,,,
call-function,179,268287,,"",,,,,,,,,,,,,,,,
html-keyboard-response,180,268389,null,"",null,,,,,,,,,,,,,,,
math-period,181,273290,9401.099999999627,"",,,,,,,,,,,1,,,,,
html-keyboard-response,182,273397,null,"",null,,,,,,,,,,,,,,,
math-period,183,276411,5560.799999999814,"",,,,,,,,,,,5,,,,,
html-keyboard-response,184,276513,null,"",null,,,,,,,,,,,,,,,
math-period,185,278059,2536.5999999996275,"",,,,,,,,,,,5,,,,,
html-keyboard-response,186,278171,null,"",null,,,,,,,,,,,,,,,
math-period,187,281843,7021.999999999069,"",,,,,,,,,,,0,,,,,
html-keyboard-response,188,281944,null,"",null,,,,,,,,,,,,,,,
math-period,189,284595,4958.100000000559,"",,,,,,,,,,,5,,,,,
html-keyboard-response,190,284708,null,"",null,,,,,,,,,,,,,,,
math-period,191,287300,4957.9000000003725,"",,,,,,,,,,,6,,,,,
html-keyboard-response,192,287403,null,"",null,,,,,,,,,,,,,,,
math-period,193,290172,5255.399999999441,"",,,,,,,,,,,1,,,,,
html-keyboard-response,194,290275,null,"",null,,,,,,,,,,,,,,,
math-period,195,292292,null,"",,,,,,,,,,,,,,,,
html-keyboard-response,196,293298,null,"Recall Period!",null,,,,,,,,,,,,,,,
call-function,197,293298,,"",,,,,,,,,,,,,,,,
html-keyboard-response,198,293406,null,"",null,,,,,,,,,,,,,,,
recall-period,199,297229,22263,"",,,,,,,,,,,sketch,,,,,
html-keyboard-response,200,297330,null,"",null,,,,,,,,,,,,,,,
recall-period,201,298725,4960.300000002608,"",,,,,,,,,,,asia,,,,,
html-keyboard-response,202,298836,null,"",null,,,,,,,,,,,,,,,
recall-period,203,300693,7194.699999998324,"",,,,,,,,,,,silk,,,,,
html-keyboard-response,204,300805,null,"",null,,,,,,,,,,,,,,,
recall-period,205,338489,221778.49999999907,"",,,,,,,,,,,cod,,,,,
html-keyboard-response,206,338596,null,"",null,,,,,,,,,,,,,,,
recall-period,207,368299,null,"",,,,,,,,,,,,,,,,
html-keyboard-response,208,368813,null,"Time's Up!",null,,,,,,,,,,,,,,,
html-keyboard-response,209,373845,5030.9000000003725,"<p> Good job! You have responded correctly to 100% of the trials. </p>
                      <p>Be sure to only press the spacebar if you see a GREEN square, and please keep your accuracy above 80%.</p>
                      <p> Press any key to continue the experiment. </p>",32,,,,,,,,,,,,,,,
html-keyboard-response,210,376133,2287.199999999255,"<div style=""font-size:48px;"">Press any key to begin list 2 of 16 </div>",32,,,,,,,,,,,,,,,
html-keyboard-response,211,378643,null,"<div style=""font-size:60px;"">+</div>",null,,,,,,,,,,,,,,,
html-keyboard-response,212,378845,null,"<div style=""font-size:42px;"">GOBLIN</div><img id = ""stim"" ><div class = red_square id = topsquare></div>",null,encoding,word_square,,,0,topsquare,none,true,,,GOBLIN,1,,,
html-keyboard-response,213,379158,null,"<div style=""font-size:42px;"">GOBLIN</div>",null,,word,GOBLIN,,,,,,,,,,,,
html-keyboard-response,214,380668,null,"",null,,word,GOBLIN,,,,,,,,,,,,
html-keyboard-response,215,380870,null,"<div style=""font-size:42px;"">PUPIL</div><img id = ""stim"" ><div class = green_square id = bottomsquare></div>",null,encoding,word_square,,,1,bottomsquare,32,true,,,PUPIL,1,,,
html-keyboard-response,216,381179,null,"<div style=""font-size:42px;"">PUPIL</div>",null,,word,PUPIL,,,,,,,,,,,,
html-keyboard-response,217,382680,73.3999999994412,"",32,,word,PUPIL,,,,,,,,,,,,
html-keyboard-response,218,382882,null,"<div style=""font-size:42px;"">SEASHORE</div><img id = ""stim"" ><div class = red_square id = bottomsquare></div>",null,encoding,word_square,,,0,bottomsquare,none,true,,,SEASHORE,1,,,
html-keyboard-response,219,383190,null,"<div style=""font-size:42px;"">SEASHORE</div>",null,,word,SEASHORE,,,,,,,,,,,,
html-keyboard-response,220,384693,null,"",null,,word,SEASHORE,,,,,,,,,,,,
html-keyboard-response,221,384909,null,"<div style=""font-size:42px;"">THICKET</div><img id = ""stim"" ><div class = red_square id = topsquare></div>",null,encoding,word_square,,,0,topsquare,none,true,,,THICKET,1,,,
html-keyboard-response,222,385218,null,"<div style=""font-size:42px;"">THICKET</div>",null,,word,THICKET,,,,,,,,,,,,
html-keyboard-response,223,386720,null,"",null,,word,THICKET,,,,,,,,,,,,
html-keyboard-response,224,386936,null,"<div style=""font-size:42px;"">BUREAU</div><img id = ""stim"" ><div class = green_square id = topsquare></div>",null,encoding,word_square,,,1,topsquare,32,true,,,BUREAU,1,,,
html-keyboard-response,225,387244,181.69999999925494,"<div style=""font-size:42px;"">BUREAU</div>",32,,word,BUREAU,,,,,,,,,,,,
html-keyboard-response,226,388751,null,"",null,,word,BUREAU,,,,,,,,,,,,
html-keyboard-response,227,388954,null,"<div style=""font-size:42px;"">DRESSER</div><img id = ""stim"" ><div class = green_square id = bottomsquare></div>",null,encoding,word_square,,,1,bottomsquare,32,true,,,DRESSER,1,,,
html-keyboard-response,228,389269,null,"<div style=""font-size:42px;"">DRESSER</div>",null,,word,DRESSER,,,,,,,,,,,,
html-keyboard-response,229,390779,16.40000000037253,"",32,,word,DRESSER,,,,,,,,,,,,
html-keyboard-response,230,390986,null,"<div style=""font-size:42px;"">HATCHET</div><img id = ""stim"" ><div class = red_square id = bottomsquare></div>",null,encoding,word_square,,,0,bottomsquare,none,true,,,HATCHET,1,,,
html-keyboard-response,231,391299,null,"<div style=""font-size:42px;"">HATCHET</div>",null,,word,HATCHET,,,,,,,,,,,,
html-keyboard-response,232,392814,null,"",null,,word,HATCHET,,,,,,,,,,,,
html-keyboard-response,233,393029,null,"<div style=""font-size:42px;"">SPOON</div><img id = ""stim"" ><div class = red_square id = topsquare></div>",null,encoding,word_square,,,0,topsquare,none,true,,,SPOON,1,,,
html-keyboard-response,234,393333,null,"<div style=""font-size:42px;"">SPOON</div>",null,,word,SPOON,,,,,,,,,,,,
html-keyboard-response,235,394845,null,"",null,,word,SPOON,,,,,,,,,,,,
html-keyboard-response,236,395060,null,"<div style=""font-size:42px;"">SIDEWALK</div><img id = ""stim"" ><div class = green_square id = topsquare></div>",null,encoding,word_square,,,1,topsquare,32,true,,,SIDEWALK,1,,,
html-keyboard-response,237,395371,146.6000000005588,"<div style=""font-size:42px;"">SIDEWALK</div>",32,,word,SIDEWALK,,,,,,,,,,,,
html-keyboard-response,238,396877,null,"",null,,word,SIDEWALK,,,,,,,,,,,,
html-keyboard-response,239,397080,null,"<div style=""font-size:42px;"">HIKER</div><img id = ""stim"" ><div class = green_square id = bottomsquare></div>",null,encoding,word_square,,,1,bottomsquare,32,true,,,HIKER,1,,,
html-keyboard-response,240,397394,null,"<div style=""font-size:42px;"">HIKER</div>",null,,word,HIKER,,,,,,,,,,,,
html-keyboard-response,241,398895,4.7000000001862645,"",32,,word,HIKER,,,,,,,,,,,,
html-keyboard-response,242,399111,null,"<div style=""font-size:42px;"">MONSTER</div><img id = ""stim"" ><div class = red_square id = bottomsquare></div>",null,encoding,word_square,,,0,bottomsquare,none,true,,,MONSTER,1,,,
html-keyboard-response,243,399419,null,"<div style=""font-size:42px;"">MONSTER</div>",null,,word,MONSTER,,,,,,,,,,,,
html-keyboard-response,244,400933,null,"",null,,word,MONSTER,,,,,,,,,,,,
html-keyboard-response,245,401134,null,"<div style=""font-size:42px;"">GALLON</div><img id = ""stim"" ><div class = red_square id = topsquare></div>",null,encoding,word_square,,,0,topsquare,none,true,,,GALLON,1,,,
html-keyboard-response,246,401443,null,"<div style=""font-size:42px;"">GALLON</div>",null,,word,GALLON,,,,,,,,,,,,
html-keyboard-response,247,402957,null,"",null,,word,GALLON,,,,,,,,,,,,
html-keyboard-response,248,403173,null,"<div style=""font-size:42px;"">MOUNTAIN</div><img id = ""stim"" ><div class = green_square id = topsquare></div>",null,encoding,word_square,,,1,topsquare,32,true,,,MOUNTAIN,1,,,
html-keyboard-response,249,403474,234.20000000018626,"<div style=""font-size:42px;"">MOUNTAIN</div>",32,,word,MOUNTAIN,,,,,,,,,,,,
html-keyboard-response,250,404984,null,"",null,,word,MOUNTAIN,,,,,,,,,,,,
html-keyboard-response,251,405189,null,"<div style=""font-size:42px;"">TEACHER</div><img id = ""stim"" ><div class = green_square id = bottomsquare></div>",null,encoding,word_square,,,1,bottomsquare,32,true,,,TEACHER,1,,,
html-keyboard-response,252,405502,null,"<div style=""font-size:42px;"">TEACHER</div>",null,,word,TEACHER,,,,,,,,,,,,
html-keyboard-response,253,407010,465.30000000074506,"",32,,word,TEACHER,,,,,,,,,,,,
html-keyboard-response,254,407225,null,"<div style=""font-size:42px;"">RELISH</div><img id = ""stim"" ><div class = red_square id = bottomsquare></div>",null,encoding,word_square,,,0,bottomsquare,none,true,,,RELISH,1,,,
html-keyboard-response,255,407536,null,"<div style=""font-size:42px;"">RELISH</div>",null,,word,RELISH,,,,,,,,,,,,
html-keyboard-response,256,409051,null,"",null,,word,RELISH,,,,,,,,,,,,
html-keyboard-response,257,409253,null,"<div style=""font-size:42px;"">CRYSTAL</div><img id = ""stim"" ><div class = green_square id = topsquare></div>",null,encoding,word_square,,,1,topsquare,32,true,,,CRYSTAL,1,,,
html-keyboard-response,258,409564,null,"<div style=""font-size:42px;"">CRYSTAL</div>",null,,word,CRYSTAL,,,,,,,,,,,,
html-keyboard-response,259,411075,91.3999999994412,"",32,,word,CRYSTAL,,,,,,,,,,,,
call-function,260,411076,,"",,,,,,,,,,,,,,,,
html-keyboard-response,261,411181,null,"",null,,,,,,,,,,,,,,,
math-period,262,415497,8342.099999999627,"",,,,,,,,,,,1,,,,,
html-keyboard-response,263,415605,null,"",null,,,,,,,,,,,,,,,
math-period,264,417961,4407.0999999996275,"",,,,,,,,,,,4,,,,,
html-keyboard-response,265,418064,null,"",null,,,,,,,,,,,,,,,
math-period,266,419946,3560.9999999990687,"",,,,,,,,,,,5,,,,,
html-keyboard-response,267,420047,null,"",null,,,,,,,,,,,,,,,
math-period,268,422322,4228.900000001304,"",,,,,,,,,,,3,,,,,
html-keyboard-response,269,422429,null,"",null,,,,,,,,,,,,,,,
math-period,270,425595,6153,"",,,,,,,,,,,4,,,,,
html-keyboard-response,271,425697,null,"",null,,,,,,,,,,,,,,,
math-period,272,427875,4106.699999999255,"",,,,,,,,,,,5,,,,,
html-keyboard-response,273,427979,null,"",null,,,,,,,,,,,,,,,
math-period,274,430619,4879.299999999814,"",,,,,,,,,,,4,,,,,
html-keyboard-response,275,430725,null,"",null,,,,,,,,,,,,,,,
math-period,276,434292,11925.099999999627,"",,,,,,,,,,,4,,,,,
html-keyboard-response,277,434398,null,"",null,,,,,,,,,,,,,,,
math-period,278,435091,null,"",,,,,,,,,,,,,,,,
html-keyboard-response,279,436105,null,"Recall Period!",null,,,,,,,,,,,,,,,
call-function,280,436105,,"",,,,,,,,,,,,,,,,
html-keyboard-response,281,436206,null,"",null,,,,,,,,,,,,,,,
recall-period,282,438508,9870.999999997206,"",,,,,,,,,,,spoon,,,,,
html-keyboard-response,283,438618,null,"",null,,,,,,,,,,,,,,,
recall-period,284,440421,10294.700000001118,"",,,,,,,,,,,sidewalk,,,,,
html-keyboard-response,285,440522,null,"",null,,,,,,,,,,,,,,,
recall-period,286,442292,8441.100000002421,"",,,,,,,,,,,hiker,,,,,
html-keyboard-response,287,442394,null,"",null,,,,,,,,,,,,,,,
recall-period,288,443741,7521.399999995716,"",,,,,,,,,,,teacher,,,,,
html-keyboard-response,289,443845,null,"",null,,,,,,,,,,,,,,,
recall-period,290,445653,9791.199999997392,"",,,,,,,,,,,monster,,,,,
html-keyboard-response,291,445760,null,"",null,,,,,,,,,,,,,,,
recall-period,292,511114,null,"",,,,,,,,,,,,,,,,
html-keyboard-response,293,511628,null,"Time's Up!",null,,,,,,,,,,,,,,,
html-keyboard-response,294,517940,6311.0999999996275,"<p> Good job! You have responded correctly to 100% of the trials. </p>
                      <p>Be sure to only press the spacebar if you see a GREEN square, and please keep your accuracy above 80%.</p>
                      <p> Press any key to continue the experiment. </p>",32,,,,,,,,,,,,,,,
html-keyboard-response,295,518988,1047.4000000003725,"<div style=""font-size:48px;"">Press any key to begin list 3 of 16 </div>",32,,,,,,,,,,,,,,,
html-keyboard-response,296,521495,null,"<div style=""font-size:60px;"">+</div>",null,,,,,,,,,,,,,,,
html-keyboard-response,297,521701,null,"<div style=""font-size:42px;"">BEAVER</div><img id = ""stim"" ><div class = red_square id = bottomsquare></div>",null,encoding,word_square,,,0,bottomsquare,none,true,,,BEAVER,2,,,
html-keyboard-response,298,522012,null,"<div style=""font-size:42px;"">BEAVER</div>",null,,word,BEAVER,,,,,,,,,,,,
html-keyboard-response,299,523525,null,"",null,,word,BEAVER,,,,,,,,,,,,
html-keyboard-response,300,523727,null,"<div style=""font-size:42px;"">SQUIRREL</div><img id = ""stim"" ><div class = green_square id = topsquare></div>",null,encoding,word_square,,,1,topsquare,32,true,,,SQUIRREL,2,,,
html-keyboard-response,301,524037,null,"<div style=""font-size:42px;"">SQUIRREL</div>",null,,word,SQUIRREL,,,,,,,,,,,,
html-keyboard-response,302,525551,46.700000000186265,"",32,,word,SQUIRREL,,,,,,,,,,,,
html-keyboard-response,303,525765,null,"<div style=""font-size:42px;"">POND</div><img id = ""stim"" ><div class = red_square id = topsquare></div>",null,encoding,word_square,,,0,topsquare,none,true,,,POND,2,,,
html-keyboard-response,304,526072,null,"<div style=""font-size:42px;"">POND</div>",null,,word,POND,,,,,,,,,,,,
html-keyboard-response,305,527589,null,"",null,,word,POND,,,,,,,,,,,,
html-keyboard-response,306,527805,null,"<div style=""font-size:42px;"">SCARECROW</div><img id = ""stim"" ><div class = red_square id = bottomsquare></div>",null,encoding,word_square,,,0,bottomsquare,none,true,,,SCARECROW,2,,,
html-keyboard-response,307,528117,null,"<div style=""font-size:42px;"">SCARECROW</div>",null,,word,SCARECROW,,,,,,,,,,,,
html-keyboard-response,308,529618,null,"",null,,word,SCARECROW,,,,,,,,,,,,
html-keyboard-response,309,529821,null,"<div style=""font-size:42px;"">BLOCKADE</div><img id = ""stim"" ><div class = green_square id = bottomsquare></div>",null,encoding,word_square,,,1,bottomsquare,32,true,,,BLOCKADE,2,,,
html-keyboard-response,310,530133,null,"<div style=""font-size:42px;"">BLOCKADE</div>",null,,word,BLOCKADE,,,,,,,,,,,,
html-keyboard-response,311,531641,216.29999999981374,"",32,,word,BLOCKADE,,,,,,,,,,,,
html-keyboard-response,312,531843,null,"<div style=""font-size:42px;"">BUILDING</div><img id = ""stim"" ><div class = green_square id = topsquare></div>",null,encoding,word_square,,,1,topsquare,32,true,,,BUILDING,2,,,
html-keyboard-response,313,532153,null,"<div style=""font-size:42px;"">BUILDING</div>",null,,word,BUILDING,,,,,,,,,,,,
html-keyboard-response,314,533659,35.299999999813735,"",32,,word,BUILDING,,,,,,,,,,,,
html-keyboard-response,315,533861,null,"<div style=""font-size:42px;"">SLACKS</div><img id = ""stim"" ><div class = red_square id = topsquare></div>",null,encoding,word_square,,,0,topsquare,none,true,,,SLACKS,2,,,
html-keyboard-response,316,534178,null,"<div style=""font-size:42px;"">SLACKS</div>",null,,word,SLACKS,,,,,,,,,,,,
html-keyboard-response,317,535686,null,"",null,,word,SLACKS,,,,,,,,,,,,
html-keyboard-response,318,535889,null,"<div style=""font-size:42px;"">OINTMENT</div><img id = ""stim"" ><div class = red_square id = bottomsquare></div>",null,encoding,word_square,,,0,bottomsquare,none,true,,,OINTMENT,2,,,
html-keyboard-response,319,536199,null,"<div style=""font-size:42px;"">OINTMENT</div>",null,,word,OINTMENT,,,,,,,,,,,,
html-keyboard-response,320,537708,null,"",null,,word,OINTMENT,,,,,,,,,,,,
html-keyboard-response,321,537910,null,"<div style=""font-size:42px;"">MAMMAL</div><img id = ""stim"" ><div class = green_square id = bottomsquare></div>",null,encoding,word_square,,,1,bottomsquare,32,true,,,MAMMAL,2,,,
html-keyboard-response,322,538213,null,"<div style=""font-size:42px;"">MAMMAL</div>",null,,word,MAMMAL,,,,,,,,,,,,
html-keyboard-response,323,539723,64.09999999962747,"",32,,word,MAMMAL,,,,,,,,,,,,
html-keyboard-response,324,539925,null,"<div style=""font-size:42px;"">CREATURE</div><img id = ""stim"" ><div class = green_square id = topsquare></div>",null,encoding,word_square,,,1,topsquare,32,true,,,CREATURE,2,,,
html-keyboard-response,325,540228,null,"<div style=""font-size:42px;"">CREATURE</div>",null,,word,CREATURE,,,,,,,,,,,,
html-keyboard-response,326,541736,89.59999999962747,"",32,,word,CREATURE,,,,,,,,,,,,
html-keyboard-response,327,541939,null,"<div style=""font-size:42px;"">LION</div><img id = ""stim"" ><div class = red_square id = topsquare></div>",null,encoding,word_square,,,0,topsquare,none,true,,,LION,2,,,
html-keyboard-response,328,542248,null,"<div style=""font-size:42px;"">LION</div>",null,,word,LION,,,,,,,,,,,,
html-keyboard-response,329,543752,null,"",null,,word,LION,,,,,,,,,,,,
html-keyboard-response,330,543957,null,"<div style=""font-size:42px;"">BARLEY</div><img id = ""stim"" ><div class = red_square id = bottomsquare></div>",null,encoding,word_square,,,0,bottomsquare,none,true,,,BARLEY,2,,,
html-keyboard-response,331,544260,null,"<div style=""font-size:42px;"">BARLEY</div>",null,,word,BARLEY,,,,,,,,,,,,
html-keyboard-response,332,545767,null,"",null,,word,BARLEY,,,,,,,,,,,,
html-keyboard-response,333,545970,null,"<div style=""font-size:42px;"">PORPOISE</div><img id = ""stim"" ><div class = green_square id = bottomsquare></div>",null,encoding,word_square,,,1,bottomsquare,32,true,,,PORPOISE,2,,,
html-keyboard-response,334,546271,284.59999999962747,"<div style=""font-size:42px;"">PORPOISE</div>",32,,word,PORPOISE,,,,,,,,,,,,
html-keyboard-response,335,547785,null,"",null,,word,PORPOISE,,,,,,,,,,,,
html-keyboard-response,336,547989,null,"<div style=""font-size:42px;"">LOVER</div><img id = ""stim"" ><div class = green_square id = topsquare></div>",null,encoding,word_square,,,1,topsquare,32,true,,,LOVER,2,,,
html-keyboard-response,337,548295,305.20000000018626,"<div style=""font-size:42px;"">LOVER</div>",32,,word,LOVER,,,,,,,,,,,,
html-keyboard-response,338,549799,null,"",null,,word,LOVER,,,,,,,,,,,,
html-keyboard-response,339,550001,null,"<div style=""font-size:42px;"">PARTNER</div><img id = ""stim"" ><div class = red_square id = topsquare></div>",null,encoding,word_square,,,0,topsquare,none,true,,,PARTNER,2,,,
html-keyboard-response,340,550312,null,"<div style=""font-size:42px;"">PARTNER</div>",null,,word,PARTNER,,,,,,,,,,,,
html-keyboard-response,341,551814,null,"",null,,word,PARTNER,,,,,,,,,,,,
html-keyboard-response,342,552016,null,"<div style=""font-size:42px;"">LEOPARD</div><img id = ""stim"" ><div class = green_square id = bottomsquare></div>",null,encoding,word_square,,,1,bottomsquare,32,true,,,LEOPARD,2,,,
html-keyboard-response,343,552326,null,"<div style=""font-size:42px;"">LEOPARD</div>",null,,word,LEOPARD,,,,,,,,,,,,
html-keyboard-response,344,553831,16.799999999813735,"",32,,word,LEOPARD,,,,,,,,,,,,
call-function,345,553831,,"",,,,,,,,,,,,,,,,
html-keyboard-response,346,553941,null,"",null,,,,,,,,,,,,,,,
math-period,347,556561,4660.799999999814,"",,,,,,,,,,,4,,,,,
html-keyboard-response,348,556674,null,"",null,,,,,,,,,,,,,,,
math-period,349,560441,7283.100000000559,"",,,,,,,,,,,1,,,,,
html-keyboard-response,350,560542,null,"",null,,,,,,,,,,,,,,,
math-period,351,564161,7075.699999999255,"",,,,,,,,,,,3,,,,,
html-keyboard-response,352,564274,null,"",null,,,,,,,,,,,,,,,
math-period,353,565513,2251.7999999988824,"",,,,,,,,,,,3,,,,,
html-keyboard-response,354,565617,null,"",null,,,,,,,,,,,,,,,
math-period,355,567649,3887.399999999441,"",,,,,,,,,,,5,,,,,
html-keyboard-response,356,567753,null,"",null,,,,,,,,,,,,,,,
math-period,357,569450,2679,"",,,,,,,,,,,5,,,,,
html-keyboard-response,358,569550,null,"",null,,,,,,,,,,,,,,,
math-period,359,572642,6013.500000000931,"",,,,,,,,,,,3,,,,,
html-keyboard-response,360,572751,null,"",null,,,,,,,,,,,,,,,
math-period,361,574138,2556.199999999255,"",,,,,,,,,,,3,,,,,
html-keyboard-response,362,574239,null,"",null,,,,,,,,,,,,,,,
math-period,363,577839,null,"",,,,,,,,,,,,,,,,
html-keyboard-response,364,578853,null,"Recall Period!",null,,,,,,,,,,,,,,,
call-function,365,578853,,"",,,,,,,,,,,,,,,,
html-keyboard-response,366,578955,null,"",null,,,,,,,,,,,,,,,
recall-period,367,581755,16865.800000001676,"",,,,,,,,,,,beaver,,,,,
html-keyboard-response,368,581868,null,"",null,,,,,,,,,,,,,,,
recall-period,369,583827,6814.700000001118,"",,,,,,,,,,,lion,,,,,
html-keyboard-response,370,583931,null,"",null,,,,,,,,,,,,,,,
recall-period,371,585427,7827.199999996461,"",,,,,,,,,,,leopard,,,,,
html-keyboard-response,372,585528,null,"",null,,,,,,,,,,,,,,,
recall-period,373,586739,5142.5,"",,,,,,,,,,,lover,,,,,
html-keyboard-response,374,586840,null,"",null,,,,,,,,,,,,,,,
recall-period,375,588668,11401.500000000931,"",,,,,,,,,,,building,,,,,
html-keyboard-response,376,588779,null,"",null,,,,,,,,,,,,,,,
recall-period,377,595204,59034.89999999944,"",,,,,,,,,,,barley,,,,,
html-keyboard-response,378,595316,null,"",null,,,,,,,,,,,,,,,
recall-period,379,653859,null,"",,,,,,,,,,,,,,,,
html-keyboard-response,380,654372,null,"Time's Up!",null,,,,,,,,,,,,,,,
html-keyboard-response,381,657251,2877.5,"<p> Good job! You have responded correctly to 100% of the trials. </p>
                      <p>Be sure to only press the spacebar if you see a GREEN square, and please keep your accuracy above 80%.</p>
                      <p> Press any key to continue the experiment. </p>",32,,,,,,,,,,,,,,,
html-keyboard-response,382,658243,991.6000000005588,"<div style=""font-size:48px;"">Press any key to begin list 4 of 16 </div>",32,,,,,,,,,,,,,,,
html-keyboard-response,383,660758,null,"<div style=""font-size:60px;"">+</div>",null,,,,,,,,,,,,,,,
html-keyboard-response,384,660973,null,"<div style=""font-size:42px;"">SISTER</div><img id = ""stim"" ><div class = green_square id = bottomsquare></div>",null,encoding,word_square,,,1,bottomsquare,32,true,,,SISTER,3,,,
html-keyboard-response,385,661275,261.40000000037253,"<div style=""font-size:42px;"">SISTER</div>",32,,word,SISTER,,,,,,,,,,,,
html-keyboard-response,386,662790,null,"",null,,word,SISTER,,,,,,,,,,,,
html-keyboard-response,387,662992,null,"<div style=""font-size:42px;"">LOUNGE</div><img id = ""stim"" ><div class = red_square id = topsquare></div>",null,encoding,word_square,,,0,topsquare,none,true,,,LOUNGE,3,,,
html-keyboard-response,388,663303,null,"<div style=""font-size:42px;"">LOUNGE</div>",null,,word,LOUNGE,,,,,,,,,,,,
html-keyboard-response,389,664819,null,"",null,,word,LOUNGE,,,,,,,,,,,,
html-keyboard-response,390,665035,null,"<div style=""font-size:42px;"">LIST</div><img id = ""stim"" ><div class = green_square id = topsquare></div>",null,encoding,word_square,,,1,topsquare,32,true,,,LIST,3,,,
html-keyboard-response,391,665349,192.20000000018626,"<div style=""font-size:42px;"">LIST</div>",32,,word,LIST,,,,,,,,,,,,
html-keyboard-response,392,666857,null,"",null,,word,LIST,,,,,,,,,,,,
html-keyboard-response,393,667059,null,"<div style=""font-size:42px;"">SUBWAY</div><img id = ""stim"" ><div class = green_square id = bottomsquare></div>",null,encoding,word_square,,,1,bottomsquare,32,true,,,SUBWAY,3,,,
html-keyboard-response,394,667360,256.29999999981374,"<div style=""font-size:42px;"">SUBWAY</div>",32,,word,SUBWAY,,,,,,,,,,,,
html-keyboard-response,395,668873,null,"",null,,word,SUBWAY,,,,,,,,,,,,
html-keyboard-response,396,669090,null,"<div style=""font-size:42px;"">SHORTS</div><img id = ""stim"" ><div class = red_square id = bottomsquare></div>",null,encoding,word_square,,,0,bottomsquare,none,true,,,SHORTS,3,,,
html-keyboard-response,397,669399,null,"<div style=""font-size:42px;"">SHORTS</div>",null,,word,SHORTS,,,,,,,,,,,,
html-keyboard-response,398,670906,null,"",null,,word,SHORTS,,,,,,,,,,,,
html-keyboard-response,399,671121,null,"<div style=""font-size:42px;"">WASHER</div><img id = ""stim"" ><div class = red_square id = topsquare></div>",null,encoding,word_square,,,0,topsquare,none,true,,,WASHER,3,,,
html-keyboard-response,400,671430,null,"<div style=""font-size:42px;"">WASHER</div>",null,,word,WASHER,,,,,,,,,,,,
html-keyboard-response,401,672936,null,"",null,,word,WASHER,,,,,,,,,,,,
html-keyboard-response,402,673151,null,"<div style=""font-size:42px;"">LEG</div><img id = ""stim"" ><div class = green_square id = topsquare></div>",null,encoding,word_square,,,1,topsquare,32,true,,,LEG,3,,,
html-keyboard-response,403,673453,293.29999999981374,"<div style=""font-size:42px;"">LEG</div>",32,,word,LEG,,,,,,,,,,,,
html-keyboard-response,404,674965,null,"",null,,word,LEG,,,,,,,,,,,,
html-keyboard-response,405,675180,null,"<div style=""font-size:42px;"">BANK</div><img id = ""stim"" ><div class = green_square id = bottomsquare></div>",null,encoding,word_square,,,1,bottomsquare,32,true,,,BANK,3,,,
html-keyboard-response,406,675492,null,"<div style=""font-size:42px;"">BANK</div>",null,,word,BANK,,,,,,,,,,,,
html-keyboard-response,407,676995,601,"",32,,word,BANK,,,,,,,,,,,,
html-keyboard-response,408,677209,null,"<div style=""font-size:42px;"">BISON</div><img id = ""stim"" ><div class = red_square id = bottomsquare></div>",null,encoding,word_square,,,0,bottomsquare,none,true,,,BISON,3,,,
html-keyboard-response,409,677518,null,"<div style=""font-size:42px;"">BISON</div>",null,,word,BISON,,,,,,,,,,,,
html-keyboard-response,410,679021,null,"",null,,word,BISON,,,,,,,,,,,,
html-keyboard-response,411,679225,null,"<div style=""font-size:42px;"">SEAL</div><img id = ""stim"" ><div class = red_square id = topsquare></div>",null,encoding,word_square,,,0,topsquare,none,true,,,SEAL,3,,,
html-keyboard-response,412,679541,null,"<div style=""font-size:42px;"">SEAL</div>",null,,word,SEAL,,,,,,,,,,,,
html-keyboard-response,413,681045,null,"",null,,word,SEAL,,,,,,,,,,,,
html-keyboard-response,414,681249,null,"<div style=""font-size:42px;"">BEAST</div><img id = ""stim"" ><div class = green_square id = topsquare></div>",null,encoding,word_square,,,1,topsquare,32,true,,,BEAST,3,,,
html-keyboard-response,415,681559,195.3999999994412,"<div style=""font-size:42px;"">BEAST</div>",32,,word,BEAST,,,,,,,,,,,,
html-keyboard-response,416,683071,null,"",null,,word,BEAST,,,,,,,,,,,,
html-keyboard-response,417,683273,null,"<div style=""font-size:42px;"">SNACK</div><img id = ""stim"" ><div class = green_square id = bottomsquare></div>",null,encoding,word_square,,,1,bottomsquare,32,true,,,SNACK,3,,,
html-keyboard-response,418,683582,null,"<div style=""font-size:42px;"">SNACK</div>",null,,word,SNACK,,,,,,,,,,,,
html-keyboard-response,419,685094,383.40000000037253,"",32,,word,SNACK,,,,,,,,,,,,
html-keyboard-response,420,685310,null,"<div style=""font-size:42px;"">BOUILLON</div><img id = ""stim"" ><div class = red_square id = bottomsquare></div>",null,encoding,word_square,,,0,bottomsquare,none,true,,,BOUILLON,3,,,
html-keyboard-response,421,685621,null,"<div style=""font-size:42px;"">BOUILLON</div>",null,,word,BOUILLON,,,,,,,,,,,,
html-keyboard-response,422,687125,null,"",null,,word,BOUILLON,,,,,,,,,,,,
html-keyboard-response,423,687340,null,"<div style=""font-size:42px;"">APPLE</div><img id = ""stim"" ><div class = red_square id = topsquare></div>",null,encoding,word_square,,,0,topsquare,none,true,,,APPLE,3,,,
html-keyboard-response,424,687652,null,"<div style=""font-size:42px;"">APPLE</div>",null,,word,APPLE,,,,,,,,,,,,
html-keyboard-response,425,689163,null,"",null,,word,APPLE,,,,,,,,,,,,
html-keyboard-response,426,689366,null,"<div style=""font-size:42px;"">WAITER</div><img id = ""stim"" ><div class = green_square id = topsquare></div>",null,encoding,word_square,,,1,topsquare,32,true,,,WAITER,3,,,
html-keyboard-response,427,689668,240,"<div style=""font-size:42px;"">WAITER</div>",32,,word,WAITER,,,,,,,,,,,,
html-keyboard-response,428,691180,null,"",null,,word,WAITER,,,,,,,,,,,,
html-keyboard-response,429,691382,null,"<div style=""font-size:42px;"">DAGGER</div><img id = ""stim"" ><div class = red_square id = bottomsquare></div>",null,encoding,word_square,,,0,bottomsquare,none,true,,,DAGGER,3,,,
html-keyboard-response,430,691690,null,"<div style=""font-size:42px;"">DAGGER</div>",null,,word,DAGGER,,,,,,,,,,,,
html-keyboard-response,431,693205,null,"",null,,word,DAGGER,,,,,,,,,,,,
call-function,432,693206,,"",,,,,,,,,,,,,,,,
html-keyboard-response,433,693317,null,"",null,,,,,,,,,,,,,,,
math-period,434,695647,4218.699999999255,"",,,,,,,,,,,4,,,,,
html-keyboard-response,435,695751,null,"",null,,,,,,,,,,,,,,,
math-period,436,699352,10717.999999999069,"",,,,,,,,,,,4,,,,,
html-keyboard-response,437,699465,null,"",null,,,,,,,,,,,,,,,
math-period,438,700816,2226.7999999998137,"",,,,,,,,,,,3,,,,,
html-keyboard-response,439,700919,null,"",null,,,,,,,,,,,,,,,
math-period,440,702960,3863.300000000745,"",,,,,,,,,,,4,,,,,
html-keyboard-response,441,703073,null,"",null,,,,,,,,,,,,,,,
math-period,442,704608,2708.800000000745,"",,,,,,,,,,,3,,,,,
html-keyboard-response,443,704721,null,"",null,,,,,,,,,,,,,,,
math-period,444,705904,2076.9999999990687,"",,,,,,,,,,,2,,,,,
html-keyboard-response,445,706015,null,"",null,,,,,,,,,,,,,,,
math-period,446,709025,5609.699999999255,"",,,,,,,,,,,1,,,,,
html-keyboard-response,447,709141,null,"",null,,,,,,,,,,,,,,,
math-period,448,711041,3597.800000000745,"",,,,,,,,,,,5,,,,,
html-keyboard-response,449,711156,null,"",null,,,,,,,,,,,,,,,
math-period,450,712393,2200.099999998696,"",,,,,,,,,,,5,,,,,
html-keyboard-response,451,712505,null,"",null,,,,,,,,,,,,,,,
math-period,452,714921,4567.299999999814,"",,,,,,,,,,,5,,,,,
html-keyboard-response,453,715033,null,"",null,,,,,,,,,,,,,,,
math-period,454,717220,null,"",,,,,,,,,,,,,,,,
html-keyboard-response,455,718227,null,"Recall Period!",null,,,,,,,,,,,,,,,
call-function,456,718228,,"",,,,,,,,,,,,,,,,
html-keyboard-response,457,718337,null,"",null,,,,,,,,,,,,,,,
recall-period,458,720586,11360.600000003353,"",,,,,,,,,,,banker,,,,,
html-keyboard-response,459,720690,null,"",null,,,,,,,,,,,,,,,
recall-period,460,721930,5276.5999999996275,"",,,,,,,,,,,beast,,,,,
html-keyboard-response,461,722034,null,"",null,,,,,,,,,,,,,,,
recall-period,462,723250,3827.2999999988824,"",,,,,,,,,,,leg,,,,,
html-keyboard-response,463,723365,null,"",null,,,,,,,,,,,,,,,
recall-period,464,736195,105536.19999999925,"",,,,,,,,,,,boullion,,,,,
html-keyboard-response,465,736306,null,"",null,,,,,,,,,,,,,,,
recall-period,466,793238,null,"",,,,,,,,,,,,,,,,
html-keyboard-response,467,793740,null,"Time's Up!",null,,,,,,,,,,,,,,,
html-keyboard-response,468,795906,2164.300000000745,"<p> Good job! You have responded correctly to 100% of the trials. </p>
                      <p>Be sure to only press the spacebar if you see a GREEN square, and please keep your accuracy above 80%.</p>
                      <p> Press any key to continue the experiment. </p>",32,,,,,,,,,,,,,,,
html-keyboard-response,469,802082,6175.9000000003725,"<div style=""font-size:48px;"">Press any key to begin list 5 of 16 </div>",32,,,,,,,,,,,,,,,
html-keyboard-response,470,804587,null,"<div style=""font-size:60px;"">+</div>",null,,,,,,,,,,,,,,,
html-keyboard-response,471,804803,null,"<div style=""font-size:42px;"">STAKE</div><img id = ""stim"" ><div class = green_square id = topsquare></div>",null,encoding,word_square,,,1,topsquare,32,true,,,STAKE,4,,,
html-keyboard-response,472,805104,238.40000000037253,"<div style=""font-size:42px;"">STAKE</div>",32,,word,STAKE,,,,,,,,,,,,
html-keyboard-response,473,806615,null,"",null,,word,STAKE,,,,,,,,,,,,
html-keyboard-response,474,806831,null,"<div style=""font-size:42px;"">LUMBER</div><img id = ""stim"" ><div class = red_square id = bottomsquare></div>",null,encoding,word_square,,,0,bottomsquare,none,true,,,LUMBER,4,,,
html-keyboard-response,475,807142,null,"<div style=""font-size:42px;"">LUMBER</div>",null,,word,LUMBER,,,,,,,,,,,,
html-keyboard-response,476,808645,null,"",null,,word,LUMBER,,,,,,,,,,,,
html-keyboard-response,477,808861,null,"<div style=""font-size:42px;"">ELK</div><img id = ""stim"" ><div class = red_square id = topsquare></div>",null,encoding,word_square,,,0,topsquare,none,true,,,ELK,4,,,
html-keyboard-response,478,809173,null,"<div style=""font-size:42px;"">ELK</div>",null,,word,ELK,,,,,,,,,,,,
html-keyboard-response,479,810678,null,"",null,,word,ELK,,,,,,,,,,,,
html-keyboard-response,480,810885,null,"<div style=""font-size:42px;"">FLASK</div><img id = ""stim"" ><div class = green_square id = bottomsquare></div>",null,encoding,word_square,,,1,bottomsquare,32,true,,,FLASK,4,,,
html-keyboard-response,481,811193,141.79999999981374,"<div style=""font-size:42px;"">FLASK</div>",32,,word,FLASK,,,,,,,,,,,,
html-keyboard-response,482,812701,null,"",null,,word,FLASK,,,,,,,,,,,,
html-keyboard-response,483,812904,null,"<div style=""font-size:42px;"">FIST</div><img id = ""stim"" ><div class = green_square id = topsquare></div>",null,encoding,word_square,,,1,topsquare,32,true,,,FIST,4,,,
html-keyboard-response,484,813213,null,"<div style=""font-size:42px;"">FIST</div>",null,,word,FIST,,,,,,,,,,,,
html-keyboard-response,485,814725,141.1000000005588,"",32,,word,FIST,,,,,,,,,,,,
html-keyboard-response,486,814933,null,"<div style=""font-size:42px;"">RIVER</div><img id = ""stim"" ><div class = red_square id = bottomsquare></div>",null,encoding,word_square,,,0,bottomsquare,none,false,,,RIVER,4,,,
html-keyboard-response,487,815240,null,"<div style=""font-size:42px;"">RIVER</div>",null,,word,RIVER,,,,,,,,,,,,
html-keyboard-response,488,816752,354.30000000074506,"",32,,word,RIVER,,,,,,,,,,,,
html-keyboard-response,489,816954,null,"<div style=""font-size:42px;"">CANAL</div><img id = ""stim"" ><div class = green_square id = bottomsquare></div>",null,encoding,word_square,,,1,bottomsquare,32,true,,,CANAL,4,,,
html-keyboard-response,490,817255,209.5,"<div style=""font-size:42px;"">CANAL</div>",32,,word,CANAL,,,,,,,,,,,,
html-keyboard-response,491,818760,null,"",null,,word,CANAL,,,,,,,,,,,,
html-keyboard-response,492,818965,null,"<div style=""font-size:42px;"">LAKE</div><img id = ""stim"" ><div class = red_square id = topsquare></div>",null,encoding,word_square,,,0,topsquare,none,true,,,LAKE,4,,,
html-keyboard-response,493,819271,null,"<div style=""font-size:42px;"">LAKE</div>",null,,word,LAKE,,,,,,,,,,,,
html-keyboard-response,494,820778,null,"",null,,word,LAKE,,,,,,,,,,,,
html-keyboard-response,495,820980,null,"<div style=""font-size:42px;"">BISCUIT</div><img id = ""stim"" ><div class = red_square id = bottomsquare></div>",null,encoding,word_square,,,0,bottomsquare,none,true,,,BISCUIT,4,,,
html-keyboard-response,496,821289,null,"<div style=""font-size:42px;"">BISCUIT</div>",null,,word,BISCUIT,,,,,,,,,,,,
html-keyboard-response,497,822799,null,"",null,,word,BISCUIT,,,,,,,,,,,,
html-keyboard-response,498,823001,null,"<div style=""font-size:42px;"">ADULT</div><img id = ""stim"" ><div class = green_square id = topsquare></div>",null,encoding,word_square,,,1,topsquare,32,true,,,ADULT,4,,,
html-keyboard-response,499,823313,null,"<div style=""font-size:42px;"">ADULT</div>",null,,word,ADULT,,,,,,,,,,,,
html-keyboard-response,500,824826,50.39999999944121,"",32,,word,ADULT,,,,,,,,,,,,
html-keyboard-response,501,825028,null,"<div style=""font-size:42px;"">SCOTCH</div><img id = ""stim"" ><div class = red_square id = topsquare></div>",null,encoding,word_square,,,0,topsquare,none,true,,,SCOTCH,4,,,
html-keyboard-response,502,825337,null,"<div style=""font-size:42px;"">SCOTCH</div>",null,,word,SCOTCH,,,,,,,,,,,,
html-keyboard-response,503,826849,null,"",null,,word,SCOTCH,,,,,,,,,,,,
html-keyboard-response,504,827065,null,"<div style=""font-size:42px;"">SALAD</div><img id = ""stim"" ><div class = green_square id = bottomsquare></div>",null,encoding,word_square,,,1,bottomsquare,32,true,,,SALAD,4,,,
html-keyboard-response,505,827381,null,"<div style=""font-size:42px;"">SALAD</div>",null,,word,SALAD,,,,,,,,,,,,
html-keyboard-response,506,828893,94.90000000037253,"",32,,word,SALAD,,,,,,,,,,,,
html-keyboard-response,507,829095,null,"<div style=""font-size:42px;"">ATOM</div><img id = ""stim"" ><div class = green_square id = topsquare></div>",null,encoding,word_square,,,1,topsquare,32,true,,,ATOM,4,,,
html-keyboard-response,508,829407,null,"<div style=""font-size:42px;"">ATOM</div>",null,,word,ATOM,,,,,,,,,,,,
html-keyboard-response,509,830915,69.40000000037253,"",32,,word,ATOM,,,,,,,,,,,,
html-keyboard-response,510,831131,null,"<div style=""font-size:42px;"">CHEMIST</div><img id = ""stim"" ><div class = red_square id = bottomsquare></div>",null,encoding,word_square,,,0,bottomsquare,none,true,,,CHEMIST,4,,,
html-keyboard-response,511,831443,null,"<div style=""font-size:42px;"">CHEMIST</div>",null,,word,CHEMIST,,,,,,,,,,,,
html-keyboard-response,512,832947,null,"",null,,word,CHEMIST,,,,,,,,,,,,
html-keyboard-response,513,833150,null,"<div style=""font-size:42px;"">ROOSTER</div><img id = ""stim"" ><div class = red_square id = topsquare></div>",null,encoding,word_square,,,0,topsquare,none,true,,,ROOSTER,4,,,
html-keyboard-response,514,833459,null,"<div style=""font-size:42px;"">ROOSTER</div>",null,,word,ROOSTER,,,,,,,,,,,,
html-keyboard-response,515,834962,null,"",null,,word,ROOSTER,,,,,,,,,,,,
html-keyboard-response,516,835164,null,"<div style=""font-size:42px;"">GIRAFFE</div><img id = ""stim"" ><div class = green_square id = bottomsquare></div>",null,encoding,word_square,,,1,bottomsquare,32,true,,,GIRAFFE,4,,,
html-keyboard-response,517,835474,null,"<div style=""font-size:42px;"">GIRAFFE</div>",null,,word,GIRAFFE,,,,,,,,,,,,
html-keyboard-response,518,836984,59.39999999944121,"",32,,word,GIRAFFE,,,,,,,,,,,,
call-function,519,836984,,"",,,,,,,,,,,,,,,,
html-keyboard-response,520,837085,null,"",null,,,,,,,,,,,,,,,
math-period,521,839814,4568.9000000003725,"",,,,,,,,,,,3,,,,,
html-keyboard-response,522,839917,null,"",null,,,,,,,,,,,,,,,
math-period,523,841855,3626.0999999996275,"",,,,,,,,,,,4,,,,,
html-keyboard-response,524,841966,null,"",null,,,,,,,,,,,,,,,
math-period,525,843503,2888.5999999996275,"",,,,,,,,,,,4,,,,,
html-keyboard-response,526,843612,null,"",null,,,,,,,,,,,,,,,
math-period,527,844927,2141,"",,,,,,,,,,,3,,,,,
html-keyboard-response,528,845041,null,"",null,,,,,,,,,,,,,,,
math-period,529,847792,5227.699999999255,"",,,,,,,,,,,2,,,,,
html-keyboard-response,530,847908,null,"",null,,,,,,,,,,,,,,,
math-period,531,851624,7054.199999999255,"",,,,,,,,,,,2,,,,,
html-keyboard-response,532,851736,null,"",null,,,,,,,,,,,,,,,
math-period,533,853256,2750.0000000009313,"",,,,,,,,,,,3,,,,,
html-keyboard-response,534,853365,null,"",null,,,,,,,,,,,,,,,
math-period,535,855392,3668.2000000001863,"",,,,,,,,,,,2,,,,,
html-keyboard-response,536,855493,null,"",null,,,,,,,,,,,,,,,
math-period,537,858257,8850.000000001863,"",,,,,,,,,,,4,,,,,
html-keyboard-response,538,858368,null,"",null,,,,,,,,,,,,,,,
math-period,539,860996,null,"",,,,,,,,,,,,,,,,
html-keyboard-response,540,861998,null,"Recall Period!",null,,,,,,,,,,,,,,,
call-function,541,861998,,"",,,,,,,,,,,,,,,,
html-keyboard-response,542,862106,null,"",null,,,,,,,,,,,,,,,
recall-period,543,863529,5504.699999998324,"",,,,,,,,,,,lake,,,,,
html-keyboard-response,544,863637,null,"",null,,,,,,,,,,,,,,,
recall-period,545,866297,13983.800000000745,"",,,,,,,,,,,lumber,,,,,
html-keyboard-response,546,866399,null,"",null,,,,,,,,,,,,,,,
recall-period,547,867466,3890.7999999998137,"",,,,,,,,,,,flask,,,,,
html-keyboard-response,548,867581,null,"",null,,,,,,,,,,,,,,,
recall-period,549,868698,3753.300000000745,"",,,,,,,,,,,fist,,,,,
html-keyboard-response,550,868811,null,"",null,,,,,,,,,,,,,,,
recall-period,551,870522,6467.199999996461,"",,,,,,,,,,,scotch,,,,,
html-keyboard-response,552,870630,null,"",null,,,,,,,,,,,,,,,
recall-period,553,937004,null,"",,,,,,,,,,,,,,,,
html-keyboard-response,554,937516,null,"Time's Up!",null,,,,,,,,,,,,,,,
html-keyboard-response,555,942682,5164.899999999441,"<p> Good job! You have responded correctly to 99% of the trials. </p>
                      <p>Be sure to only press the spacebar if you see a GREEN square, and please keep your accuracy above 80%.</p>
                      <p> Press any key to continue the experiment. </p>",32,,,,,,,,,,,,,,,
html-keyboard-response,556,947746,5063.5,"<div style=""font-size:48px;"">Press any key to begin list 6 of 16 </div>",32,,,,,,,,,,,,,,,
html-keyboard-response,557,950249,null,"<div style=""font-size:60px;"">+</div>",null,,,,,,,,,,,,,,,
html-keyboard-response,558,950450,null,"<div style=""font-size:42px;"">SHEPHERD</div><img id = ""stim"" ><div class = green_square id = bottomsquare></div>",null,encoding,word_square,,,1,bottomsquare,32,true,,,SHEPHERD,5,,,
html-keyboard-response,559,950754,303.3999999994412,"<div style=""font-size:42px;"">SHEPHERD</div>",32,,word,SHEPHERD,,,,,,,,,,,,
html-keyboard-response,560,952269,null,"",null,,word,SHEPHERD,,,,,,,,,,,,
html-keyboard-response,561,952471,null,"<div style=""font-size:42px;"">SHARK</div><img id = ""stim"" ><div class = red_square id = topsquare></div>",null,encoding,word_square,,,0,topsquare,none,true,,,SHARK,5,,,
html-keyboard-response,562,952783,null,"<div style=""font-size:42px;"">SHARK</div>",null,,word,SHARK,,,,,,,,,,,,
html-keyboard-response,563,954293,null,"",null,,word,SHARK,,,,,,,,,,,,
html-keyboard-response,564,954501,null,"<div style=""font-size:42px;"">PRIMATE</div><img id = ""stim"" ><div class = red_square id = bottomsquare></div>",null,encoding,word_square,,,0,bottomsquare,none,true,,,PRIMATE,5,,,
html-keyboard-response,565,954814,null,"<div style=""font-size:42px;"">PRIMATE</div>",null,,word,PRIMATE,,,,,,,,,,,,
html-keyboard-response,566,956320,null,"",null,,word,PRIMATE,,,,,,,,,,,,
html-keyboard-response,567,956523,null,"<div style=""font-size:42px;"">NURSE</div><img id = ""stim"" ><div class = green_square id = topsquare></div>",null,encoding,word_square,,,1,topsquare,32,true,,,NURSE,5,,,
html-keyboard-response,568,956824,231.79999999981374,"<div style=""font-size:42px;"">NURSE</div>",32,,word,NURSE,,,,,,,,,,,,
html-keyboard-response,569,958333,null,"",null,,word,NURSE,,,,,,,,,,,,
html-keyboard-response,570,958550,null,"<div style=""font-size:42px;"">MARKER</div><img id = ""stim"" ><div class = green_square id = bottomsquare></div>",null,encoding,word_square,,,1,bottomsquare,32,true,,,MARKER,5,,,
html-keyboard-response,571,958859,null,"<div style=""font-size:42px;"">MARKER</div>",null,,word,MARKER,,,,,,,,,,,,
html-keyboard-response,572,960368,23,"",32,,word,MARKER,,,,,,,,,,,,
html-keyboard-response,573,960570,null,"<div style=""font-size:42px;"">SCOUT</div><img id = ""stim"" ><div class = red_square id = topsquare></div>",null,encoding,word_square,,,0,topsquare,none,true,,,SCOUT,5,,,
html-keyboard-response,574,960880,null,"<div style=""font-size:42px;"">SCOUT</div>",null,,word,SCOUT,,,,,,,,,,,,
html-keyboard-response,575,962388,null,"",null,,word,SCOUT,,,,,,,,,,,,
html-keyboard-response,576,962604,null,"<div style=""font-size:42px;"">FEAST</div><img id = ""stim"" ><div class = green_square id = topsquare></div>",null,encoding,word_square,,,1,topsquare,32,true,,,FEAST,5,,,
html-keyboard-response,577,962905,206.3999999994412,"<div style=""font-size:42px;"">FEAST</div>",32,,word,FEAST,,,,,,,,,,,,
html-keyboard-response,578,964421,null,"",null,,word,FEAST,,,,,,,,,,,,
html-keyboard-response,579,964625,null,"<div style=""font-size:42px;"">SALMON</div><img id = ""stim"" ><div class = red_square id = bottomsquare></div>",null,encoding,word_square,,,0,bottomsquare,none,true,,,SALMON,5,,,
html-keyboard-response,580,964935,null,"<div style=""font-size:42px;"">SALMON</div>",null,,word,SALMON,,,,,,,,,,,,
html-keyboard-response,581,966445,null,"",null,,word,SALMON,,,,,,,,,,,,
html-keyboard-response,582,966646,null,"<div style=""font-size:42px;"">LAGOON</div><img id = ""stim"" ><div class = red_square id = topsquare></div>",null,encoding,word_square,,,0,topsquare,none,true,,,LAGOON,5,,,
html-keyboard-response,583,966949,null,"<div style=""font-size:42px;"">LAGOON</div>",null,,word,LAGOON,,,,,,,,,,,,
html-keyboard-response,584,968453,null,"",null,,word,LAGOON,,,,,,,,,,,,
html-keyboard-response,585,968669,null,"<div style=""font-size:42px;"">BUCKET</div><img id = ""stim"" ><div class = green_square id = bottomsquare></div>",null,encoding,word_square,,,1,bottomsquare,32,true,,,BUCKET,5,,,
html-keyboard-response,586,968981,190.70000000018626,"<div style=""font-size:42px;"">BUCKET</div>",32,,word,BUCKET,,,,,,,,,,,,
html-keyboard-response,587,970491,null,"",null,,word,BUCKET,,,,,,,,,,,,
html-keyboard-response,588,970694,null,"<div style=""font-size:42px;"">LIGHTNING</div><img id = ""stim"" ><div class = red_square id = bottomsquare></div>",null,encoding,word_square,,,0,bottomsquare,none,true,,,LIGHTNING,5,,,
html-keyboard-response,589,971010,null,"<div style=""font-size:42px;"">LIGHTNING</div>",null,,word,LIGHTNING,,,,,,,,,,,,
html-keyboard-response,590,972514,null,"",null,,word,LIGHTNING,,,,,,,,,,,,
html-keyboard-response,591,972729,null,"<div style=""font-size:42px;"">DONKEY</div><img id = ""stim"" ><div class = green_square id = topsquare></div>",null,encoding,word_square,,,1,topsquare,32,true,,,DONKEY,5,,,
html-keyboard-response,592,973041,null,"<div style=""font-size:42px;"">DONKEY</div>",null,,word,DONKEY,,,,,,,,,,,,
html-keyboard-response,593,974551,210,"",32,,word,DONKEY,,,,,,,,,,,,
html-keyboard-response,594,974766,null,"<div style=""font-size:42px;"">HORSE</div><img id = ""stim"" ><div class = green_square id = bottomsquare></div>",null,encoding,word_square,,,1,bottomsquare,32,true,,,HORSE,5,,,
html-keyboard-response,595,975077,null,"<div style=""font-size:42px;"">HORSE</div>",null,,word,HORSE,,,,,,,,,,,,
html-keyboard-response,596,976581,94.6000000005588,"",32,,word,HORSE,,,,,,,,,,,,
html-keyboard-response,597,976783,null,"<div style=""font-size:42px;"">DWARF</div><img id = ""stim"" ><div class = red_square id = topsquare></div>",null,encoding,word_square,,,0,topsquare,none,true,,,DWARF,5,,,
html-keyboard-response,598,977093,null,"<div style=""font-size:42px;"">DWARF</div>",null,,word,DWARF,,,,,,,,,,,,
html-keyboard-response,599,978598,null,"",null,,word,DWARF,,,,,,,,,,,,
html-keyboard-response,600,978800,null,"<div style=""font-size:42px;"">NOTEBOOK</div><img id = ""stim"" ><div class = red_square id = bottomsquare></div>",null,encoding,word_square,,,0,bottomsquare,none,true,,,NOTEBOOK,5,,,
html-keyboard-response,601,979111,null,"<div style=""font-size:42px;"">NOTEBOOK</div>",null,,word,NOTEBOOK,,,,,,,,,,,,
html-keyboard-response,602,980614,null,"",null,,word,NOTEBOOK,,,,,,,,,,,,
html-keyboard-response,603,980819,null,"<div style=""font-size:42px;"">BUSH</div><img id = ""stim"" ><div class = green_square id = topsquare></div>",null,encoding,word_square,,,1,topsquare,32,true,,,BUSH,5,,,
html-keyboard-response,604,981120,217.70000000018626,"<div style=""font-size:42px;"">BUSH</div>",32,,word,BUSH,,,,,,,,,,,,
html-keyboard-response,605,982624,null,"",null,,word,BUSH,,,,,,,,,,,,
call-function,606,982625,,"",,,,,,,,,,,,,,,,
html-keyboard-response,607,982726,null,"",null,,,,,,,,,,,,,,,
math-period,608,984974,4062,"",,,,,,,,,,,5,,,,,
html-keyboard-response,609,985086,null,"",null,,,,,,,,,,,,,,,
math-period,610,986126,1862.300000000745,"",,,,,,,,,,,5,,,,,
html-keyboard-response,611,986227,null,"",null,,,,,,,,,,,,,,,
math-period,612,987622,2580,"",,,,,,,,,,,2,,,,,
html-keyboard-response,613,987723,null,"",null,,,,,,,,,,,,,,,
math-period,614,989350,3101,"",,,,,,,,,,,5,,,,,
html-keyboard-response,615,989455,null,"",null,,,,,,,,,,,,,,,
math-period,616,992383,5590.200000000186,"",,,,,,,,,,,0,,,,,
html-keyboard-response,617,992496,null,"",null,,,,,,,,,,,,,,,
math-period,618,995551,5908,"",,,,,,,,,,,1,,,,,
html-keyboard-response,619,995653,null,"",null,,,,,,,,,,,,,,,
math-period,620,998639,5651,"",,,,,,,,,,,1,,,,,
html-keyboard-response,621,998741,null,"",null,,,,,,,,,,,,,,,
math-period,622,1001087,4538.699999999255,"",,,,,,,,,,,5,,,,,
html-keyboard-response,623,1001203,null,"",null,,,,,,,,,,,,,,,
math-period,624,1004616,6663.5,"",,,,,,,,,,,1,,,,,
html-keyboard-response,625,1004721,null,"",null,,,,,,,,,,,,,,,
math-period,626,1006456,3043.699999999255,"",,,,,,,,,,,4,,,,,
html-keyboard-response,627,1006558,null,"",null,,,,,,,,,,,,,,,
math-period,628,1006626,null,"",,,,,,,,,,,,,,,,
html-keyboard-response,629,1007637,null,"Recall Period!",null,,,,,,,,,,,,,,,
call-function,630,1007637,,"",,,,,,,,,,,,,,,,
html-keyboard-response,631,1007738,null,"",null,,,,,,,,,,,,,,,
recall-period,632,1009769,9571.899999997579,"",,,,,,,,,,,donkey,,,,,
html-keyboard-response,633,1009874,null,"",null,,,,,,,,,,,,,,,
recall-period,634,1011617,7186.700000000186,"",,,,,,,,,,,horse,,,,,
html-keyboard-response,635,1011718,null,"",null,,,,,,,,,,,,,,,
recall-period,636,1012705,3121.39999999851,"",,,,,,,,,,,bush,,,,,
html-keyboard-response,637,1012814,null,"",null,,,,,,,,,,,,,,,
recall-period,638,1014665,7195.700000001118,"",,,,,,,,,,,salmon,,,,,
html-keyboard-response,639,1014782,null,"",null,,,,,,,,,,,,,,,
recall-period,640,1017850,15790.599999997765,"",,,,,,,,,,,nurse,,,,,
html-keyboard-response,641,1017961,null,"",null,,,,,,,,,,,,,,,
recall-period,642,1082653,null,"",,,,,,,,,,,,,,,,
html-keyboard-response,643,1083167,null,"Time's Up!",null,,,,,,,,,,,,,,,
html-keyboard-response,644,1086072,2904.399999999441,"<p> Good job! You have responded correctly to 99% of the trials. </p>
                      <p>Be sure to only press the spacebar if you see a GREEN square, and please keep your accuracy above 80%.</p>
                      <p> Press any key to continue the experiment. </p>",32,,,,,,,,,,,,,,,
html-keyboard-response,645,1089369,3296.2000000001863,"<div style=""font-size:48px;"">Press any key to begin list 7 of 16 </div>",32,,,,,,,,,,,,,,,
html-keyboard-response,646,1091894,null,"<div style=""font-size:60px;"">+</div>",null,,,,,,,,,,,,,,,
html-keyboard-response,647,1092101,null,"<div style=""font-size:42px;"">MARINE</div><img id = ""stim"" ><div class = red_square id = bottomsquare></div>",null,encoding,word_square,,,0,bottomsquare,none,true,,,MARINE,6,,,
html-keyboard-response,648,1092413,null,"<div style=""font-size:42px;"">MARINE</div>",null,,word,MARINE,,,,,,,,,,,,
html-keyboard-response,649,1093920,null,"",null,,word,MARINE,,,,,,,,,,,,
html-keyboard-response,650,1094121,null,"<div style=""font-size:42px;"">JOINT</div><img id = ""stim"" ><div class = green_square id = topsquare></div>",null,encoding,word_square,,,1,topsquare,32,true,,,JOINT,6,,,
html-keyboard-response,651,1094432,191.5,"<div style=""font-size:42px;"">JOINT</div>",32,,word,JOINT,,,,,,,,,,,,
html-keyboard-response,652,1095944,null,"",null,,word,JOINT,,,,,,,,,,,,
html-keyboard-response,653,1096149,null,"<div style=""font-size:42px;"">VESSEL</div><img id = ""stim"" ><div class = green_square id = bottomsquare></div>",null,encoding,word_square,,,1,bottomsquare,32,true,,,VESSEL,6,,,
html-keyboard-response,654,1096450,211.7999999988824,"<div style=""font-size:42px;"">VESSEL</div>",32,,word,VESSEL,,,,,,,,,,,,
html-keyboard-response,655,1097964,null,"",null,,word,VESSEL,,,,,,,,,,,,
html-keyboard-response,656,1098181,null,"<div style=""font-size:42px;"">COWBOY</div><img id = ""stim"" ><div class = red_square id = topsquare></div>",null,encoding,word_square,,,0,topsquare,none,true,,,COWBOY,6,,,
html-keyboard-response,657,1098490,null,"<div style=""font-size:42px;"">COWBOY</div>",null,,word,COWBOY,,,,,,,,,,,,
html-keyboard-response,658,1099998,null,"",null,,word,COWBOY,,,,,,,,,,,,
html-keyboard-response,659,1100199,null,"<div style=""font-size:42px;"">CONVICT</div><img id = ""stim"" ><div class = red_square id = bottomsquare></div>",null,encoding,word_square,,,0,bottomsquare,none,true,,,CONVICT,6,,,
html-keyboard-response,660,1100501,null,"<div style=""font-size:42px;"">CONVICT</div>",null,,word,CONVICT,,,,,,,,,,,,
html-keyboard-response,661,1102009,null,"",null,,word,CONVICT,,,,,,,,,,,,
html-keyboard-response,662,1102211,null,"<div style=""font-size:42px;"">COOK</div><img id = ""stim"" ><div class = green_square id = topsquare></div>",null,encoding,word_square,,,1,topsquare,32,true,,,COOK,6,,,
html-keyboard-response,663,1102513,214.69999999925494,"<div style=""font-size:42px;"">COOK</div>",32,,word,COOK,,,,,,,,,,,,
html-keyboard-response,664,1104017,null,"",null,,word,COOK,,,,,,,,,,,,
html-keyboard-response,665,1104219,null,"<div style=""font-size:42px;"">FROG</div><img id = ""stim"" ><div class = red_square id = topsquare></div>",null,encoding,word_square,,,0,topsquare,none,true,,,FROG,6,,,
html-keyboard-response,666,1104525,null,"<div style=""font-size:42px;"">FROG</div>",null,,word,FROG,,,,,,,,,,,,
html-keyboard-response,667,1106032,null,"",null,,word,FROG,,,,,,,,,,,,
html-keyboard-response,668,1106234,null,"<div style=""font-size:42px;"">PREACHER</div><img id = ""stim"" ><div class = green_square id = bottomsquare></div>",null,encoding,word_square,,,1,bottomsquare,32,true,,,PREACHER,6,,,
html-keyboard-response,669,1106549,null,"<div style=""font-size:42px;"">PREACHER</div>",null,,word,PREACHER,,,,,,,,,,,,
html-keyboard-response,670,1108056,140.80000000074506,"",32,,word,PREACHER,,,,,,,,,,,,
html-keyboard-response,671,1108260,null,"<div style=""font-size:42px;"">LAUNDRY</div><img id = ""stim"" ><div class = green_square id = topsquare></div>",null,encoding,word_square,,,1,topsquare,32,true,,,LAUNDRY,6,,,
html-keyboard-response,672,1108567,null,"<div style=""font-size:42px;"">LAUNDRY</div>",null,,word,LAUNDRY,,,,,,,,,,,,
html-keyboard-response,673,1110073,571.2999999988824,"",32,,word,LAUNDRY,,,,,,,,,,,,
html-keyboard-response,674,1110274,null,"<div style=""font-size:42px;"">TWISTER</div><img id = ""stim"" ><div class = red_square id = bottomsquare></div>",null,encoding,word_square,,,0,bottomsquare,none,true,,,TWISTER,6,,,
html-keyboard-response,675,1110585,null,"<div style=""font-size:42px;"">TWISTER</div>",null,,word,TWISTER,,,,,,,,,,,,
html-keyboard-response,676,1112092,null,"",null,,word,TWISTER,,,,,,,,,,,,
html-keyboard-response,677,1112295,null,"<div style=""font-size:42px;"">STAR</div><img id = ""stim"" ><div class = green_square id = bottomsquare></div>",null,encoding,word_square,,,1,bottomsquare,32,true,,,STAR,6,,,
html-keyboard-response,678,1112612,null,"<div style=""font-size:42px;"">STAR</div>",null,,word,STAR,,,,,,,,,,,,
html-keyboard-response,679,1114126,62.80000000074506,"",32,,word,STAR,,,,,,,,,,,,
html-keyboard-response,680,1114342,null,"<div style=""font-size:42px;"">MARS</div><img id = ""stim"" ><div class = red_square id = topsquare></div>",null,encoding,word_square,,,0,topsquare,none,true,,,MARS,6,,,
html-keyboard-response,681,1114657,null,"<div style=""font-size:42px;"">MARS</div>",null,,word,MARS,,,,,,,,,,,,
html-keyboard-response,682,1116172,null,"",null,,word,MARS,,,,,,,,,,,,
html-keyboard-response,683,1116374,null,"<div style=""font-size:42px;"">SADDLE</div><img id = ""stim"" ><div class = red_square id = bottomsquare></div>",null,encoding,word_square,,,0,bottomsquare,none,true,,,SADDLE,6,,,
html-keyboard-response,684,1116683,null,"<div style=""font-size:42px;"">SADDLE</div>",null,,word,SADDLE,,,,,,,,,,,,
html-keyboard-response,685,1118197,null,"",null,,word,SADDLE,,,,,,,,,,,,
html-keyboard-response,686,1118414,null,"<div style=""font-size:42px;"">CYCLONE</div><img id = ""stim"" ><div class = green_square id = topsquare></div>",null,encoding,word_square,,,1,topsquare,32,true,,,CYCLONE,6,,,
html-keyboard-response,687,1118715,293.40000000037253,"<div style=""font-size:42px;"">CYCLONE</div>",32,,word,CYCLONE,,,,,,,,,,,,
html-keyboard-response,688,1120228,null,"",null,,word,CYCLONE,,,,,,,,,,,,
html-keyboard-response,689,1120430,null,"<div style=""font-size:42px;"">SHEARS</div><img id = ""stim"" ><div class = green_square id = bottomsquare></div>",null,encoding,word_square,,,1,bottomsquare,32,true,,,SHEARS,6,,,
html-keyboard-response,690,1120741,null,"<div style=""font-size:42px;"">SHEARS</div>",null,,word,SHEARS,,,,,,,,,,,,
html-keyboard-response,691,1122251,365.90000000037253,"",32,,word,SHEARS,,,,,,,,,,,,
html-keyboard-response,692,1122467,null,"<div style=""font-size:42px;"">CLAM</div><img id = ""stim"" ><div class = red_square id = topsquare></div>",null,encoding,word_square,,,0,topsquare,none,true,,,CLAM,6,,,
html-keyboard-response,693,1122777,null,"<div style=""font-size:42px;"">CLAM</div>",null,,word,CLAM,,,,,,,,,,,,
html-keyboard-response,694,1124293,null,"",null,,word,CLAM,,,,,,,,,,,,
call-function,695,1124293,,"",,,,,,,,,,,,,,,,
html-keyboard-response,696,1124405,null,"",null,,,,,,,,,,,,,,,
math-period,697,1126269,3486.2000000011176,"",,,,,,,,,,,4,,,,,
html-keyboard-response,698,1126373,null,"",null,,,,,,,,,,,,,,,
math-period,699,1127677,2422.9000000003725,"",,,,,,,,,,,4,,,,,
html-keyboard-response,700,1127781,null,"",null,,,,,,,,,,,,,,,
math-period,701,1129173,2630.300000000745,"",,,,,,,,,,,5,,,,,
html-keyboard-response,702,1129282,null,"",null,,,,,,,,,,,,,,,
math-period,703,1131709,4701.199999999255,"",,,,,,,,,,,1,,,,,
html-keyboard-response,704,1131815,null,"",null,,,,,,,,,,,,,,,
math-period,705,1133525,3235.2999999988824,"",,,,,,,,,,,2,,,,,
html-keyboard-response,706,1133629,null,"",null,,,,,,,,,,,,,,,
math-period,707,1134725,2022.9999999981374,"",,,,,,,,,,,3,,,,,
html-keyboard-response,708,1134830,null,"",null,,,,,,,,,,,,,,,
math-period,709,1137238,4607.199999999255,"",,,,,,,,,,,1,,,,,
html-keyboard-response,710,1137339,null,"",null,,,,,,,,,,,,,,,
math-period,711,1138830,2548.7000000011176,"",,,,,,,,,,,4,,,,,
html-keyboard-response,712,1138947,null,"",null,,,,,,,,,,,,,,,
math-period,713,1140598,2813.5,"",,,,,,,,,,,3,,,,,
html-keyboard-response,714,1140702,null,"",null,,,,,,,,,,,,,,,
math-period,715,1141494,1406.7000000011176,"",,,,,,,,,,,3,,,,,
html-keyboard-response,716,1141595,null,"",null,,,,,,,,,,,,,,,
math-period,717,1143303,2709.4000000003725,"",,,,,,,,,,,3,,,,,
html-keyboard-response,718,1143418,null,"",null,,,,,,,,,,,,,,,
math-period,719,1145671,4152.800000000745,"",,,,,,,,,,,1,,,,,
html-keyboard-response,720,1145781,null,"",null,,,,,,,,,,,,,,,
math-period,721,1147679,3491.9999999981374,"",,,,,,,,,,,1,,,,,
html-keyboard-response,722,1147780,null,"",null,,,,,,,,,,,,,,,
math-period,723,1148305,null,"",,,,,,,,,,,,,,,,
html-keyboard-response,724,1149313,null,"Recall Period!",null,,,,,,,,,,,,,,,
call-function,725,1149313,,"",,,,,,,,,,,,,,,,
html-keyboard-response,726,1149421,null,"",null,,,,,,,,,,,,,,,
recall-period,727,1151528,10732.39999999851,"",,,,,,,,,,,cowboy,,,,,
html-keyboard-response,728,1151631,null,"",null,,,,,,,,,,,,,,,
recall-period,729,1153456,8465.100000003353,"",,,,,,,,,,,convict,,,,,
html-keyboard-response,730,1153567,null,"",null,,,,,,,,,,,,,,,
recall-period,731,1154512,2834,"",,,,,,,,,,,cook,,,,,
html-keyboard-response,732,1154625,null,"",null,,,,,,,,,,,,,,,
recall-period,733,1156112,8570.000000001863,"",,,,,,,,,,,preacher,,,,,
html-keyboard-response,734,1156213,null,"",null,,,,,,,,,,,,,,,
recall-period,735,1157433,4291.899999994785,"",,,,,,,,,,,star,,,,,
html-keyboard-response,736,1157547,null,"",null,,,,,,,,,,,,,,,
recall-period,737,1158993,6133.600000003353,"",,,,,,,,,,,saddle,,,,,
html-keyboard-response,738,1159104,null,"",null,,,,,,,,,,,,,,,
recall-period,739,1160609,6114.5999999996275,"",,,,,,,,,,,mars,,,,,
html-keyboard-response,740,1160725,null,"",null,,,,,,,,,,,,,,,
recall-period,741,1224318,null,"",,,,,,,,,,,,,,,,
html-keyboard-response,742,1224821,null,"Time's Up!",null,,,,,,,,,,,,,,,
html-keyboard-response,743,1226760,1937.699999999255,"<p> Good job! You have responded correctly to 99% of the trials. </p>
                      <p>Be sure to only press the spacebar if you see a GREEN square, and please keep your accuracy above 80%.</p>
                      <p> Press any key to continue the experiment. </p>",32,,,,,,,,,,,,,,,
html-keyboard-response,744,1227760,999,"<div style=""font-size:48px;"">Press any key to begin list 8 of 16 </div>",32,,,,,,,,,,,,,,,
html-keyboard-response,745,1230274,null,"<div style=""font-size:60px;"">+</div>",null,,,,,,,,,,,,,,,
html-keyboard-response,746,1230490,null,"<div style=""font-size:42px;"">CABIN</div><img id = ""stim"" ><div class = red_square id = topsquare></div>",null,encoding,word_square,,,0,topsquare,none,true,,,CABIN,7,,,
html-keyboard-response,747,1230798,null,"<div style=""font-size:42px;"">CABIN</div>",null,,word,CABIN,,,,,,,,,,,,
html-keyboard-response,748,1232303,null,"",null,,word,CABIN,,,,,,,,,,,,
html-keyboard-response,749,1232511,null,"<div style=""font-size:42px;"">HOOK</div><img id = ""stim"" ><div class = green_square id = bottomsquare></div>",null,encoding,word_square,,,1,bottomsquare,32,true,,,HOOK,7,,,
html-keyboard-response,750,1232813,null,"<div style=""font-size:42px;"">HOOK</div>",null,,word,HOOK,,,,,,,,,,,,
html-keyboard-response,751,1234318,122.39999999850988,"",32,,word,HOOK,,,,,,,,,,,,
html-keyboard-response,752,1234534,null,"<div style=""font-size:42px;"">ANGEL</div><img id = ""stim"" ><div class = green_square id = topsquare></div>",null,encoding,word_square,,,1,topsquare,32,true,,,ANGEL,7,,,
html-keyboard-response,753,1234836,289.09999999962747,"<div style=""font-size:42px;"">ANGEL</div>",32,,word,ANGEL,,,,,,,,,,,,
html-keyboard-response,754,1236349,null,"",null,,word,ANGEL,,,,,,,,,,,,
html-keyboard-response,755,1236566,null,"<div style=""font-size:42px;"">TRIBE</div><img id = ""stim"" ><div class = red_square id = bottomsquare></div>",null,encoding,word_square,,,0,bottomsquare,none,true,,,TRIBE,7,,,
html-keyboard-response,756,1236875,null,"<div style=""font-size:42px;"">TRIBE</div>",null,,word,TRIBE,,,,,,,,,,,,
html-keyboard-response,757,1238382,null,"",null,,word,TRIBE,,,,,,,,,,,,
html-keyboard-response,758,1238597,null,"<div style=""font-size:42px;"">HANDBAG</div><img id = ""stim"" ><div class = red_square id = topsquare></div>",null,encoding,word_square,,,0,topsquare,none,true,,,HANDBAG,7,,,
html-keyboard-response,759,1238904,null,"<div style=""font-size:42px;"">HANDBAG</div>",null,,word,HANDBAG,,,,,,,,,,,,
html-keyboard-response,760,1240406,null,"",null,,word,HANDBAG,,,,,,,,,,,,
html-keyboard-response,761,1240609,null,"<div style=""font-size:42px;"">ICEBERG</div><img id = ""stim"" ><div class = green_square id = bottomsquare></div>",null,encoding,word_square,,,1,bottomsquare,32,true,,,ICEBERG,7,,,
html-keyboard-response,762,1240910,207.69999999925494,"<div style=""font-size:42px;"">ICEBERG</div>",32,,word,ICEBERG,,,,,,,,,,,,
html-keyboard-response,763,1242414,null,"",null,,word,ICEBERG,,,,,,,,,,,,
html-keyboard-response,764,1242630,null,"<div style=""font-size:42px;"">CURTAIN</div><img id = ""stim"" ><div class = red_square id = bottomsquare></div>",null,encoding,word_square,,,0,bottomsquare,none,true,,,CURTAIN,7,,,
html-keyboard-response,765,1242943,null,"<div style=""font-size:42px;"">CURTAIN</div>",null,,word,CURTAIN,,,,,,,,,,,,
html-keyboard-response,766,1244454,null,"",null,,word,CURTAIN,,,,,,,,,,,,
html-keyboard-response,767,1244658,null,"<div style=""font-size:42px;"">WINDOW</div><img id = ""stim"" ><div class = green_square id = topsquare></div>",null,encoding,word_square,,,1,topsquare,32,true,,,WINDOW,7,,,
html-keyboard-response,768,1244965,null,"<div style=""font-size:42px;"">WINDOW</div>",null,,word,WINDOW,,,,,,,,,,,,
html-keyboard-response,769,1246471,59.09999999962747,"",32,,word,WINDOW,,,,,,,,,,,,
html-keyboard-response,770,1246674,null,"<div style=""font-size:42px;"">ARM</div><img id = ""stim"" ><div class = green_square id = bottomsquare></div>",null,encoding,word_square,,,1,bottomsquare,32,true,,,ARM,7,,,
html-keyboard-response,771,1246976,270.5,"<div style=""font-size:42px;"">ARM</div>",32,,word,ARM,,,,,,,,,,,,
html-keyboard-response,772,1248479,null,"",null,,word,ARM,,,,,,,,,,,,
html-keyboard-response,773,1248680,null,"<div style=""font-size:42px;"">TROUT</div><img id = ""stim"" ><div class = red_square id = topsquare></div>",null,encoding,word_square,,,0,topsquare,none,true,,,TROUT,7,,,
html-keyboard-response,774,1248996,null,"<div style=""font-size:42px;"">TROUT</div>",null,,word,TROUT,,,,,,,,,,,,
html-keyboard-response,775,1250501,null,"",null,,word,TROUT,,,,,,,,,,,,
html-keyboard-response,776,1250706,null,"<div style=""font-size:42px;"">MARROW</div><img id = ""stim"" ><div class = green_square id = topsquare></div>",null,encoding,word_square,,,1,topsquare,32,true,,,MARROW,7,,,
html-keyboard-response,777,1251008,215.69999999925494,"<div style=""font-size:42px;"">MARROW</div>",32,,word,MARROW,,,,,,,,,,,,
html-keyboard-response,778,1252519,null,"",null,,word,MARROW,,,,,,,,,,,,
html-keyboard-response,779,1252724,null,"<div style=""font-size:42px;"">BODY</div><img id = ""stim"" ><div class = red_square id = bottomsquare></div>",null,encoding,word_square,,,0,bottomsquare,none,true,,,BODY,7,,,
html-keyboard-response,780,1253035,null,"<div style=""font-size:42px;"">BODY</div>",null,,word,BODY,,,,,,,,,,,,
html-keyboard-response,781,1254538,null,"",null,,word,BODY,,,,,,,,,,,,
html-keyboard-response,782,1254741,null,"<div style=""font-size:42px;"">KNIFE</div><img id = ""stim"" ><div class = red_square id = topsquare></div>",null,encoding,word_square,,,0,topsquare,none,true,,,KNIFE,7,,,
html-keyboard-response,783,1255056,null,"<div style=""font-size:42px;"">KNIFE</div>",null,,word,KNIFE,,,,,,,,,,,,
html-keyboard-response,784,1256559,null,"",null,,word,KNIFE,,,,,,,,,,,,
html-keyboard-response,785,1256775,null,"<div style=""font-size:42px;"">PEOPLE</div><img id = ""stim"" ><div class = green_square id = bottomsquare></div>",null,encoding,word_square,,,1,bottomsquare,32,true,,,PEOPLE,7,,,
html-keyboard-response,786,1257077,234.30000000074506,"<div style=""font-size:42px;"">PEOPLE</div>",32,,word,PEOPLE,,,,,,,,,,,,
html-keyboard-response,787,1258589,null,"",null,,word,PEOPLE,,,,,,,,,,,,
html-keyboard-response,788,1258791,null,"<div style=""font-size:42px;"">KLEENEX</div><img id = ""stim"" ><div class = green_square id = topsquare></div>",null,encoding,word_square,,,1,topsquare,32,true,,,KLEENEX,7,,,
html-keyboard-response,789,1259099,307,"<div style=""font-size:42px;"">KLEENEX</div>",32,,word,KLEENEX,,,,,,,,,,,,
html-keyboard-response,790,1260613,null,"",null,,word,KLEENEX,,,,,,,,,,,,
html-keyboard-response,791,1260827,null,"<div style=""font-size:42px;"">SERGEANT</div><img id = ""stim"" ><div class = red_square id = bottomsquare></div>",null,encoding,word_square,,,0,bottomsquare,none,true,,,SERGEANT,7,,,
html-keyboard-response,792,1261139,null,"<div style=""font-size:42px;"">SERGEANT</div>",null,,word,SERGEANT,,,,,,,,,,,,
html-keyboard-response,793,1262648,null,"",null,,word,SERGEANT,,,,,,,,,,,,
call-function,794,1262649,,"",,,,,,,,,,,,,,,,
html-keyboard-response,795,1262757,null,"",null,,,,,,,,,,,,,,,
math-period,796,1264692,3579.89999999851,"",,,,,,,,,,,4,,,,,
html-keyboard-response,797,1264803,null,"",null,,,,,,,,,,,,,,,
math-period,798,1267988,6023.199999999255,"",,,,,,,,,,,3,,,,,
html-keyboard-response,799,1268100,null,"",null,,,,,,,,,,,,,,,
math-period,800,1269812,3279.10000000149,"",,,,,,,,,,,6,,,,,
html-keyboard-response,801,1269916,null,"",null,,,,,,,,,,,,,,,
math-period,802,1271628,3271,"",,,,,,,,,,,5,,,,,
html-keyboard-response,803,1271734,null,"",null,,,,,,,,,,,,,,,
math-period,804,1273036,2418.0999999996275,"",,,,,,,,,,,5,,,,,
html-keyboard-response,805,1273137,null,"",null,,,,,,,,,,,,,,,
math-period,806,1275157,3549.400000002235,"",,,,,,,,,,,3,,,,,
html-keyboard-response,807,1275258,null,"",null,,,,,,,,,,,,,,,
math-period,808,1276317,1883.7000000011176,"",,,,,,,,,,,3,,,,,
html-keyboard-response,809,1276420,null,"",null,,,,,,,,,,,,,,,
math-period,810,1278333,3697.10000000149,"",,,,,,,,,,,5,,,,,
html-keyboard-response,811,1278437,null,"",null,,,,,,,,,,,,,,,
math-period,812,1279525,1973.699999999255,"",,,,,,,,,,,5,,,,,
html-keyboard-response,813,1279629,null,"",null,,,,,,,,,,,,,,,
math-period,814,1281342,3231.0999999996275,"",,,,,,,,,,,3,,,,,
html-keyboard-response,815,1281446,null,"",null,,,,,,,,,,,,,,,
math-period,816,1283734,4413.10000000149,"",,,,,,,,,,,3,,,,,
html-keyboard-response,817,1283838,null,"",null,,,,,,,,,,,,,,,
math-period,818,1285550,3198.8000000026077,"",,,,,,,,,,,3,,,,,
html-keyboard-response,819,1285656,null,"",null,,,,,,,,,,,,,,,
math-period,820,1286661,null,"",,,,,,,,,,,,,,,,
html-keyboard-response,821,1287670,null,"Recall Period!",null,,,,,,,,,,,,,,,
call-function,822,1287670,,"",,,,,,,,,,,,,,,,
html-keyboard-response,823,1287772,null,"",null,,,,,,,,,,,,,,,
recall-period,824,1289206,3988.2000000029802,"",,,,,,,,,,,arm,,,,,
html-keyboard-response,825,1289323,null,"",null,,,,,,,,,,,,,,,
recall-period,826,1290262,3091.7000000011176,"",,,,,,,,,,,body,,,,,
html-keyboard-response,827,1290363,null,"",null,,,,,,,,,,,,,,,
recall-period,828,1291839,6770.0999999996275,"",,,,,,,,,,,people,,,,,
html-keyboard-response,829,1291941,null,"",null,,,,,,,,,,,,,,,
recall-period,830,1293263,4699.000000003725,"",,,,,,,,,,,cabin,,,,,
html-keyboard-response,831,1293375,null,"",null,,,,,,,,,,,,,,,
recall-period,832,1295111,9138.60000000149,"",,,,,,,,,,,curtain,,,,,
html-keyboard-response,833,1295224,null,"",null,,,,,,,,,,,,,,,
recall-period,834,1296455,5509.500000001863,"",,,,,,,,,,,window,,,,,
html-keyboard-response,835,1296565,null,"",null,,,,,,,,,,,,,,,
recall-period,836,1362672,4826.700000001118,"",,,,,,,,,,,,,,,,
html-keyboard-response,837,1363182,null,"Time's Up!",null,,,,,,,,,,,,,,,
html-keyboard-response,838,1368703,5520.5999999996275,"<p> Good job! You have responded correctly to 99% of the trials. </p>
                      <p>Be sure to only press the spacebar if you see a GREEN square, and please keep your accuracy above 80%.</p>
                      <p> Press any key to continue the experiment. </p>",32,,,,,,,,,,,,,,,
html-keyboard-response,839,1370039,1335.0999999996275,"<div style=""font-size:48px;"">Press any key to begin list 9 of 16 </div>",32,,,,,,,,,,,,,,,
html-keyboard-response,840,1372556,null,"<div style=""font-size:60px;"">+</div>",null,,,,,,,,,,,,,,,
html-keyboard-response,841,1372757,null,"<div style=""font-size:42px;"">PORT</div><img id = ""stim"" ><div class = green_square id = topsquare></div>",null,encoding,word_square,,,1,topsquare,32,true,,,PORT,8,,,
html-keyboard-response,842,1373060,273,"<div style=""font-size:42px;"">PORT</div>",32,,word,PORT,,,,,,,,,,,,
html-keyboard-response,843,1374573,null,"",null,,word,PORT,,,,,,,,,,,,
html-keyboard-response,844,1374789,null,"<div style=""font-size:42px;"">CAPE</div><img id = ""stim"" ><div class = green_square id = bottomsquare></div>",null,encoding,word_square,,,1,bottomsquare,32,true,,,CAPE,8,,,
html-keyboard-response,845,1375092,233.5,"<div style=""font-size:42px;"">CAPE</div>",32,,word,CAPE,,,,,,,,,,,,
html-keyboard-response,846,1376598,null,"",null,,word,CAPE,,,,,,,,,,,,
html-keyboard-response,847,1376814,null,"<div style=""font-size:42px;"">ICING</div><img id = ""stim"" ><div class = green_square id = topsquare></div>",null,encoding,word_square,,,1,topsquare,32,true,,,ICING,8,,,
html-keyboard-response,848,1377120,185.2999999988824,"<div style=""font-size:42px;"">ICING</div>",32,,word,ICING,,,,,,,,,,,,
html-keyboard-response,849,1378628,null,"",null,,word,ICING,,,,,,,,,,,,
html-keyboard-response,850,1378843,null,"<div style=""font-size:42px;"">PISTOL</div><img id = ""stim"" ><div class = green_square id = bottomsquare></div>",null,encoding,word_square,,,1,bottomsquare,32,true,,,PISTOL,8,,,
html-keyboard-response,851,1379145,204.2999999988824,"<div style=""font-size:42px;"">PISTOL</div>",32,,word,PISTOL,,,,,,,,,,,,
html-keyboard-response,852,1380661,null,"",null,,word,PISTOL,,,,,,,,,,,,
html-keyboard-response,853,1380866,null,"<div style=""font-size:42px;"">CATCHER</div><img id = ""stim"" ><div class = red_square id = bottomsquare></div>",null,encoding,word_square,,,0,bottomsquare,none,true,,,CATCHER,8,,,
html-keyboard-response,854,1381176,null,"<div style=""font-size:42px;"">CATCHER</div>",null,,word,CATCHER,,,,,,,,,,,,
html-keyboard-response,855,1382690,null,"",null,,word,CATCHER,,,,,,,,,,,,
html-keyboard-response,856,1382903,null,"<div style=""font-size:42px;"">SHAMPOO</div><img id = ""stim"" ><div class = green_square id = topsquare></div>",null,encoding,word_square,,,1,topsquare,32,true,,,SHAMPOO,8,,,
html-keyboard-response,857,1383205,199.90000000037253,"<div style=""font-size:42px;"">SHAMPOO</div>",32,,word,SHAMPOO,,,,,,,,,,,,
html-keyboard-response,858,1384722,null,"",null,,word,SHAMPOO,,,,,,,,,,,,
html-keyboard-response,859,1384934,null,"<div style=""font-size:42px;"">LITTER</div><img id = ""stim"" ><div class = red_square id = topsquare></div>",null,encoding,word_square,,,0,topsquare,none,true,,,LITTER,8,,,
html-keyboard-response,860,1385241,null,"<div style=""font-size:42px;"">LITTER</div>",null,,word,LITTER,,,,,,,,,,,,
html-keyboard-response,861,1386754,null,"",null,,word,LITTER,,,,,,,,,,,,
html-keyboard-response,862,1386958,null,"<div style=""font-size:42px;"">COUNTRY</div><img id = ""stim"" ><div class = red_square id = bottomsquare></div>",null,encoding,word_square,,,0,bottomsquare,none,true,,,COUNTRY,8,,,
html-keyboard-response,863,1387270,null,"<div style=""font-size:42px;"">COUNTRY</div>",null,,word,COUNTRY,,,,,,,,,,,,
html-keyboard-response,864,1388783,null,"",null,,word,COUNTRY,,,,,,,,,,,,
html-keyboard-response,865,1388999,null,"<div style=""font-size:42px;"">INMATE</div><img id = ""stim"" ><div class = green_square id = bottomsquare></div>",null,encoding,word_square,,,1,bottomsquare,32,true,,,INMATE,8,,,
html-keyboard-response,866,1389301,193,"<div style=""font-size:42px;"">INMATE</div>",32,,word,INMATE,,,,,,,,,,,,
html-keyboard-response,867,1390810,null,"",null,,word,INMATE,,,,,,,,,,,,
html-keyboard-response,868,1391026,null,"<div style=""font-size:42px;"">SUSPECT</div><img id = ""stim"" ><div class = red_square id = topsquare></div>",null,encoding,word_square,,,0,topsquare,none,true,,,SUSPECT,8,,,
html-keyboard-response,869,1391335,null,"<div style=""font-size:42px;"">SUSPECT</div>",null,,word,SUSPECT,,,,,,,,,,,,
html-keyboard-response,870,1392844,null,"",null,,word,SUSPECT,,,,,,,,,,,,
html-keyboard-response,871,1393057,null,"<div style=""font-size:42px;"">TUNNEL</div><img id = ""stim"" ><div class = red_square id = bottomsquare></div>",null,encoding,word_square,,,0,bottomsquare,none,true,,,TUNNEL,8,,,
html-keyboard-response,872,1393365,null,"<div style=""font-size:42px;"">TUNNEL</div>",null,,word,TUNNEL,,,,,,,,,,,,
html-keyboard-response,873,1394874,null,"",null,,word,TUNNEL,,,,,,,,,,,,
html-keyboard-response,874,1395089,null,"<div style=""font-size:42px;"">BANJO</div><img id = ""stim"" ><div class = green_square id = topsquare></div>",null,encoding,word_square,,,1,topsquare,32,true,,,BANJO,8,,,
html-keyboard-response,875,1395390,271.59999999962747,"<div style=""font-size:42px;"">BANJO</div>",32,,word,BANJO,,,,,,,,,,,,
html-keyboard-response,876,1396901,null,"",null,,word,BANJO,,,,,,,,,,,,
html-keyboard-response,877,1397104,null,"<div style=""font-size:42px;"">PRINCESS</div><img id = ""stim"" ><div class = red_square id = topsquare></div>",null,encoding,word_square,,,0,topsquare,none,true,,,PRINCESS,8,,,
html-keyboard-response,878,1397413,null,"<div style=""font-size:42px;"">PRINCESS</div>",null,,word,PRINCESS,,,,,,,,,,,,
html-keyboard-response,879,1398921,null,"",null,,word,PRINCESS,,,,,,,,,,,,
html-keyboard-response,880,1399135,null,"<div style=""font-size:42px;"">EARRING</div><img id = ""stim"" ><div class = green_square id = bottomsquare></div>",null,encoding,word_square,,,1,bottomsquare,32,true,,,EARRING,8,,,
html-keyboard-response,881,1399436,209.7000000011176,"<div style=""font-size:42px;"">EARRING</div>",32,,word,EARRING,,,,,,,,,,,,
html-keyboard-response,882,1400951,null,"",null,,word,EARRING,,,,,,,,,,,,
html-keyboard-response,883,1401153,null,"<div style=""font-size:42px;"">FIDDLE</div><img id = ""stim"" ><div class = red_square id = bottomsquare></div>",null,encoding,word_square,,,0,bottomsquare,none,true,,,FIDDLE,8,,,
html-keyboard-response,884,1401463,null,"<div style=""font-size:42px;"">FIDDLE</div>",null,,word,FIDDLE,,,,,,,,,,,,
html-keyboard-response,885,1402965,null,"",null,,word,FIDDLE,,,,,,,,,,,,
