trial_type,trial_index,time_elapsed,rt,stimulus,key_press,exp_phase,test_part,word,task,targ_cond,sq_pos,correctKeyCode,correct,value,response,Word,List,RecResp,serial_pos,colorChosen
pavlovia,0,3009,,"",,,,,,,,,,,,,,,,
external-html,1,6379,3153.9000000003725,"",,,,,,,,,,,,,,,,
html-keyboard-response,2,8653,2268.300000000745,"Welcome to the experiment. Press any key to begin.",32,,,,,,,,,,,,,,,
html-keyboard-response,3,31204,22548.199999999255,"<p>You will see a list of words and colored squares in the following task.<p><p>Press the spacebar whenever you see a GREEN square.<p><p>Do not press a key if the square is RED.<p><p>Press the spacebar to continue.</p>",32,,,,,,,,,,,,,,,
html-keyboard-response,4,46592,14885.300000000745,"<p>Please try to remember as many of the words as you can, and try to think about the meaning of each word as it appears.<p><p>After the detection and encoding task you will be asked to solve some math problems for 24 seconds.<p> Please solve as many problems as you can in the time given. <p><p><p>Press the spacebar to continue.</p>",32,,,,,,,,,,,,,,,
html-keyboard-response,5,58940,11847.200000001118,"After solving the math problems, you will be asked to type in as many words <p>from the previous list as you can remember for 75 seconds.<p> If you finish recalling before the 75 seconds are up,<p> just sit tight and try to think of any more words you could have missed. <p><p><p>Press the spacebar to continue.</p>",32,,,,,,,,,,,,,,,
html-keyboard-response,6,69204,9755.800000000745,"There will be 16 lists of words and recall, followed  by<p><p> a recognition phase. The experiment is expected to take up to 90 minutes.<p>We will begin with a brief practice session.<p>Press the spacebar to begin the practice.</p>",32,,,,,,,,,,,,,,,
html-keyboard-response,7,71706,null,"<div style=""font-size:60px;"">+</div>",null,,,,,,,,,,,,,,,
html-keyboard-response,8,71908,null,"<div style=""font-size:42px;"">HAPPY</div><img id = ""stim"" ><div class = red_square id = ""bottomsquare"" ></div>",null,practice,word_square,HAPPY,prac_response,0,Bottom,none,true,,,,,,,
html-keyboard-response,9,72210,null,"<div style=""font-size:42px;"">HAPPY</div>",null,,word,HAPPY,,,,,,,,,,,,
html-keyboard-response,10,73712,null,"",null,,word,HAPPY,,,,,,,,,,,,
html-keyboard-response,11,73914,null,"<div style=""font-size:42px;"">COLD</div><img id = ""stim"" ><div class = green_square id = ""bottomsquare"" ></div>",null,practice,word_square,COLD,prac_response,1,Bottom,32,true,,,,,,,
html-keyboard-response,12,74216,184.30000000074506,"<div style=""font-size:42px;"">COLD</div>",32,,word,COLD,,,,,,,,,,,,
html-keyboard-response,13,75718,null,"",null,,word,COLD,,,,,,,,,,,,
html-keyboard-response,14,75921,null,"<div style=""font-size:42px;"">HEAVY</div><img id = ""stim"" ><div class = green_square id = ""topsquare"" ></div>",null,practice,word_square,HEAVY,prac_response,1,Top,32,true,,,,,,,
html-keyboard-response,15,76222,179.89999999850988,"<div style=""font-size:42px;"">HEAVY</div>",32,,word,HEAVY,,,,,,,,,,,,
html-keyboard-response,16,77724,null,"",null,,word,HEAVY,,,,,,,,,,,,
html-keyboard-response,17,77925,null,"<div style=""font-size:42px;"">FUNNY</div><img id = ""stim"" ><div class = red_square id = ""topsquare"" ></div>",null,practice,word_square,FUNNY,prac_response,0,Top,none,true,,,,,,,
html-keyboard-response,18,78229,null,"<div style=""font-size:42px;"">FUNNY</div>",null,,word,FUNNY,,,,,,,,,,,,
html-keyboard-response,19,79730,null,"",null,,word,FUNNY,,,,,,,,,,,,
html-keyboard-response,20,79932,null,"<div style=""font-size:42px;"">SCARY</div><img id = ""stim"" ><div class = green_square id = ""bottomsquare"" ></div>",null,practice,word_square,SCARY,prac_response,1,Bottom,32,true,,,,,,,
html-keyboard-response,21,80233,102.90000000037253,"<div style=""font-size:42px;"">SCARY</div>",32,,word,SCARY,,,,,,,,,,,,
html-keyboard-response,22,81735,null,"",null,,word,SCARY,,,,,,,,,,,,
html-keyboard-response,23,81937,null,"<div style=""font-size:42px;"">PEACEFUL</div><img id = ""stim"" ><div class = green_square id = ""topsquare"" ></div>",null,practice,word_square,PEACEFUL,prac_response,1,Top,32,true,,,,,,,
html-keyboard-response,24,82238,243.5,"<div style=""font-size:42px;"">PEACEFUL</div>",32,,word,PEACEFUL,,,,,,,,,,,,
html-keyboard-response,25,83740,null,"",null,,word,PEACEFUL,,,,,,,,,,,,
html-keyboard-response,26,83941,null,"<div style=""font-size:42px;"">LITTLE</div><img id = ""stim"" ><div class = red_square id = ""bottomsquare"" ></div>",null,practice,word_square,LITTLE,prac_response,0,Bottom,none,true,,,,,,,
html-keyboard-response,27,84254,null,"<div style=""font-size:42px;"">LITTLE</div>",null,,word,LITTLE,,,,,,,,,,,,
html-keyboard-response,28,85755,null,"",null,,word,LITTLE,,,,,,,,,,,,
html-keyboard-response,29,85957,193.30000000074506,"<div style=""font-size:42px;"">TIRED</div><img id = ""stim"" ><div class = red_square id = ""topsquare"" ></div>",32,practice,word_square,TIRED,prac_response,0,Top,none,false,,,,,,,
html-keyboard-response,30,86258,null,"<div style=""font-size:42px;"">TIRED</div>",null,,word,TIRED,,,,,,,,,,,,
html-keyboard-response,31,87761,null,"",null,,word,TIRED,,,,,,,,,,,,
html-keyboard-response,32,87962,null,"<div style=""font-size:42px;"">ENTERTAINING</div><img id = ""stim"" ><div class = red_square id = ""bottomsquare"" ></div>",null,practice,word_square,ENTERTAINING,prac_response,0,Bottom,none,true,,,,,,,
html-keyboard-response,33,88264,null,"<div style=""font-size:42px;"">ENTERTAINING</div>",null,,word,ENTERTAINING,,,,,,,,,,,,
html-keyboard-response,34,89765,null,"",null,,word,ENTERTAINING,,,,,,,,,,,,
html-keyboard-response,35,89968,null,"<div style=""font-size:42px;"">GRATEFUL</div><img id = ""stim"" ><div class = green_square id = ""bottomsquare"" ></div>",null,practice,word_square,GRATEFUL,prac_response,1,Bottom,32,true,,,,,,,
html-keyboard-response,36,90270,113.19999999925494,"<div style=""font-size:42px;"">GRATEFUL</div>",32,,word,GRATEFUL,,,,,,,,,,,,
html-keyboard-response,37,91771,null,"",null,,word,GRATEFUL,,,,,,,,,,,,
html-keyboard-response,38,91973,null,"<div style=""font-size:42px;"">LOUD</div><img id = ""stim"" ><div class = red_square id = ""topsquare"" ></div>",null,practice,word_square,LOUD,prac_response,0,Top,none,true,,,,,,,
html-keyboard-response,39,92275,null,"<div style=""font-size:42px;"">LOUD</div>",null,,word,LOUD,,,,,,,,,,,,
html-keyboard-response,40,93777,null,"",null,,word,LOUD,,,,,,,,,,,,
html-keyboard-response,41,93980,null,"<div style=""font-size:42px;"">SMART</div><img id = ""stim"" ><div class = green_square id = ""topsquare"" ></div>",null,practice,word_square,SMART,prac_response,1,Top,32,true,,,,,,,
html-keyboard-response,42,94282,103.09999999962747,"<div style=""font-size:42px;"">SMART</div>",32,,word,SMART,,,,,,,,,,,,
html-keyboard-response,43,95783,null,"",null,,word,SMART,,,,,,,,,,,,
html-keyboard-response,44,95985,null,"<div style=""font-size:42px;"">SMOOTH</div><img id = ""stim"" ><div class = green_square id = ""bottomsquare"" ></div>",null,practice,word_square,SMOOTH,prac_response,1,Bottom,32,true,,,,,,,
html-keyboard-response,45,96287,161.30000000074506,"<div style=""font-size:42px;"">SMOOTH</div>",32,,word,SMOOTH,,,,,,,,,,,,
html-keyboard-response,46,97788,null,"",null,,word,SMOOTH,,,,,,,,,,,,
html-keyboard-response,47,97990,null,"<div style=""font-size:42px;"">DISHONEST</div><img id = ""stim"" ><div class = red_square id = ""bottomsquare"" ></div>",null,practice,word_square,DISHONEST,prac_response,0,Bottom,none,true,,,,,,,
html-keyboard-response,48,98291,null,"<div style=""font-size:42px;"">DISHONEST</div>",null,,word,DISHONEST,,,,,,,,,,,,
html-keyboard-response,49,99793,null,"",null,,word,DISHONEST,,,,,,,,,,,,
html-keyboard-response,50,99995,null,"<div style=""font-size:42px;"">WEALTHY</div><img id = ""stim"" ><div class = green_square id = ""topsquare"" ></div>",null,practice,word_square,WEALTHY,prac_response,1,Top,32,true,,,,,,,
html-keyboard-response,51,100296,51.899999998509884,"<div style=""font-size:42px;"">WEALTHY</div>",32,,word,WEALTHY,,,,,,,,,,,,
html-keyboard-response,52,101798,null,"",null,,word,WEALTHY,,,,,,,,,,,,
html-keyboard-response,53,102000,null,"<div style=""font-size:42px;"">BEAUTIFUL</div><img id = ""stim"" ><div class = red_square id = ""topsquare"" ></div>",null,practice,word_square,BEAUTIFUL,prac_response,0,Top,none,true,,,,,,,
html-keyboard-response,54,102302,null,"<div style=""font-size:42px;"">BEAUTIFUL</div>",null,,word,BEAUTIFUL,,,,,,,,,,,,
html-keyboard-response,55,103803,null,"",null,,word,BEAUTIFUL,,,,,,,,,,,,
html-keyboard-response,56,121066,17260.5,"<p> Good job! You responded correctly to 94% of the trials. </p>
                  <p>Be sure to only press the spacebar if you see a GREEN square, and please keep your accuracy above 80%.</p>
                  <p>We're going to try once more to make sure you understand the task. press any key to continue. </p>",32,,,,,,,,,,,,,,,
html-keyboard-response,57,123703,2635.7000000011176,"<p>You will see a list of words and colored squares in the following task.<p><p>Press the spacebar whenever you see a GREEN square.<p><p>Do not press a key if the square is RED<p><p>Press the spacebar to continue.</p>",32,,,,,,,,,,,,,,,
html-keyboard-response,58,126204,null,"<div style=""font-size:60px;"">+</div>",null,,,,,,,,,,,,,,,
html-keyboard-response,59,126407,null,"<div style=""font-size:42px;"">HAPPY</div><img id = ""stim"" ><div class = red_square id = ""bottomsquare"" ></div>",null,practice2,word_square,HAPPY,prac_response,0,Bottom,none,true,,,,,,,
html-keyboard-response,60,126710,null,"<div style=""font-size:42px;"">HAPPY</div>",null,,word,HAPPY,,,,,,,,,,,,
html-keyboard-response,61,128213,null,"",null,,word,HAPPY,,,,,,,,,,,,
html-keyboard-response,62,128415,null,"<div style=""font-size:42px;"">COLD</div><img id = ""stim"" ><div class = green_square id = ""bottomsquare"" ></div>",null,practice2,word_square,,prac_response,1,Bottom,32,true,,,,,,,
html-keyboard-response,63,128717,78.80000000074506,"<div style=""font-size:42px;"">COLD</div>",32,,word,COLD,,,,,,,,,,,,
html-keyboard-response,64,130218,null,"",null,,word,COLD,,,,,,,,,,,,
html-keyboard-response,65,130420,null,"<div style=""font-size:42px;"">HEAVY</div><img id = ""stim"" ><div class = green_square id = ""topsquare"" ></div>",null,practice2,word_square,,prac_response,1,Top,32,true,,,,,,,
html-keyboard-response,66,130723,215.09999999962747,"<div style=""font-size:42px;"">HEAVY</div>",32,,word,HEAVY,,,,,,,,,,,,
html-keyboard-response,67,132226,null,"",null,,word,HEAVY,,,,,,,,,,,,
html-keyboard-response,68,132427,null,"<div style=""font-size:42px;"">FUNNY</div><img id = ""stim"" ><div class = red_square id = ""topsquare"" ></div>",null,practice2,word_square,,prac_response,0,Top,none,true,,,,,,,
html-keyboard-response,69,132729,null,"<div style=""font-size:42px;"">FUNNY</div>",null,,word,FUNNY,,,,,,,,,,,,
html-keyboard-response,70,134231,null,"",null,,word,FUNNY,,,,,,,,,,,,
html-keyboard-response,71,134434,null,"<div style=""font-size:42px;"">SCARY</div><img id = ""stim"" ><div class = green_square id = ""bottomsquare"" ></div>",null,practice2,word_square,,prac_response,1,Bottom,32,true,,,,,,,
html-keyboard-response,72,134736,95.09999999962747,"<div style=""font-size:42px;"">SCARY</div>",32,,word,SCARY,,,,,,,,,,,,
html-keyboard-response,73,136238,null,"",null,,word,SCARY,,,,,,,,,,,,
html-keyboard-response,74,136439,null,"<div style=""font-size:42px;"">PEACEFUL</div><img id = ""stim"" ><div class = green_square id = ""topsquare"" ></div>",null,practice2,word_square,,prac_response,1,Top,32,true,,,,,,,
html-keyboard-response,75,136741,131.19999999925494,"<div style=""font-size:42px;"">PEACEFUL</div>",32,,word,PEACEFUL,,,,,,,,,,,,
html-keyboard-response,76,138243,null,"",null,,word,PEACEFUL,,,,,,,,,,,,
html-keyboard-response,77,138444,null,"<div style=""font-size:42px;"">LITTLE</div><img id = ""stim"" ><div class = red_square id = ""bottomsquare"" ></div>",null,practice2,word_square,LITTLE,prac_response,0,Bottom,none,true,,,,,,,
html-keyboard-response,78,138746,null,"<div style=""font-size:42px;"">LITTLE</div>",null,,word,LITTLE,,,,,,,,,,,,
html-keyboard-response,79,140249,null,"",null,,word,LITTLE,,,,,,,,,,,,
html-keyboard-response,80,140454,null,"<div style=""font-size:42px;"">TIRED</div><img id = ""stim"" ><div class = red_square id = ""topsquare"" ></div>",null,practice2,word_square,,prac_response,0,Top,none,true,,,,,,,
html-keyboard-response,81,140756,null,"<div style=""font-size:42px;"">TIRED</div>",null,,word,TIRED,,,,,,,,,,,,
html-keyboard-response,82,142258,null,"",null,,word,TIRED,,,,,,,,,,,,
html-keyboard-response,83,142460,null,"<div style=""font-size:42px;"">ENTERTAINING</div><img id = ""stim"" ><div class = red_square id = ""bottomsquare"" ></div>",null,practice2,word_square,ENTERTAINING,prac_response,0,Bottom,none,true,,,,,,,
html-keyboard-response,84,142763,null,"<div style=""font-size:42px;"">ENTERTAINING</div>",null,,word,ENTERTAINING,,,,,,,,,,,,
html-keyboard-response,85,144265,null,"",null,,word,ENTERTAINING,,,,,,,,,,,,
html-keyboard-response,86,144467,null,"<div style=""font-size:42px;"">GRATEFUL</div><img id = ""stim"" ><div class = green_square id = ""bottomsquare"" ></div>",null,practice2,word_square,,prac_response,1,Bottom,32,true,,,,,,,
html-keyboard-response,87,144768,99.90000000037253,"<div style=""font-size:42px;"">GRATEFUL</div>",32,,word,GRATEFUL,,,,,,,,,,,,
html-keyboard-response,88,146270,null,"",null,,word,GRATEFUL,,,,,,,,,,,,
html-keyboard-response,89,146472,null,"<div style=""font-size:42px;"">LOUD</div><img id = ""stim"" ><div class = red_square id = ""topsquare"" ></div>",null,practice2,word_square,,prac_response,0,Top,none,true,,,,,,,
html-keyboard-response,90,146775,null,"<div style=""font-size:42px;"">LOUD</div>",null,,word,LOUD,,,,,,,,,,,,
html-keyboard-response,91,148276,null,"",null,,word,LOUD,,,,,,,,,,,,
html-keyboard-response,92,148479,null,"<div style=""font-size:42px;"">SMART</div><img id = ""stim"" ><div class = green_square id = ""topsquare"" ></div>",null,practice2,word_square,,prac_response,1,Top,32,true,,,,,,,
html-keyboard-response,93,148781,96.79999999888241,"<div style=""font-size:42px;"">SMART</div>",32,,word,SMART,,,,,,,,,,,,
html-keyboard-response,94,150283,null,"",null,,word,SMART,,,,,,,,,,,,
html-keyboard-response,95,150484,null,"<div style=""font-size:42px;"">SMOOTH</div><img id = ""stim"" ><div class = green_square id = ""bottomsquare"" ></div>",null,practice2,word_square,,prac_response,1,Bottom,32,true,,,,,,,
html-keyboard-response,96,150786,179.5,"<div style=""font-size:42px;"">SMOOTH</div>",32,,word,SMOOTH,,,,,,,,,,,,
html-keyboard-response,97,152288,null,"",null,,word,SMOOTH,,,,,,,,,,,,
html-keyboard-response,98,152490,null,"<div style=""font-size:42px;"">DISHONEST</div><img id = ""stim"" ><div class = red_square id = ""bottomsquare"" ></div>",null,practice2,word_square,DISHONEST,prac_response,0,Bottom,none,true,,,,,,,
html-keyboard-response,99,152792,null,"<div style=""font-size:42px;"">DISHONEST</div>",null,,word,DISHONEST,,,,,,,,,,,,
html-keyboard-response,100,154294,null,"",null,,word,DISHONEST,,,,,,,,,,,,
html-keyboard-response,101,154496,null,"<div style=""font-size:42px;"">WEALTHY</div><img id = ""stim"" ><div class = green_square id = ""topsquare"" ></div>",null,practice2,word_square,,prac_response,1,Top,32,true,,,,,,,
html-keyboard-response,102,154798,118.79999999888241,"<div style=""font-size:42px;"">WEALTHY</div>",32,,word,WEALTHY,,,,,,,,,,,,
html-keyboard-response,103,156299,null,"",null,,word,WEALTHY,,,,,,,,,,,,
html-keyboard-response,104,156502,null,"<div style=""font-size:42px;"">BEAUTIFUL</div><img id = ""stim"" ><div class = red_square id = ""topsquare"" ></div>",null,practice2,word_square,,prac_response,0,Top,none,false,,,,,,,
html-keyboard-response,105,156805,null,"<div style=""font-size:42px;"">BEAUTIFUL</div>",null,,word,BEAUTIFUL,,,,,,,,,,,,
html-keyboard-response,106,158308,null,"",null,,word,BEAUTIFUL,,,,,,,,,,,,
html-keyboard-response,107,163338,5026.5,"<p> Good job! You responded correctly to 100% of the trials. </p>
                    <p>Be sure to only press the spacebar if you see a GREEN square, and please keep your accuracy above 80%.</p>
                    <p>Press any key to begin the math and recall sections. Thank you! </p>",32,,,,,,,,,,,,,,,
call-function,108,163340,,"",,,,,,,,,,,,,,,,
html-keyboard-response,109,163442,null,"",null,,,,,,,,,,,,,,,
math-period,110,167023,5564.699999999255,"",,,,,,,,,,,3,,,,,
html-keyboard-response,111,167125,null,"",null,,,,,,,,,,,,,,,
math-period,112,169102,3856.4000000003725,"",,,,,,,,,,,4,,,,,
html-keyboard-response,113,169204,null,"",null,,,,,,,,,,,,,,,
math-period,114,170414,2308.5999999996275,"",,,,,,,,,,,3,,,,,
html-keyboard-response,115,170516,null,"",null,,,,,,,,,,,,,,,
math-period,116,171845,2603.7000000029802,"",,,,,,,,,,,5,,,,,
html-keyboard-response,117,171946,null,"",null,,,,,,,,,,,,,,,
math-period,118,174652,5329.500000001863,"",,,,,,,,,,,4,,,,,
html-keyboard-response,119,174753,null,"",null,,,,,,,,,,,,,,,
math-period,120,176247,2895,"",,,,,,,,,,,4,,,,,
html-keyboard-response,121,176349,null,"",null,,,,,,,,,,,,,,,
math-period,122,179716,6542.900000002235,"",,,,,,,,,,,2,,,,,
html-keyboard-response,123,179818,null,"",null,,,,,,,,,,,,,,,
math-period,124,185079,10039.599999999627,"",,,,,,,,,,,1,,,,,
html-keyboard-response,125,185182,null,"",null,,,,,,,,,,,,,,,
math-period,126,186398,2340.2000000011176,"",,,,,,,,,,,3,,,,,
html-keyboard-response,127,186500,null,"",null,,,,,,,,,,,,,,,
math-period,128,187342,null,"",,,,,,,,,,,,,,,,
html-keyboard-response,129,188343,null,"Recall Period!",null,,,,,,,,,,,,,,,
call-function,130,188344,,"",,,,,,,,,,,,,,,,
html-keyboard-response,131,188446,null,"",null,,,,,,,,,,,,,,,
recall-period,132,193033,25135,"",,,,,,,,,,,happy,,,,,
html-keyboard-response,133,193134,null,"",null,,,,,,,,,,,,,,,
recall-period,134,198894,69654.2000000123,"",,,,,,,,,,,grateful,,,,,
html-keyboard-response,135,198997,null,"",null,,,,,,,,,,,,,,,
recall-period,136,204797,48474.500000003725,"",,,,,,,,,,,wealthy,,,,,
html-keyboard-response,137,204898,null,"",null,,,,,,,,,,,,,,,
recall-period,138,207293,10820.399999996647,"",,,,,,,,,,,scary,,,,,
html-keyboard-response,139,207395,null,"",null,,,,,,,,,,,,,,,
recall-period,140,263346,null,"",,,,,,,,,,,,,,,,
html-keyboard-response,141,263849,null,"Time's Up!",null,,,,,,,,,,,,,,,
html-keyboard-response,142,273046,9193.199999999255,"<p>We will now begin the experiment!<p><p>Please try to remember all words from each list.<p><p>Press the spacebar whenever you see a GREEN square.<p><p><p><p>Press the spacebar to begin.</p>",32,,,,,,,,,,,,,,,
html-keyboard-response,143,275790,2241.2999999988824,"<div style=""font-size:48px;"">Press any key to begin list 1 of 16 </div>",32,,,,,,,,,,,,,,,
html-keyboard-response,144,278291,null,"<div style=""font-size:60px;"">+</div>",null,,,,,,,,,,,,,,,
html-keyboard-response,145,278493,null,"<div style=""font-size:42px;"">SKETCH</div><img id = ""stim"" ><div class = green_square id = topsquare></div>",null,encoding,word_square,,,1,topsquare,32,true,,,SKETCH,0,,,
html-keyboard-response,146,278795,184.80000000074506,"<div style=""font-size:42px;"">SKETCH</div>",32,,word,SKETCH,,,,,,,,,,,,
html-keyboard-response,147,280297,null,"",null,,word,SKETCH,,,,,,,,,,,,
html-keyboard-response,148,280499,null,"<div style=""font-size:42px;"">SCALLOP</div><img id = ""stim"" ><div class = green_square id = bottomsquare></div>",null,encoding,word_square,,,1,bottomsquare,32,true,,,SCALLOP,0,,,
html-keyboard-response,149,280800,118.79999999888241,"<div style=""font-size:42px;"">SCALLOP</div>",32,,word,SCALLOP,,,,,,,,,,,,
html-keyboard-response,150,282302,null,"",null,,word,SCALLOP,,,,,,,,,,,,
html-keyboard-response,151,282505,null,"<div style=""font-size:42px;"">COD</div><img id = ""stim"" ><div class = green_square id = topsquare></div>",null,encoding,word_square,,,1,topsquare,32,true,,,COD,0,,,
html-keyboard-response,152,282808,116,"<div style=""font-size:42px;"">COD</div>",32,,word,COD,,,,,,,,,,,,
html-keyboard-response,153,284310,null,"",null,,word,COD,,,,,,,,,,,,
html-keyboard-response,154,284513,null,"<div style=""font-size:42px;"">DRESS</div><img id = ""stim"" ><div class = red_square id = bottomsquare></div>",null,encoding,word_square,,,0,bottomsquare,none,true,,,DRESS,0,,,
html-keyboard-response,155,284816,null,"<div style=""font-size:42px;"">DRESS</div>",null,,word,DRESS,,,,,,,,,,,,
html-keyboard-response,156,286318,null,"",null,,word,DRESS,,,,,,,,,,,,
html-keyboard-response,157,286520,null,"<div style=""font-size:42px;"">SILK</div><img id = ""stim"" ><div class = red_square id = topsquare></div>",null,encoding,word_square,,,0,topsquare,none,true,,,SILK,0,,,
html-keyboard-response,158,286822,null,"<div style=""font-size:42px;"">SILK</div>",null,,word,SILK,,,,,,,,,,,,
html-keyboard-response,159,288324,null,"",null,,word,SILK,,,,,,,,,,,,
html-keyboard-response,160,288527,null,"<div style=""font-size:42px;"">CANYON</div><img id = ""stim"" ><div class = green_square id = bottomsquare></div>",null,encoding,word_square,,,1,bottomsquare,32,true,,,CANYON,0,,,
html-keyboard-response,161,288829,113.5,"<div style=""font-size:42px;"">CANYON</div>",32,,word,CANYON,,,,,,,,,,,,
html-keyboard-response,162,290331,null,"",null,,word,CANYON,,,,,,,,,,,,
html-keyboard-response,163,290533,null,"<div style=""font-size:42px;"">JOURNAL</div><img id = ""stim"" ><div class = red_square id = bottomsquare></div>",null,encoding,word_square,,,0,bottomsquare,none,true,,,JOURNAL,0,,,
html-keyboard-response,164,290836,null,"<div style=""font-size:42px;"">JOURNAL</div>",null,,word,JOURNAL,,,,,,,,,,,,
html-keyboard-response,165,292338,null,"",null,,word,JOURNAL,,,,,,,,,,,,
html-keyboard-response,166,292541,null,"<div style=""font-size:42px;"">NOVEL</div><img id = ""stim"" ><div class = green_square id = topsquare></div>",null,encoding,word_square,,,1,topsquare,32,true,,,NOVEL,0,,,
html-keyboard-response,167,292844,89.19999999925494,"<div style=""font-size:42px;"">NOVEL</div>",32,,word,NOVEL,,,,,,,,,,,,
html-keyboard-response,168,294347,null,"",null,,word,NOVEL,,,,,,,,,,,,
html-keyboard-response,169,294549,null,"<div style=""font-size:42px;"">CIGAR</div><img id = ""stim"" ><div class = green_square id = bottomsquare></div>",null,encoding,word_square,,,1,bottomsquare,32,true,,,CIGAR,0,,,
html-keyboard-response,170,294850,243,"<div style=""font-size:42px;"">CIGAR</div>",32,,word,CIGAR,,,,,,,,,,,,
html-keyboard-response,171,296353,null,"",null,,word,CIGAR,,,,,,,,,,,,
html-keyboard-response,172,296556,null,"<div style=""font-size:42px;"">RADISH</div><img id = ""stim"" ><div class = red_square id = topsquare></div>",null,encoding,word_square,,,0,topsquare,none,true,,,RADISH,0,,,
html-keyboard-response,173,296858,null,"<div style=""font-size:42px;"">RADISH</div>",null,,word,RADISH,,,,,,,,,,,,
html-keyboard-response,174,298360,null,"",null,,word,RADISH,,,,,,,,,,,,
html-keyboard-response,175,298563,null,"<div style=""font-size:42px;"">LIVER</div><img id = ""stim"" ><div class = red_square id = bottomsquare></div>",null,encoding,word_square,,,0,bottomsquare,none,true,,,LIVER,0,,,
html-keyboard-response,176,298865,null,"<div style=""font-size:42px;"">LIVER</div>",null,,word,LIVER,,,,,,,,,,,,
html-keyboard-response,177,300366,null,"",null,,word,LIVER,,,,,,,,,,,,
html-keyboard-response,178,300569,null,"<div style=""font-size:42px;"">ASIA</div><img id = ""stim"" ><div class = green_square id = topsquare></div>",null,encoding,word_square,,,1,topsquare,32,true,,,ASIA,0,,,
html-keyboard-response,179,300872,80.09999999962747,"<div style=""font-size:42px;"">ASIA</div>",32,,word,ASIA,,,,,,,,,,,,
html-keyboard-response,180,302376,null,"",null,,word,ASIA,,,,,,,,,,,,
html-keyboard-response,181,302579,null,"<div style=""font-size:42px;"">RABBIT</div><img id = ""stim"" ><div class = red_square id = topsquare></div>",null,encoding,word_square,,,0,topsquare,none,true,,,RABBIT,0,,,
html-keyboard-response,182,302880,null,"<div style=""font-size:42px;"">RABBIT</div>",null,,word,RABBIT,,,,,,,,,,,,
html-keyboard-response,183,304382,null,"",null,,word,RABBIT,,,,,,,,,,,,
html-keyboard-response,184,304583,null,"<div style=""font-size:42px;"">CHISEL</div><img id = ""stim"" ><div class = green_square id = bottomsquare></div>",null,encoding,word_square,,,1,bottomsquare,32,true,,,CHISEL,0,,,
html-keyboard-response,185,304886,112.20000000111759,"<div style=""font-size:42px;"">CHISEL</div>",32,,word,CHISEL,,,,,,,,,,,,
html-keyboard-response,186,306387,null,"",null,,word,CHISEL,,,,,,,,,,,,
html-keyboard-response,187,306590,null,"<div style=""font-size:42px;"">CAMEL</div><img id = ""stim"" ><div class = red_square id = bottomsquare></div>",null,encoding,word_square,,,0,bottomsquare,none,true,,,CAMEL,0,,,
html-keyboard-response,188,306893,null,"<div style=""font-size:42px;"">CAMEL</div>",null,,word,CAMEL,,,,,,,,,,,,
html-keyboard-response,189,308395,null,"",null,,word,CAMEL,,,,,,,,,,,,
html-keyboard-response,190,308597,null,"<div style=""font-size:42px;"">SUMMIT</div><img id = ""stim"" ><div class = red_square id = topsquare></div>",null,encoding,word_square,,,0,topsquare,none,true,,,SUMMIT,0,,,
html-keyboard-response,191,308899,null,"<div style=""font-size:42px;"">SUMMIT</div>",null,,word,SUMMIT,,,,,,,,,,,,
html-keyboard-response,192,310401,null,"",null,,word,SUMMIT,,,,,,,,,,,,
call-function,193,310401,,"",,,,,,,,,,,,,,,,
html-keyboard-response,194,310504,null,"",null,,,,,,,,,,,,,,,
math-period,195,314044,9655.799999998882,"",,,,,,,,,,,4,,,,,
html-keyboard-response,196,314147,null,"",null,,,,,,,,,,,,,,,
math-period,197,315970,3492.4999999981374,"",,,,,,,,,,,2,,,,,
html-keyboard-response,198,316072,null,"",null,,,,,,,,,,,,,,,
math-period,199,318194,4114,"",,,,,,,,,,,4,,,,,
html-keyboard-response,200,318295,null,"",null,,,,,,,,,,,,,,,
math-period,201,321804,6877.200000001118,"",,,,,,,,,,,2,,,,,
html-keyboard-response,202,321907,null,"",null,,,,,,,,,,,,,,,
math-period,203,324856,5517,"",,,,,,,,,,,1,,,,,
html-keyboard-response,204,324958,null,"",null,,,,,,,,,,,,,,,
math-period,205,329136,8243.099999997765,"",,,,,,,,,,,5,,,,,
html-keyboard-response,206,329238,null,"",null,,,,,,,,,,,,,,,
math-period,207,331249,3906.0999999996275,"",,,,,,,,,,,1,,,,,
html-keyboard-response,208,331351,null,"",null,,,,,,,,,,,,,,,
math-period,209,333481,4153.9000000003725,"",,,,,,,,,,,4,,,,,
html-keyboard-response,210,333583,null,"",null,,,,,,,,,,,,,,,
math-period,211,334404,null,"",,,,,,,,,,,,,,,,
html-keyboard-response,212,335407,null,"Recall Period!",null,,,,,,,,,,,,,,,
call-function,213,335407,,"",,,,,,,,,,,,,,,,
html-keyboard-response,214,335510,null,"",null,,,,,,,,,,,,,,,
recall-period,215,338429,17434.200000004843,"",,,,,,,,,,,chisel,,,,,
html-keyboard-response,216,338531,null,"",null,,,,,,,,,,,,,,,
recall-period,217,351085,73109.60000000335,"",,,,,,,,,,,camel,,,,,
html-keyboard-response,218,351187,null,"",null,,,,,,,,,,,,,,,
recall-period,219,410410,null,"",,,,,,,,,,,,,,,,
html-keyboard-response,220,410912,null,"Time's Up!",null,,,,,,,,,,,,,,,
html-keyboard-response,221,414604,3689,"<p> Good job! You have responded correctly to 100% of the trials. </p>
                      <p>Be sure to only press the spacebar if you see a GREEN square, and please keep your accuracy above 80%.</p>
                      <p> Press any key to continue the experiment. </p>",32,,,,,,,,,,,,,,,
html-keyboard-response,222,415409,803,"<div style=""font-size:48px;"">Press any key to begin list 2 of 16 </div>",32,,,,,,,,,,,,,,,
html-keyboard-response,223,417912,null,"<div style=""font-size:60px;"">+</div>",null,,,,,,,,,,,,,,,
html-keyboard-response,224,418116,null,"<div style=""font-size:42px;"">GOBLIN</div><img id = ""stim"" ><div class = red_square id = topsquare></div>",null,encoding,word_square,,,0,topsquare,none,true,,,GOBLIN,1,,,
html-keyboard-response,225,418422,null,"<div style=""font-size:42px;"">GOBLIN</div>",null,,word,GOBLIN,,,,,,,,,,,,
html-keyboard-response,226,419924,null,"",null,,word,GOBLIN,,,,,,,,,,,,
html-keyboard-response,227,420127,null,"<div style=""font-size:42px;"">PUPIL</div><img id = ""stim"" ><div class = red_square id = bottomsquare></div>",null,encoding,word_square,,,0,bottomsquare,none,true,,,PUPIL,1,,,
html-keyboard-response,228,420430,null,"<div style=""font-size:42px;"">PUPIL</div>",null,,word,PUPIL,,,,,,,,,,,,
html-keyboard-response,229,421933,null,"",null,,word,PUPIL,,,,,,,,,,,,
html-keyboard-response,230,422135,null,"<div style=""font-size:42px;"">SEASHORE</div><img id = ""stim"" ><div class = green_square id = bottomsquare></div>",null,encoding,word_square,,,1,bottomsquare,32,true,,,SEASHORE,1,,,
html-keyboard-response,231,422437,210.39999999850988,"<div style=""font-size:42px;"">SEASHORE</div>",32,,word,SEASHORE,,,,,,,,,,,,
html-keyboard-response,232,423938,null,"",null,,word,SEASHORE,,,,,,,,,,,,
html-keyboard-response,233,424141,null,"<div style=""font-size:42px;"">THICKET</div><img id = ""stim"" ><div class = red_square id = topsquare></div>",null,encoding,word_square,,,0,topsquare,none,true,,,THICKET,1,,,
html-keyboard-response,234,424443,null,"<div style=""font-size:42px;"">THICKET</div>",null,,word,THICKET,,,,,,,,,,,,
html-keyboard-response,235,425944,null,"",null,,word,THICKET,,,,,,,,,,,,
html-keyboard-response,236,426147,null,"<div style=""font-size:42px;"">BUREAU</div><img id = ""stim"" ><div class = green_square id = topsquare></div>",null,encoding,word_square,,,1,topsquare,32,true,,,BUREAU,1,,,
html-keyboard-response,237,426450,116.89999999850988,"<div style=""font-size:42px;"">BUREAU</div>",32,,word,BUREAU,,,,,,,,,,,,
html-keyboard-response,238,427953,null,"",null,,word,BUREAU,,,,,,,,,,,,
html-keyboard-response,239,428155,null,"<div style=""font-size:42px;"">DRESSER</div><img id = ""stim"" ><div class = red_square id = bottomsquare></div>",null,encoding,word_square,,,0,bottomsquare,none,true,,,DRESSER,1,,,
html-keyboard-response,240,428457,null,"<div style=""font-size:42px;"">DRESSER</div>",null,,word,DRESSER,,,,,,,,,,,,
html-keyboard-response,241,429961,null,"",null,,word,DRESSER,,,,,,,,,,,,
html-keyboard-response,242,430163,null,"<div style=""font-size:42px;"">HATCHET</div><img id = ""stim"" ><div class = red_square id = topsquare></div>",null,encoding,word_square,,,0,topsquare,none,true,,,HATCHET,1,,,
html-keyboard-response,243,430466,null,"<div style=""font-size:42px;"">HATCHET</div>",null,,word,HATCHET,,,,,,,,,,,,
html-keyboard-response,244,431969,null,"",null,,word,HATCHET,,,,,,,,,,,,
html-keyboard-response,245,432171,null,"<div style=""font-size:42px;"">SPOON</div><img id = ""stim"" ><div class = green_square id = bottomsquare></div>",null,encoding,word_square,,,1,bottomsquare,32,true,,,SPOON,1,,,
html-keyboard-response,246,432473,145.30000000074506,"<div style=""font-size:42px;"">SPOON</div>",32,,word,SPOON,,,,,,,,,,,,
html-keyboard-response,247,433976,null,"",null,,word,SPOON,,,,,,,,,,,,
html-keyboard-response,248,434180,null,"<div style=""font-size:42px;"">SIDEWALK</div><img id = ""stim"" ><div class = green_square id = topsquare></div>",null,encoding,word_square,,,1,topsquare,32,true,,,SIDEWALK,1,,,
html-keyboard-response,249,434484,null,"<div style=""font-size:42px;"">SIDEWALK</div>",null,,word,SIDEWALK,,,,,,,,,,,,
html-keyboard-response,250,435986,308.3999999985099,"",32,,word,SIDEWALK,,,,,,,,,,,,
html-keyboard-response,251,436188,null,"<div style=""font-size:42px;"">HIKER</div><img id = ""stim"" ><div class = red_square id = bottomsquare></div>",null,encoding,word_square,,,0,bottomsquare,none,true,,,HIKER,1,,,
html-keyboard-response,252,436491,null,"<div style=""font-size:42px;"">HIKER</div>",null,,word,HIKER,,,,,,,,,,,,
html-keyboard-response,253,437994,null,"",null,,word,HIKER,,,,,,,,,,,,
html-keyboard-response,254,438196,null,"<div style=""font-size:42px;"">MONSTER</div><img id = ""stim"" ><div class = green_square id = bottomsquare></div>",null,encoding,word_square,,,1,bottomsquare,32,true,,,MONSTER,1,,,
html-keyboard-response,255,438499,115.19999999925494,"<div style=""font-size:42px;"">MONSTER</div>",32,,word,MONSTER,,,,,,,,,,,,
html-keyboard-response,256,440002,null,"",null,,word,MONSTER,,,,,,,,,,,,
html-keyboard-response,257,440206,null,"<div style=""font-size:42px;"">GALLON</div><img id = ""stim"" ><div class = red_square id = topsquare></div>",null,encoding,word_square,,,0,topsquare,none,true,,,GALLON,1,,,
html-keyboard-response,258,440509,null,"<div style=""font-size:42px;"">GALLON</div>",null,,word,GALLON,,,,,,,,,,,,
html-keyboard-response,259,442011,null,"",null,,word,GALLON,,,,,,,,,,,,
html-keyboard-response,260,442212,null,"<div style=""font-size:42px;"">MOUNTAIN</div><img id = ""stim"" ><div class = red_square id = bottomsquare></div>",null,encoding,word_square,,,0,bottomsquare,none,true,,,MOUNTAIN,1,,,
html-keyboard-response,261,442515,null,"<div style=""font-size:42px;"">MOUNTAIN</div>",null,,word,MOUNTAIN,,,,,,,,,,,,
html-keyboard-response,262,444017,null,"",null,,word,MOUNTAIN,,,,,,,,,,,,
html-keyboard-response,263,444219,null,"<div style=""font-size:42px;"">TEACHER</div><img id = ""stim"" ><div class = green_square id = topsquare></div>",null,encoding,word_square,,,1,topsquare,32,true,,,TEACHER,1,,,
html-keyboard-response,264,444521,62.90000000037253,"<div style=""font-size:42px;"">TEACHER</div>",32,,word,TEACHER,,,,,,,,,,,,
html-keyboard-response,265,446022,null,"",null,,word,TEACHER,,,,,,,,,,,,
html-keyboard-response,266,446224,null,"<div style=""font-size:42px;"">RELISH</div><img id = ""stim"" ><div class = green_square id = bottomsquare></div>",null,encoding,word_square,,,1,bottomsquare,32,true,,,RELISH,1,,,
html-keyboard-response,267,446526,129.90000000037253,"<div style=""font-size:42px;"">RELISH</div>",32,,word,RELISH,,,,,,,,,,,,
html-keyboard-response,268,448027,null,"",null,,word,RELISH,,,,,,,,,,,,
html-keyboard-response,269,448229,null,"<div style=""font-size:42px;"">CRYSTAL</div><img id = ""stim"" ><div class = green_square id = topsquare></div>",null,encoding,word_square,,,1,topsquare,32,true,,,CRYSTAL,1,,,
html-keyboard-response,270,448531,146.2000000011176,"<div style=""font-size:42px;"">CRYSTAL</div>",32,,word,CRYSTAL,,,,,,,,,,,,
html-keyboard-response,271,450034,null,"",null,,word,CRYSTAL,,,,,,,,,,,,
call-function,272,450034,,"",,,,,,,,,,,,,,,,
html-keyboard-response,273,450136,null,"",null,,,,,,,,,,,,,,,
math-period,274,452481,4519.300000000745,"",,,,,,,,,,,4,,,,,
html-keyboard-response,275,452583,null,"",null,,,,,,,,,,,,,,,
math-period,276,454953,4582.699999999255,"",,,,,,,,,,,2,,,,,
html-keyboard-response,277,455055,null,"",null,,,,,,,,,,,,,,,
math-period,278,456763,3305.8000000026077,"",,,,,,,,,,,5,,,,,
html-keyboard-response,279,456865,null,"",null,,,,,,,,,,,,,,,
math-period,280,460138,6287.39999999851,"",,,,,,,,,,,0,,,,,
html-keyboard-response,281,460241,null,"",null,,,,,,,,,,,,,,,
math-period,282,464045,7281.300000002608,"",,,,,,,,,,,2,,,,,
html-keyboard-response,283,464147,null,"",null,,,,,,,,,,,,,,,
math-period,284,466529,4512.4000000003725,"",,,,,,,,,,,4,,,,,
html-keyboard-response,285,466631,null,"",null,,,,,,,,,,,,,,,
math-period,286,470056,6633.200000001118,"",,,,,,,,,,,5,,,,,
html-keyboard-response,287,470159,null,"",null,,,,,,,,,,,,,,,
math-period,288,471852,3133.7000000011176,"",,,,,,,,,,,3,,,,,
html-keyboard-response,289,471954,null,"",null,,,,,,,,,,,,,,,
math-period,290,474036,2003.800000000745,"",,,,,,,,,,,4,,,,,
html-keyboard-response,291,475038,null,"Recall Period!",null,,,,,,,,,,,,,,,
call-function,292,475039,,"",,,,,,,,,,,,,,,,
html-keyboard-response,293,475140,null,"",null,,,,,,,,,,,,,,,
recall-period,294,477987,14373,"",,,,,,,,,,,goblin,,,,,
html-keyboard-response,295,478091,null,"",null,,,,,,,,,,,,,,,
recall-period,296,480790,12763.300000000745,"",,,,,,,,,,,seashore,,,,,
html-keyboard-response,297,480892,null,"",null,,,,,,,,,,,,,,,
recall-period,298,482513,6995.19999999553,"",,,,,,,,,,,monster,,,,,
html-keyboard-response,299,482615,null,"",null,,,,,,,,,,,,,,,
recall-period,300,483879,3835.5999999996275,"",,,,,,,,,,,spoon,,,,,
html-keyboard-response,301,483982,null,"",null,,,,,,,,,,,,,,,
recall-period,302,517447,196345.29999999516,"",,,,,,,,,,,spoon,,,,,
html-keyboard-response,303,517548,null,"",null,,,,,,,,,,,,,,,
recall-period,304,550040,null,"",,,,,,,,,,,,,,,,
html-keyboard-response,305,550542,null,"Time's Up!",null,,,,,,,,,,,,,,,
html-keyboard-response,306,555166,4622.299999998882,"<p> Good job! You have responded correctly to 100% of the trials. </p>
                      <p>Be sure to only press the spacebar if you see a GREEN square, and please keep your accuracy above 80%.</p>
                      <p> Press any key to continue the experiment. </p>",32,,,,,,,,,,,,,,,
html-keyboard-response,307,556706,1538.5,"<div style=""font-size:48px;"">Press any key to begin list 3 of 16 </div>",32,,,,,,,,,,,,,,,
html-keyboard-response,308,559208,null,"<div style=""font-size:60px;"">+</div>",null,,,,,,,,,,,,,,,
html-keyboard-response,309,559410,null,"<div style=""font-size:42px;"">BEAVER</div><img id = ""stim"" ><div class = red_square id = bottomsquare></div>",null,encoding,word_square,,,0,bottomsquare,none,true,,,BEAVER,2,,,
html-keyboard-response,310,559713,null,"<div style=""font-size:42px;"">BEAVER</div>",null,,word,BEAVER,,,,,,,,,,,,
html-keyboard-response,311,561216,null,"",null,,word,BEAVER,,,,,,,,,,,,
html-keyboard-response,312,561418,null,"<div style=""font-size:42px;"">SQUIRREL</div><img id = ""stim"" ><div class = red_square id = topsquare></div>",null,encoding,word_square,,,0,topsquare,none,true,,,SQUIRREL,2,,,
html-keyboard-response,313,561720,null,"<div style=""font-size:42px;"">SQUIRREL</div>",null,,word,SQUIRREL,,,,,,,,,,,,
html-keyboard-response,314,563222,null,"",null,,word,SQUIRREL,,,,,,,,,,,,
html-keyboard-response,315,563424,null,"<div style=""font-size:42px;"">POND</div><img id = ""stim"" ><div class = red_square id = bottomsquare></div>",null,encoding,word_square,,,0,bottomsquare,none,true,,,POND,2,,,
html-keyboard-response,316,563726,null,"<div style=""font-size:42px;"">POND</div>",null,,word,POND,,,,,,,,,,,,
html-keyboard-response,317,565229,null,"",null,,word,POND,,,,,,,,,,,,
html-keyboard-response,318,565431,null,"<div style=""font-size:42px;"">SCARECROW</div><img id = ""stim"" ><div class = green_square id = topsquare></div>",null,encoding,word_square,,,1,topsquare,32,true,,,SCARECROW,2,,,
html-keyboard-response,319,565734,51.79999999888241,"<div style=""font-size:42px;"">SCARECROW</div>",32,,word,SCARECROW,,,,,,,,,,,,
html-keyboard-response,320,567237,null,"",null,,word,SCARECROW,,,,,,,,,,,,
html-keyboard-response,321,567446,null,"<div style=""font-size:42px;"">BLOCKADE</div><img id = ""stim"" ><div class = green_square id = bottomsquare></div>",null,encoding,word_square,,,1,bottomsquare,32,true,,,BLOCKADE,2,,,
html-keyboard-response,322,567750,178.5,"<div style=""font-size:42px;"">BLOCKADE</div>",32,,word,BLOCKADE,,,,,,,,,,,,
html-keyboard-response,323,569253,null,"",null,,word,BLOCKADE,,,,,,,,,,,,
html-keyboard-response,324,569456,null,"<div style=""font-size:42px;"">BUILDING</div><img id = ""stim"" ><div class = red_square id = topsquare></div>",null,encoding,word_square,,,0,topsquare,none,true,,,BUILDING,2,,,
html-keyboard-response,325,569758,null,"<div style=""font-size:42px;"">BUILDING</div>",null,,word,BUILDING,,,,,,,,,,,,
html-keyboard-response,326,571265,null,"",null,,word,BUILDING,,,,,,,,,,,,
html-keyboard-response,327,571467,null,"<div style=""font-size:42px;"">SLACKS</div><img id = ""stim"" ><div class = green_square id = topsquare></div>",null,encoding,word_square,,,1,topsquare,32,true,,,SLACKS,2,,,
html-keyboard-response,328,571770,88.80000000074506,"<div style=""font-size:42px;"">SLACKS</div>",32,,word,SLACKS,,,,,,,,,,,,
html-keyboard-response,329,573273,null,"",null,,word,SLACKS,,,,,,,,,,,,
html-keyboard-response,330,573475,null,"<div style=""font-size:42px;"">OINTMENT</div><img id = ""stim"" ><div class = red_square id = bottomsquare></div>",null,encoding,word_square,,,0,bottomsquare,none,true,,,OINTMENT,2,,,
html-keyboard-response,331,573777,null,"<div style=""font-size:42px;"">OINTMENT</div>",null,,word,OINTMENT,,,,,,,,,,,,
html-keyboard-response,332,575279,null,"",null,,word,OINTMENT,,,,,,,,,,,,
html-keyboard-response,333,575481,null,"<div style=""font-size:42px;"">MAMMAL</div><img id = ""stim"" ><div class = red_square id = topsquare></div>",null,encoding,word_square,,,0,topsquare,none,true,,,MAMMAL,2,,,
html-keyboard-response,334,575783,null,"<div style=""font-size:42px;"">MAMMAL</div>",null,,word,MAMMAL,,,,,,,,,,,,
html-keyboard-response,335,577285,null,"",null,,word,MAMMAL,,,,,,,,,,,,
html-keyboard-response,336,577487,null,"<div style=""font-size:42px;"">CREATURE</div><img id = ""stim"" ><div class = green_square id = bottomsquare></div>",null,encoding,word_square,,,1,bottomsquare,32,true,,,CREATURE,2,,,
html-keyboard-response,337,577789,56.80000000074506,"<div style=""font-size:42px;"">CREATURE</div>",32,,word,CREATURE,,,,,,,,,,,,
html-keyboard-response,338,579291,null,"",null,,word,CREATURE,,,,,,,,,,,,
html-keyboard-response,339,579492,null,"<div style=""font-size:42px;"">LION</div><img id = ""stim"" ><div class = green_square id = topsquare></div>",null,encoding,word_square,,,1,topsquare,32,true,,,LION,2,,,
html-keyboard-response,340,579795,178.69999999925494,"<div style=""font-size:42px;"">LION</div>",32,,word,LION,,,,,,,,,,,,
html-keyboard-response,341,581298,null,"",null,,word,LION,,,,,,,,,,,,
html-keyboard-response,342,581500,null,"<div style=""font-size:42px;"">BARLEY</div><img id = ""stim"" ><div class = red_square id = bottomsquare></div>",null,encoding,word_square,,,0,bottomsquare,none,true,,,BARLEY,2,,,
html-keyboard-response,343,581803,null,"<div style=""font-size:42px;"">BARLEY</div>",null,,word,BARLEY,,,,,,,,,,,,
html-keyboard-response,344,583305,null,"",null,,word,BARLEY,,,,,,,,,,,,
html-keyboard-response,345,583507,null,"<div style=""font-size:42px;"">PORPOISE</div><img id = ""stim"" ><div class = green_square id = bottomsquare></div>",null,encoding,word_square,,,1,bottomsquare,32,true,,,PORPOISE,2,,,
html-keyboard-response,346,583810,148.30000000074506,"<div style=""font-size:42px;"">PORPOISE</div>",32,,word,PORPOISE,,,,,,,,,,,,
html-keyboard-response,347,585312,null,"",null,,word,PORPOISE,,,,,,,,,,,,
html-keyboard-response,348,585515,null,"<div style=""font-size:42px;"">LOVER</div><img id = ""stim"" ><div class = red_square id = topsquare></div>",null,encoding,word_square,,,0,topsquare,none,true,,,LOVER,2,,,
html-keyboard-response,349,585817,null,"<div style=""font-size:42px;"">LOVER</div>",null,,word,LOVER,,,,,,,,,,,,
html-keyboard-response,350,587319,null,"",null,,word,LOVER,,,,,,,,,,,,
html-keyboard-response,351,587521,null,"<div style=""font-size:42px;"">PARTNER</div><img id = ""stim"" ><div class = green_square id = topsquare></div>",null,encoding,word_square,,,1,topsquare,32,true,,,PARTNER,2,,,
html-keyboard-response,352,587823,88.09999999962747,"<div style=""font-size:42px;"">PARTNER</div>",32,,word,PARTNER,,,,,,,,,,,,
html-keyboard-response,353,589325,null,"",null,,word,PARTNER,,,,,,,,,,,,
html-keyboard-response,354,589528,null,"<div style=""font-size:42px;"">LEOPARD</div><img id = ""stim"" ><div class = green_square id = bottomsquare></div>",null,encoding,word_square,,,1,bottomsquare,32,true,,,LEOPARD,2,,,
html-keyboard-response,355,589831,146,"<div style=""font-size:42px;"">LEOPARD</div>",32,,word,LEOPARD,,,,,,,,,,,,
html-keyboard-response,356,591335,null,"",null,,word,LEOPARD,,,,,,,,,,,,
call-function,357,591336,,"",,,,,,,,,,,,,,,,
html-keyboard-response,358,591438,null,"",null,,,,,,,,,,,,,,,
math-period,359,593810,4615.800000000745,"",,,,,,,,,,,4,,,,,
html-keyboard-response,360,593912,null,"",null,,,,,,,,,,,,,,,
math-period,361,595866,3601.599999997765,"",,,,,,,,,,,2,,,,,
html-keyboard-response,362,595969,null,"",null,,,,,,,,,,,,,,,
math-period,363,598236,4418.300000000745,"",,,,,,,,,,,1,,,,,
html-keyboard-response,364,598338,null,"",null,,,,,,,,,,,,,,,
math-period,365,600951,5147.999999998137,"",,,,,,,,,,,1,,,,,
html-keyboard-response,366,601053,null,"",null,,,,,,,,,,,,,,,
math-period,367,602512,2810.5,"",,,,,,,,,,,5,,,,,
html-keyboard-response,368,602615,null,"",null,,,,,,,,,,,,,,,
math-period,369,603999,2689.7999999988824,"",,,,,,,,,,,3,,,,,
html-keyboard-response,370,604101,null,"",null,,,,,,,,,,,,,,,
math-period,371,609152,10005.60000000149,"",,,,,,,,,,,2,,,,,
html-keyboard-response,372,609261,null,"",null,,,,,,,,,,,,,,,
math-period,373,610730,2423.0999999996275,"",,,,,,,,,,,3,,,,,
html-keyboard-response,374,610832,null,"",null,,,,,,,,,,,,,,,
math-period,375,614181,6568.0999999996275,"",,,,,,,,,,,2,,,,,
html-keyboard-response,376,614283,null,"",null,,,,,,,,,,,,,,,
math-period,377,615337,null,"",,,,,,,,,,,,,,,,
html-keyboard-response,378,616339,null,"Recall Period!",null,,,,,,,,,,,,,,,
call-function,379,616340,,"",,,,,,,,,,,,,,,,
html-keyboard-response,380,616441,null,"",null,,,,,,,,,,,,,,,
recall-period,381,621757,22163.79999999702,"",,,,,,,,,,,pond,,,,,
html-keyboard-response,382,621859,null,"",null,,,,,,,,,,,,,,,
recall-period,383,628521,42569.29999999888,"",,,,,,,,,,,squirel,,,,,
html-keyboard-response,384,628624,null,"",null,,,,,,,,,,,,,,,
recall-period,385,679377,449849.10000000894,"",,,,,,,,,,,creature,,,,,
html-keyboard-response,386,679478,null,"",null,,,,,,,,,,,,,,,
recall-period,387,691340,null,"",,,,,,,,,,,,,,,,
html-keyboard-response,388,691842,null,"Time's Up!",null,,,,,,,,,,,,,,,
html-keyboard-response,389,694044,2199.199999999255,"<p> Good job! You have responded correctly to 100% of the trials. </p>
                      <p>Be sure to only press the spacebar if you see a GREEN square, and please keep your accuracy above 80%.</p>
                      <p> Press any key to continue the experiment. </p>",32,,,,,,,,,,,,,,,
html-keyboard-response,390,694923,877.8999999985099,"<div style=""font-size:48px;"">Press any key to begin list 4 of 16 </div>",32,,,,,,,,,,,,,,,
html-keyboard-response,391,697424,null,"<div style=""font-size:60px;"">+</div>",null,,,,,,,,,,,,,,,
html-keyboard-response,392,697626,null,"<div style=""font-size:42px;"">SISTER</div><img id = ""stim"" ><div class = green_square id = bottomsquare></div>",null,encoding,word_square,,,1,bottomsquare,32,true,,,SISTER,3,,,
html-keyboard-response,393,697927,246.2000000011176,"<div style=""font-size:42px;"">SISTER</div>",32,,word,SISTER,,,,,,,,,,,,
html-keyboard-response,394,699429,null,"",null,,word,SISTER,,,,,,,,,,,,
html-keyboard-response,395,699631,null,"<div style=""font-size:42px;"">LOUNGE</div><img id = ""stim"" ><div class = green_square id = topsquare></div>",null,encoding,word_square,,,1,topsquare,32,true,,,LOUNGE,3,,,
html-keyboard-response,396,699934,269.90000000037253,"<div style=""font-size:42px;"">LOUNGE</div>",32,,word,LOUNGE,,,,,,,,,,,,
html-keyboard-response,397,701436,null,"",null,,word,LOUNGE,,,,,,,,,,,,
html-keyboard-response,398,701639,null,"<div style=""font-size:42px;"">LIST</div><img id = ""stim"" ><div class = red_square id = topsquare></div>",null,encoding,word_square,,,0,topsquare,none,true,,,LIST,3,,,
html-keyboard-response,399,701941,null,"<div style=""font-size:42px;"">LIST</div>",null,,word,LIST,,,,,,,,,,,,
html-keyboard-response,400,703443,null,"",null,,word,LIST,,,,,,,,,,,,
html-keyboard-response,401,703645,null,"<div style=""font-size:42px;"">SUBWAY</div><img id = ""stim"" ><div class = green_square id = bottomsquare></div>",null,encoding,word_square,,,1,bottomsquare,32,true,,,SUBWAY,3,,,
html-keyboard-response,402,703947,120,"<div style=""font-size:42px;"">SUBWAY</div>",32,,word,SUBWAY,,,,,,,,,,,,
html-keyboard-response,403,705450,null,"",null,,word,SUBWAY,,,,,,,,,,,,
html-keyboard-response,404,705652,null,"<div style=""font-size:42px;"">SHORTS</div><img id = ""stim"" ><div class = red_square id = bottomsquare></div>",null,encoding,word_square,,,0,bottomsquare,none,true,,,SHORTS,3,,,
html-keyboard-response,405,705955,null,"<div style=""font-size:42px;"">SHORTS</div>",null,,word,SHORTS,,,,,,,,,,,,
html-keyboard-response,406,707458,null,"",null,,word,SHORTS,,,,,,,,,,,,
html-keyboard-response,407,707660,null,"<div style=""font-size:42px;"">WASHER</div><img id = ""stim"" ><div class = green_square id = topsquare></div>",null,encoding,word_square,,,1,topsquare,32,true,,,WASHER,3,,,
html-keyboard-response,408,707962,129.90000000037253,"<div style=""font-size:42px;"">WASHER</div>",32,,word,WASHER,,,,,,,,,,,,
html-keyboard-response,409,709464,null,"",null,,word,WASHER,,,,,,,,,,,,
html-keyboard-response,410,709667,null,"<div style=""font-size:42px;"">LEG</div><img id = ""stim"" ><div class = green_square id = bottomsquare></div>",null,encoding,word_square,,,1,bottomsquare,32,true,,,LEG,3,,,
html-keyboard-response,411,709969,271,"<div style=""font-size:42px;"">LEG</div>",32,,word,LEG,,,,,,,,,,,,
html-keyboard-response,412,711472,null,"",null,,word,LEG,,,,,,,,,,,,
html-keyboard-response,413,711674,null,"<div style=""font-size:42px;"">BANK</div><img id = ""stim"" ><div class = red_square id = topsquare></div>",null,encoding,word_square,,,0,topsquare,none,true,,,BANK,3,,,
html-keyboard-response,414,711975,null,"<div style=""font-size:42px;"">BANK</div>",null,,word,BANK,,,,,,,,,,,,
html-keyboard-response,415,713477,null,"",null,,word,BANK,,,,,,,,,,,,
html-keyboard-response,416,713679,null,"<div style=""font-size:42px;"">BISON</div><img id = ""stim"" ><div class = red_square id = bottomsquare></div>",null,encoding,word_square,,,0,bottomsquare,none,true,,,BISON,3,,,
html-keyboard-response,417,713980,null,"<div style=""font-size:42px;"">BISON</div>",null,,word,BISON,,,,,,,,,,,,
html-keyboard-response,418,715482,null,"",null,,word,BISON,,,,,,,,,,,,
html-keyboard-response,419,715684,null,"<div style=""font-size:42px;"">SEAL</div><img id = ""stim"" ><div class = green_square id = topsquare></div>",null,encoding,word_square,,,1,topsquare,32,true,,,SEAL,3,,,
html-keyboard-response,420,715985,137.2000000011176,"<div style=""font-size:42px;"">SEAL</div>",32,,word,SEAL,,,,,,,,,,,,
html-keyboard-response,421,717487,null,"",null,,word,SEAL,,,,,,,,,,,,
html-keyboard-response,422,717689,null,"<div style=""font-size:42px;"">BEAST</div><img id = ""stim"" ><div class = red_square id = topsquare></div>",null,encoding,word_square,,,0,topsquare,none,true,,,BEAST,3,,,
html-keyboard-response,423,717991,null,"<div style=""font-size:42px;"">BEAST</div>",null,,word,BEAST,,,,,,,,,,,,
html-keyboard-response,424,719492,null,"",null,,word,BEAST,,,,,,,,,,,,
html-keyboard-response,425,719694,null,"<div style=""font-size:42px;"">SNACK</div><img id = ""stim"" ><div class = green_square id = bottomsquare></div>",null,encoding,word_square,,,1,bottomsquare,32,true,,,SNACK,3,,,
html-keyboard-response,426,719996,195.60000000149012,"<div style=""font-size:42px;"">SNACK</div>",32,,word,SNACK,,,,,,,,,,,,
html-keyboard-response,427,721499,null,"",null,,word,SNACK,,,,,,,,,,,,
html-keyboard-response,428,721700,null,"<div style=""font-size:42px;"">BOUILLON</div><img id = ""stim"" ><div class = green_square id = topsquare></div>",null,encoding,word_square,,,1,topsquare,32,true,,,BOUILLON,3,,,
html-keyboard-response,429,722002,227.80000000074506,"<div style=""font-size:42px;"">BOUILLON</div>",32,,word,BOUILLON,,,,,,,,,,,,
html-keyboard-response,430,723504,null,"",null,,word,BOUILLON,,,,,,,,,,,,
html-keyboard-response,431,723706,null,"<div style=""font-size:42px;"">APPLE</div><img id = ""stim"" ><div class = red_square id = bottomsquare></div>",null,encoding,word_square,,,0,bottomsquare,none,false,,,APPLE,3,,,
html-keyboard-response,432,724007,null,"<div style=""font-size:42px;"">APPLE</div>",null,,word,APPLE,,,,,,,,,,,,
html-keyboard-response,433,725510,314.7999999988824,"",32,,word,APPLE,,,,,,,,,,,,
html-keyboard-response,434,725714,null,"<div style=""font-size:42px;"">WAITER</div><img id = ""stim"" ><div class = red_square id = topsquare></div>",null,encoding,word_square,,,0,topsquare,none,true,,,WAITER,3,,,
html-keyboard-response,435,726016,null,"<div style=""font-size:42px;"">WAITER</div>",null,,word,WAITER,,,,,,,,,,,,
html-keyboard-response,436,727519,null,"",null,,word,WAITER,,,,,,,,,,,,
html-keyboard-response,437,727721,null,"<div style=""font-size:42px;"">DAGGER</div><img id = ""stim"" ><div class = red_square id = bottomsquare></div>",null,encoding,word_square,,,0,bottomsquare,none,true,,,DAGGER,3,,,
html-keyboard-response,438,728023,null,"<div style=""font-size:42px;"">DAGGER</div>",null,,word,DAGGER,,,,,,,,,,,,
html-keyboard-response,439,729525,null,"",null,,word,DAGGER,,,,,,,,,,,,
call-function,440,729526,,"",,,,,,,,,,,,,,,,
html-keyboard-response,441,729628,null,"",null,,,,,,,,,,,,,,,
math-period,442,733258,6968.0999999996275,"",,,,,,,,,,,1,,,,,
html-keyboard-response,443,733359,null,"",null,,,,,,,,,,,,,,,
math-period,444,735876,4885,"",,,,,,,,,,,2,,,,,
html-keyboard-response,445,735978,null,"",null,,,,,,,,,,,,,,,
math-period,446,737940,3785.2000000029802,"",,,,,,,,,,,4,,,,,
html-keyboard-response,447,738041,null,"",null,,,,,,,,,,,,,,,
math-period,448,740349,4525.699999999255,"",,,,,,,,,,,1,,,,,
html-keyboard-response,449,740452,null,"",null,,,,,,,,,,,,,,,
math-period,450,742561,4098.200000001118,"",,,,,,,,,,,5,,,,,
html-keyboard-response,451,742663,null,"",null,,,,,,,,,,,,,,,
math-period,452,744377,3347.599999997765,"",,,,,,,,,,,2,,,,,
html-keyboard-response,453,744479,null,"",null,,,,,,,,,,,,,,,
math-period,454,746726,4143.9000000003725,"",,,,,,,,,,,1,,,,,
html-keyboard-response,455,746828,null,"",null,,,,,,,,,,,,,,,
math-period,456,750679,7607.9000000003725,"",,,,,,,,,,,2,,,,,
html-keyboard-response,457,750781,null,"",null,,,,,,,,,,,,,,,
math-period,458,752692,3733.9000000003725,"",,,,,,,,,,,4,,,,,
html-keyboard-response,459,752793,null,"",null,,,,,,,,,,,,,,,
math-period,460,753528,null,"",,,,,,,,,,,,,,,,
html-keyboard-response,461,754531,null,"Recall Period!",null,,,,,,,,,,,,,,,
call-function,462,754532,,"",,,,,,,,,,,,,,,,
html-keyboard-response,463,754634,null,"",null,,,,,,,,,,,,,,,
recall-period,464,757562,20150.199999993667,"",,,,,,,,,,,sister,,,,,
html-keyboard-response,465,757664,null,"",null,,,,,,,,,,,,,,,
recall-period,466,758922,4060.1999999973923,"",,,,,,,,,,,apple,,,,,
html-keyboard-response,467,759023,null,"",null,,,,,,,,,,,,,,,
recall-period,468,762424,19506.700000006706,"",,,,,,,,,,,washer,,,,,
html-keyboard-response,469,762525,null,"",null,,,,,,,,,,,,,,,
recall-period,470,764295,7049.400000004098,"",,,,,,,,,,,bank,,,,,
html-keyboard-response,471,764397,null,"",null,,,,,,,,,,,,,,,
recall-period,472,773054,56745.20000000298,"",,,,,,,,,,,subway,,,,,
html-keyboard-response,473,773156,null,"",null,,,,,,,,,,,,,,,
recall-period,474,829534,null,"",,,,,,,,,,,,,,,,
html-keyboard-response,475,830038,null,"Time's Up!",null,,,,,,,,,,,,,,,
html-keyboard-response,476,833140,3099.5999999996275,"<p> Good job! You have responded correctly to 98% of the trials. </p>
                      <p>Be sure to only press the spacebar if you see a GREEN square, and please keep your accuracy above 80%.</p>
                      <p> Press any key to continue the experiment. </p>",32,,,,,,,,,,,,,,,
html-keyboard-response,477,834253,1110.199999999255,"<div style=""font-size:48px;"">Press any key to begin list 5 of 16 </div>",32,,,,,,,,,,,,,,,
html-keyboard-response,478,836754,null,"<div style=""font-size:60px;"">+</div>",null,,,,,,,,,,,,,,,
html-keyboard-response,479,836957,null,"<div style=""font-size:42px;"">STAKE</div><img id = ""stim"" ><div class = green_square id = topsquare></div>",null,encoding,word_square,,,1,topsquare,32,true,,,STAKE,4,,,
html-keyboard-response,480,837259,154.40000000037253,"<div style=""font-size:42px;"">STAKE</div>",32,,word,STAKE,,,,,,,,,,,,
html-keyboard-response,481,838761,null,"",null,,word,STAKE,,,,,,,,,,,,
html-keyboard-response,482,838963,null,"<div style=""font-size:42px;"">LUMBER</div><img id = ""stim"" ><div class = green_square id = bottomsquare></div>",null,encoding,word_square,,,1,bottomsquare,32,true,,,LUMBER,4,,,
html-keyboard-response,483,839265,179.2000000011176,"<div style=""font-size:42px;"">LUMBER</div>",32,,word,LUMBER,,,,,,,,,,,,
html-keyboard-response,484,840766,null,"",null,,word,LUMBER,,,,,,,,,,,,
html-keyboard-response,485,840968,null,"<div style=""font-size:42px;"">ELK</div><img id = ""stim"" ><div class = red_square id = bottomsquare></div>",null,encoding,word_square,,,0,bottomsquare,none,true,,,ELK,4,,,
html-keyboard-response,486,841269,null,"<div style=""font-size:42px;"">ELK</div>",null,,word,ELK,,,,,,,,,,,,
html-keyboard-response,487,842771,null,"",null,,word,ELK,,,,,,,,,,,,
html-keyboard-response,488,842974,null,"<div style=""font-size:42px;"">FLASK</div><img id = ""stim"" ><div class = red_square id = topsquare></div>",null,encoding,word_square,,,0,topsquare,none,true,,,FLASK,4,,,
html-keyboard-response,489,843276,null,"<div style=""font-size:42px;"">FLASK</div>",null,,word,FLASK,,,,,,,,,,,,
html-keyboard-response,490,844778,null,"",null,,word,FLASK,,,,,,,,,,,,
html-keyboard-response,491,844980,null,"<div style=""font-size:42px;"">FIST</div><img id = ""stim"" ><div class = green_square id = topsquare></div>",null,encoding,word_square,,,1,topsquare,32,true,,,FIST,4,,,
html-keyboard-response,492,845281,250.80000000074506,"<div style=""font-size:42px;"">FIST</div>",32,,word,FIST,,,,,,,,,,,,
html-keyboard-response,493,846784,null,"",null,,word,FIST,,,,,,,,,,,,
html-keyboard-response,494,846988,null,"<div style=""font-size:42px;"">RIVER</div><img id = ""stim"" ><div class = red_square id = bottomsquare></div>",null,encoding,word_square,,,0,bottomsquare,none,true,,,RIVER,4,,,
html-keyboard-response,495,847290,null,"<div style=""font-size:42px;"">RIVER</div>",null,,word,RIVER,,,,,,,,,,,,
html-keyboard-response,496,848792,null,"",null,,word,RIVER,,,,,,,,,,,,
html-keyboard-response,497,848994,null,"<div style=""font-size:42px;"">CANAL</div><img id = ""stim"" ><div class = red_square id = topsquare></div>",null,encoding,word_square,,,0,topsquare,none,true,,,CANAL,4,,,
html-keyboard-response,498,849295,null,"<div style=""font-size:42px;"">CANAL</div>",null,,word,CANAL,,,,,,,,,,,,
html-keyboard-response,499,850797,null,"",null,,word,CANAL,,,,,,,,,,,,
html-keyboard-response,500,850999,null,"<div style=""font-size:42px;"">LAKE</div><img id = ""stim"" ><div class = green_square id = bottomsquare></div>",null,encoding,word_square,,,1,bottomsquare,32,true,,,LAKE,4,,,
html-keyboard-response,501,851302,111.09999999962747,"<div style=""font-size:42px;"">LAKE</div>",32,,word,LAKE,,,,,,,,,,,,
html-keyboard-response,502,852805,null,"",null,,word,LAKE,,,,,,,,,,,,
html-keyboard-response,503,853008,null,"<div style=""font-size:42px;"">BISCUIT</div><img id = ""stim"" ><div class = green_square id = topsquare></div>",null,encoding,word_square,,,1,topsquare,32,true,,,BISCUIT,4,,,
html-keyboard-response,504,853310,223.59999999962747,"<div style=""font-size:42px;"">BISCUIT</div>",32,,word,BISCUIT,,,,,,,,,,,,
html-keyboard-response,505,854812,null,"",null,,word,BISCUIT,,,,,,,,,,,,
html-keyboard-response,506,855014,null,"<div style=""font-size:42px;"">ADULT</div><img id = ""stim"" ><div class = green_square id = bottomsquare></div>",null,encoding,word_square,,,1,bottomsquare,32,true,,,ADULT,4,,,
html-keyboard-response,507,855317,null,"<div style=""font-size:42px;"">ADULT</div>",null,,word,ADULT,,,,,,,,,,,,
html-keyboard-response,508,856819,12.399999998509884,"",32,,word,ADULT,,,,,,,,,,,,
html-keyboard-response,509,857020,null,"<div style=""font-size:42px;"">SCOTCH</div><img id = ""stim"" ><div class = red_square id = bottomsquare></div>",null,encoding,word_square,,,0,bottomsquare,none,true,,,SCOTCH,4,,,
html-keyboard-response,510,857322,271.5,"<div style=""font-size:42px;"">SCOTCH</div>",32,,word,SCOTCH,,,,,,,,,,,,
html-keyboard-response,511,858824,null,"",null,,word,SCOTCH,,,,,,,,,,,,
html-keyboard-response,512,859026,null,"<div style=""font-size:42px;"">SALAD</div><img id = ""stim"" ><div class = red_square id = topsquare></div>",null,encoding,word_square,,,0,topsquare,none,true,,,SALAD,4,,,
html-keyboard-response,513,859327,null,"<div style=""font-size:42px;"">SALAD</div>",null,,word,SALAD,,,,,,,,,,,,
html-keyboard-response,514,860829,null,"",null,,word,SALAD,,,,,,,,,,,,
html-keyboard-response,515,861032,null,"<div style=""font-size:42px;"">ATOM</div><img id = ""stim"" ><div class = green_square id = topsquare></div>",null,encoding,word_square,,,1,topsquare,32,true,,,ATOM,4,,,
html-keyboard-response,516,861335,118.80000000074506,"<div style=""font-size:42px;"">ATOM</div>",32,,word,ATOM,,,,,,,,,,,,
html-keyboard-response,517,862837,null,"",null,,word,ATOM,,,,,,,,,,,,
html-keyboard-response,518,863039,null,"<div style=""font-size:42px;"">CHEMIST</div><img id = ""stim"" ><div class = red_square id = bottomsquare></div>",null,encoding,word_square,,,0,bottomsquare,none,true,,,CHEMIST,4,,,
html-keyboard-response,519,863341,null,"<div style=""font-size:42px;"">CHEMIST</div>",null,,word,CHEMIST,,,,,,,,,,,,
html-keyboard-response,520,864843,null,"",null,,word,CHEMIST,,,,,,,,,,,,
html-keyboard-response,521,865045,null,"<div style=""font-size:42px;"">ROOSTER</div><img id = ""stim"" ><div class = green_square id = bottomsquare></div>",null,encoding,word_square,,,1,bottomsquare,32,true,,,ROOSTER,4,,,
html-keyboard-response,522,865346,195.30000000074506,"<div style=""font-size:42px;"">ROOSTER</div>",32,,word,ROOSTER,,,,,,,,,,,,
html-keyboard-response,523,866848,null,"",null,,word,ROOSTER,,,,,,,,,,,,
html-keyboard-response,524,867051,null,"<div style=""font-size:42px;"">GIRAFFE</div><img id = ""stim"" ><div class = red_square id = topsquare></div>",null,encoding,word_square,,,0,topsquare,none,true,,,GIRAFFE,4,,,
html-keyboard-response,525,867354,null,"<div style=""font-size:42px;"">GIRAFFE</div>",null,,word,GIRAFFE,,,,,,,,,,,,
html-keyboard-response,526,868856,null,"",null,,word,GIRAFFE,,,,,,,,,,,,
call-function,527,868857,,"",,,,,,,,,,,,,,,,
html-keyboard-response,528,868960,null,"",null,,,,,,,,,,,,,,,
math-period,529,872421,6762.000000001863,"",,,,,,,,,,,4,,,,,
html-keyboard-response,530,872524,null,"",null,,,,,,,,,,,,,,,
math-period,531,879788,14408.099999999627,"",,,,,,,,,,,0,,,,,
html-keyboard-response,532,879891,null,"",null,,,,,,,,,,,,,,,
math-period,533,882194,4323.500000001863,"",,,,,,,,,,,5,,,,,
html-keyboard-response,534,882296,null,"",null,,,,,,,,,,,,,,,
math-period,535,884240,3433.2000000011176,"",,,,,,,,,,,3,,,,,
html-keyboard-response,536,884341,null,"",null,,,,,,,,,,,,,,,
math-period,537,885987,3131.199999999255,"",,,,,,,,,,,4,,,,,
html-keyboard-response,538,886089,null,"",null,,,,,,,,,,,,,,,
math-period,539,887848,3148.300000000745,"",,,,,,,,,,,3,,,,,
html-keyboard-response,540,887950,null,"",null,,,,,,,,,,,,,,,
math-period,541,890192,4219.800000002608,"",,,,,,,,,,,3,,,,,
html-keyboard-response,542,890294,null,"",null,,,,,,,,,,,,,,,
math-period,543,892860,null,"",,,,,,,,,,,,,,,,
html-keyboard-response,544,893864,null,"Recall Period!",null,,,,,,,,,,,,,,,
call-function,545,893866,,"",,,,,,,,,,,,,,,,
html-keyboard-response,546,893967,null,"",null,,,,,,,,,,,,,,,
recall-period,547,895593,6462.900000004098,"",,,,,,,,,,,steak,,,,,
html-keyboard-response,548,895694,null,"",null,,,,,,,,,,,,,,,
recall-period,549,896915,5506.600000005215,"",,,,,,,,,,,lumber,,,,,
html-keyboard-response,550,897018,null,"",null,,,,,,,,,,,,,,,
recall-period,551,898234,3294.8999999966472,"",,,,,,,,,,,fist,,,,,
html-keyboard-response,552,898335,null,"",null,,,,,,,,,,,,,,,
recall-period,553,968868,null,"",,,,,,,,,,,,,,,,
html-keyboard-response,554,969371,null,"Time's Up!",null,,,,,,,,,,,,,,,
html-keyboard-response,555,970892,1518.5999999996275,"<p> Good job! You have responded correctly to 99% of the trials. </p>
                      <p>Be sure to only press the spacebar if you see a GREEN square, and please keep your accuracy above 80%.</p>
                      <p> Press any key to continue the experiment. </p>",32,,,,,,,,,,,,,,,
html-keyboard-response,556,975291,4396.5999999996275,"<div style=""font-size:48px;"">Press any key to begin list 6 of 16 </div>",32,,,,,,,,,,,,,,,
html-keyboard-response,557,977793,null,"<div style=""font-size:60px;"">+</div>",null,,,,,,,,,,,,,,,
html-keyboard-response,558,977995,null,"<div style=""font-size:42px;"">SHEPHERD</div><img id = ""stim"" ><div class = red_square id = topsquare></div>",null,encoding,word_square,,,0,topsquare,none,true,,,SHEPHERD,5,,,
html-keyboard-response,559,978297,null,"<div style=""font-size:42px;"">SHEPHERD</div>",null,,word,SHEPHERD,,,,,,,,,,,,
html-keyboard-response,560,979798,null,"",null,,word,SHEPHERD,,,,,,,,,,,,
html-keyboard-response,561,980000,null,"<div style=""font-size:42px;"">SHARK</div><img id = ""stim"" ><div class = green_square id = bottomsquare></div>",null,encoding,word_square,,,1,bottomsquare,32,true,,,SHARK,5,,,
html-keyboard-response,562,980302,185.40000000037253,"<div style=""font-size:42px;"">SHARK</div>",32,,word,SHARK,,,,,,,,,,,,
html-keyboard-response,563,981805,null,"",null,,word,SHARK,,,,,,,,,,,,
html-keyboard-response,564,982008,null,"<div style=""font-size:42px;"">PRIMATE</div><img id = ""stim"" ><div class = red_square id = bottomsquare></div>",null,encoding,word_square,,,0,bottomsquare,none,true,,,PRIMATE,5,,,
html-keyboard-response,565,982309,null,"<div style=""font-size:42px;"">PRIMATE</div>",null,,word,PRIMATE,,,,,,,,,,,,
html-keyboard-response,566,983812,null,"",null,,word,PRIMATE,,,,,,,,,,,,
html-keyboard-response,567,984014,null,"<div style=""font-size:42px;"">NURSE</div><img id = ""stim"" ><div class = green_square id = topsquare></div>",null,encoding,word_square,,,1,topsquare,32,true,,,NURSE,5,,,
html-keyboard-response,568,984316,108.20000000111759,"<div style=""font-size:42px;"">NURSE</div>",32,,word,NURSE,,,,,,,,,,,,
html-keyboard-response,569,985818,null,"",null,,word,NURSE,,,,,,,,,,,,
html-keyboard-response,570,986021,null,"<div style=""font-size:42px;"">MARKER</div><img id = ""stim"" ><div class = red_square id = topsquare></div>",null,encoding,word_square,,,0,topsquare,none,true,,,MARKER,5,,,
html-keyboard-response,571,986324,null,"<div style=""font-size:42px;"">MARKER</div>",null,,word,MARKER,,,,,,,,,,,,
html-keyboard-response,572,987826,null,"",null,,word,MARKER,,,,,,,,,,,,
html-keyboard-response,573,988029,null,"<div style=""font-size:42px;"">SCOUT</div><img id = ""stim"" ><div class = red_square id = bottomsquare></div>",null,encoding,word_square,,,0,bottomsquare,none,true,,,SCOUT,5,,,
html-keyboard-response,574,988331,61.09999999962747,"<div style=""font-size:42px;"">SCOUT</div>",32,,word,SCOUT,,,,,,,,,,,,
html-keyboard-response,575,989832,null,"",null,,word,SCOUT,,,,,,,,,,,,
html-keyboard-response,576,990034,null,"<div style=""font-size:42px;"">FEAST</div><img id = ""stim"" ><div class = green_square id = bottomsquare></div>",null,encoding,word_square,,,1,bottomsquare,32,true,,,FEAST,5,,,
html-keyboard-response,577,990337,200.5,"<div style=""font-size:42px;"">FEAST</div>",32,,word,FEAST,,,,,,,,,,,,
html-keyboard-response,578,991840,null,"",null,,word,FEAST,,,,,,,,,,,,
html-keyboard-response,579,992043,null,"<div style=""font-size:42px;"">SALMON</div><img id = ""stim"" ><div class = green_square id = topsquare></div>",null,encoding,word_square,,,1,topsquare,32,true,,,SALMON,5,,,
html-keyboard-response,580,992346,287.5,"<div style=""font-size:42px;"">SALMON</div>",32,,word,SALMON,,,,,,,,,,,,
html-keyboard-response,581,993847,null,"",null,,word,SALMON,,,,,,,,,,,,
html-keyboard-response,582,994049,null,"<div style=""font-size:42px;"">LAGOON</div><img id = ""stim"" ><div class = green_square id = bottomsquare></div>",null,encoding,word_square,,,1,bottomsquare,32,true,,,LAGOON,5,,,
html-keyboard-response,583,994351,285.19999999925494,"<div style=""font-size:42px;"">LAGOON</div>",32,,word,LAGOON,,,,,,,,,,,,
html-keyboard-response,584,995854,null,"",null,,word,LAGOON,,,,,,,,,,,,
html-keyboard-response,585,996057,null,"<div style=""font-size:42px;"">BUCKET</div><img id = ""stim"" ><div class = red_square id = topsquare></div>",null,encoding,word_square,,,0,topsquare,none,true,,,BUCKET,5,,,
html-keyboard-response,586,996360,null,"<div style=""font-size:42px;"">BUCKET</div>",null,,word,BUCKET,,,,,,,,,,,,
html-keyboard-response,587,997863,null,"",null,,word,BUCKET,,,,,,,,,,,,
html-keyboard-response,588,998065,null,"<div style=""font-size:42px;"">LIGHTNING</div><img id = ""stim"" ><div class = red_square id = bottomsquare></div>",null,encoding,word_square,,,0,bottomsquare,none,true,,,LIGHTNING,5,,,
html-keyboard-response,589,998367,49.40000000037253,"<div style=""font-size:42px;"">LIGHTNING</div>",32,,word,LIGHTNING,,,,,,,,,,,,
html-keyboard-response,590,999871,null,"",null,,word,LIGHTNING,,,,,,,,,,,,
html-keyboard-response,591,1000073,null,"<div style=""font-size:42px;"">DONKEY</div><img id = ""stim"" ><div class = green_square id = topsquare></div>",null,encoding,word_square,,,1,topsquare,32,true,,,DONKEY,5,,,
html-keyboard-response,592,1000376,128.19999999925494,"<div style=""font-size:42px;"">DONKEY</div>",32,,word,DONKEY,,,,,,,,,,,,
html-keyboard-response,593,1001878,null,"",null,,word,DONKEY,,,,,,,,,,,,
html-keyboard-response,594,1002081,null,"<div style=""font-size:42px;"">HORSE</div><img id = ""stim"" ><div class = red_square id = topsquare></div>",null,encoding,word_square,,,0,topsquare,none,true,,,HORSE,5,,,
html-keyboard-response,595,1002382,null,"<div style=""font-size:42px;"">HORSE</div>",null,,word,HORSE,,,,,,,,,,,,
html-keyboard-response,596,1003885,null,"",null,,word,HORSE,,,,,,,,,,,,
html-keyboard-response,597,1004088,null,"<div style=""font-size:42px;"">DWARF</div><img id = ""stim"" ><div class = red_square id = bottomsquare></div>",null,encoding,word_square,,,0,bottomsquare,none,true,,,DWARF,5,,,
html-keyboard-response,598,1004391,null,"<div style=""font-size:42px;"">DWARF</div>",null,,word,DWARF,,,,,,,,,,,,
html-keyboard-response,599,1005894,null,"",null,,word,DWARF,,,,,,,,,,,,
html-keyboard-response,600,1006096,null,"<div style=""font-size:42px;"">NOTEBOOK</div><img id = ""stim"" ><div class = green_square id = bottomsquare></div>",null,encoding,word_square,,,1,bottomsquare,32,true,,,NOTEBOOK,5,,,
html-keyboard-response,601,1006398,236.90000000037253,"<div style=""font-size:42px;"">NOTEBOOK</div>",32,,word,NOTEBOOK,,,,,,,,,,,,
html-keyboard-response,602,1007901,null,"",null,,word,NOTEBOOK,,,,,,,,,,,,
html-keyboard-response,603,1008104,null,"<div style=""font-size:42px;"">BUSH</div><img id = ""stim"" ><div class = green_square id = topsquare></div>",null,encoding,word_square,,,1,topsquare,32,true,,,BUSH,5,,,
html-keyboard-response,604,1008406,282.59999999962747,"<div style=""font-size:42px;"">BUSH</div>",32,,word,BUSH,,,,,,,,,,,,
html-keyboard-response,605,1009908,null,"",null,,word,BUSH,,,,,,,,,,,,
call-function,606,1009909,,"",,,,,,,,,,,,,,,,
html-keyboard-response,607,1010011,null,"",null,,,,,,,,,,,,,,,
math-period,608,1012940,5185.400000002235,"",,,,,,,,,,,3,,,,,
html-keyboard-response,609,1013043,null,"",null,,,,,,,,,,,,,,,
math-period,610,1014739,3177.800000000745,"",,,,,,,,,,,2,,,,,
html-keyboard-response,611,1014842,null,"",null,,,,,,,,,,,,,,,
math-period,612,1015776,1651.699999999255,"",,,,,,,,,,,3,,,,,
html-keyboard-response,613,1015878,null,"",null,,,,,,,,,,,,,,,
math-period,614,1017958,3981.39999999851,"",,,,,,,,,,,2,,,,,
html-keyboard-response,615,1018060,null,"",null,,,,,,,,,,,,,,,
math-period,616,1019194,2101.800000000745,"",,,,,,,,,,,3,,,,,
html-keyboard-response,617,1019296,null,"",null,,,,,,,,,,,,,,,
math-period,618,1022256,5793.10000000149,"",,,,,,,,,,,1,,,,,
html-keyboard-response,619,1022359,null,"",null,,,,,,,,,,,,,,,
math-period,620,1024203,3572.7999999988824,"",,,,,,,,,,,4,,,,,
html-keyboard-response,621,1024305,null,"",null,,,,,,,,,,,,,,,
math-period,622,1027303,5836.200000001118,"",,,,,,,,,,,3,,,,,
html-keyboard-response,623,1027406,null,"",null,,,,,,,,,,,,,,,
math-period,624,1031279,7628.099999997765,"",,,,,,,,,,,2,,,,,
html-keyboard-response,625,1031382,null,"",null,,,,,,,,,,,,,,,
math-period,626,1033915,null,"",,,,,,,,,,,,,,,,
html-keyboard-response,627,1034917,null,"Recall Period!",null,,,,,,,,,,,,,,,
call-function,628,1034917,,"",,,,,,,,,,,,,,,,
html-keyboard-response,629,1035020,null,"",null,,,,,,,,,,,,,,,
recall-period,630,1036740,6953.100000005215,"",,,,,,,,,,,feast,,,,,
html-keyboard-response,631,1036842,null,"",null,,,,,,,,,,,,,,,
recall-period,632,1046318,133463.59999999404,"",,,,,,,,,,,salmon,,,,,
html-keyboard-response,633,1046420,null,"",null,,,,,,,,,,,,,,,
recall-period,634,1048601,7360.000000001863,"",,,,,,,,,,,lagoon,,,,,
html-keyboard-response,635,1048704,null,"",null,,,,,,,,,,,,,,,
recall-period,636,1051451,10745.5,"",,,,,,,,,,,donkey,,,,,
html-keyboard-response,637,1051554,null,"",null,,,,,,,,,,,,,,,
recall-period,638,1052640,3692.5999999940395,"",,,,,,,,,,,bush,,,,,
html-keyboard-response,639,1052742,null,"",null,,,,,,,,,,,,,,,
recall-period,640,1063218,128993.80000000261,"",,,,,,,,,,,notebook,,,,,
html-keyboard-response,641,1063320,null,"",null,,,,,,,,,,,,,,,
recall-period,642,1109920,null,"",,,,,,,,,,,,,,,,
html-keyboard-response,643,1110422,null,"Time's Up!",null,,,,,,,,,,,,,,,
html-keyboard-response,644,1112903,2477.60000000149,"<p> Good job! You have responded correctly to 99% of the trials. </p>
                      <p>Be sure to only press the spacebar if you see a GREEN square, and please keep your accuracy above 80%.</p>
                      <p> Press any key to continue the experiment. </p>",13,,,,,,,,,,,,,,,
html-keyboard-response,645,1113723,817,"<div style=""font-size:48px;"">Press any key to begin list 7 of 16 </div>",32,,,,,,,,,,,,,,,
html-keyboard-response,646,1116227,null,"<div style=""font-size:60px;"">+</div>",null,,,,,,,,,,,,,,,
html-keyboard-response,647,1116430,null,"<div style=""font-size:42px;"">MARINE</div><img id = ""stim"" ><div class = red_square id = bottomsquare></div>",null,encoding,word_square,,,0,bottomsquare,none,true,,,MARINE,6,,,
html-keyboard-response,648,1116733,null,"<div style=""font-size:42px;"">MARINE</div>",null,,word,MARINE,,,,,,,,,,,,
html-keyboard-response,649,1118235,null,"",null,,word,MARINE,,,,,,,,,,,,
html-keyboard-response,650,1118438,null,"<div style=""font-size:42px;"">JOINT</div><img id = ""stim"" ><div class = red_square id = topsquare></div>",null,encoding,word_square,,,0,topsquare,none,true,,,JOINT,6,,,
html-keyboard-response,651,1118740,null,"<div style=""font-size:42px;"">JOINT</div>",null,,word,JOINT,,,,,,,,,,,,
html-keyboard-response,652,1120246,null,"",null,,word,JOINT,,,,,,,,,,,,
html-keyboard-response,653,1120449,null,"<div style=""font-size:42px;"">VESSEL</div><img id = ""stim"" ><div class = green_square id = topsquare></div>",null,encoding,word_square,,,1,topsquare,32,true,,,VESSEL,6,,,
html-keyboard-response,654,1120751,129.19999999925494,"<div style=""font-size:42px;"">VESSEL</div>",32,,word,VESSEL,,,,,,,,,,,,
html-keyboard-response,655,1122253,null,"",null,,word,VESSEL,,,,,,,,,,,,
html-keyboard-response,656,1122455,null,"<div style=""font-size:42px;"">COWBOY</div><img id = ""stim"" ><div class = green_square id = bottomsquare></div>",null,encoding,word_square,,,1,bottomsquare,32,true,,,COWBOY,6,,,
html-keyboard-response,657,1122758,111.19999999925494,"<div style=""font-size:42px;"">COWBOY</div>",32,,word,COWBOY,,,,,,,,,,,,
html-keyboard-response,658,1124262,null,"",null,,word,COWBOY,,,,,,,,,,,,
html-keyboard-response,659,1124465,null,"<div style=""font-size:42px;"">CONVICT</div><img id = ""stim"" ><div class = red_square id = bottomsquare></div>",null,encoding,word_square,,,0,bottomsquare,none,true,,,CONVICT,6,,,
html-keyboard-response,660,1124767,null,"<div style=""font-size:42px;"">CONVICT</div>",null,,word,CONVICT,,,,,,,,,,,,
html-keyboard-response,661,1126269,null,"",null,,word,CONVICT,,,,,,,,,,,,
html-keyboard-response,662,1126472,null,"<div style=""font-size:42px;"">COOK</div><img id = ""stim"" ><div class = green_square id = topsquare></div>",null,encoding,word_square,,,1,topsquare,32,true,,,COOK,6,,,
html-keyboard-response,663,1126783,98.09999999962747,"<div style=""font-size:42px;"">COOK</div>",32,,word,COOK,,,,,,,,,,,,
html-keyboard-response,664,1128285,null,"",null,,word,COOK,,,,,,,,,,,,
html-keyboard-response,665,1128487,null,"<div style=""font-size:42px;"">FROG</div><img id = ""stim"" ><div class = green_square id = bottomsquare></div>",null,encoding,word_square,,,1,bottomsquare,32,true,,,FROG,6,,,
html-keyboard-response,666,1128791,275.30000000074506,"<div style=""font-size:42px;"">FROG</div>",32,,word,FROG,,,,,,,,,,,,
html-keyboard-response,667,1130293,null,"",null,,word,FROG,,,,,,,,,,,,
html-keyboard-response,668,1130497,null,"<div style=""font-size:42px;"">PREACHER</div><img id = ""stim"" ><div class = red_square id = topsquare></div>",null,encoding,word_square,,,0,topsquare,none,true,,,PREACHER,6,,,
html-keyboard-response,669,1130799,null,"<div style=""font-size:42px;"">PREACHER</div>",null,,word,PREACHER,,,,,,,,,,,,
html-keyboard-response,670,1132302,null,"",null,,word,PREACHER,,,,,,,,,,,,
html-keyboard-response,671,1132508,null,"<div style=""font-size:42px;"">LAUNDRY</div><img id = ""stim"" ><div class = red_square id = bottomsquare></div>",null,encoding,word_square,,,0,bottomsquare,none,true,,,LAUNDRY,6,,,
html-keyboard-response,672,1132812,null,"<div style=""font-size:42px;"">LAUNDRY</div>",null,,word,LAUNDRY,,,,,,,,,,,,
html-keyboard-response,673,1134316,null,"",null,,word,LAUNDRY,,,,,,,,,,,,
html-keyboard-response,674,1134518,null,"<div style=""font-size:42px;"">TWISTER</div><img id = ""stim"" ><div class = red_square id = topsquare></div>",null,encoding,word_square,,,0,topsquare,none,true,,,TWISTER,6,,,
html-keyboard-response,675,1134820,null,"<div style=""font-size:42px;"">TWISTER</div>",null,,word,TWISTER,,,,,,,,,,,,
html-keyboard-response,676,1136322,null,"",null,,word,TWISTER,,,,,,,,,,,,
html-keyboard-response,677,1136526,null,"<div style=""font-size:42px;"">STAR</div><img id = ""stim"" ><div class = green_square id = topsquare></div>",null,encoding,word_square,,,1,topsquare,32,true,,,STAR,6,,,
html-keyboard-response,678,1136829,106.20000000111759,"<div style=""font-size:42px;"">STAR</div>",32,,word,STAR,,,,,,,,,,,,
html-keyboard-response,679,1138332,null,"",null,,word,STAR,,,,,,,,,,,,
html-keyboard-response,680,1138534,null,"<div style=""font-size:42px;"">MARS</div><img id = ""stim"" ><div class = green_square id = bottomsquare></div>",null,encoding,word_square,,,1,bottomsquare,32,true,,,MARS,6,,,
html-keyboard-response,681,1138836,145.2999999988824,"<div style=""font-size:42px;"">MARS</div>",32,,word,MARS,,,,,,,,,,,,
html-keyboard-response,682,1140338,null,"",null,,word,MARS,,,,,,,,,,,,
html-keyboard-response,683,1140542,null,"<div style=""font-size:42px;"">SADDLE</div><img id = ""stim"" ><div class = red_square id = bottomsquare></div>",null,encoding,word_square,,,0,bottomsquare,none,true,,,SADDLE,6,,,
html-keyboard-response,684,1140846,null,"<div style=""font-size:42px;"">SADDLE</div>",null,,word,SADDLE,,,,,,,,,,,,
html-keyboard-response,685,1142349,null,"",null,,word,SADDLE,,,,,,,,,,,,
html-keyboard-response,686,1142552,null,"<div style=""font-size:42px;"">CYCLONE</div><img id = ""stim"" ><div class = green_square id = topsquare></div>",null,encoding,word_square,,,1,topsquare,32,true,,,CYCLONE,6,,,
html-keyboard-response,687,1142856,95.09999999962747,"<div style=""font-size:42px;"">CYCLONE</div>",32,,word,CYCLONE,,,,,,,,,,,,
html-keyboard-response,688,1144360,null,"",null,,word,CYCLONE,,,,,,,,,,,,
html-keyboard-response,689,1144563,null,"<div style=""font-size:42px;"">SHEARS</div><img id = ""stim"" ><div class = red_square id = topsquare></div>",null,encoding,word_square,,,0,topsquare,none,true,,,SHEARS,6,,,
html-keyboard-response,690,1144865,null,"<div style=""font-size:42px;"">SHEARS</div>",null,,word,SHEARS,,,,,,,,,,,,
html-keyboard-response,691,1146367,null,"",null,,word,SHEARS,,,,,,,,,,,,
html-keyboard-response,692,1146569,null,"<div style=""font-size:42px;"">CLAM</div><img id = ""stim"" ><div class = green_square id = bottomsquare></div>",null,encoding,word_square,,,1,bottomsquare,32,true,,,CLAM,6,,,
html-keyboard-response,693,1146872,169.69999999925494,"<div style=""font-size:42px;"">CLAM</div>",32,,word,CLAM,,,,,,,,,,,,
html-keyboard-response,694,1148376,null,"",null,,word,CLAM,,,,,,,,,,,,
call-function,695,1148379,,"",,,,,,,,,,,,,,,,
html-keyboard-response,696,1148481,null,"",null,,,,,,,,,,,,,,,
math-period,697,1151440,5709.799999998882,"",,,,,,,,,,,1,,,,,
html-keyboard-response,698,1151543,null,"",null,,,,,,,,,,,,,,,
math-period,699,1153196,3184.2999999988824,"",,,,,,,,,,,6,,,,,
html-keyboard-response,700,1153298,null,"",null,,,,,,,,,,,,,,,
math-period,701,1154588,2444.4000000003725,"",,,,,,,,,,,6,,,,,
html-keyboard-response,702,1154690,null,"",null,,,,,,,,,,,,,,,
math-period,703,1156207,2898.800000000745,"",,,,,,,,,,,4,,,,,
html-keyboard-response,704,1156309,null,"",null,,,,,,,,,,,,,,,
math-period,705,1159309,5874.000000001863,"",,,,,,,,,,,4,,,,,
html-keyboard-response,706,1159411,null,"",null,,,,,,,,,,,,,,,
math-period,707,1161280,3217.2999999988824,"",,,,,,,,,,,2,,,,,
html-keyboard-response,708,1161382,null,"",null,,,,,,,,,,,,,,,
math-period,709,1163037,3173.2000000011176,"",,,,,,,,,,,6,,,,,
html-keyboard-response,710,1163140,null,"",null,,,,,,,,,,,,,,,
math-period,711,1165596,4807.5999999996275,"",,,,,,,,,,,1,,,,,
html-keyboard-response,712,1165699,null,"",null,,,,,,,,,,,,,,,
math-period,713,1167052,2605.4000000003725,"",,,,,,,,,,,4,,,,,
html-keyboard-response,714,1167153,null,"",null,,,,,,,,,,,,,,,
math-period,715,1168634,2878.39999999851,"",,,,,,,,,,,5,,,,,
html-keyboard-response,716,1168736,null,"",null,,,,,,,,,,,,,,,
math-period,717,1170551,3533.9999999981374,"",,,,,,,,,,,2,,,,,
html-keyboard-response,718,1170654,null,"",null,,,,,,,,,,,,,,,
math-period,719,1172381,null,"",,,,,,,,,,,,,,,,
html-keyboard-response,720,1173385,null,"Recall Period!",null,,,,,,,,,,,,,,,
call-function,721,1173386,,"",,,,,,,,,,,,,,,,
html-keyboard-response,722,1173489,null,"",null,,,,,,,,,,,,,,,
recall-period,723,1175412,6898.500000001863,"",,,,,,,,,,,mars,,,,,
html-keyboard-response,724,1175514,null,"",null,,,,,,,,,,,,,,,
recall-period,725,1176644,2870.9999999962747,"",,,,,,,,,,,clam,,,,,
html-keyboard-response,726,1176746,null,"",null,,,,,,,,,,,,,,,
recall-period,727,1248387,234528.70000000112,"",,,,,,,,,,,,,,,,
html-keyboard-response,728,1248890,null,"Time's Up!",null,,,,,,,,,,,,,,,
html-keyboard-response,729,1250273,1381.7000000011176,"<p> Good job! You have responded correctly to 99% of the trials. </p>
                      <p>Be sure to only press the spacebar if you see a GREEN square, and please keep your accuracy above 80%.</p>
                      <p> Press any key to continue the experiment. </p>",32,,,,,,,,,,,,,,,
html-keyboard-response,730,1251311,1035.699999999255,"<div style=""font-size:48px;"">Press any key to begin list 8 of 16 </div>",32,,,,,,,,,,,,,,,
html-keyboard-response,731,1253814,null,"<div style=""font-size:60px;"">+</div>",null,,,,,,,,,,,,,,,
html-keyboard-response,732,1254017,null,"<div style=""font-size:42px;"">CABIN</div><img id = ""stim"" ><div class = green_square id = bottomsquare></div>",null,encoding,word_square,,,1,bottomsquare,32,true,,,CABIN,7,,,
html-keyboard-response,733,1254320,206.7000000011176,"<div style=""font-size:42px;"">CABIN</div>",32,,word,CABIN,,,,,,,,,,,,
html-keyboard-response,734,1255822,null,"",null,,word,CABIN,,,,,,,,,,,,
html-keyboard-response,735,1256025,null,"<div style=""font-size:42px;"">HOOK</div><img id = ""stim"" ><div class = red_square id = topsquare></div>",null,encoding,word_square,,,0,topsquare,none,true,,,HOOK,7,,,
html-keyboard-response,736,1256327,null,"<div style=""font-size:42px;"">HOOK</div>",null,,word,HOOK,,,,,,,,,,,,
html-keyboard-response,737,1257830,null,"",null,,word,HOOK,,,,,,,,,,,,
html-keyboard-response,738,1258033,null,"<div style=""font-size:42px;"">ANGEL</div><img id = ""stim"" ><div class = green_square id = topsquare></div>",null,encoding,word_square,,,1,topsquare,32,true,,,ANGEL,7,,,
html-keyboard-response,739,1258336,203.19999999925494,"<div style=""font-size:42px;"">ANGEL</div>",32,,word,ANGEL,,,,,,,,,,,,
html-keyboard-response,740,1259838,null,"",null,,word,ANGEL,,,,,,,,,,,,
html-keyboard-response,741,1260041,null,"<div style=""font-size:42px;"">TRIBE</div><img id = ""stim"" ><div class = red_square id = bottomsquare></div>",null,encoding,word_square,,,0,bottomsquare,none,true,,,TRIBE,7,,,
html-keyboard-response,742,1260344,null,"<div style=""font-size:42px;"">TRIBE</div>",null,,word,TRIBE,,,,,,,,,,,,
html-keyboard-response,743,1261848,null,"",null,,word,TRIBE,,,,,,,,,,,,
html-keyboard-response,744,1262052,null,"<div style=""font-size:42px;"">HANDBAG</div><img id = ""stim"" ><div class = green_square id = bottomsquare></div>",null,encoding,word_square,,,1,bottomsquare,32,true,,,HANDBAG,7,,,
html-keyboard-response,745,1262353,73.5,"<div style=""font-size:42px;"">HANDBAG</div>",32,,word,HANDBAG,,,,,,,,,,,,
html-keyboard-response,746,1263855,null,"",null,,word,HANDBAG,,,,,,,,,,,,
html-keyboard-response,747,1264058,null,"<div style=""font-size:42px;"">ICEBERG</div><img id = ""stim"" ><div class = green_square id = topsquare></div>",null,encoding,word_square,,,1,topsquare,32,true,,,ICEBERG,7,,,
html-keyboard-response,748,1264360,217.40000000037253,"<div style=""font-size:42px;"">ICEBERG</div>",32,,word,ICEBERG,,,,,,,,,,,,
html-keyboard-response,749,1265863,null,"",null,,word,ICEBERG,,,,,,,,,,,,
html-keyboard-response,750,1266066,null,"<div style=""font-size:42px;"">CURTAIN</div><img id = ""stim"" ><div class = red_square id = topsquare></div>",null,encoding,word_square,,,0,topsquare,none,true,,,CURTAIN,7,,,
html-keyboard-response,751,1266368,null,"<div style=""font-size:42px;"">CURTAIN</div>",null,,word,CURTAIN,,,,,,,,,,,,
html-keyboard-response,752,1267870,null,"",null,,word,CURTAIN,,,,,,,,,,,,
html-keyboard-response,753,1268071,null,"<div style=""font-size:42px;"">WINDOW</div><img id = ""stim"" ><div class = red_square id = bottomsquare></div>",null,encoding,word_square,,,0,bottomsquare,none,true,,,WINDOW,7,,,
html-keyboard-response,754,1268374,null,"<div style=""font-size:42px;"">WINDOW</div>",null,,word,WINDOW,,,,,,,,,,,,
html-keyboard-response,755,1269877,null,"",null,,word,WINDOW,,,,,,,,,,,,
html-keyboard-response,756,1270081,null,"<div style=""font-size:42px;"">ARM</div><img id = ""stim"" ><div class = red_square id = topsquare></div>",null,encoding,word_square,,,0,topsquare,none,true,,,ARM,7,,,
html-keyboard-response,757,1270383,null,"<div style=""font-size:42px;"">ARM</div>",null,,word,ARM,,,,,,,,,,,,
html-keyboard-response,758,1271885,null,"",null,,word,ARM,,,,,,,,,,,,
html-keyboard-response,759,1272087,null,"<div style=""font-size:42px;"">TROUT</div><img id = ""stim"" ><div class = green_square id = bottomsquare></div>",null,encoding,word_square,,,1,bottomsquare,32,true,,,TROUT,7,,,
html-keyboard-response,760,1272388,164.7000000011176,"<div style=""font-size:42px;"">TROUT</div>",32,,word,TROUT,,,,,,,,,,,,
html-keyboard-response,761,1273890,null,"",null,,word,TROUT,,,,,,,,,,,,
html-keyboard-response,762,1274093,null,"<div style=""font-size:42px;"">MARROW</div><img id = ""stim"" ><div class = green_square id = topsquare></div>",null,encoding,word_square,,,1,topsquare,32,true,,,MARROW,7,,,
html-keyboard-response,763,1274396,286.40000000037253,"<div style=""font-size:42px;"">MARROW</div>",32,,word,MARROW,,,,,,,,,,,,
html-keyboard-response,764,1275899,null,"",null,,word,MARROW,,,,,,,,,,,,
html-keyboard-response,765,1276101,null,"<div style=""font-size:42px;"">BODY</div><img id = ""stim"" ><div class = red_square id = bottomsquare></div>",null,encoding,word_square,,,0,bottomsquare,none,true,,,BODY,7,,,
html-keyboard-response,766,1276403,null,"<div style=""font-size:42px;"">BODY</div>",null,,word,BODY,,,,,,,,,,,,
html-keyboard-response,767,1277907,null,"",null,,word,BODY,,,,,,,,,,,,
html-keyboard-response,768,1278110,null,"<div style=""font-size:42px;"">KNIFE</div><img id = ""stim"" ><div class = green_square id = bottomsquare></div>",null,encoding,word_square,,,1,bottomsquare,32,true,,,KNIFE,7,,,
html-keyboard-response,769,1278413,162.2000000011176,"<div style=""font-size:42px;"">KNIFE</div>",32,,word,KNIFE,,,,,,,,,,,,
html-keyboard-response,770,1279916,null,"",null,,word,KNIFE,,,,,,,,,,,,
html-keyboard-response,771,1280118,null,"<div style=""font-size:42px;"">PEOPLE</div><img id = ""stim"" ><div class = green_square id = topsquare></div>",null,encoding,word_square,,,1,topsquare,32,true,,,PEOPLE,7,,,
html-keyboard-response,772,1280419,null,"<div style=""font-size:42px;"">PEOPLE</div>",null,,word,PEOPLE,,,,,,,,,,,,
html-keyboard-response,773,1281921,12.5,"",32,,word,PEOPLE,,,,,,,,,,,,
html-keyboard-response,774,1282124,null,"<div style=""font-size:42px;"">KLEENEX</div><img id = ""stim"" ><div class = red_square id = topsquare></div>",null,encoding,word_square,,,0,topsquare,none,true,,,KLEENEX,7,,,
html-keyboard-response,775,1282427,null,"<div style=""font-size:42px;"">KLEENEX</div>",null,,word,KLEENEX,,,,,,,,,,,,
html-keyboard-response,776,1283931,null,"",null,,word,KLEENEX,,,,,,,,,,,,
html-keyboard-response,777,1284133,null,"<div style=""font-size:42px;"">SERGEANT</div><img id = ""stim"" ><div class = red_square id = bottomsquare></div>",null,encoding,word_square,,,0,bottomsquare,none,true,,,SERGEANT,7,,,
html-keyboard-response,778,1284434,null,"<div style=""font-size:42px;"">SERGEANT</div>",null,,word,SERGEANT,,,,,,,,,,,,
html-keyboard-response,779,1285938,null,"",null,,word,SERGEANT,,,,,,,,,,,,
call-function,780,1285941,,"",,,,,,,,,,,,,,,,
html-keyboard-response,781,1286043,null,"",null,,,,,,,,,,,,,,,
math-period,782,1288516,4759.5,"",,,,,,,,,,,5,,,,,
html-keyboard-response,783,1288618,null,"",null,,,,,,,,,,,,,,,
math-period,784,1290187,2962,"",,,,,,,,,,,2,,,,,
html-keyboard-response,785,1290289,null,"",null,,,,,,,,,,,,,,,
math-period,786,1292381,3971.099999997765,"",,,,,,,,,,,3,,,,,
html-keyboard-response,787,1292482,null,"",null,,,,,,,,,,,,,,,
math-period,788,1293695,2270.199999999255,"",,,,,,,,,,,4,,,,,
html-keyboard-response,789,1293798,null,"",null,,,,,,,,,,,,,,,
math-period,790,1297835,7929.5999999996275,"",,,,,,,,,,,2,,,,,
html-keyboard-response,791,1297938,null,"",null,,,,,,,,,,,,,,,
math-period,792,1299945,3883.2999999988824,"",,,,,,,,,,,5,,,,,
html-keyboard-response,793,1300048,null,"",null,,,,,,,,,,,,,,,
math-period,794,1301443,2614.2999999988824,"",,,,,,,,,,,3,,,,,
html-keyboard-response,795,1301546,null,"",null,,,,,,,,,,,,,,,
math-period,796,1302762,2343,"",,,,,,,,,,,3,,,,,
html-keyboard-response,797,1302865,null,"",null,,,,,,,,,,,,,,,
math-period,798,1304986,4088.5999999996275,"",,,,,,,,,,,5,,,,,
html-keyboard-response,799,1305088,null,"",null,,,,,,,,,,,,,,,
math-period,800,1307255,4177.799999998882,"",,,,,,,,,,,5,,,,,
html-keyboard-response,801,1307357,null,"",null,,,,,,,,,,,,,,,
math-period,802,1309628,4409.999999998137,"",,,,,,,,,,,4,,,,,
html-keyboard-response,803,1309730,null,"",null,,,,,,,,,,,,,,,
math-period,804,1309942,null,"",,,,,,,,,,,,,,,,
html-keyboard-response,805,1310946,null,"Recall Period!",null,,,,,,,,,,,,,,,
call-function,806,1310947,,"",,,,,,,,,,,,,,,,
html-keyboard-response,807,1311049,null,"",null,,,,,,,,,,,,,,,
recall-period,808,1313343,9733.599999997765,"",,,,,,,,,,,cabin,,,,,
html-keyboard-response,809,1313445,null,"",null,,,,,,,,,,,,,,,
recall-period,810,1315630,7758.19999999553,"",,,,,,,,,,,hook,,,,,
html-keyboard-response,811,1315732,null,"",null,,,,,,,,,,,,,,,
recall-period,812,1317617,6763.699999993667,"",,,,,,,,,,,knife,,,,,
html-keyboard-response,813,1317721,null,"",null,,,,,,,,,,,,,,,
recall-period,814,1385950,null,"",,,,,,,,,,,,,,,,
html-keyboard-response,815,1386454,null,"Time's Up!",null,,,,,,,,,,,,,,,
html-keyboard-response,816,1389492,3035,"<p> Good job! You have responded correctly to 99% of the trials. </p>
                      <p>Be sure to only press the spacebar if you see a GREEN square, and please keep your accuracy above 80%.</p>
                      <p> Press any key to continue the experiment. </p>",32,,,,,,,,,,,,,,,
html-keyboard-response,817,1393080,3585.9000000003725,"<div style=""font-size:48px;"">Press any key to begin list 9 of 16 </div>",32,,,,,,,,,,,,,,,
html-keyboard-response,818,1395583,null,"<div style=""font-size:60px;"">+</div>",null,,,,,,,,,,,,,,,
html-keyboard-response,819,1395786,null,"<div style=""font-size:42px;"">PORT</div><img id = ""stim"" ><div class = green_square id = topsquare></div>",null,encoding,word_square,,,1,topsquare,32,true,,,PORT,8,,,
html-keyboard-response,820,1396088,218.59999999962747,"<div style=""font-size:42px;"">PORT</div>",32,,word,PORT,,,,,,,,,,,,
html-keyboard-response,821,1397590,null,"",null,,word,PORT,,,,,,,,,,,,
html-keyboard-response,822,1397792,null,"<div style=""font-size:42px;"">CAPE</div><img id = ""stim"" ><div class = red_square id = bottomsquare></div>",null,encoding,word_square,,,0,bottomsquare,none,true,,,CAPE,8,,,
html-keyboard-response,823,1398095,null,"<div style=""font-size:42px;"">CAPE</div>",null,,word,CAPE,,,,,,,,,,,,
html-keyboard-response,824,1399598,null,"",null,,word,CAPE,,,,,,,,,,,,
html-keyboard-response,825,1399801,null,"<div style=""font-size:42px;"">ICING</div><img id = ""stim"" ><div class = green_square id = bottomsquare></div>",null,encoding,word_square,,,1,bottomsquare,32,true,,,ICING,8,,,
html-keyboard-response,826,1400103,212.30000000074506,"<div style=""font-size:42px;"">ICING</div>",32,,word,ICING,,,,,,,,,,,,
html-keyboard-response,827,1401606,null,"",null,,word,ICING,,,,,,,,,,,,
html-keyboard-response,828,1401807,null,"<div style=""font-size:42px;"">PISTOL</div><img id = ""stim"" ><div class = green_square id = topsquare></div>",null,encoding,word_square,,,1,topsquare,32,true,,,PISTOL,8,,,
html-keyboard-response,829,1402110,null,"<div style=""font-size:42px;"">PISTOL</div>",null,,word,PISTOL,,,,,,,,,,,,
html-keyboard-response,830,1403614,42.5,"",32,,word,PISTOL,,,,,,,,,,,,
html-keyboard-response,831,1403816,null,"<div style=""font-size:42px;"">CATCHER</div><img id = ""stim"" ><div class = green_square id = bottomsquare></div>",null,encoding,word_square,,,1,bottomsquare,32,true,,,CATCHER,8,,,
html-keyboard-response,832,1404119,259.19999999925494,"<div style=""font-size:42px;"">CATCHER</div>",32,,word,CATCHER,,,,,,,,,,,,
html-keyboard-response,833,1405622,null,"",null,,word,CATCHER,,,,,,,,,,,,
html-keyboard-response,834,1405824,null,"<div style=""font-size:42px;"">SHAMPOO</div><img id = ""stim"" ><div class = red_square id = topsquare></div>",null,encoding,word_square,,,0,topsquare,none,true,,,SHAMPOO,8,,,
html-keyboard-response,835,1406125,null,"<div style=""font-size:42px;"">SHAMPOO</div>",null,,word,SHAMPOO,,,,,,,,,,,,
html-keyboard-response,836,1407629,null,"",null,,word,SHAMPOO,,,,,,,,,,,,
html-keyboard-response,837,1407832,null,"<div style=""font-size:42px;"">LITTER</div><img id = ""stim"" ><div class = red_square id = bottomsquare></div>",null,encoding,word_square,,,0,bottomsquare,none,true,,,LITTER,8,,,
html-keyboard-response,838,1408136,null,"<div style=""font-size:42px;"">LITTER</div>",null,,word,LITTER,,,,,,,,,,,,
html-keyboard-response,839,1409639,null,"",null,,word,LITTER,,,,,,,,,,,,
html-keyboard-response,840,1409840,null,"<div style=""font-size:42px;"">COUNTRY</div><img id = ""stim"" ><div class = green_square id = topsquare></div>",null,encoding,word_square,,,1,topsquare,32,true,,,COUNTRY,8,,,
html-keyboard-response,841,1410143,165.90000000037253,"<div style=""font-size:42px;"">COUNTRY</div>",32,,word,COUNTRY,,,,,,,,,,,,
html-keyboard-response,842,1411647,null,"",null,,word,COUNTRY,,,,,,,,,,,,
html-keyboard-response,843,1411851,null,"<div style=""font-size:42px;"">INMATE</div><img id = ""stim"" ><div class = red_square id = topsquare></div>",null,encoding,word_square,,,0,topsquare,none,true,,,INMATE,8,,,
html-keyboard-response,844,1412154,null,"<div style=""font-size:42px;"">INMATE</div>",null,,word,INMATE,,,,,,,,,,,,
html-keyboard-response,845,1413656,null,"",null,,word,INMATE,,,,,,,,,,,,
html-keyboard-response,846,1413859,null,"<div style=""font-size:42px;"">SUSPECT</div><img id = ""stim"" ><div class = red_square id = bottomsquare></div>",null,encoding,word_square,,,0,bottomsquare,none,true,,,SUSPECT,8,,,
html-keyboard-response,847,1414163,null,"<div style=""font-size:42px;"">SUSPECT</div>",null,,word,SUSPECT,,,,,,,,,,,,
html-keyboard-response,848,1415667,null,"",null,,word,SUSPECT,,,,,,,,,,,,
html-keyboard-response,849,1415869,null,"<div style=""font-size:42px;"">TUNNEL</div><img id = ""stim"" ><div class = green_square id = bottomsquare></div>",null,encoding,word_square,,,1,bottomsquare,32,true,,,TUNNEL,8,,,
html-keyboard-response,850,1416171,98,"<div style=""font-size:42px;"">TUNNEL</div>",32,,word,TUNNEL,,,,,,,,,,,,
html-keyboard-response,851,1417673,null,"",null,,word,TUNNEL,,,,,,,,,,,,
html-keyboard-response,852,1417876,null,"<div style=""font-size:42px;"">BANJO</div><img id = ""stim"" ><div class = red_square id = topsquare></div>",null,encoding,word_square,,,0,topsquare,none,true,,,BANJO,8,,,
html-keyboard-response,853,1418181,null,"<div style=""font-size:42px;"">BANJO</div>",null,,word,BANJO,,,,,,,,,,,,
html-keyboard-response,854,1419683,null,"",null,,word,BANJO,,,,,,,,,,,,
html-keyboard-response,855,1419886,null,"<div style=""font-size:42px;"">PRINCESS</div><img id = ""stim"" ><div class = red_square id = bottomsquare></div>",null,encoding,word_square,,,0,bottomsquare,none,true,,,PRINCESS,8,,,
html-keyboard-response,856,1420188,null,"<div style=""font-size:42px;"">PRINCESS</div>",null,,word,PRINCESS,,,,,,,,,,,,
html-keyboard-response,857,1421691,null,"",null,,word,PRINCESS,,,,,,,,,,,,
html-keyboard-response,858,1421895,null,"<div style=""font-size:42px;"">EARRING</div><img id = ""stim"" ><div class = green_square id = topsquare></div>",null,encoding,word_square,,,1,topsquare,32,true,,,EARRING,8,,,
html-keyboard-response,859,1422199,107.59999999962747,"<div style=""font-size:42px;"">EARRING</div>",32,,word,EARRING,,,,,,,,,,,,
html-keyboard-response,860,1423703,null,"",null,,word,EARRING,,,,,,,,,,,,
html-keyboard-response,861,1423905,null,"<div style=""font-size:42px;"">FIDDLE</div><img id = ""stim"" ><div class = red_square id = topsquare></div>",null,encoding,word_square,,,0,topsquare,none,true,,,FIDDLE,8,,,
html-keyboard-response,862,1424208,null,"<div style=""font-size:42px;"">FIDDLE</div>",null,,word,FIDDLE,,,,,,,,,,,,
html-keyboard-response,863,1425711,null,"",null,,word,FIDDLE,,,,,,,,,,,,
html-keyboard-response,864,1425914,null,"<div style=""font-size:42px;"">SHINGLE</div><img id = ""stim"" ><div class = green_square id = bottomsquare></div>",null,encoding,word_square,,,1,bottomsquare,32,true,,,SHINGLE,8,,,
html-keyboard-response,865,1426216,150.5,"<div style=""font-size:42px;"">SHINGLE</div>",32,,word,SHINGLE,,,,,,,,,,,,
html-keyboard-response,866,1427718,null,"",null,,word,SHINGLE,,,,,,,,,,,,
call-function,867,1427719,,"",,,,,,,,,,,,,,,,
html-keyboard-response,868,1427821,null,"",null,,,,,,,,,,,,,,,
math-period,869,1430109,4458.4000000003725,"",,,,,,,,,,,5,,,,,
html-keyboard-response,870,1430211,null,"",null,,,,,,,,,,,,,,,
math-period,871,1431717,2847.0000000018626,"",,,,,,,,,,,5,,,,,
html-keyboard-response,872,1431820,null,"",null,,,,,,,,,,,,,,,
math-period,873,1433199,2598.5,"",,,,,,,,,,,6,,,,,
html-keyboard-response,874,1433301,null,"",null,,,,,,,,,,,,,,,
math-period,875,1435428,4106.299999998882,"",,,,,,,,,,,3,,,,,
html-keyboard-response,876,1435531,null,"",null,,,,,,,,,,,,,,,
math-period,877,1437036,2849.199999999255,"",,,,,,,,,,,5,,,,,
html-keyboard-response,878,1437137,null,"",null,,,,,,,,,,,,,,,
math-period,879,1438753,3101.800000000745,"",,,,,,,,,,,4,,,,,
html-keyboard-response,880,1438855,null,"",null,,,,,,,,,,,,,,,
math-period,881,1440198,2546.2999999988824,"",,,,,,,,,,,3,,,,,
html-keyboard-response,882,1440300,null,"",null,,,,,,,,,,,,,,,
math-period,883,1441778,2810.1999999973923,"",,,,,,,,,,,6,,,,,
html-keyboard-response,884,1441881,null,"",null,,,,,,,,,,,,,,,
