trial_type,trial_index,time_elapsed,rt,stimulus,key_press,exp_phase,test_part,word,task,targ_cond,sq_pos,correctKeyCode,correct,value,response,Word,List,RecResp,serial_pos,colorChosen
pavlovia,0,2393,,"",,,,,,,,,,,,,,,,
external-html,1,169509,166994.30000000002,"",,,,,,,,,,,,,,,,
html-keyboard-response,2,172294,2781.5,"Welcome to the experiment. Press any key to begin.",32,,,,,,,,,,,,,,,
html-keyboard-response,3,183212,10917.700000000012,"<p>You will see a list of words and colored squares in the following task.<p><p>Press the spacebar whenever you see a red square.<p><p>Do not press a key if the square is green.<p><p>Press the spacebar to continue.</p>",32,,,,,,,,,,,,,,,
html-keyboard-response,4,195229,11514.899999999965,"<p>Please try to remember as many of the words as you can, and try to think about the meaning of each word as it appears.<p><p>After the detection and encoding task you will be asked to solve some math problems for 24 seconds.<p> Please solve as many problems as you can in the time given. <p><p><p>Press the spacebar to continue.</p>",32,,,,,,,,,,,,,,,
html-keyboard-response,5,204477,8743.100000000035,"After solving the math problems, you will be asked to type in as many words <p>from the previous list as you can remember for 75 seconds.<p> If you finish recalling before the 75 seconds are up,<p> just sit tight and try to think of any more words you could have missed. <p><p><p>Press the spacebar to continue.</p>",32,,,,,,,,,,,,,,,
html-keyboard-response,6,240662,35680.59999999998,"There will be 16 lists of words and recall, followed  by<p><p> a recognition phase. The experiment is expected to take up to 90 minutes.<p>We will begin with a brief practice session.<p>Press the spacebar to begin the practice.</p>",32,,,,,,,,,,,,,,,
html-keyboard-response,7,243185,null,"<div style=""font-size:60px;"">+</div>",null,,,,,,,,,,,,,,,
html-keyboard-response,8,243391,null,"<div style=""font-size:42px;"">HAPPY</div><img id = ""stim"" ><div class = green_square id = ""bottomsquare"" ></div>",null,practice,word_square,HAPPY,prac_response,0,Bottom,none,true,,,,,,,
html-keyboard-response,9,243693,null,"<div style=""font-size:42px;"">HAPPY</div>",null,,word,HAPPY,,,,,,,,,,,,
html-keyboard-response,10,245198,null,"",null,,word,HAPPY,,,,,,,,,,,,
html-keyboard-response,11,245406,null,"<div style=""font-size:42px;"">COLD</div><img id = ""stim"" ><div class = red_square id = ""bottomsquare"" ></div>",null,practice,word_square,COLD,prac_response,1,Bottom,32,true,,,,,,,
html-keyboard-response,12,245707,null,"<div style=""font-size:42px;"">COLD</div>",null,,word,COLD,,,,,,,,,,,,
html-keyboard-response,13,247213,56.5,"",32,,word,COLD,,,,,,,,,,,,
html-keyboard-response,14,247419,null,"<div style=""font-size:42px;"">HEAVY</div><img id = ""stim"" ><div class = red_square id = ""topsquare"" ></div>",null,practice,word_square,HEAVY,prac_response,1,Top,32,true,,,,,,,
html-keyboard-response,15,247721,null,"<div style=""font-size:42px;"">HEAVY</div>",null,,word,HEAVY,,,,,,,,,,,,
html-keyboard-response,16,249236,267,"",32,,word,HEAVY,,,,,,,,,,,,
html-keyboard-response,17,249447,null,"<div style=""font-size:42px;"">FUNNY</div><img id = ""stim"" ><div class = green_square id = ""topsquare"" ></div>",null,practice,word_square,FUNNY,prac_response,0,Top,none,true,,,,,,,
html-keyboard-response,18,249749,null,"<div style=""font-size:42px;"">FUNNY</div>",null,,word,FUNNY,,,,,,,,,,,,
html-keyboard-response,19,251254,null,"",null,,word,FUNNY,,,,,,,,,,,,
html-keyboard-response,20,251459,null,"<div style=""font-size:42px;"">SCARY</div><img id = ""stim"" ><div class = red_square id = ""bottomsquare"" ></div>",null,practice,word_square,SCARY,prac_response,1,Bottom,32,true,,,,,,,
html-keyboard-response,21,251767,281.4000000000233,"<div style=""font-size:42px;"">SCARY</div>",32,,word,SCARY,,,,,,,,,,,,
html-keyboard-response,22,253269,null,"",null,,word,SCARY,,,,,,,,,,,,
html-keyboard-response,23,253474,null,"<div style=""font-size:42px;"">PEACEFUL</div><img id = ""stim"" ><div class = red_square id = ""topsquare"" ></div>",null,practice,word_square,PEACEFUL,prac_response,1,Top,32,true,,,,,,,
html-keyboard-response,24,253775,290.79999999998836,"<div style=""font-size:42px;"">PEACEFUL</div>",32,,word,PEACEFUL,,,,,,,,,,,,
html-keyboard-response,25,255282,null,"",null,,word,PEACEFUL,,,,,,,,,,,,
html-keyboard-response,26,255493,null,"<div style=""font-size:42px;"">LITTLE</div><img id = ""stim"" ><div class = green_square id = ""bottomsquare"" ></div>",null,practice,word_square,LITTLE,prac_response,0,Bottom,none,true,,,,,,,
html-keyboard-response,27,255802,null,"<div style=""font-size:42px;"">LITTLE</div>",null,,word,LITTLE,,,,,,,,,,,,
html-keyboard-response,28,257314,null,"",null,,word,LITTLE,,,,,,,,,,,,
html-keyboard-response,29,257518,null,"<div style=""font-size:42px;"">TIRED</div><img id = ""stim"" ><div class = green_square id = ""topsquare"" ></div>",null,practice,word_square,TIRED,prac_response,0,Top,none,true,,,,,,,
html-keyboard-response,30,257831,null,"<div style=""font-size:42px;"">TIRED</div>",null,,word,TIRED,,,,,,,,,,,,
html-keyboard-response,31,259347,null,"",null,,word,TIRED,,,,,,,,,,,,
html-keyboard-response,32,259556,null,"<div style=""font-size:42px;"">ENTERTAINING</div><img id = ""stim"" ><div class = green_square id = ""bottomsquare"" ></div>",null,practice,word_square,ENTERTAINING,prac_response,0,Bottom,none,true,,,,,,,
html-keyboard-response,33,259858,null,"<div style=""font-size:42px;"">ENTERTAINING</div>",null,,word,ENTERTAINING,,,,,,,,,,,,
html-keyboard-response,34,261363,null,"",null,,word,ENTERTAINING,,,,,,,,,,,,
html-keyboard-response,35,261570,null,"<div style=""font-size:42px;"">GRATEFUL</div><img id = ""stim"" ><div class = red_square id = ""bottomsquare"" ></div>",null,practice,word_square,GRATEFUL,prac_response,1,Bottom,32,true,,,,,,,
html-keyboard-response,36,261884,210.59999999997672,"<div style=""font-size:42px;"">GRATEFUL</div>",32,,word,GRATEFUL,,,,,,,,,,,,
html-keyboard-response,37,263386,null,"",null,,word,GRATEFUL,,,,,,,,,,,,
html-keyboard-response,38,263596,null,"<div style=""font-size:42px;"">LOUD</div><img id = ""stim"" ><div class = green_square id = ""topsquare"" ></div>",null,practice,word_square,LOUD,prac_response,0,Top,none,true,,,,,,,
html-keyboard-response,39,263899,null,"<div style=""font-size:42px;"">LOUD</div>",null,,word,LOUD,,,,,,,,,,,,
html-keyboard-response,40,265416,null,"",null,,word,LOUD,,,,,,,,,,,,
html-keyboard-response,41,265624,null,"<div style=""font-size:42px;"">SMART</div><img id = ""stim"" ><div class = red_square id = ""topsquare"" ></div>",null,practice,word_square,SMART,prac_response,1,Top,32,true,,,,,,,
html-keyboard-response,42,265926,null,"<div style=""font-size:42px;"">SMART</div>",null,,word,SMART,,,,,,,,,,,,
html-keyboard-response,43,267428,70.59999999997672,"",32,,word,SMART,,,,,,,,,,,,
html-keyboard-response,44,267629,null,"<div style=""font-size:42px;"">SMOOTH</div><img id = ""stim"" ><div class = red_square id = ""bottomsquare"" ></div>",null,practice,word_square,SMOOTH,prac_response,1,Bottom,32,true,,,,,,,
html-keyboard-response,45,267932,null,"<div style=""font-size:42px;"">SMOOTH</div>",null,,word,SMOOTH,,,,,,,,,,,,
html-keyboard-response,46,269438,176.09999999997672,"",32,,word,SMOOTH,,,,,,,,,,,,
html-keyboard-response,47,269644,null,"<div style=""font-size:42px;"">DISHONEST</div><img id = ""stim"" ><div class = green_square id = ""bottomsquare"" ></div>",null,practice,word_square,DISHONEST,prac_response,0,Bottom,none,true,,,,,,,
html-keyboard-response,48,269954,null,"<div style=""font-size:42px;"">DISHONEST</div>",null,,word,DISHONEST,,,,,,,,,,,,
html-keyboard-response,49,271467,null,"",null,,word,DISHONEST,,,,,,,,,,,,
html-keyboard-response,50,271668,null,"<div style=""font-size:42px;"">WEALTHY</div><img id = ""stim"" ><div class = red_square id = ""topsquare"" ></div>",null,practice,word_square,WEALTHY,prac_response,1,Top,32,true,,,,,,,
html-keyboard-response,51,271970,216.40000000002328,"<div style=""font-size:42px;"">WEALTHY</div>",32,,word,WEALTHY,,,,,,,,,,,,
html-keyboard-response,52,273483,null,"",null,,word,WEALTHY,,,,,,,,,,,,
html-keyboard-response,53,273685,null,"<div style=""font-size:42px;"">BEAUTIFUL</div><img id = ""stim"" ><div class = green_square id = ""topsquare"" ></div>",null,practice,word_square,BEAUTIFUL,prac_response,0,Top,none,true,,,,,,,
html-keyboard-response,54,273992,null,"<div style=""font-size:42px;"">BEAUTIFUL</div>",null,,word,BEAUTIFUL,,,,,,,,,,,,
html-keyboard-response,55,275501,null,"",null,,word,BEAUTIFUL,,,,,,,,,,,,
html-keyboard-response,56,281309,5806.400000000023,"<p> Good job! You responded correctly to 100% of the trials. </p>
                  <p>Be sure to only press the spacebar if you see a red square, and please keep your accuracy above 80%.</p>
                  <p>We're going to try once more to make sure you understand the task. press any key to continue. </p>",32,,,,,,,,,,,,,,,
html-keyboard-response,57,285389,4079.399999999907,"<p>You will see a list of words and colored squares in the following task.<p><p>Press the spacebar whenever you see a red square.<p><p>Do not press a key if the square is green<p><p>Press the spacebar to continue.</p>",32,,,,,,,,,,,,,,,
html-keyboard-response,58,287904,null,"<div style=""font-size:60px;"">+</div>",null,,,,,,,,,,,,,,,
html-keyboard-response,59,288113,null,"<div style=""font-size:42px;"">HAPPY</div><img id = ""stim"" ><div class = green_square id = ""bottomsquare"" ></div>",null,practice2,word_square,HAPPY,prac_response,0,Bottom,none,true,,,,,,,
html-keyboard-response,60,288415,null,"<div style=""font-size:42px;"">HAPPY</div>",null,,word,HAPPY,,,,,,,,,,,,
html-keyboard-response,61,289917,null,"",null,,word,HAPPY,,,,,,,,,,,,
html-keyboard-response,62,290126,null,"<div style=""font-size:42px;"">COLD</div><img id = ""stim"" ><div class = red_square id = ""bottomsquare"" ></div>",null,practice2,word_square,,prac_response,1,Bottom,32,true,,,,,,,
html-keyboard-response,63,290429,null,"<div style=""font-size:42px;"">COLD</div>",null,,word,COLD,,,,,,,,,,,,
html-keyboard-response,64,291931,55.40000000002328,"",32,,word,COLD,,,,,,,,,,,,
html-keyboard-response,65,292139,null,"<div style=""font-size:42px;"">HEAVY</div><img id = ""stim"" ><div class = red_square id = ""topsquare"" ></div>",null,practice2,word_square,,prac_response,1,Top,32,true,,,,,,,
html-keyboard-response,66,292442,null,"<div style=""font-size:42px;"">HEAVY</div>",null,,word,HEAVY,,,,,,,,,,,,
html-keyboard-response,67,293949,74.5,"",32,,word,HEAVY,,,,,,,,,,,,
html-keyboard-response,68,294160,null,"<div style=""font-size:42px;"">FUNNY</div><img id = ""stim"" ><div class = green_square id = ""topsquare"" ></div>",null,practice2,word_square,,prac_response,0,Top,none,true,,,,,,,
html-keyboard-response,69,294463,null,"<div style=""font-size:42px;"">FUNNY</div>",null,,word,FUNNY,,,,,,,,,,,,
html-keyboard-response,70,295972,null,"",null,,word,FUNNY,,,,,,,,,,,,
html-keyboard-response,71,296180,null,"<div style=""font-size:42px;"">SCARY</div><img id = ""stim"" ><div class = red_square id = ""bottomsquare"" ></div>",null,practice2,word_square,,prac_response,1,Bottom,32,true,,,,,,,
html-keyboard-response,72,296487,280.5,"<div style=""font-size:42px;"">SCARY</div>",32,,word,SCARY,,,,,,,,,,,,
html-keyboard-response,73,297991,null,"",null,,word,SCARY,,,,,,,,,,,,
html-keyboard-response,74,298199,null,"<div style=""font-size:42px;"">PEACEFUL</div><img id = ""stim"" ><div class = red_square id = ""topsquare"" ></div>",null,practice2,word_square,,prac_response,1,Top,32,true,,,,,,,
html-keyboard-response,75,298503,null,"<div style=""font-size:42px;"">PEACEFUL</div>",null,,word,PEACEFUL,,,,,,,,,,,,
html-keyboard-response,76,300013,308.80000000004657,"",32,,word,PEACEFUL,,,,,,,,,,,,
html-keyboard-response,77,300221,null,"<div style=""font-size:42px;"">LITTLE</div><img id = ""stim"" ><div class = green_square id = ""bottomsquare"" ></div>",null,practice2,word_square,LITTLE,prac_response,0,Bottom,none,true,,,,,,,
html-keyboard-response,78,300523,null,"<div style=""font-size:42px;"">LITTLE</div>",null,,word,LITTLE,,,,,,,,,,,,
html-keyboard-response,79,302025,null,"",null,,word,LITTLE,,,,,,,,,,,,
html-keyboard-response,80,302233,null,"<div style=""font-size:42px;"">TIRED</div><img id = ""stim"" ><div class = green_square id = ""topsquare"" ></div>",null,practice2,word_square,,prac_response,0,Top,none,true,,,,,,,
html-keyboard-response,81,302537,null,"<div style=""font-size:42px;"">TIRED</div>",null,,word,TIRED,,,,,,,,,,,,
html-keyboard-response,82,304039,null,"",null,,word,TIRED,,,,,,,,,,,,
html-keyboard-response,83,304246,null,"<div style=""font-size:42px;"">ENTERTAINING</div><img id = ""stim"" ><div class = green_square id = ""bottomsquare"" ></div>",null,practice2,word_square,ENTERTAINING,prac_response,0,Bottom,none,true,,,,,,,
html-keyboard-response,84,304548,null,"<div style=""font-size:42px;"">ENTERTAINING</div>",null,,word,ENTERTAINING,,,,,,,,,,,,
html-keyboard-response,85,306052,null,"",null,,word,ENTERTAINING,,,,,,,,,,,,
html-keyboard-response,86,306261,null,"<div style=""font-size:42px;"">GRATEFUL</div><img id = ""stim"" ><div class = red_square id = ""bottomsquare"" ></div>",null,practice2,word_square,,prac_response,1,Bottom,32,true,,,,,,,
html-keyboard-response,87,306568,279.9000000000233,"<div style=""font-size:42px;"">GRATEFUL</div>",32,,word,GRATEFUL,,,,,,,,,,,,
html-keyboard-response,88,308084,null,"",null,,word,GRATEFUL,,,,,,,,,,,,
html-keyboard-response,89,308289,null,"<div style=""font-size:42px;"">LOUD</div><img id = ""stim"" ><div class = green_square id = ""topsquare"" ></div>",null,practice2,word_square,,prac_response,0,Top,none,true,,,,,,,
html-keyboard-response,90,308592,null,"<div style=""font-size:42px;"">LOUD</div>",null,,word,LOUD,,,,,,,,,,,,
html-keyboard-response,91,310107,null,"",null,,word,LOUD,,,,,,,,,,,,
html-keyboard-response,92,310318,null,"<div style=""font-size:42px;"">SMART</div><img id = ""stim"" ><div class = red_square id = ""topsquare"" ></div>",null,practice2,word_square,,prac_response,1,Top,32,true,,,,,,,
html-keyboard-response,93,310634,254.5,"<div style=""font-size:42px;"">SMART</div>",32,,word,SMART,,,,,,,,,,,,
html-keyboard-response,94,312148,null,"",null,,word,SMART,,,,,,,,,,,,
html-keyboard-response,95,312356,null,"<div style=""font-size:42px;"">SMOOTH</div><img id = ""stim"" ><div class = red_square id = ""bottomsquare"" ></div>",null,practice2,word_square,,prac_response,1,Bottom,32,true,,,,,,,
html-keyboard-response,96,312658,null,"<div style=""font-size:42px;"">SMOOTH</div>",null,,word,SMOOTH,,,,,,,,,,,,
html-keyboard-response,97,314166,26.29999999993015,"",32,,word,SMOOTH,,,,,,,,,,,,
html-keyboard-response,98,314371,null,"<div style=""font-size:42px;"">DISHONEST</div><img id = ""stim"" ><div class = green_square id = ""bottomsquare"" ></div>",null,practice2,word_square,DISHONEST,prac_response,0,Bottom,none,true,,,,,,,
html-keyboard-response,99,314673,null,"<div style=""font-size:42px;"">DISHONEST</div>",null,,word,DISHONEST,,,,,,,,,,,,
html-keyboard-response,100,316183,null,"",null,,word,DISHONEST,,,,,,,,,,,,
html-keyboard-response,101,316392,null,"<div style=""font-size:42px;"">WEALTHY</div><img id = ""stim"" ><div class = red_square id = ""topsquare"" ></div>",null,practice2,word_square,,prac_response,1,Top,32,true,,,,,,,
html-keyboard-response,102,316694,null,"<div style=""font-size:42px;"">WEALTHY</div>",null,,word,WEALTHY,,,,,,,,,,,,
html-keyboard-response,103,318199,38.800000000046566,"",32,,word,WEALTHY,,,,,,,,,,,,
html-keyboard-response,104,318405,null,"<div style=""font-size:42px;"">BEAUTIFUL</div><img id = ""stim"" ><div class = green_square id = ""topsquare"" ></div>",null,practice2,word_square,,prac_response,0,Top,none,true,,,,,,,
html-keyboard-response,105,318708,null,"<div style=""font-size:42px;"">BEAUTIFUL</div>",null,,word,BEAUTIFUL,,,,,,,,,,,,
html-keyboard-response,106,320217,null,"",null,,word,BEAUTIFUL,,,,,,,,,,,,
html-keyboard-response,107,329918,9699.300000000047,"<p> Good job! You responded correctly to 100% of the trials. </p>
                    <p>Be sure to only press the spacebar if you see a red square, and please keep your accuracy above 80%.</p>
                    <p>Press any key to begin the math and recall sections. Thank you! </p>",32,,,,,,,,,,,,,,,
call-function,108,329918,,"",,,,,,,,,,,,,,,,
html-keyboard-response,109,330032,null,"",null,,,,,,,,,,,,,,,
math-period,110,336093,10768.40000000014,"",,,,,,,,,,,5,,,,,
html-keyboard-response,111,336196,null,"",null,,,,,,,,,,,,,,,
math-period,112,340094,7409.5,"",,,,,,,,,,,3,,,,,
html-keyboard-response,113,340208,null,"",null,,,,,,,,,,,,,,,
math-period,114,344005,6991.199999999953,"",,,,,,,,,,,2,,,,,
html-keyboard-response,115,344120,null,"",null,,,,,,,,,,,,,,,
math-period,116,347133,5536.70000000007,"",,,,,,,,,,,5,,,,,
html-keyboard-response,117,347243,null,"",null,,,,,,,,,,,,,,,
math-period,118,349837,4970.29999999993,"",,,,,,,,,,,4,,,,,
html-keyboard-response,119,349938,null,"",null,,,,,,,,,,,,,,,
math-period,120,351773,3492.70000000007,"",,,,,,,,,,,2,,,,,
html-keyboard-response,121,351881,null,"",null,,,,,,,,,,,,,,,
math-period,122,353517,3038.4000000000233,"",,,,,,,,,,,5,,,,,
html-keyboard-response,123,353624,null,"",null,,,,,,,,,,,,,,,
math-period,124,353922,null,"",,,,,,,,,,,,,,,,
html-keyboard-response,125,354940,null,"Recall Period!",null,,,,,,,,,,,,,,,
call-function,126,354940,,"",,,,,,,,,,,,,,,,
html-keyboard-response,127,355054,null,"",null,,,,,,,,,,,,,,,
recall-period,128,361477,28662.199999999953,"",,,,,,,,,,,kind,,,,,
html-keyboard-response,129,361588,null,"",null,,,,,,,,,,,,,,,
recall-period,130,365373,13933.099999999977,"",,,,,,,,,,,scary,,,,,
html-keyboard-response,131,365488,null,"",null,,,,,,,,,,,,,,,
recall-period,132,367933,10606.099999999744,"",,,,,,,,,,,happy,,,,,
html-keyboard-response,133,368036,null,"",null,,,,,,,,,,,,,,,
recall-period,134,370709,8919.700000000303,"",,,,,,,,,,,cold,,,,,
html-keyboard-response,135,370815,null,"",null,,,,,,,,,,,,,,,
recall-period,136,383869,122751.69999999984,"",,,,,,,,,,,beautiful,,,,,
html-keyboard-response,137,383984,null,"",null,,,,,,,,,,,,,,,
recall-period,138,399157,98986.89999999967,"",,,,,,,,,,,smooth,,,,,
html-keyboard-response,139,399268,null,"",null,,,,,,,,,,,,,,,
recall-period,140,426893,159179.90000000014,"",,,,,,,,,,,smart,,,,,
html-keyboard-response,141,427007,null,"",null,,,,,,,,,,,,,,,
recall-period,142,429944,null,"",,,,,,,,,,,,,,,,
html-keyboard-response,143,430452,null,"Time's Up!",null,,,,,,,,,,,,,,,
html-keyboard-response,144,438350,7897,"<p>We will now begin the experiment!<p><p>Please try to remember all words from each list.<p><p>Press the spacebar whenever you see a red square.<p><p><p><p>Press the spacebar to begin.</p>",32,,,,,,,,,,,,,,,
html-keyboard-response,145,447493,8640.900000000023,"<div style=""font-size:48px;"">Press any key to begin list 1 of 16 </div>",32,,,,,,,,,,,,,,,
html-keyboard-response,146,450001,null,"<div style=""font-size:60px;"">+</div>",null,,,,,,,,,,,,,,,
html-keyboard-response,147,450214,null,"<div style=""font-size:42px;"">CAPTIVE</div><img id = ""stim"" ><div class = red_square id = topsquare></div>",null,encoding,word_square,,,1,topsquare,32,true,,,CAPTIVE,0,,,
html-keyboard-response,148,450524,null,"<div style=""font-size:42px;"">CAPTIVE</div>",null,,word,CAPTIVE,,,,,,,,,,,,
html-keyboard-response,149,452036,984.1999999999534,"",32,,word,CAPTIVE,,,,,,,,,,,,
html-keyboard-response,150,452248,null,"<div style=""font-size:42px;"">RACKET</div><img id = ""stim"" ><div class = red_square id = bottomsquare></div>",null,encoding,word_square,,,1,bottomsquare,32,true,,,RACKET,0,,,
html-keyboard-response,151,452549,null,"<div style=""font-size:42px;"">RACKET</div>",null,,word,RACKET,,,,,,,,,,,,
html-keyboard-response,152,454052,382.9000000000233,"",32,,word,RACKET,,,,,,,,,,,,
html-keyboard-response,153,454254,null,"<div style=""font-size:42px;"">YARN</div><img id = ""stim"" ><div class = green_square id = bottomsquare></div>",null,encoding,word_square,,,0,bottomsquare,none,false,,,YARN,0,,,
html-keyboard-response,154,454556,null,"<div style=""font-size:42px;"">YARN</div>",null,,word,YARN,,,,,,,,,,,,
html-keyboard-response,155,456064,216.19999999995343,"",32,,word,YARN,,,,,,,,,,,,
html-keyboard-response,156,456275,null,"<div style=""font-size:42px;"">PASSAGE</div><img id = ""stim"" ><div class = red_square id = topsquare></div>",null,encoding,word_square,,,1,topsquare,32,true,,,PASSAGE,0,,,
html-keyboard-response,157,456576,257.4000000000233,"<div style=""font-size:42px;"">PASSAGE</div>",32,,word,PASSAGE,,,,,,,,,,,,
html-keyboard-response,158,458078,null,"",null,,word,PASSAGE,,,,,,,,,,,,
html-keyboard-response,159,458286,null,"<div style=""font-size:42px;"">CRAB</div><img id = ""stim"" ><div class = green_square id = topsquare></div>",null,encoding,word_square,,,0,topsquare,none,true,,,CRAB,0,,,
html-keyboard-response,160,458588,null,"<div style=""font-size:42px;"">CRAB</div>",null,,word,CRAB,,,,,,,,,,,,
html-keyboard-response,161,460091,null,"",null,,word,CRAB,,,,,,,,,,,,
html-keyboard-response,162,460300,null,"<div style=""font-size:42px;"">TROUT</div><img id = ""stim"" ><div class = red_square id = bottomsquare></div>",null,encoding,word_square,,,1,bottomsquare,32,true,,,TROUT,0,,,
html-keyboard-response,163,460608,216.5,"<div style=""font-size:42px;"">TROUT</div>",32,,word,TROUT,,,,,,,,,,,,
html-keyboard-response,164,462113,null,"",null,,word,TROUT,,,,,,,,,,,,
html-keyboard-response,165,462322,null,"<div style=""font-size:42px;"">JELLY</div><img id = ""stim"" ><div class = red_square id = topsquare></div>",null,encoding,word_square,,,1,topsquare,32,true,,,JELLY,0,,,
html-keyboard-response,166,462633,null,"<div style=""font-size:42px;"">JELLY</div>",null,,word,JELLY,,,,,,,,,,,,
html-keyboard-response,167,464137,147.90000000002328,"",32,,word,JELLY,,,,,,,,,,,,
html-keyboard-response,168,464342,null,"<div style=""font-size:42px;"">SHORTS</div><img id = ""stim"" ><div class = green_square id = bottomsquare></div>",null,encoding,word_square,,,0,bottomsquare,none,true,,,SHORTS,0,,,
html-keyboard-response,169,464644,null,"<div style=""font-size:42px;"">SHORTS</div>",null,,word,SHORTS,,,,,,,,,,,,
html-keyboard-response,170,466154,null,"",null,,word,SHORTS,,,,,,,,,,,,
html-keyboard-response,171,466363,null,"<div style=""font-size:42px;"">CHISEL</div><img id = ""stim"" ><div class = green_square id = topsquare></div>",null,encoding,word_square,,,0,topsquare,none,true,,,CHISEL,0,,,
html-keyboard-response,172,466665,null,"<div style=""font-size:42px;"">CHISEL</div>",null,,word,CHISEL,,,,,,,,,,,,
html-keyboard-response,173,468182,null,"",null,,word,CHISEL,,,,,,,,,,,,
html-keyboard-response,174,468383,null,"<div style=""font-size:42px;"">HOSTESS</div><img id = ""stim"" ><div class = red_square id = bottomsquare></div>",null,encoding,word_square,,,1,bottomsquare,32,true,,,HOSTESS,0,,,
html-keyboard-response,175,468687,245.30000000004657,"<div style=""font-size:42px;"">HOSTESS</div>",32,,word,HOSTESS,,,,,,,,,,,,
html-keyboard-response,176,470201,null,"",null,,word,HOSTESS,,,,,,,,,,,,
html-keyboard-response,177,470409,null,"<div style=""font-size:42px;"">FREEWAY</div><img id = ""stim"" ><div class = red_square id = topsquare></div>",null,encoding,word_square,,,1,topsquare,32,true,,,FREEWAY,0,,,
html-keyboard-response,178,470711,null,"<div style=""font-size:42px;"">FREEWAY</div>",null,,word,FREEWAY,,,,,,,,,,,,
html-keyboard-response,179,472227,36.89999999990687,"",32,,word,FREEWAY,,,,,,,,,,,,
html-keyboard-response,180,472431,null,"<div style=""font-size:42px;"">LOUNGE</div><img id = ""stim"" ><div class = green_square id = bottomsquare></div>",null,encoding,word_square,,,0,bottomsquare,none,true,,,LOUNGE,0,,,
html-keyboard-response,181,472733,null,"<div style=""font-size:42px;"">LOUNGE</div>",null,,word,LOUNGE,,,,,,,,,,,,
html-keyboard-response,182,474235,null,"",null,,word,LOUNGE,,,,,,,,,,,,
html-keyboard-response,183,474443,null,"<div style=""font-size:42px;"">COSTUME</div><img id = ""stim"" ><div class = green_square id = topsquare></div>",null,encoding,word_square,,,0,topsquare,none,true,,,COSTUME,0,,,
html-keyboard-response,184,474745,null,"<div style=""font-size:42px;"">COSTUME</div>",null,,word,COSTUME,,,,,,,,,,,,
html-keyboard-response,185,476248,null,"",null,,word,COSTUME,,,,,,,,,,,,
html-keyboard-response,186,476456,null,"<div style=""font-size:42px;"">NOTEBOOK</div><img id = ""stim"" ><div class = red_square id = bottomsquare></div>",null,encoding,word_square,,,1,bottomsquare,32,true,,,NOTEBOOK,0,,,
html-keyboard-response,187,476759,null,"<div style=""font-size:42px;"">NOTEBOOK</div>",null,,word,NOTEBOOK,,,,,,,,,,,,
html-keyboard-response,188,478272,357.79999999993015,"",32,,word,NOTEBOOK,,,,,,,,,,,,
html-keyboard-response,189,478487,null,"<div style=""font-size:42px;"">BABY</div><img id = ""stim"" ><div class = green_square id = bottomsquare></div>",null,encoding,word_square,,,0,bottomsquare,none,true,,,BABY,0,,,
html-keyboard-response,190,478803,null,"<div style=""font-size:42px;"">BABY</div>",null,,word,BABY,,,,,,,,,,,,
html-keyboard-response,191,480317,null,"",null,,word,BABY,,,,,,,,,,,,
html-keyboard-response,192,480526,null,"<div style=""font-size:42px;"">CRIB</div><img id = ""stim"" ><div class = green_square id = topsquare></div>",null,encoding,word_square,,,0,topsquare,none,true,,,CRIB,0,,,
html-keyboard-response,193,480829,null,"<div style=""font-size:42px;"">CRIB</div>",null,,word,CRIB,,,,,,,,,,,,
html-keyboard-response,194,482346,null,"",null,,word,CRIB,,,,,,,,,,,,
call-function,195,482346,,"",,,,,,,,,,,,,,,,
html-keyboard-response,196,482454,null,"",null,,,,,,,,,,,,,,,
math-period,197,487302,8845.900000000023,"",,,,,,,,,,,5,,,,,
html-keyboard-response,198,487404,null,"",null,,,,,,,,,,,,,,,
math-period,199,488605,2113,"",,,,,,,,,,,5,,,,,
html-keyboard-response,200,488716,null,"",null,,,,,,,,,,,,,,,
math-period,201,491533,5360.699999999953,"",,,,,,,,,,,4,,,,,
html-keyboard-response,202,491647,null,"",null,,,,,,,,,,,,,,,
math-period,203,493637,3755.600000000093,"",,,,,,,,,,,2,,,,,
html-keyboard-response,204,493749,null,"",null,,,,,,,,,,,,,,,
math-period,205,495925,4157.699999999953,"",,,,,,,,,,,3,,,,,
html-keyboard-response,206,496040,null,"",null,,,,,,,,,,,,,,,
math-period,207,498397,4266.100000000093,"",,,,,,,,,,,0,,,,,
html-keyboard-response,208,498504,null,"",null,,,,,,,,,,,,,,,
math-period,209,500982,4608.099999999977,"",,,,,,,,,,,0,,,,,
html-keyboard-response,210,501096,null,"",null,,,,,,,,,,,,,,,
math-period,211,503301,4241.199999999953,"",,,,,,,,,,,1,,,,,
html-keyboard-response,212,503408,null,"",null,,,,,,,,,,,,,,,
math-period,213,505197,3361.5,"",,,,,,,,,,,6,,,,,
html-keyboard-response,214,505311,null,"",null,,,,,,,,,,,,,,,
math-period,215,506354,null,"",,,,,,,,,,,,,,,,
html-keyboard-response,216,507359,null,"Recall Period!",null,,,,,,,,,,,,,,,
call-function,217,507359,,"",,,,,,,,,,,,,,,,
html-keyboard-response,218,507462,null,"",null,,,,,,,,,,,,,,,
recall-period,219,513525,22555.89999999979,"",,,,,,,,,,,trout,,,,,
html-keyboard-response,220,513626,null,"",null,,,,,,,,,,,,,,,
recall-period,221,516941,14773.499999999884,"",,,,,,,,,,,recall,,,,,
html-keyboard-response,222,517045,null,"",null,,,,,,,,,,,,,,,
recall-period,223,548869,153941.30000000005,"",,,,,,,,,,,crab,,,,,
html-keyboard-response,224,548981,null,"",null,,,,,,,,,,,,,,,
recall-period,225,582368,null,"",,,,,,,,,,,,,,,,
html-keyboard-response,226,582882,null,"Time's Up!",null,,,,,,,,,,,,,,,
html-keyboard-response,227,592142,9258.5,"<p> Good job! You have responded correctly to 94% of the trials. </p>
                      <p>Be sure to only press the spacebar if you see a red square, and please keep your accuracy above 80%.</p>
                      <p> Press any key to continue the experiment. </p>",32,,,,,,,,,,,,,,,
html-keyboard-response,228,601237,9094.599999999977,"<div style=""font-size:48px;"">Press any key to begin list 2 of 16 </div>",32,,,,,,,,,,,,,,,
html-keyboard-response,229,603743,null,"<div style=""font-size:60px;"">+</div>",null,,,,,,,,,,,,,,,
html-keyboard-response,230,603954,null,"<div style=""font-size:42px;"">HOSTAGE</div><img id = ""stim"" ><div class = green_square id = topsquare></div>",null,encoding,word_square,,,0,topsquare,none,false,,,HOSTAGE,1,,,
html-keyboard-response,231,604256,null,"<div style=""font-size:42px;"">HOSTAGE</div>",null,,word,HOSTAGE,,,,,,,,,,,,
html-keyboard-response,232,605763,1212.1999999999534,"",32,,word,HOSTAGE,,,,,,,,,,,,
html-keyboard-response,233,605968,null,"<div style=""font-size:42px;"">PEDAL</div><img id = ""stim"" ><div class = green_square id = bottomsquare></div>",null,encoding,word_square,,,0,bottomsquare,none,true,,,PEDAL,1,,,
html-keyboard-response,234,606270,null,"<div style=""font-size:42px;"">PEDAL</div>",null,,word,PEDAL,,,,,,,,,,,,
html-keyboard-response,235,607787,null,"",null,,word,PEDAL,,,,,,,,,,,,
html-keyboard-response,236,607988,null,"<div style=""font-size:42px;"">GAZELLE</div><img id = ""stim"" ><div class = red_square id = bottomsquare></div>",null,encoding,word_square,,,1,bottomsquare,32,true,,,GAZELLE,1,,,
html-keyboard-response,237,608291,null,"<div style=""font-size:42px;"">GAZELLE</div>",null,,word,GAZELLE,,,,,,,,,,,,
html-keyboard-response,238,609795,473.4000000000233,"",32,,word,GAZELLE,,,,,,,,,,,,
html-keyboard-response,239,610010,null,"<div style=""font-size:42px;"">STREAM</div><img id = ""stim"" ><div class = green_square id = topsquare></div>",null,encoding,word_square,,,0,topsquare,none,true,,,STREAM,1,,,
html-keyboard-response,240,610327,null,"<div style=""font-size:42px;"">STREAM</div>",null,,word,STREAM,,,,,,,,,,,,
html-keyboard-response,241,611832,null,"",null,,word,STREAM,,,,,,,,,,,,
html-keyboard-response,242,612036,null,"<div style=""font-size:42px;"">RIVER</div><img id = ""stim"" ><div class = green_square id = bottomsquare></div>",null,encoding,word_square,,,0,bottomsquare,none,true,,,RIVER,1,,,
html-keyboard-response,243,612339,null,"<div style=""font-size:42px;"">RIVER</div>",null,,word,RIVER,,,,,,,,,,,,
html-keyboard-response,244,613848,null,"",null,,word,RIVER,,,,,,,,,,,,
html-keyboard-response,245,614057,null,"<div style=""font-size:42px;"">CABOOSE</div><img id = ""stim"" ><div class = red_square id = topsquare></div>",null,encoding,word_square,,,1,topsquare,32,true,,,CABOOSE,1,,,
html-keyboard-response,246,614359,null,"<div style=""font-size:42px;"">CABOOSE</div>",null,,word,CABOOSE,,,,,,,,,,,,
html-keyboard-response,247,615863,341.5999999999767,"",32,,word,CABOOSE,,,,,,,,,,,,
html-keyboard-response,248,616070,null,"<div style=""font-size:42px;"">CLOSET</div><img id = ""stim"" ><div class = red_square id = bottomsquare></div>",null,encoding,word_square,,,1,bottomsquare,32,true,,,CLOSET,1,,,
html-keyboard-response,249,616381,null,"<div style=""font-size:42px;"">CLOSET</div>",null,,word,CLOSET,,,,,,,,,,,,
html-keyboard-response,250,617882,304,"",32,,word,CLOSET,,,,,,,,,,,,
html-keyboard-response,251,618091,null,"<div style=""font-size:42px;"">STONE</div><img id = ""stim"" ><div class = green_square id = topsquare></div>",null,encoding,word_square,,,0,topsquare,none,true,,,STONE,1,,,
html-keyboard-response,252,618392,null,"<div style=""font-size:42px;"">STONE</div>",null,,word,STONE,,,,,,,,,,,,
html-keyboard-response,253,619895,null,"",null,,word,STONE,,,,,,,,,,,,
html-keyboard-response,254,620102,null,"<div style=""font-size:42px;"">KIDNEY</div><img id = ""stim"" ><div class = green_square id = bottomsquare></div>",null,encoding,word_square,,,0,bottomsquare,none,true,,,KIDNEY,1,,,
html-keyboard-response,255,620404,null,"<div style=""font-size:42px;"">KIDNEY</div>",null,,word,KIDNEY,,,,,,,,,,,,
html-keyboard-response,256,621908,null,"",null,,word,KIDNEY,,,,,,,,,,,,
html-keyboard-response,257,622118,null,"<div style=""font-size:42px;"">POSSUM</div><img id = ""stim"" ><div class = red_square id = topsquare></div>",null,encoding,word_square,,,1,topsquare,32,true,,,POSSUM,1,,,
html-keyboard-response,258,622419,null,"<div style=""font-size:42px;"">POSSUM</div>",null,,word,POSSUM,,,,,,,,,,,,
html-keyboard-response,259,623930,361.39999999990687,"",32,,word,POSSUM,,,,,,,,,,,,
html-keyboard-response,260,624139,null,"<div style=""font-size:42px;"">STOCKING</div><img id = ""stim"" ><div class = red_square id = bottomsquare></div>",null,encoding,word_square,,,1,bottomsquare,32,true,,,STOCKING,1,,,
html-keyboard-response,261,624456,null,"<div style=""font-size:42px;"">STOCKING</div>",null,,word,STOCKING,,,,,,,,,,,,
html-keyboard-response,262,625969,389,"",32,,word,STOCKING,,,,,,,,,,,,
html-keyboard-response,263,626178,null,"<div style=""font-size:42px;"">EGYPT</div><img id = ""stim"" ><div class = green_square id = topsquare></div>",null,encoding,word_square,,,0,topsquare,none,true,,,EGYPT,1,,,
html-keyboard-response,264,626480,null,"<div style=""font-size:42px;"">EGYPT</div>",null,,word,EGYPT,,,,,,,,,,,,
html-keyboard-response,265,627983,null,"",null,,word,EGYPT,,,,,,,,,,,,
html-keyboard-response,266,628191,null,"<div style=""font-size:42px;"">COUNTRY</div><img id = ""stim"" ><div class = red_square id = topsquare></div>",null,encoding,word_square,,,1,topsquare,32,true,,,COUNTRY,1,,,
html-keyboard-response,267,628494,null,"<div style=""font-size:42px;"">COUNTRY</div>",null,,word,COUNTRY,,,,,,,,,,,,
html-keyboard-response,268,630007,126.90000000002328,"",32,,word,COUNTRY,,,,,,,,,,,,
html-keyboard-response,269,630213,null,"<div style=""font-size:42px;"">DAISY</div><img id = ""stim"" ><div class = green_square id = bottomsquare></div>",null,encoding,word_square,,,0,bottomsquare,none,true,,,DAISY,1,,,
html-keyboard-response,270,630515,null,"<div style=""font-size:42px;"">DAISY</div>",null,,word,DAISY,,,,,,,,,,,,
html-keyboard-response,271,632032,null,"",null,,word,DAISY,,,,,,,,,,,,
html-keyboard-response,272,632241,null,"<div style=""font-size:42px;"">PRIMATE</div><img id = ""stim"" ><div class = red_square id = bottomsquare></div>",null,encoding,word_square,,,1,bottomsquare,32,true,,,PRIMATE,1,,,
html-keyboard-response,273,632543,null,"<div style=""font-size:42px;"">PRIMATE</div>",null,,word,PRIMATE,,,,,,,,,,,,
html-keyboard-response,274,634053,61.800000000046566,"",32,,word,PRIMATE,,,,,,,,,,,,
html-keyboard-response,275,634261,null,"<div style=""font-size:42px;"">GIRL</div><img id = ""stim"" ><div class = red_square id = topsquare></div>",null,encoding,word_square,,,1,topsquare,32,true,,,GIRL,1,,,
html-keyboard-response,276,634563,null,"<div style=""font-size:42px;"">GIRL</div>",null,,word,GIRL,,,,,,,,,,,,
html-keyboard-response,277,636077,217.20000000006985,"",32,,word,GIRL,,,,,,,,,,,,
call-function,278,636077,,"",,,,,,,,,,,,,,,,
html-keyboard-response,279,636181,null,"",null,,,,,,,,,,,,,,,
math-period,280,639014,4871.29999999993,"",,,,,,,,,,,5,,,,,
html-keyboard-response,281,639124,null,"",null,,,,,,,,,,,,,,,
math-period,282,640925,3097.1999999999534,"",,,,,,,,,,,5,,,,,
html-keyboard-response,283,641029,null,"",null,,,,,,,,,,,,,,,
math-period,284,644589,6870.70000000007,"",,,,,,,,,,,3,,,,,
html-keyboard-response,285,644700,null,"",null,,,,,,,,,,,,,,,
math-period,286,646149,2729,"",,,,,,,,,,,6,,,,,
html-keyboard-response,287,646262,null,"",null,,,,,,,,,,,,,,,
math-period,288,648558,3765.4999999998836,"",,,,,,,,,,,1,,,,,
html-keyboard-response,289,648664,null,"",null,,,,,,,,,,,,,,,
math-period,290,650805,3872.5,"",,,,,,,,,,,4,,,,,
html-keyboard-response,291,650919,null,"",null,,,,,,,,,,,,,,,
math-period,292,652613,3178.1999999999534,"",,,,,,,,,,,1,,,,,
html-keyboard-response,293,652726,null,"",null,,,,,,,,,,,,,,,
math-period,294,654413,3028.9000000000233,"",,,,,,,,,,,6,,,,,
html-keyboard-response,295,654524,null,"",null,,,,,,,,,,,,,,,
math-period,296,656309,3080,"",,,,,,,,,,,3,,,,,
html-keyboard-response,297,656420,null,"",null,,,,,,,,,,,,,,,
math-period,298,658270,3513.70000000007,"",,,,,,,,,,,1,,,,,
html-keyboard-response,299,658376,null,"",null,,,,,,,,,,,,,,,
math-period,300,659813,2720.70000000007,"",,,,,,,,,,,6,,,,,
html-keyboard-response,301,659926,null,"",null,,,,,,,,,,,,,,,
math-period,302,660084,null,"",,,,,,,,,,,,,,,,
html-keyboard-response,303,661088,null,"Recall Period!",null,,,,,,,,,,,,,,,
call-function,304,661088,,"",,,,,,,,,,,,,,,,
html-keyboard-response,305,661202,null,"",null,,,,,,,,,,,,,,,
recall-period,306,666054,30665.300000000396,"",,,,,,,,,,,stream,,,,,
html-keyboard-response,307,666158,null,"",null,,,,,,,,,,,,,,,
recall-period,308,668358,9451.100000000326,"",,,,,,,,,,,river,,,,,
html-keyboard-response,309,668472,null,"",null,,,,,,,,,,,,,,,
recall-period,310,670470,8567.50000000035,"",,,,,,,,,,,stone,,,,,
html-keyboard-response,311,670574,null,"",null,,,,,,,,,,,,,,,
recall-period,312,674006,16811.50000000035,"",,,,,,,,,,,possum,,,,,
html-keyboard-response,313,674118,null,"",null,,,,,,,,,,,,,,,
recall-period,314,676486,11593.400000000373,"",,,,,,,,,,,country,,,,,
html-keyboard-response,315,676601,null,"",null,,,,,,,,,,,,,,,
recall-period,316,678862,12753.900000000489,"",,,,,,,,,,,hostage,,,,,
html-keyboard-response,317,678977,null,"",null,,,,,,,,,,,,,,,
recall-period,318,700438,161553.59999999986,"",,,,,,,,,,,gazelle,,,,,
html-keyboard-response,319,700549,null,"",null,,,,,,,,,,,,,,,
recall-period,320,736105,null,"",,,,,,,,,,,,,,,,
html-keyboard-response,321,736608,null,"Time's Up!",null,,,,,,,,,,,,,,,
html-keyboard-response,322,741430,4820.900000000023,"<p> Good job! You have responded correctly to 94% of the trials. </p>
                      <p>Be sure to only press the spacebar if you see a red square, and please keep your accuracy above 80%.</p>
                      <p> Press any key to continue the experiment. </p>",32,,,,,,,,,,,,,,,
html-keyboard-response,323,761973,20542.699999999953,"<div style=""font-size:48px;"">Press any key to begin list 3 of 16 </div>",32,,,,,,,,,,,,,,,
html-keyboard-response,324,764483,null,"<div style=""font-size:60px;"">+</div>",null,,,,,,,,,,,,,,,
html-keyboard-response,325,764687,null,"<div style=""font-size:42px;"">RADISH</div><img id = ""stim"" ><div class = green_square id = bottomsquare></div>",null,encoding,word_square,,,0,bottomsquare,none,true,,,RADISH,2,,,
html-keyboard-response,326,764989,null,"<div style=""font-size:42px;"">RADISH</div>",null,,word,RADISH,,,,,,,,,,,,
html-keyboard-response,327,766491,null,"",null,,word,RADISH,,,,,,,,,,,,
html-keyboard-response,328,766701,null,"<div style=""font-size:42px;"">SICKLE</div><img id = ""stim"" ><div class = green_square id = topsquare></div>",null,encoding,word_square,,,0,topsquare,none,true,,,SICKLE,2,,,
html-keyboard-response,329,767004,null,"<div style=""font-size:42px;"">SICKLE</div>",null,,word,SICKLE,,,,,,,,,,,,
html-keyboard-response,330,768513,null,"",null,,word,SICKLE,,,,,,,,,,,,
html-keyboard-response,331,768721,null,"<div style=""font-size:42px;"">BALLOON</div><img id = ""stim"" ><div class = red_square id = topsquare></div>",null,encoding,word_square,,,1,topsquare,32,true,,,BALLOON,2,,,
html-keyboard-response,332,769023,null,"<div style=""font-size:42px;"">BALLOON</div>",null,,word,BALLOON,,,,,,,,,,,,
html-keyboard-response,333,770531,293.19999999995343,"",32,,word,BALLOON,,,,,,,,,,,,
html-keyboard-response,334,770742,null,"<div style=""font-size:42px;"">FROG</div><img id = ""stim"" ><div class = green_square id = bottomsquare></div>",null,encoding,word_square,,,0,bottomsquare,none,true,,,FROG,2,,,
html-keyboard-response,335,771044,null,"<div style=""font-size:42px;"">FROG</div>",null,,word,FROG,,,,,,,,,,,,
html-keyboard-response,336,772547,null,"",null,,word,FROG,,,,,,,,,,,,
html-keyboard-response,337,772755,null,"<div style=""font-size:42px;"">ARM</div><img id = ""stim"" ><div class = red_square id = bottomsquare></div>",null,encoding,word_square,,,1,bottomsquare,32,true,,,ARM,2,,,
html-keyboard-response,338,773058,null,"<div style=""font-size:42px;"">ARM</div>",null,,word,ARM,,,,,,,,,,,,
html-keyboard-response,339,774567,58.699999999953434,"",32,,word,ARM,,,,,,,,,,,,
html-keyboard-response,340,774776,null,"<div style=""font-size:42px;"">TULIP</div><img id = ""stim"" ><div class = green_square id = topsquare></div>",null,encoding,word_square,,,0,topsquare,none,true,,,TULIP,2,,,
html-keyboard-response,341,775078,null,"<div style=""font-size:42px;"">TULIP</div>",null,,word,TULIP,,,,,,,,,,,,
html-keyboard-response,342,776588,null,"",null,,word,TULIP,,,,,,,,,,,,
html-keyboard-response,343,776796,null,"<div style=""font-size:42px;"">CREVICE</div><img id = ""stim"" ><div class = green_square id = bottomsquare></div>",null,encoding,word_square,,,0,bottomsquare,none,true,,,CREVICE,2,,,
html-keyboard-response,344,777098,null,"<div style=""font-size:42px;"">CREVICE</div>",null,,word,CREVICE,,,,,,,,,,,,
html-keyboard-response,345,778600,null,"",null,,word,CREVICE,,,,,,,,,,,,
html-keyboard-response,346,778808,null,"<div style=""font-size:42px;"">SHIRT</div><img id = ""stim"" ><div class = red_square id = topsquare></div>",null,encoding,word_square,,,1,topsquare,32,true,,,SHIRT,2,,,
html-keyboard-response,347,779110,null,"<div style=""font-size:42px;"">SHIRT</div>",null,,word,SHIRT,,,,,,,,,,,,
html-keyboard-response,348,780615,182,"",32,,word,SHIRT,,,,,,,,,,,,
html-keyboard-response,349,780823,null,"<div style=""font-size:42px;"">POSTAGE</div><img id = ""stim"" ><div class = red_square id = bottomsquare></div>",null,encoding,word_square,,,1,bottomsquare,32,true,,,POSTAGE,2,,,
html-keyboard-response,350,781134,null,"<div style=""font-size:42px;"">POSTAGE</div>",null,,word,POSTAGE,,,,,,,,,,,,
html-keyboard-response,351,782641,382.30000000004657,"",32,,word,POSTAGE,,,,,,,,,,,,
html-keyboard-response,352,782849,null,"<div style=""font-size:42px;"">STICKER</div><img id = ""stim"" ><div class = green_square id = topsquare></div>",null,encoding,word_square,,,0,topsquare,none,true,,,STICKER,2,,,
html-keyboard-response,353,783151,null,"<div style=""font-size:42px;"">STICKER</div>",null,,word,STICKER,,,,,,,,,,,,
html-keyboard-response,354,784655,null,"",null,,word,STICKER,,,,,,,,,,,,
html-keyboard-response,355,784862,null,"<div style=""font-size:42px;"">COTTAGE</div><img id = ""stim"" ><div class = green_square id = bottomsquare></div>",null,encoding,word_square,,,0,bottomsquare,none,true,,,COTTAGE,2,,,
html-keyboard-response,356,785164,null,"<div style=""font-size:42px;"">COTTAGE</div>",null,,word,COTTAGE,,,,,,,,,,,,
html-keyboard-response,357,786667,null,"",null,,word,COTTAGE,,,,,,,,,,,,
html-keyboard-response,358,786876,null,"<div style=""font-size:42px;"">TURNIP</div><img id = ""stim"" ><div class = red_square id = topsquare></div>",null,encoding,word_square,,,1,topsquare,32,true,,,TURNIP,2,,,
html-keyboard-response,359,787183,233.09999999997672,"<div style=""font-size:42px;"">TURNIP</div>",32,,word,TURNIP,,,,,,,,,,,,
html-keyboard-response,360,788688,null,"",null,,word,TURNIP,,,,,,,,,,,,
html-keyboard-response,361,788898,null,"<div style=""font-size:42px;"">DRIVER</div><img id = ""stim"" ><div class = red_square id = bottomsquare></div>",null,encoding,word_square,,,1,bottomsquare,32,true,,,DRIVER,2,,,
html-keyboard-response,362,789201,null,"<div style=""font-size:42px;"">DRIVER</div>",null,,word,DRIVER,,,,,,,,,,,,
html-keyboard-response,363,790706,275.5999999999767,"",32,,word,DRIVER,,,,,,,,,,,,
html-keyboard-response,364,790911,null,"<div style=""font-size:42px;"">TAXI</div><img id = ""stim"" ><div class = green_square id = topsquare></div>",null,encoding,word_square,,,0,topsquare,none,true,,,TAXI,2,,,
html-keyboard-response,365,791214,null,"<div style=""font-size:42px;"">TAXI</div>",null,,word,TAXI,,,,,,,,,,,,
html-keyboard-response,366,792723,null,"",null,,word,TAXI,,,,,,,,,,,,
html-keyboard-response,367,792932,null,"<div style=""font-size:42px;"">SKILLET</div><img id = ""stim"" ><div class = red_square id = topsquare></div>",null,encoding,word_square,,,1,topsquare,32,true,,,SKILLET,2,,,
html-keyboard-response,368,793235,null,"<div style=""font-size:42px;"">SKILLET</div>",null,,word,SKILLET,,,,,,,,,,,,
html-keyboard-response,369,794737,49.300000000046566,"",32,,word,SKILLET,,,,,,,,,,,,
html-keyboard-response,370,794938,null,"<div style=""font-size:42px;"">PLANET</div><img id = ""stim"" ><div class = red_square id = bottomsquare></div>",null,encoding,word_square,,,1,bottomsquare,32,true,,,PLANET,2,,,
html-keyboard-response,371,795241,null,"<div style=""font-size:42px;"">PLANET</div>",null,,word,PLANET,,,,,,,,,,,,
html-keyboard-response,372,796744,115.29999999993015,"",32,,word,PLANET,,,,,,,,,,,,
call-function,373,796744,,"",,,,,,,,,,,,,,,,
html-keyboard-response,374,796851,null,"",null,,,,,,,,,,,,,,,
math-period,375,799725,4666.300000000047,"",,,,,,,,,,,6,,,,,
html-keyboard-response,376,799837,null,"",null,,,,,,,,,,,,,,,
math-period,377,801566,3287.1999999999534,"",,,,,,,,,,,5,,,,,
html-keyboard-response,378,801677,null,"",null,,,,,,,,,,,,,,,
math-period,379,803037,2607.29999999993,"",,,,,,,,,,,4,,,,,
html-keyboard-response,380,803149,null,"",null,,,,,,,,,,,,,,,
math-period,381,804166,1951.7999999999302,"",,,,,,,,,,,4,,,,,
html-keyboard-response,382,804281,null,"",null,,,,,,,,,,,,,,,
math-period,383,806366,3983,"",,,,,,,,,,,3,,,,,
html-keyboard-response,384,806477,null,"",null,,,,,,,,,,,,,,,
math-period,385,807541,2014.2999999999302,"",,,,,,,,,,,3,,,,,
html-keyboard-response,386,807648,null,"",null,,,,,,,,,,,,,,,
math-period,387,808309,1233.0999999998603,"",,,,,,,,,,,3,,,,,
html-keyboard-response,388,808413,null,"",null,,,,,,,,,,,,,,,
math-period,389,812133,7030.90000000014,"",,,,,,,,,,,2,,,,,
html-keyboard-response,390,812244,null,"",null,,,,,,,,,,,,,,,
math-period,391,814149,3736.5000000001164,"",,,,,,,,,,,6,,,,,
html-keyboard-response,392,814264,null,"",null,,,,,,,,,,,,,,,
math-period,393,815941,3224.29999999993,"",,,,,,,,,,,4,,,,,
html-keyboard-response,394,816049,null,"",null,,,,,,,,,,,,,,,
math-period,395,817501,2838.8000000000466,"",,,,,,,,,,,4,,,,,
html-keyboard-response,396,817611,null,"",null,,,,,,,,,,,,,,,
math-period,397,818893,2427.0999999999767,"",,,,,,,,,,,6,,,,,
html-keyboard-response,398,819007,null,"",null,,,,,,,,,,,,,,,
math-period,399,820749,1613.0999999999767,"",,,,,,,,,,,0,,,,,
html-keyboard-response,400,821752,null,"Recall Period!",null,,,,,,,,,,,,,,,
call-function,401,821753,,"",,,,,,,,,,,,,,,,
html-keyboard-response,402,821867,null,"",null,,,,,,,,,,,,,,,
recall-period,403,825797,15990.299999999697,"",,,,,,,,,,,frog,,,,,
html-keyboard-response,404,825908,null,"",null,,,,,,,,,,,,,,,
recall-period,405,829310,11138.300000000163,"",,,,,,,,,,,tulip,,,,,
html-keyboard-response,406,829413,null,"",null,,,,,,,,,,,,,,,
recall-period,407,831654,9130.99999999965,"",,,,,,,,,,,turnip,,,,,
html-keyboard-response,408,831768,null,"",null,,,,,,,,,,,,,,,
recall-period,409,834782,12929.599999999627,"",,,,,,,,,,,balloon,,,,,
html-keyboard-response,410,834884,null,"",null,,,,,,,,,,,,,,,
recall-period,411,836445,4570.099999999977,"",,,,,,,,,,,arm,,,,,
html-keyboard-response,412,836552,null,"",null,,,,,,,,,,,,,,,
recall-period,413,838349,6507.29999999993,"",,,,,,,,,,,shirt,,,,,
html-keyboard-response,414,838461,null,"",null,,,,,,,,,,,,,,,
recall-period,415,848046,61692.10000000021,"",,,,,,,,,,,planet,,,,,
html-keyboard-response,416,848154,null,"",null,,,,,,,,,,,,,,,
recall-period,417,896766,null,"",,,,,,,,,,,,,,,,
html-keyboard-response,418,897271,null,"Time's Up!",null,,,,,,,,,,,,,,,
html-keyboard-response,419,918549,21277.099999999977,"<p> Good job! You have responded correctly to 96% of the trials. </p>
                      <p>Be sure to only press the spacebar if you see a red square, and please keep your accuracy above 80%.</p>
                      <p> Press any key to continue the experiment. </p>",32,,,,,,,,,,,,,,,
html-keyboard-response,420,944598,26047.5,"<div style=""font-size:48px;"">Press any key to begin list 4 of 16 </div>",32,,,,,,,,,,,,,,,
html-keyboard-response,421,947118,null,"<div style=""font-size:60px;"">+</div>",null,,,,,,,,,,,,,,,
html-keyboard-response,422,947327,null,"<div style=""font-size:42px;"">TURKEY</div><img id = ""stim"" ><div class = red_square id = bottomsquare></div>",null,encoding,word_square,,,1,bottomsquare,32,true,,,TURKEY,3,,,
html-keyboard-response,423,947628,null,"<div style=""font-size:42px;"">TURKEY</div>",null,,word,TURKEY,,,,,,,,,,,,
html-keyboard-response,424,949138,264.69999999995343,"",32,,word,TURKEY,,,,,,,,,,,,
html-keyboard-response,425,949340,null,"<div style=""font-size:42px;"">MESSAGE</div><img id = ""stim"" ><div class = red_square id = topsquare></div>",null,encoding,word_square,,,1,topsquare,32,true,,,MESSAGE,3,,,
html-keyboard-response,426,949642,null,"<div style=""font-size:42px;"">MESSAGE</div>",null,,word,MESSAGE,,,,,,,,,,,,
html-keyboard-response,427,951156,498.9000000000233,"",32,,word,MESSAGE,,,,,,,,,,,,
html-keyboard-response,428,951367,null,"<div style=""font-size:42px;"">LAKE</div><img id = ""stim"" ><div class = green_square id = topsquare></div>",null,encoding,word_square,,,0,topsquare,none,true,,,LAKE,3,,,
html-keyboard-response,429,951669,null,"<div style=""font-size:42px;"">LAKE</div>",null,,word,LAKE,,,,,,,,,,,,
html-keyboard-response,430,953171,null,"",null,,word,LAKE,,,,,,,,,,,,
html-keyboard-response,431,953388,null,"<div style=""font-size:42px;"">SUBURB</div><img id = ""stim"" ><div class = red_square id = bottomsquare></div>",null,encoding,word_square,,,1,bottomsquare,32,true,,,SUBURB,3,,,
html-keyboard-response,432,953698,null,"<div style=""font-size:42px;"">SUBURB</div>",null,,word,SUBURB,,,,,,,,,,,,
html-keyboard-response,433,955208,418.9000000000233,"",32,,word,SUBURB,,,,,,,,,,,,
html-keyboard-response,434,955423,null,"<div style=""font-size:42px;"">MATCH</div><img id = ""stim"" ><div class = red_square id = topsquare></div>",null,encoding,word_square,,,1,topsquare,32,true,,,MATCH,3,,,
html-keyboard-response,435,955732,null,"<div style=""font-size:42px;"">MATCH</div>",null,,word,MATCH,,,,,,,,,,,,
html-keyboard-response,436,957236,304.5,"",32,,word,MATCH,,,,,,,,,,,,
html-keyboard-response,437,957443,null,"<div style=""font-size:42px;"">LIGHTNING</div><img id = ""stim"" ><div class = green_square id = bottomsquare></div>",null,encoding,word_square,,,0,bottomsquare,none,true,,,LIGHTNING,3,,,
html-keyboard-response,438,957744,null,"<div style=""font-size:42px;"">LIGHTNING</div>",null,,word,LIGHTNING,,,,,,,,,,,,
html-keyboard-response,439,959261,null,"",null,,word,LIGHTNING,,,,,,,,,,,,
html-keyboard-response,440,959471,null,"<div style=""font-size:42px;"">FINGER</div><img id = ""stim"" ><div class = green_square id = topsquare></div>",null,encoding,word_square,,,0,topsquare,none,true,,,FINGER,3,,,
html-keyboard-response,441,959787,null,"<div style=""font-size:42px;"">FINGER</div>",null,,word,FINGER,,,,,,,,,,,,
html-keyboard-response,442,961302,null,"",null,,word,FINGER,,,,,,,,,,,,
html-keyboard-response,443,961518,null,"<div style=""font-size:42px;"">VAMPIRE</div><img id = ""stim"" ><div class = red_square id = bottomsquare></div>",null,encoding,word_square,,,1,bottomsquare,32,true,,,VAMPIRE,3,,,
html-keyboard-response,444,961820,null,"<div style=""font-size:42px;"">VAMPIRE</div>",null,,word,VAMPIRE,,,,,,,,,,,,
html-keyboard-response,445,963335,193.0999999998603,"",32,,word,VAMPIRE,,,,,,,,,,,,
html-keyboard-response,446,963544,null,"<div style=""font-size:42px;"">BANJO</div><img id = ""stim"" ><div class = red_square id = topsquare></div>",null,encoding,word_square,,,1,topsquare,32,true,,,BANJO,3,,,
html-keyboard-response,447,963846,null,"<div style=""font-size:42px;"">BANJO</div>",null,,word,BANJO,,,,,,,,,,,,
html-keyboard-response,448,965355,133.79999999981374,"",32,,word,BANJO,,,,,,,,,,,,
html-keyboard-response,449,965564,null,"<div style=""font-size:42px;"">WHISTLE</div><img id = ""stim"" ><div class = green_square id = bottomsquare></div>",null,encoding,word_square,,,0,bottomsquare,none,true,,,WHISTLE,3,,,
html-keyboard-response,450,965866,null,"<div style=""font-size:42px;"">WHISTLE</div>",null,,word,WHISTLE,,,,,,,,,,,,
html-keyboard-response,451,967369,null,"",null,,word,WHISTLE,,,,,,,,,,,,
html-keyboard-response,452,967577,null,"<div style=""font-size:42px;"">QUEEN</div><img id = ""stim"" ><div class = green_square id = topsquare></div>",null,encoding,word_square,,,0,topsquare,none,true,,,QUEEN,3,,,
html-keyboard-response,453,967879,null,"<div style=""font-size:42px;"">QUEEN</div>",null,,word,QUEEN,,,,,,,,,,,,
html-keyboard-response,454,969383,null,"",null,,word,QUEEN,,,,,,,,,,,,
html-keyboard-response,455,969591,null,"<div style=""font-size:42px;"">PRINCESS</div><img id = ""stim"" ><div class = red_square id = bottomsquare></div>",null,encoding,word_square,,,1,bottomsquare,32,true,,,PRINCESS,3,,,
html-keyboard-response,456,969893,null,"<div style=""font-size:42px;"">PRINCESS</div>",null,,word,PRINCESS,,,,,,,,,,,,
html-keyboard-response,457,971398,239.5,"",32,,word,PRINCESS,,,,,,,,,,,,
html-keyboard-response,458,971606,null,"<div style=""font-size:42px;"">DRIVEWAY</div><img id = ""stim"" ><div class = green_square id = bottomsquare></div>",null,encoding,word_square,,,0,bottomsquare,none,true,,,DRIVEWAY,3,,,
html-keyboard-response,459,971908,null,"<div style=""font-size:42px;"">DRIVEWAY</div>",null,,word,DRIVEWAY,,,,,,,,,,,,
html-keyboard-response,460,973411,null,"",null,,word,DRIVEWAY,,,,,,,,,,,,
html-keyboard-response,461,973626,null,"<div style=""font-size:42px;"">SEAGULL</div><img id = ""stim"" ><div class = red_square id = topsquare></div>",null,encoding,word_square,,,1,topsquare,32,true,,,SEAGULL,3,,,
html-keyboard-response,462,973939,234.19999999995343,"<div style=""font-size:42px;"">SEAGULL</div>",32,,word,SEAGULL,,,,,,,,,,,,
html-keyboard-response,463,975444,null,"",null,,word,SEAGULL,,,,,,,,,,,,
html-keyboard-response,464,975652,null,"<div style=""font-size:42px;"">BLANKET</div><img id = ""stim"" ><div class = green_square id = topsquare></div>",null,encoding,word_square,,,0,topsquare,none,true,,,BLANKET,3,,,
html-keyboard-response,465,975954,null,"<div style=""font-size:42px;"">BLANKET</div>",null,,word,BLANKET,,,,,,,,,,,,
html-keyboard-response,466,977457,null,"",null,,word,BLANKET,,,,,,,,,,,,
html-keyboard-response,467,977666,null,"<div style=""font-size:42px;"">PORCH</div><img id = ""stim"" ><div class = green_square id = bottomsquare></div>",null,encoding,word_square,,,0,bottomsquare,none,true,,,PORCH,3,,,
html-keyboard-response,468,977968,null,"<div style=""font-size:42px;"">PORCH</div>",null,,word,PORCH,,,,,,,,,,,,
html-keyboard-response,469,979471,null,"",null,,word,PORCH,,,,,,,,,,,,
call-function,470,979472,,"",,,,,,,,,,,,,,,,
html-keyboard-response,471,979579,null,"",null,,,,,,,,,,,,,,,
math-period,472,982006,4356.300000000047,"",,,,,,,,,,,3,,,,,
html-keyboard-response,473,982109,null,"",null,,,,,,,,,,,,,,,
math-period,474,984662,4759.199999999953,"",,,,,,,,,,,2,,,,,
html-keyboard-response,475,984766,null,"",null,,,,,,,,,,,,,,,
math-period,476,986478,3268.3000000000466,"",,,,,,,,,,,4,,,,,
html-keyboard-response,477,986592,null,"",null,,,,,,,,,,,,,,,
math-period,478,989093,4856.200000000186,"",,,,,,,,,,,2,,,,,
html-keyboard-response,479,989195,null,"",null,,,,,,,,,,,,,,,
math-period,480,990438,2395.3000000000466,"",,,,,,,,,,,2,,,,,
html-keyboard-response,481,990547,null,"",null,,,,,,,,,,,,,,,
math-period,482,992421,3620,"",,,,,,,,,,,2,,,,,
html-keyboard-response,483,992525,null,"",null,,,,,,,,,,,,,,,
math-period,484,993765,2382.0999999998603,"",,,,,,,,,,,4,,,,,
html-keyboard-response,485,993876,null,"",null,,,,,,,,,,,,,,,
math-period,486,995293,2737.4000000001397,"",,,,,,,,,,,2,,,,,
html-keyboard-response,487,995403,null,"",null,,,,,,,,,,,,,,,
math-period,488,996702,2531.2999999998137,"",,,,,,,,,,,3,,,,,
html-keyboard-response,489,996813,null,"",null,,,,,,,,,,,,,,,
math-period,490,998094,2471.6999999999534,"",,,,,,,,,,,4,,,,,
html-keyboard-response,491,998197,null,"",null,,,,,,,,,,,,,,,
math-period,492,999461,2438.3000000000466,"",,,,,,,,,,,3,,,,,
html-keyboard-response,493,999568,null,"",null,,,,,,,,,,,,,,,
math-period,494,1001605,4002.1999999997206,"",,,,,,,,,,,1,,,,,
html-keyboard-response,495,1001720,null,"",null,,,,,,,,,,,,,,,
math-period,496,1003438,3377.399999999907,"",,,,,,,,,,,3,,,,,
html-keyboard-response,497,1003541,null,"",null,,,,,,,,,,,,,,,
math-period,498,1003543,null,"",,,,,,,,,,,,,,,,
html-keyboard-response,499,1004549,null,"Recall Period!",null,,,,,,,,,,,,,,,
call-function,500,1004550,,"",,,,,,,,,,,,,,,,
html-keyboard-response,501,1004661,null,"",null,,,,,,,,,,,,,,,
recall-period,502,1010621,42085.40000000014,"",,,,,,,,,,,whistle,,,,,
html-keyboard-response,503,1010733,null,"",null,,,,,,,,,,,,,,,
recall-period,504,1012526,6626.599999999395,"",,,,,,,,,,,lake,,,,,
html-keyboard-response,505,1012640,null,"",null,,,,,,,,,,,,,,,
recall-period,506,1015206,11087.200000000885,"",,,,,,,,,,,turkey,,,,,
html-keyboard-response,507,1015316,null,"",null,,,,,,,,,,,,,,,
recall-period,508,1017725,10290.800000000745,"",,,,,,,,,,,seagull,,,,,
html-keyboard-response,509,1017829,null,"",null,,,,,,,,,,,,,,,
recall-period,510,1020206,8154.600000000326,"",,,,,,,,,,,suburb,,,,,
html-keyboard-response,511,1020309,null,"",null,,,,,,,,,,,,,,,
recall-period,512,1021686,6411.000000000233,"",,,,,,,,,,,finger,,,,,
html-keyboard-response,513,1021789,null,"",null,,,,,,,,,,,,,,,
recall-period,514,1079554,null,"",,,,,,,,,,,,,,,,
html-keyboard-response,515,1080055,null,"Time's Up!",null,,,,,,,,,,,,,,,
html-keyboard-response,516,1105590,25533.300000000047,"<p> Good job! You have responded correctly to 97% of the trials. </p>
                      <p>Be sure to only press the spacebar if you see a red square, and please keep your accuracy above 80%.</p>
                      <p> Press any key to continue the experiment. </p>",32,,,,,,,,,,,,,,,
html-keyboard-response,517,1133582,27991,"<div style=""font-size:48px;"">Press any key to begin list 5 of 16 </div>",32,,,,,,,,,,,,,,,
html-keyboard-response,518,1136093,null,"<div style=""font-size:60px;"">+</div>",null,,,,,,,,,,,,,,,
html-keyboard-response,519,1136305,null,"<div style=""font-size:42px;"">SHAMPOO</div><img id = ""stim"" ><div class = red_square id = topsquare></div>",null,encoding,word_square,,,1,topsquare,32,true,,,SHAMPOO,4,,,
html-keyboard-response,520,1136606,null,"<div style=""font-size:42px;"">SHAMPOO</div>",null,,word,SHAMPOO,,,,,,,,,,,,
html-keyboard-response,521,1138120,422.39999999990687,"",32,,word,SHAMPOO,,,,,,,,,,,,
html-keyboard-response,522,1138331,null,"<div style=""font-size:42px;"">FRIES</div><img id = ""stim"" ><div class = green_square id = bottomsquare></div>",null,encoding,word_square,,,0,bottomsquare,none,true,,,FRIES,4,,,
html-keyboard-response,523,1138634,null,"<div style=""font-size:42px;"">FRIES</div>",null,,word,FRIES,,,,,,,,,,,,
html-keyboard-response,524,1140149,null,"",null,,word,FRIES,,,,,,,,,,,,
html-keyboard-response,525,1140355,null,"<div style=""font-size:42px;"">FAUCET</div><img id = ""stim"" ><div class = red_square id = bottomsquare></div>",null,encoding,word_square,,,1,bottomsquare,32,true,,,FAUCET,4,,,
html-keyboard-response,526,1140669,null,"<div style=""font-size:42px;"">FAUCET</div>",null,,word,FAUCET,,,,,,,,,,,,
html-keyboard-response,527,1142179,232.0999999998603,"",32,,word,FAUCET,,,,,,,,,,,,
html-keyboard-response,528,1142387,null,"<div style=""font-size:42px;"">SHARK</div><img id = ""stim"" ><div class = red_square id = topsquare></div>",null,encoding,word_square,,,1,topsquare,32,true,,,SHARK,4,,,
html-keyboard-response,529,1142688,null,"<div style=""font-size:42px;"">SHARK</div>",null,,word,SHARK,,,,,,,,,,,,
html-keyboard-response,530,1144200,357,"",32,,word,SHARK,,,,,,,,,,,,
html-keyboard-response,531,1144415,null,"<div style=""font-size:42px;"">BATHTUB</div><img id = ""stim"" ><div class = green_square id = topsquare></div>",null,encoding,word_square,,,0,topsquare,none,true,,,BATHTUB,4,,,
html-keyboard-response,532,1144716,null,"<div style=""font-size:42px;"">BATHTUB</div>",null,,word,BATHTUB,,,,,,,,,,,,
html-keyboard-response,533,1146232,null,"",null,,word,BATHTUB,,,,,,,,,,,,
html-keyboard-response,534,1146441,null,"<div style=""font-size:42px;"">SERVANT</div><img id = ""stim"" ><div class = green_square id = bottomsquare></div>",null,encoding,word_square,,,0,bottomsquare,none,false,,,SERVANT,4,,,
html-keyboard-response,535,1146743,null,"<div style=""font-size:42px;"">SERVANT</div>",null,,word,SERVANT,,,,,,,,,,,,
html-keyboard-response,536,1148251,126.5,"",32,,word,SERVANT,,,,,,,,,,,,
html-keyboard-response,537,1148459,null,"<div style=""font-size:42px;"">BLACKBOARD</div><img id = ""stim"" ><div class = red_square id = bottomsquare></div>",null,encoding,word_square,,,1,bottomsquare,32,true,,,BLACKBOARD,4,,,
html-keyboard-response,538,1148761,null,"<div style=""font-size:42px;"">BLACKBOARD</div>",null,,word,BLACKBOARD,,,,,,,,,,,,
html-keyboard-response,539,1150269,27.600000000093132,"",32,,word,BLACKBOARD,,,,,,,,,,,,
html-keyboard-response,540,1150474,null,"<div style=""font-size:42px;"">PEOPLE</div><img id = ""stim"" ><div class = red_square id = topsquare></div>",null,encoding,word_square,,,1,topsquare,32,true,,,PEOPLE,4,,,
html-keyboard-response,541,1150777,null,"<div style=""font-size:42px;"">PEOPLE</div>",null,,word,PEOPLE,,,,,,,,,,,,
html-keyboard-response,542,1152290,779.7000000001863,"",32,,word,PEOPLE,,,,,,,,,,,,
html-keyboard-response,543,1152503,null,"<div style=""font-size:42px;"">HOOK</div><img id = ""stim"" ><div class = green_square id = topsquare></div>",null,encoding,word_square,,,0,topsquare,none,true,,,HOOK,4,,,
html-keyboard-response,544,1152819,null,"<div style=""font-size:42px;"">HOOK</div>",null,,word,HOOK,,,,,,,,,,,,
html-keyboard-response,545,1154334,null,"",null,,word,HOOK,,,,,,,,,,,,
html-keyboard-response,546,1154541,null,"<div style=""font-size:42px;"">TRANSPLANT</div><img id = ""stim"" ><div class = red_square id = bottomsquare></div>",null,encoding,word_square,,,1,bottomsquare,32,true,,,TRANSPLANT,4,,,
html-keyboard-response,547,1154844,null,"<div style=""font-size:42px;"">TRANSPLANT</div>",null,,word,TRANSPLANT,,,,,,,,,,,,
html-keyboard-response,548,1156357,425.10000000009313,"",32,,word,TRANSPLANT,,,,,,,,,,,,
html-keyboard-response,549,1156564,null,"<div style=""font-size:42px;"">DONOR</div><img id = ""stim"" ><div class = green_square id = bottomsquare></div>",null,encoding,word_square,,,0,bottomsquare,none,true,,,DONOR,4,,,
html-keyboard-response,550,1156865,null,"<div style=""font-size:42px;"">DONOR</div>",null,,word,DONOR,,,,,,,,,,,,
html-keyboard-response,551,1158368,null,"",null,,word,DONOR,,,,,,,,,,,,
html-keyboard-response,552,1158576,null,"<div style=""font-size:42px;"">WOMAN</div><img id = ""stim"" ><div class = green_square id = topsquare></div>",null,encoding,word_square,,,0,topsquare,none,true,,,WOMAN,4,,,
html-keyboard-response,553,1158877,null,"<div style=""font-size:42px;"">WOMAN</div>",null,,word,WOMAN,,,,,,,,,,,,
html-keyboard-response,554,1160381,null,"",null,,word,WOMAN,,,,,,,,,,,,
html-keyboard-response,555,1160589,null,"<div style=""font-size:42px;"">WASP</div><img id = ""stim"" ><div class = red_square id = topsquare></div>",null,encoding,word_square,,,1,topsquare,32,true,,,WASP,4,,,
html-keyboard-response,556,1160891,null,"<div style=""font-size:42px;"">WASP</div>",null,,word,WASP,,,,,,,,,,,,
html-keyboard-response,557,1162406,346,"",32,,word,WASP,,,,,,,,,,,,
html-keyboard-response,558,1162611,null,"<div style=""font-size:42px;"">SPIDER</div><img id = ""stim"" ><div class = red_square id = bottomsquare></div>",null,encoding,word_square,,,1,bottomsquare,32,true,,,SPIDER,4,,,
html-keyboard-response,559,1162913,null,"<div style=""font-size:42px;"">SPIDER</div>",null,,word,SPIDER,,,,,,,,,,,,
html-keyboard-response,560,1164420,339.0999999998603,"",32,,word,SPIDER,,,,,,,,,,,,
html-keyboard-response,561,1164624,null,"<div style=""font-size:42px;"">FEMALE</div><img id = ""stim"" ><div class = green_square id = bottomsquare></div>",null,encoding,word_square,,,0,bottomsquare,none,true,,,FEMALE,4,,,
html-keyboard-response,562,1164927,null,"<div style=""font-size:42px;"">FEMALE</div>",null,,word,FEMALE,,,,,,,,,,,,
html-keyboard-response,563,1166437,null,"",null,,word,FEMALE,,,,,,,,,,,,
html-keyboard-response,564,1166645,null,"<div style=""font-size:42px;"">SLIME</div><img id = ""stim"" ><div class = green_square id = topsquare></div>",null,encoding,word_square,,,0,topsquare,none,true,,,SLIME,4,,,
html-keyboard-response,565,1166956,null,"<div style=""font-size:42px;"">SLIME</div>",null,,word,SLIME,,,,,,,,,,,,
html-keyboard-response,566,1168470,null,"",null,,word,SLIME,,,,,,,,,,,,
call-function,567,1168470,,"",,,,,,,,,,,,,,,,
html-keyboard-response,568,1168577,null,"",null,,,,,,,,,,,,,,,
math-period,569,1171598,4783.699999999953,"",,,,,,,,,,,5,,,,,
html-keyboard-response,570,1171703,null,"",null,,,,,,,,,,,,,,,
math-period,571,1172990,2451.600000000093,"",,,,,,,,,,,2,,,,,
html-keyboard-response,572,1173104,null,"",null,,,,,,,,,,,,,,,
math-period,573,1174421,2553.6999999997206,"",,,,,,,,,,,5,,,,,
html-keyboard-response,574,1174538,null,"",null,,,,,,,,,,,,,,,
math-period,575,1176222,3260.999999999767,"",,,,,,,,,,,5,,,,,
html-keyboard-response,576,1176334,null,"",null,,,,,,,,,,,,,,,
math-period,577,1177742,2718.2999999998137,"",,,,,,,,,,,4,,,,,
html-keyboard-response,578,1177855,null,"",null,,,,,,,,,,,,,,,
math-period,579,1179023,2259.9000000001397,"",,,,,,,,,,,4,,,,,
html-keyboard-response,580,1179138,null,"",null,,,,,,,,,,,,,,,
math-period,581,1181662,4301.5,"",,,,,,,,,,,2,,,,,
html-keyboard-response,582,1181769,null,"",null,,,,,,,,,,,,,,,
math-period,583,1183510,3432.1999999999534,"",,,,,,,,,,,4,,,,,
html-keyboard-response,584,1183625,null,"",null,,,,,,,,,,,,,,,
math-period,585,1184846,2367.6999999999534,"",,,,,,,,,,,4,,,,,
html-keyboard-response,586,1184958,null,"",null,,,,,,,,,,,,,,,
math-period,587,1185918,1862.0999999998603,"",,,,,,,,,,,4,,,,,
html-keyboard-response,588,1186025,null,"",null,,,,,,,,,,,,,,,
math-period,589,1187566,2976.2999999998137,"",,,,,,,,,,,2,,,,,
html-keyboard-response,590,1187670,null,"",null,,,,,,,,,,,,,,,
math-period,591,1188934,2478.2000000001863,"",,,,,,,,,,,4,,,,,
html-keyboard-response,592,1189038,null,"",null,,,,,,,,,,,,,,,
math-period,593,1190454,2798.2999999998137,"",,,,,,,,,,,5,,,,,
html-keyboard-response,594,1190564,null,"",null,,,,,,,,,,,,,,,
math-period,595,1192078,2954.399999999674,"",,,,,,,,,,,1,,,,,
html-keyboard-response,596,1192185,null,"",null,,,,,,,,,,,,,,,
math-period,597,1192477,null,"",,,,,,,,,,,,,,,,
html-keyboard-response,598,1193494,null,"Recall Period!",null,,,,,,,,,,,,,,,
call-function,599,1193494,,"",,,,,,,,,,,,,,,,
html-keyboard-response,600,1193609,null,"",null,,,,,,,,,,,,,,,
recall-period,601,1196454,13995.600000000093,"",,,,,,,,,,,shampoo,,,,,
html-keyboard-response,602,1196568,null,"",null,,,,,,,,,,,,,,,
recall-period,603,1198718,9316.199999999488,"",,,,,,,,,,,fries,,,,,
html-keyboard-response,604,1198830,null,"",null,,,,,,,,,,,,,,,
recall-period,605,1201774,14443,"",,,,,,,,,,,faucet,,,,,
html-keyboard-response,606,1201878,null,"",null,,,,,,,,,,,,,,,
recall-period,607,1205910,13459.000000000931,"",,,,,,,,,,,bathtub,,,,,
html-keyboard-response,608,1206016,null,"",null,,,,,,,,,,,,,,,
recall-period,609,1208849,12428.400000000373,"",,,,,,,,,,,kidney,,,,,
html-keyboard-response,610,1208961,null,"",null,,,,,,,,,,,,,,,
recall-period,611,1211337,13543.099999999162,"",,,,,,,,,,,transplant,,,,,
html-keyboard-response,612,1211451,null,"",null,,,,,,,,,,,,,,,
recall-period,613,1215385,14943.5,"",,,,,,,,,,,woman,,,,,
html-keyboard-response,614,1215487,null,"",null,,,,,,,,,,,,,,,
recall-period,615,1217536,8937,"",,,,,,,,,,,female,,,,,
html-keyboard-response,616,1217638,null,"",null,,,,,,,,,,,,,,,
recall-period,617,1219041,5154.999999999767,"",,,,,,,,,,,slime,,,,,
html-keyboard-response,618,1219144,null,"",null,,,,,,,,,,,,,,,
recall-period,619,1268509,null,"",,,,,,,,,,,,,,,,
html-keyboard-response,620,1269019,null,"Time's Up!",null,,,,,,,,,,,,,,,
html-keyboard-response,621,1377638,108617.3999999999,"<p> Good job! You have responded correctly to 96% of the trials. </p>
                      <p>Be sure to only press the spacebar if you see a red square, and please keep your accuracy above 80%.</p>
                      <p> Press any key to continue the experiment. </p>",32,,,,,,,,,,,,,,,
html-keyboard-response,622,1394190,16551.100000000093,"<div style=""font-size:48px;"">Press any key to begin list 6 of 16 </div>",32,,,,,,,,,,,,,,,
html-keyboard-response,623,1396708,null,"<div style=""font-size:60px;"">+</div>",null,,,,,,,,,,,,,,,
html-keyboard-response,624,1396920,null,"<div style=""font-size:42px;"">NOMAD</div><img id = ""stim"" ><div class = green_square id = topsquare></div>",null,encoding,word_square,,,0,topsquare,none,true,,,NOMAD,5,,,
html-keyboard-response,625,1397222,null,"<div style=""font-size:42px;"">NOMAD</div>",null,,word,NOMAD,,,,,,,,,,,,
html-keyboard-response,626,1398724,null,"",null,,word,NOMAD,,,,,,,,,,,,
html-keyboard-response,627,1398932,null,"<div style=""font-size:42px;"">SPRINKLE</div><img id = ""stim"" ><div class = green_square id = bottomsquare></div>",null,encoding,word_square,,,0,bottomsquare,none,true,,,SPRINKLE,5,,,
html-keyboard-response,628,1399234,null,"<div style=""font-size:42px;"">SPRINKLE</div>",null,,word,SPRINKLE,,,,,,,,,,,,
html-keyboard-response,629,1400738,null,"",null,,word,SPRINKLE,,,,,,,,,,,,
html-keyboard-response,630,1400946,null,"<div style=""font-size:42px;"">CAMEL</div><img id = ""stim"" ><div class = red_square id = bottomsquare></div>",null,encoding,word_square,,,1,bottomsquare,32,true,,,CAMEL,5,,,
html-keyboard-response,631,1401248,null,"<div style=""font-size:42px;"">CAMEL</div>",null,,word,CAMEL,,,,,,,,,,,,
html-keyboard-response,632,1402759,140.89999999990687,"",32,,word,CAMEL,,,,,,,,,,,,
html-keyboard-response,633,1402961,null,"<div style=""font-size:42px;"">COFFIN</div><img id = ""stim"" ><div class = red_square id = topsquare></div>",null,encoding,word_square,,,1,topsquare,32,true,,,COFFIN,5,,,
html-keyboard-response,634,1403263,null,"<div style=""font-size:42px;"">COFFIN</div>",null,,word,COFFIN,,,,,,,,,,,,
html-keyboard-response,635,1404773,246.5,"",32,,word,COFFIN,,,,,,,,,,,,
html-keyboard-response,636,1404981,null,"<div style=""font-size:42px;"">HOOD</div><img id = ""stim"" ><div class = green_square id = topsquare></div>",null,encoding,word_square,,,0,topsquare,none,true,,,HOOD,5,,,
html-keyboard-response,637,1405283,null,"<div style=""font-size:42px;"">HOOD</div>",null,,word,HOOD,,,,,,,,,,,,
html-keyboard-response,638,1406800,null,"",null,,word,HOOD,,,,,,,,,,,,
html-keyboard-response,639,1407009,null,"<div style=""font-size:42px;"">BANDAGE</div><img id = ""stim"" ><div class = green_square id = bottomsquare></div>",null,encoding,word_square,,,0,bottomsquare,none,true,,,BANDAGE,5,,,
html-keyboard-response,640,1407311,null,"<div style=""font-size:42px;"">BANDAGE</div>",null,,word,BANDAGE,,,,,,,,,,,,
html-keyboard-response,641,1408820,null,"",null,,word,BANDAGE,,,,,,,,,,,,
html-keyboard-response,642,1409029,null,"<div style=""font-size:42px;"">NEPTUNE</div><img id = ""stim"" ><div class = red_square id = bottomsquare></div>",null,encoding,word_square,,,1,bottomsquare,32,true,,,NEPTUNE,5,,,
html-keyboard-response,643,1409331,null,"<div style=""font-size:42px;"">NEPTUNE</div>",null,,word,NEPTUNE,,,,,,,,,,,,
html-keyboard-response,644,1410843,297.89999999990687,"",32,,word,NEPTUNE,,,,,,,,,,,,
html-keyboard-response,645,1411050,null,"<div style=""font-size:42px;"">CROOK</div><img id = ""stim"" ><div class = green_square id = topsquare></div>",null,encoding,word_square,,,0,topsquare,none,true,,,CROOK,5,,,
html-keyboard-response,646,1411360,null,"<div style=""font-size:42px;"">CROOK</div>",null,,word,CROOK,,,,,,,,,,,,
html-keyboard-response,647,1412873,null,"",null,,word,CROOK,,,,,,,,,,,,
html-keyboard-response,648,1413085,null,"<div style=""font-size:42px;"">CARROT</div><img id = ""stim"" ><div class = red_square id = topsquare></div>",null,encoding,word_square,,,1,topsquare,32,true,,,CARROT,5,,,
html-keyboard-response,649,1413395,null,"<div style=""font-size:42px;"">CARROT</div>",null,,word,CARROT,,,,,,,,,,,,
html-keyboard-response,650,1414904,106,"",32,,word,CARROT,,,,,,,,,,,,
html-keyboard-response,651,1415112,null,"<div style=""font-size:42px;"">PISTON</div><img id = ""stim"" ><div class = red_square id = bottomsquare></div>",null,encoding,word_square,,,1,bottomsquare,32,true,,,PISTON,5,,,
html-keyboard-response,652,1415413,null,"<div style=""font-size:42px;"">PISTON</div>",null,,word,PISTON,,,,,,,,,,,,
html-keyboard-response,653,1416929,207.89999999990687,"",32,,word,PISTON,,,,,,,,,,,,
html-keyboard-response,654,1417137,null,"<div style=""font-size:42px;"">BEAST</div><img id = ""stim"" ><div class = green_square id = bottomsquare></div>",null,encoding,word_square,,,0,bottomsquare,none,true,,,BEAST,5,,,
html-keyboard-response,655,1417440,null,"<div style=""font-size:42px;"">BEAST</div>",null,,word,BEAST,,,,,,,,,,,,
html-keyboard-response,656,1418942,null,"",null,,word,BEAST,,,,,,,,,,,,
html-keyboard-response,657,1419151,null,"<div style=""font-size:42px;"">OMELET</div><img id = ""stim"" ><div class = green_square id = topsquare></div>",null,encoding,word_square,,,0,topsquare,none,true,,,OMELET,5,,,
html-keyboard-response,658,1419454,null,"<div style=""font-size:42px;"">OMELET</div>",null,,word,OMELET,,,,,,,,,,,,
html-keyboard-response,659,1420956,null,"",null,,word,OMELET,,,,,,,,,,,,
html-keyboard-response,660,1421164,null,"<div style=""font-size:42px;"">YOLK</div><img id = ""stim"" ><div class = red_square id = topsquare></div>",null,encoding,word_square,,,1,topsquare,32,true,,,YOLK,5,,,
html-keyboard-response,661,1421466,null,"<div style=""font-size:42px;"">YOLK</div>",null,,word,YOLK,,,,,,,,,,,,
html-keyboard-response,662,1422971,2.699999999953434,"",32,,word,YOLK,,,,,,,,,,,,
html-keyboard-response,663,1423179,null,"<div style=""font-size:42px;"">BARREL</div><img id = ""stim"" ><div class = red_square id = bottomsquare></div>",null,encoding,word_square,,,1,bottomsquare,32,true,,,BARREL,5,,,
html-keyboard-response,664,1423481,null,"<div style=""font-size:42px;"">BARREL</div>",null,,word,BARREL,,,,,,,,,,,,
html-keyboard-response,665,1424996,348,"",32,,word,BARREL,,,,,,,,,,,,
html-keyboard-response,666,1425207,null,"<div style=""font-size:42px;"">HAMPER</div><img id = ""stim"" ><div class = green_square id = bottomsquare></div>",null,encoding,word_square,,,0,bottomsquare,none,true,,,HAMPER,5,,,
html-keyboard-response,667,1425509,null,"<div style=""font-size:42px;"">HAMPER</div>",null,,word,HAMPER,,,,,,,,,,,,
html-keyboard-response,668,1427026,null,"",null,,word,HAMPER,,,,,,,,,,,,
html-keyboard-response,669,1427234,null,"<div style=""font-size:42px;"">MILDEW</div><img id = ""stim"" ><div class = red_square id = topsquare></div>",null,encoding,word_square,,,1,topsquare,32,true,,,MILDEW,5,,,
html-keyboard-response,670,1427535,298.69999999995343,"<div style=""font-size:42px;"">MILDEW</div>",32,,word,MILDEW,,,,,,,,,,,,
html-keyboard-response,671,1429044,null,"",null,,word,MILDEW,,,,,,,,,,,,
call-function,672,1429045,,"",,,,,,,,,,,,,,,,
html-keyboard-response,673,1429154,null,"",null,,,,,,,,,,,,,,,
math-period,674,1431319,3983.7999999998137,"",,,,,,,,,,,4,,,,,
html-keyboard-response,675,1431424,null,"",null,,,,,,,,,,,,,,,
math-period,676,1432774,2569.500000000233,"",,,,,,,,,,,5,,,,,
html-keyboard-response,677,1432890,null,"",null,,,,,,,,,,,,,,,
math-period,678,1434910,3885.3000000000466,"",,,,,,,,,,,1,,,,,
html-keyboard-response,679,1435014,null,"",null,,,,,,,,,,,,,,,
math-period,680,1436389,2638.3000000000466,"",,,,,,,,,,,4,,,,,
html-keyboard-response,681,1436502,null,"",null,,,,,,,,,,,,,,,
math-period,682,1437638,2158.000000000233,"",,,,,,,,,,,2,,,,,
html-keyboard-response,683,1437749,null,"",null,,,,,,,,,,,,,,,
math-period,684,1440157,4407.600000000093,"",,,,,,,,,,,0,,,,,
html-keyboard-response,685,1440261,null,"",null,,,,,,,,,,,,,,,
math-period,686,1441598,2558.499999999767,"",,,,,,,,,,,5,,,,,
html-keyboard-response,687,1441701,null,"",null,,,,,,,,,,,,,,,
math-period,688,1444181,4870.5,"",,,,,,,,,,,2,,,,,
html-keyboard-response,689,1444285,null,"",null,,,,,,,,,,,,,,,
math-period,690,1445613,2582.3000000002794,"",,,,,,,,,,,3,,,,,
html-keyboard-response,691,1445717,null,"",null,,,,,,,,,,,,,,,
math-period,692,1446750,2007.1999999997206,"",,,,,,,,,,,3,,,,,
html-keyboard-response,693,1446853,null,"",null,,,,,,,,,,,,,,,
math-period,694,1448686,3366.6999999999534,"",,,,,,,,,,,0,,,,,
html-keyboard-response,695,1448788,null,"",null,,,,,,,,,,,,,,,
math-period,696,1449958,2289.600000000326,"",,,,,,,,,,,4,,,,,
html-keyboard-response,697,1450059,null,"",null,,,,,,,,,,,,,,,
math-period,698,1451254,2306.3000000000466,"",,,,,,,,,,,6,,,,,
html-keyboard-response,699,1451364,null,"",null,,,,,,,,,,,,,,,
math-period,700,1452414,2057,"",,,,,,,,,,,5,,,,,
html-keyboard-response,701,1452515,null,"",null,,,,,,,,,,,,,,,
math-period,702,1453050,null,"",,,,,,,,,,,,,,,,
html-keyboard-response,703,1454053,null,"Recall Period!",null,,,,,,,,,,,,,,,
call-function,704,1454054,,"",,,,,,,,,,,,,,,,
html-keyboard-response,705,1454161,null,"",null,,,,,,,,,,,,,,,
recall-period,706,1459678,27578.300000000512,"",,,,,,,,,,,coffin,,,,,
html-keyboard-response,707,1459794,null,"",null,,,,,,,,,,,,,,,
recall-period,708,1462694,9823.100000000559,"",,,,,,,,,,,nomad,,,,,
html-keyboard-response,709,1462806,null,"",null,,,,,,,,,,,,,,,
recall-period,710,1464534,7341.499999999534,"",,,,,,,,,,,camel,,,,,
html-keyboard-response,711,1464647,null,"",null,,,,,,,,,,,,,,,
recall-period,712,1466590,8996.200000000186,"",,,,,,,,,,,carrot,,,,,
html-keyboard-response,713,1466702,null,"",null,,,,,,,,,,,,,,,
recall-period,714,1468438,6050.9000000003725,"",,,,,,,,,,,hood,,,,,
html-keyboard-response,715,1468548,null,"",null,,,,,,,,,,,,,,,
recall-period,716,1475502,39915.49999999907,"",,,,,,,,,,,bandage,,,,,
html-keyboard-response,717,1475617,null,"",null,,,,,,,,,,,,,,,
recall-period,718,1525350,345070.7999999998,"",,,,,,,,,,,piston,,,,,
html-keyboard-response,719,1525461,null,"",null,,,,,,,,,,,,,,,
recall-period,720,1529068,null,"",,,,,,,,,,,,,,,,
html-keyboard-response,721,1529582,null,"Time's Up!",null,,,,,,,,,,,,,,,
html-keyboard-response,722,1577102,47518.700000000186,"<p> Good job! You have responded correctly to 97% of the trials. </p>
                      <p>Be sure to only press the spacebar if you see a red square, and please keep your accuracy above 80%.</p>
                      <p> Press any key to continue the experiment. </p>",32,,,,,,,,,,,,,,,
html-keyboard-response,723,1606814,29710.899999999907,"<div style=""font-size:48px;"">Press any key to begin list 7 of 16 </div>",32,,,,,,,,,,,,,,,
html-keyboard-response,724,1609322,null,"<div style=""font-size:60px;"">+</div>",null,,,,,,,,,,,,,,,
html-keyboard-response,725,1609532,null,"<div style=""font-size:42px;"">BARLEY</div><img id = ""stim"" ><div class = green_square id = bottomsquare></div>",null,encoding,word_square,,,0,bottomsquare,none,true,,,BARLEY,6,,,
html-keyboard-response,726,1609843,null,"<div style=""font-size:42px;"">BARLEY</div>",null,,word,BARLEY,,,,,,,,,,,,
html-keyboard-response,727,1611356,null,"",null,,word,BARLEY,,,,,,,,,,,,
html-keyboard-response,728,1611557,null,"<div style=""font-size:42px;"">JAPAN</div><img id = ""stim"" ><div class = red_square id = topsquare></div>",null,encoding,word_square,,,1,topsquare,32,true,,,JAPAN,6,,,
html-keyboard-response,729,1611863,null,"<div style=""font-size:42px;"">JAPAN</div>",null,,word,JAPAN,,,,,,,,,,,,
html-keyboard-response,730,1613371,118.19999999995343,"",32,,word,JAPAN,,,,,,,,,,,,
html-keyboard-response,731,1613580,null,"<div style=""font-size:42px;"">EUROPE</div><img id = ""stim"" ><div class = green_square id = topsquare></div>",null,encoding,word_square,,,0,topsquare,none,true,,,EUROPE,6,,,
html-keyboard-response,732,1613882,null,"<div style=""font-size:42px;"">EUROPE</div>",null,,word,EUROPE,,,,,,,,,,,,
html-keyboard-response,733,1615399,null,"",null,,word,EUROPE,,,,,,,,,,,,
html-keyboard-response,734,1615607,null,"<div style=""font-size:42px;"">TOOTHBRUSH</div><img id = ""stim"" ><div class = green_square id = bottomsquare></div>",null,encoding,word_square,,,0,bottomsquare,none,true,,,TOOTHBRUSH,6,,,
html-keyboard-response,735,1615910,null,"<div style=""font-size:42px;"">TOOTHBRUSH</div>",null,,word,TOOTHBRUSH,,,,,,,,,,,,
html-keyboard-response,736,1617426,null,"",null,,word,TOOTHBRUSH,,,,,,,,,,,,
html-keyboard-response,737,1617628,null,"<div style=""font-size:42px;"">OFFICE</div><img id = ""stim"" ><div class = red_square id = bottomsquare></div>",null,encoding,word_square,,,1,bottomsquare,32,true,,,OFFICE,6,,,
html-keyboard-response,738,1617930,null,"<div style=""font-size:42px;"">OFFICE</div>",null,,word,OFFICE,,,,,,,,,,,,
html-keyboard-response,739,1619435,411.4000000001397,"",32,,word,OFFICE,,,,,,,,,,,,
html-keyboard-response,740,1619650,null,"<div style=""font-size:42px;"">LILY</div><img id = ""stim"" ><div class = red_square id = topsquare></div>",null,encoding,word_square,,,1,topsquare,32,true,,,LILY,6,,,
html-keyboard-response,741,1619966,null,"<div style=""font-size:42px;"">LILY</div>",null,,word,LILY,,,,,,,,,,,,
html-keyboard-response,742,1621474,574.6999999999534,"",32,,word,LILY,,,,,,,,,,,,
html-keyboard-response,743,1621682,null,"<div style=""font-size:42px;"">BOUQUET</div><img id = ""stim"" ><div class = green_square id = topsquare></div>",null,encoding,word_square,,,0,topsquare,none,true,,,BOUQUET,6,,,
html-keyboard-response,744,1621984,null,"<div style=""font-size:42px;"">BOUQUET</div>",null,,word,BOUQUET,,,,,,,,,,,,
html-keyboard-response,745,1623502,null,"",null,,word,BOUQUET,,,,,,,,,,,,
html-keyboard-response,746,1623710,null,"<div style=""font-size:42px;"">RUG</div><img id = ""stim"" ><div class = green_square id = bottomsquare></div>",null,encoding,word_square,,,0,bottomsquare,none,true,,,RUG,6,,,
html-keyboard-response,747,1624012,null,"<div style=""font-size:42px;"">RUG</div>",null,,word,RUG,,,,,,,,,,,,
html-keyboard-response,748,1625522,null,"",null,,word,RUG,,,,,,,,,,,,
html-keyboard-response,749,1625730,null,"<div style=""font-size:42px;"">STAPLE</div><img id = ""stim"" ><div class = red_square id = bottomsquare></div>",null,encoding,word_square,,,1,bottomsquare,32,true,,,STAPLE,6,,,
html-keyboard-response,750,1626033,null,"<div style=""font-size:42px;"">STAPLE</div>",null,,word,STAPLE,,,,,,,,,,,,
html-keyboard-response,751,1627548,204.10000000009313,"",32,,word,STAPLE,,,,,,,,,,,,
html-keyboard-response,752,1627756,null,"<div style=""font-size:42px;"">PAPER</div><img id = ""stim"" ><div class = green_square id = topsquare></div>",null,encoding,word_square,,,0,topsquare,none,true,,,PAPER,6,,,
html-keyboard-response,753,1628058,null,"<div style=""font-size:42px;"">PAPER</div>",null,,word,PAPER,,,,,,,,,,,,
html-keyboard-response,754,1629562,null,"",null,,word,PAPER,,,,,,,,,,,,
html-keyboard-response,755,1629769,null,"<div style=""font-size:42px;"">FOREST</div><img id = ""stim"" ><div class = red_square id = topsquare></div>",null,encoding,word_square,,,1,topsquare,32,true,,,FOREST,6,,,
html-keyboard-response,756,1630072,null,"<div style=""font-size:42px;"">FOREST</div>",null,,word,FOREST,,,,,,,,,,,,
html-keyboard-response,757,1631576,53.39999999990687,"",32,,word,FOREST,,,,,,,,,,,,
html-keyboard-response,758,1631785,null,"<div style=""font-size:42px;"">LUNCH</div><img id = ""stim"" ><div class = red_square id = bottomsquare></div>",null,encoding,word_square,,,1,bottomsquare,32,true,,,LUNCH,6,,,
html-keyboard-response,759,1632087,null,"<div style=""font-size:42px;"">LUNCH</div>",null,,word,LUNCH,,,,,,,,,,,,
html-keyboard-response,760,1633598,293.80000000004657,"",32,,word,LUNCH,,,,,,,,,,,,
html-keyboard-response,761,1633806,null,"<div style=""font-size:42px;"">BLOSSOM</div><img id = ""stim"" ><div class = green_square id = bottomsquare></div>",null,encoding,word_square,,,0,bottomsquare,none,true,,,BLOSSOM,6,,,
html-keyboard-response,762,1634107,null,"<div style=""font-size:42px;"">BLOSSOM</div>",null,,word,BLOSSOM,,,,,,,,,,,,
html-keyboard-response,763,1635609,null,"",null,,word,BLOSSOM,,,,,,,,,,,,
html-keyboard-response,764,1635818,null,"<div style=""font-size:42px;"">DRAWER</div><img id = ""stim"" ><div class = green_square id = topsquare></div>",null,encoding,word_square,,,0,topsquare,none,true,,,DRAWER,6,,,
html-keyboard-response,765,1636121,null,"<div style=""font-size:42px;"">DRAWER</div>",null,,word,DRAWER,,,,,,,,,,,,
html-keyboard-response,766,1637629,null,"",null,,word,DRAWER,,,,,,,,,,,,
html-keyboard-response,767,1637837,null,"<div style=""font-size:42px;"">CEILING</div><img id = ""stim"" ><div class = red_square id = topsquare></div>",null,encoding,word_square,,,1,topsquare,32,true,,,CEILING,6,,,
html-keyboard-response,768,1638140,null,"<div style=""font-size:42px;"">CEILING</div>",null,,word,CEILING,,,,,,,,,,,,
html-keyboard-response,769,1639650,137.19999999995343,"",32,,word,CEILING,,,,,,,,,,,,
html-keyboard-response,770,1639858,null,"<div style=""font-size:42px;"">LUMBER</div><img id = ""stim"" ><div class = red_square id = bottomsquare></div>",null,encoding,word_square,,,1,bottomsquare,32,true,,,LUMBER,6,,,
html-keyboard-response,771,1640161,null,"<div style=""font-size:42px;"">LUMBER</div>",null,,word,LUMBER,,,,,,,,,,,,
html-keyboard-response,772,1641675,220.4000000001397,"",32,,word,LUMBER,,,,,,,,,,,,
call-function,773,1641676,,"",,,,,,,,,,,,,,,,
html-keyboard-response,774,1641779,null,"",null,,,,,,,,,,,,,,,
math-period,775,1643998,3931.600000000326,"",,,,,,,,,,,5,,,,,
html-keyboard-response,776,1644112,null,"",null,,,,,,,,,,,,,,,
math-period,777,1645959,3618.6999999999534,"",,,,,,,,,,,4,,,,,
html-keyboard-response,778,1646070,null,"",null,,,,,,,,,,,,,,,
math-period,779,1648894,5532.200000000186,"",,,,,,,,,,,2,,,,,
html-keyboard-response,780,1649007,null,"",null,,,,,,,,,,,,,,,
math-period,781,1650221,2316.1999999999534,"",,,,,,,,,,,4,,,,,
html-keyboard-response,782,1650333,null,"",null,,,,,,,,,,,,,,,
math-period,783,1651350,1967.8999999999069,"",,,,,,,,,,,3,,,,,
html-keyboard-response,784,1651458,null,"",null,,,,,,,,,,,,,,,
math-period,785,1652446,1870.6999999999534,"",,,,,,,,,,,3,,,,,
html-keyboard-response,786,1652558,null,"",null,,,,,,,,,,,,,,,
math-period,787,1655742,6262.300000000047,"",,,,,,,,,,,2,,,,,
html-keyboard-response,788,1655853,null,"",null,,,,,,,,,,,,,,,
math-period,789,1658086,4199.899999999674,"",,,,,,,,,,,3,,,,,
html-keyboard-response,790,1658200,null,"",null,,,,,,,,,,,,,,,
math-period,791,1661630,6745.40000000014,"",,,,,,,,,,,1,,,,,
html-keyboard-response,792,1661732,null,"",null,,,,,,,,,,,,,,,
math-period,793,1664342,4921.199999999721,"",,,,,,,,,,,0,,,,,
html-keyboard-response,794,1664456,null,"",null,,,,,,,,,,,,,,,
math-period,795,1665682,1181.0999999998603,"",,,,,,,,,,,5,,,,,
html-keyboard-response,796,1666686,null,"Recall Period!",null,,,,,,,,,,,,,,,
call-function,797,1666686,,"",,,,,,,,,,,,,,,,
html-keyboard-response,798,1666801,null,"",null,,,,,,,,,,,,,,,
recall-period,799,1671638,27227.90000000014,"",,,,,,,,,,,japan,,,,,
html-keyboard-response,800,1671754,null,"",null,,,,,,,,,,,,,,,
recall-period,801,1674086,11232.600000000093,"",,,,,,,,,,,europe,,,,,
html-keyboard-response,802,1674197,null,"",null,,,,,,,,,,,,,,,
recall-period,803,1680526,43241.90000000014,"",,,,,,,,,,,ceiling,,,,,
html-keyboard-response,804,1680640,null,"",null,,,,,,,,,,,,,,,
recall-period,805,1683262,12640.69999999972,"",,,,,,,,,,,forest,,,,,
html-keyboard-response,806,1683368,null,"",null,,,,,,,,,,,,,,,
recall-period,807,1692294,94147.9999999986,"",,,,,,,,,,,lumber,,,,,
html-keyboard-response,808,1692401,null,"",null,,,,,,,,,,,,,,,
recall-period,809,1741688,null,"",,,,,,,,,,,,,,,,
html-keyboard-response,810,1742201,null,"Time's Up!",null,,,,,,,,,,,,,,,
html-keyboard-response,811,1765477,23275.799999999814,"<p> Good job! You have responded correctly to 97% of the trials. </p>
                      <p>Be sure to only press the spacebar if you see a red square, and please keep your accuracy above 80%.</p>
                      <p> Press any key to continue the experiment. </p>",32,,,,,,,,,,,,,,,
html-keyboard-response,812,1827374,61894.89999999991,"<div style=""font-size:48px;"">Press any key to begin list 8 of 16 </div>",32,,,,,,,,,,,,,,,
html-keyboard-response,813,1829882,null,"<div style=""font-size:60px;"">+</div>",null,,,,,,,,,,,,,,,
html-keyboard-response,814,1830087,null,"<div style=""font-size:42px;"">CHEST</div><img id = ""stim"" ><div class = red_square id = bottomsquare></div>",null,encoding,word_square,,,1,bottomsquare,32,true,,,CHEST,7,,,
html-keyboard-response,815,1830388,null,"<div style=""font-size:42px;"">CHEST</div>",null,,word,CHEST,,,,,,,,,,,,
html-keyboard-response,816,1831890,512.8999999999069,"",32,,word,CHEST,,,,,,,,,,,,
html-keyboard-response,817,1832092,null,"<div style=""font-size:42px;"">TWEEZERS</div><img id = ""stim"" ><div class = red_square id = topsquare></div>",null,encoding,word_square,,,1,topsquare,32,true,,,TWEEZERS,7,,,
html-keyboard-response,818,1832401,null,"<div style=""font-size:42px;"">TWEEZERS</div>",null,,word,TWEEZERS,,,,,,,,,,,,
html-keyboard-response,819,1833913,436.39999999990687,"",32,,word,TWEEZERS,,,,,,,,,,,,
html-keyboard-response,820,1834121,null,"<div style=""font-size:42px;"">NEPHEW</div><img id = ""stim"" ><div class = green_square id = topsquare></div>",null,encoding,word_square,,,0,topsquare,none,true,,,NEPHEW,7,,,
html-keyboard-response,821,1834423,null,"<div style=""font-size:42px;"">NEPHEW</div>",null,,word,NEPHEW,,,,,,,,,,,,
html-keyboard-response,822,1835940,null,"",null,,word,NEPHEW,,,,,,,,,,,,
html-keyboard-response,823,1836149,null,"<div style=""font-size:42px;"">CONTRACT</div><img id = ""stim"" ><div class = green_square id = bottomsquare></div>",null,encoding,word_square,,,0,bottomsquare,none,true,,,CONTRACT,7,,,
html-keyboard-response,824,1836450,null,"<div style=""font-size:42px;"">CONTRACT</div>",null,,word,CONTRACT,,,,,,,,,,,,
html-keyboard-response,825,1837967,null,"",null,,word,CONTRACT,,,,,,,,,,,,
html-keyboard-response,826,1838169,null,"<div style=""font-size:42px;"">MUFFIN</div><img id = ""stim"" ><div class = red_square id = bottomsquare></div>",null,encoding,word_square,,,1,bottomsquare,32,true,,,MUFFIN,7,,,
html-keyboard-response,827,1838470,null,"<div style=""font-size:42px;"">MUFFIN</div>",null,,word,MUFFIN,,,,,,,,,,,,
html-keyboard-response,828,1839983,231.10000000009313,"",32,,word,MUFFIN,,,,,,,,,,,,
html-keyboard-response,829,1840189,null,"<div style=""font-size:42px;"">FOOTBALL</div><img id = ""stim"" ><div class = red_square id = topsquare></div>",null,encoding,word_square,,,1,topsquare,32,true,,,FOOTBALL,7,,,
html-keyboard-response,830,1840496,null,"<div style=""font-size:42px;"">FOOTBALL</div>",null,,word,FOOTBALL,,,,,,,,,,,,
html-keyboard-response,831,1842009,437,"",32,,word,FOOTBALL,,,,,,,,,,,,
html-keyboard-response,832,1842216,null,"<div style=""font-size:42px;"">CANDY</div><img id = ""stim"" ><div class = green_square id = topsquare></div>",null,encoding,word_square,,,0,topsquare,none,true,,,CANDY,7,,,
html-keyboard-response,833,1842519,null,"<div style=""font-size:42px;"">CANDY</div>",null,,word,CANDY,,,,,,,,,,,,
html-keyboard-response,834,1844035,null,"",null,,word,CANDY,,,,,,,,,,,,
html-keyboard-response,835,1844237,null,"<div style=""font-size:42px;"">EAGLE</div><img id = ""stim"" ><div class = red_square id = bottomsquare></div>",null,encoding,word_square,,,1,bottomsquare,32,true,,,EAGLE,7,,,
html-keyboard-response,836,1844539,null,"<div style=""font-size:42px;"">EAGLE</div>",null,,word,EAGLE,,,,,,,,,,,,
html-keyboard-response,837,1846044,41.800000000046566,"",32,,word,EAGLE,,,,,,,,,,,,
html-keyboard-response,838,1846251,null,"<div style=""font-size:42px;"">PARROT</div><img id = ""stim"" ><div class = green_square id = bottomsquare></div>",null,encoding,word_square,,,0,bottomsquare,none,true,,,PARROT,7,,,
html-keyboard-response,839,1846552,null,"<div style=""font-size:42px;"">PARROT</div>",null,,word,PARROT,,,,,,,,,,,,
html-keyboard-response,840,1848055,null,"",null,,word,PARROT,,,,,,,,,,,,
html-keyboard-response,841,1848263,null,"<div style=""font-size:42px;"">SIDEWALK</div><img id = ""stim"" ><div class = green_square id = topsquare></div>",null,encoding,word_square,,,0,topsquare,none,true,,,SIDEWALK,7,,,
html-keyboard-response,842,1848564,null,"<div style=""font-size:42px;"">SIDEWALK</div>",null,,word,SIDEWALK,,,,,,,,,,,,
html-keyboard-response,843,1850067,null,"",null,,word,SIDEWALK,,,,,,,,,,,,
html-keyboard-response,844,1850276,null,"<div style=""font-size:42px;"">UMPIRE</div><img id = ""stim"" ><div class = red_square id = topsquare></div>",null,encoding,word_square,,,1,topsquare,32,true,,,UMPIRE,7,,,
html-keyboard-response,845,1850578,null,"<div style=""font-size:42px;"">UMPIRE</div>",null,,word,UMPIRE,,,,,,,,,,,,
html-keyboard-response,846,1852088,139.30000000004657,"",32,,word,UMPIRE,,,,,,,,,,,,
html-keyboard-response,847,1852296,null,"<div style=""font-size:42px;"">HIKER</div><img id = ""stim"" ><div class = red_square id = bottomsquare></div>",null,encoding,word_square,,,1,bottomsquare,32,true,,,HIKER,7,,,
html-keyboard-response,848,1852598,null,"<div style=""font-size:42px;"">HIKER</div>",null,,word,HIKER,,,,,,,,,,,,
html-keyboard-response,849,1854113,406.9000000001397,"",32,,word,HIKER,,,,,,,,,,,,
html-keyboard-response,850,1854318,null,"<div style=""font-size:42px;"">TRIGGER</div><img id = ""stim"" ><div class = green_square id = bottomsquare></div>",null,encoding,word_square,,,0,bottomsquare,none,true,,,TRIGGER,7,,,
html-keyboard-response,851,1854620,null,"<div style=""font-size:42px;"">TRIGGER</div>",null,,word,TRIGGER,,,,,,,,,,,,
html-keyboard-response,852,1856122,null,"",null,,word,TRIGGER,,,,,,,,,,,,
html-keyboard-response,853,1856330,null,"<div style=""font-size:42px;"">PEACH</div><img id = ""stim"" ><div class = green_square id = topsquare></div>",null,encoding,word_square,,,0,topsquare,none,true,,,PEACH,7,,,
html-keyboard-response,854,1856632,null,"<div style=""font-size:42px;"">PEACH</div>",null,,word,PEACH,,,,,,,,,,,,
html-keyboard-response,855,1858135,null,"",null,,word,PEACH,,,,,,,,,,,,
html-keyboard-response,856,1858342,null,"<div style=""font-size:42px;"">RUST</div><img id = ""stim"" ><div class = red_square id = topsquare></div>",null,encoding,word_square,,,1,topsquare,32,true,,,RUST,7,,,
html-keyboard-response,857,1858656,null,"<div style=""font-size:42px;"">RUST</div>",null,,word,RUST,,,,,,,,,,,,
html-keyboard-response,858,1860159,165.10000000009313,"",32,,word,RUST,,,,,,,,,,,,
html-keyboard-response,859,1860375,null,"<div style=""font-size:42px;"">CLERK</div><img id = ""stim"" ><div class = green_square id = bottomsquare></div>",null,encoding,word_square,,,0,bottomsquare,none,true,,,CLERK,7,,,
html-keyboard-response,860,1860690,null,"<div style=""font-size:42px;"">CLERK</div>",null,,word,CLERK,,,,,,,,,,,,
html-keyboard-response,861,1862204,null,"",null,,word,CLERK,,,,,,,,,,,,
call-function,862,1862205,,"",,,,,,,,,,,,,,,,
html-keyboard-response,863,1862308,null,"",null,,,,,,,,,,,,,,,
math-period,864,1864598,4227.100000000093,"",,,,,,,,,,,4,,,,,
html-keyboard-response,865,1864708,null,"",null,,,,,,,,,,,,,,,
math-period,866,1866870,4193.399999999907,"",,,,,,,,,,,1,,,,,
html-keyboard-response,867,1866977,null,"",null,,,,,,,,,,,,,,,
math-period,868,1869510,4871.5,"",,,,,,,,,,,4,,,,,
html-keyboard-response,869,1869625,null,"",null,,,,,,,,,,,,,,,
math-period,870,1872262,5031.899999999907,"",,,,,,,,,,,5,,,,,
html-keyboard-response,871,1872367,null,"",null,,,,,,,,,,,,,,,
math-period,872,1875158,5388.800000000047,"",,,,,,,,,,,2,,,,,
html-keyboard-response,873,1875261,null,"",null,,,,,,,,,,,,,,,
math-period,874,1876966,3273.000000000233,"",,,,,,,,,,,6,,,,,
html-keyboard-response,875,1877074,null,"",null,,,,,,,,,,,,,,,
math-period,876,1879278,4237.499999999767,"",,,,,,,,,,,5,,,,,
html-keyboard-response,877,1879384,null,"",null,,,,,,,,,,,,,,,
math-period,878,1881694,4377.399999999907,"",,,,,,,,,,,5,,,,,
html-keyboard-response,879,1881798,null,"",null,,,,,,,,,,,,,,,
math-period,880,1883686,3662.4000000001397,"",,,,,,,,,,,3,,,,,
html-keyboard-response,881,1883798,null,"",null,,,,,,,,,,,,,,,
math-period,882,1885942,4158.199999999953,"",,,,,,,,,,,4,,,,,
html-keyboard-response,883,1886043,null,"",null,,,,,,,,,,,,,,,
math-period,884,1886218,null,"",,,,,,,,,,,,,,,,
html-keyboard-response,885,1887228,null,"Recall Period!",null,,,,,,,,,,,,,,,
call-function,886,1887229,,"",,,,,,,,,,,,,,,,
html-keyboard-response,887,1887343,null,"",null,,,,,,,,,,,,,,,
recall-period,888,1892966,22301.300000000047,"",,,,,,,,,,,chest,,,,,
html-keyboard-response,889,1893071,null,"",null,,,,,,,,,,,,,,,
recall-period,890,1900494,53064.600000000326,"",,,,,,,,,,,tweezers,,,,,
html-keyboard-response,891,1900604,null,"",null,,,,,,,,,,,,,,,
recall-period,892,1903918,9293.600000000093,"",,,,,,,,,,,nephew,,,,,
html-keyboard-response,893,1904030,null,"",null,,,,,,,,,,,,,,,
recall-period,894,1908558,32352.800000000047,"",,,,,,,,,,,football,,,,,
html-keyboard-response,895,1908673,null,"",null,,,,,,,,,,,,,,,
recall-period,896,1913502,19998.19999999972,"",,,,,,,,,,,umpire,,,,,
html-keyboard-response,897,1913616,null,"",null,,,,,,,,,,,,,,,
recall-period,898,1915494,6597.499999999767,"",,,,,,,,,,,peach,,,,,
html-keyboard-response,899,1915608,null,"",null,,,,,,,,,,,,,,,
recall-period,900,1917094,6440.800000000047,"",,,,,,,,,,,muffin,,,,,
html-keyboard-response,901,1917205,null,"",null,,,,,,,,,,,,,,,
recall-period,902,1922198,25998.60000000056,"",,,,,,,,,,,candy,,,,,
html-keyboard-response,903,1922304,null,"",null,,,,,,,,,,,,,,,
recall-period,904,1932126,76680.19999999995,"",,,,,,,,,,,contract,,,,,
html-keyboard-response,905,1932237,null,"",null,,,,,,,,,,,,,,,
recall-period,906,1962243,null,"",,,,,,,,,,,,,,,,
html-keyboard-response,907,1962747,null,"Time's Up!",null,,,,,,,,,,,,,,,
html-keyboard-response,908,2021222,58473.90000000014,"<p> Good job! You have responded correctly to 98% of the trials. </p>
                      <p>Be sure to only press the spacebar if you see a red square, and please keep your accuracy above 80%.</p>
                      <p> Press any key to continue the experiment. </p>",32,,,,,,,,,,,,,,,
html-keyboard-response,909,2081958,60735.299999999814,"<div style=""font-size:48px;"">Press any key to begin list 9 of 16 </div>",32,,,,,,,,,,,,,,,
html-keyboard-response,910,2084475,null,"<div style=""font-size:60px;"">+</div>",null,,,,,,,,,,,,,,,
html-keyboard-response,911,2084684,null,"<div style=""font-size:42px;"">BUG</div><img id = ""stim"" ><div class = red_square id = topsquare></div>",null,encoding,word_square,,,1,topsquare,32,true,,,BUG,8,,,
html-keyboard-response,912,2084986,null,"<div style=""font-size:42px;"">BUG</div>",null,,word,BUG,,,,,,,,,,,,
html-keyboard-response,913,2086496,307.59999999962747,"",32,,word,BUG,,,,,,,,,,,,
html-keyboard-response,914,2086704,null,"<div style=""font-size:42px;"">ATTIC</div><img id = ""stim"" ><div class = red_square id = bottomsquare></div>",null,encoding,word_square,,,1,bottomsquare,32,true,,,ATTIC,8,,,
html-keyboard-response,915,2087006,null,"<div style=""font-size:42px;"">ATTIC</div>",null,,word,ATTIC,,,,,,,,,,,,
html-keyboard-response,916,2088511,182.89999999990687,"",32,,word,ATTIC,,,,,,,,,,,,
html-keyboard-response,917,2088718,null,"<div style=""font-size:42px;"">LIZARD</div><img id = ""stim"" ><div class = green_square id = bottomsquare></div>",null,encoding,word_square,,,0,bottomsquare,none,true,,,LIZARD,8,,,
html-keyboard-response,918,2089020,null,"<div style=""font-size:42px;"">LIZARD</div>",null,,word,LIZARD,,,,,,,,,,,,
html-keyboard-response,919,2090527,null,"",null,,word,LIZARD,,,,,,,,,,,,
html-keyboard-response,920,2090740,null,"<div style=""font-size:42px;"">POISON</div><img id = ""stim"" ><div class = red_square id = topsquare></div>",null,encoding,word_square,,,1,topsquare,32,true,,,POISON,8,,,
html-keyboard-response,921,2091049,null,"<div style=""font-size:42px;"">POISON</div>",null,,word,POISON,,,,,,,,,,,,
html-keyboard-response,922,2092554,772.5,"",32,,word,POISON,,,,,,,,,,,,
