trial_type,trial_index,time_elapsed,rt,stimulus,key_press,exp_phase,test_part,word,task,targ_cond,sq_pos,correctKeyCode,correct,value,response,Word,List,RecResp,serial_pos,colorChosen
pavlovia,0,2377,,"",,,,,,,,,,,,,,,,
external-html,1,10037,7489.700000047684,"",,,,,,,,,,,,,,,,
html-keyboard-response,2,12259,2220.399999976158,"Welcome to the experiment. Press any key to begin.",32,,,,,,,,,,,,,,,
html-keyboard-response,3,20782,8521.899999976158,"<p>You will see a list of words and colored squares in the following task.<p><p>Press the spacebar whenever you see a GREEN square.<p><p>Do not press a key if the square is RED.<p><p>Press the spacebar to continue.</p>",32,,,,,,,,,,,,,,,
html-keyboard-response,4,32141,10847.299999952316,"<p>Please try to remember as many of the words as you can, and try to think about the meaning of each word as it appears.<p><p>After the detection and encoding task you will be asked to solve some math problems for 24 seconds.<p> Please solve as many problems as you can in the time given. <p><p><p>Press the spacebar to continue.</p>",32,,,,,,,,,,,,,,,
html-keyboard-response,5,39833,7187.5,"After solving the math problems, you will be asked to type in as many words <p>from the previous list as you can remember for 75 seconds.<p> If you finish recalling before the 75 seconds are up,<p> just sit tight and try to think of any more words you could have missed. <p><p><p>Press the spacebar to continue.</p>",32,,,,,,,,,,,,,,,
html-keyboard-response,6,45853,5512.300000071526,"There will be 16 lists of words and recall, followed  by<p><p> a recognition phase. The experiment is expected to take up to 90 minutes.<p>We will begin with a brief practice session.<p>Press the spacebar to begin the practice.</p>",32,,,,,,,,,,,,,,,
html-keyboard-response,7,48360,null,"<div style=""font-size:60px;"">+</div>",null,,,,,,,,,,,,,,,
html-keyboard-response,8,48564,null,"<div style=""font-size:42px;"">HAPPY</div><img id = ""stim"" ><div class = red_square id = ""bottomsquare"" ></div>",null,practice,word_square,HAPPY,prac_response,0,Bottom,none,true,,,,,,,
html-keyboard-response,9,48866,null,"<div style=""font-size:42px;"">HAPPY</div>",null,,word,HAPPY,,,,,,,,,,,,
html-keyboard-response,10,50375,null,"",null,,word,HAPPY,,,,,,,,,,,,
html-keyboard-response,11,50580,null,"<div style=""font-size:42px;"">COLD</div><img id = ""stim"" ><div class = green_square id = ""bottomsquare"" ></div>",null,practice,word_square,COLD,prac_response,1,Bottom,32,true,,,,,,,
html-keyboard-response,12,50882,200.39999997615814,"<div style=""font-size:42px;"">COLD</div>",32,,word,COLD,,,,,,,,,,,,
html-keyboard-response,13,52395,null,"",null,,word,COLD,,,,,,,,,,,,
html-keyboard-response,14,52598,null,"<div style=""font-size:42px;"">HEAVY</div><img id = ""stim"" ><div class = green_square id = ""topsquare"" ></div>",null,practice,word_square,HEAVY,prac_response,1,Top,32,true,,,,,,,
html-keyboard-response,15,52901,137.79999995231628,"<div style=""font-size:42px;"">HEAVY</div>",32,,word,HEAVY,,,,,,,,,,,,
html-keyboard-response,16,54410,null,"",null,,word,HEAVY,,,,,,,,,,,,
html-keyboard-response,17,54617,null,"<div style=""font-size:42px;"">FUNNY</div><img id = ""stim"" ><div class = red_square id = ""topsquare"" ></div>",null,practice,word_square,FUNNY,prac_response,0,Top,none,true,,,,,,,
html-keyboard-response,18,54932,null,"<div style=""font-size:42px;"">FUNNY</div>",null,,word,FUNNY,,,,,,,,,,,,
html-keyboard-response,19,56437,null,"",null,,word,FUNNY,,,,,,,,,,,,
html-keyboard-response,20,56640,null,"<div style=""font-size:42px;"">SCARY</div><img id = ""stim"" ><div class = green_square id = ""bottomsquare"" ></div>",null,practice,word_square,SCARY,prac_response,1,Bottom,32,true,,,,,,,
html-keyboard-response,21,56954,145,"<div style=""font-size:42px;"">SCARY</div>",32,,word,SCARY,,,,,,,,,,,,
html-keyboard-response,22,58459,null,"",null,,word,SCARY,,,,,,,,,,,,
html-keyboard-response,23,58665,null,"<div style=""font-size:42px;"">PEACEFUL</div><img id = ""stim"" ><div class = green_square id = ""topsquare"" ></div>",null,practice,word_square,PEACEFUL,prac_response,1,Top,32,true,,,,,,,
html-keyboard-response,24,58968,123.69999992847443,"<div style=""font-size:42px;"">PEACEFUL</div>",32,,word,PEACEFUL,,,,,,,,,,,,
html-keyboard-response,25,60484,null,"",null,,word,PEACEFUL,,,,,,,,,,,,
html-keyboard-response,26,60688,null,"<div style=""font-size:42px;"">LITTLE</div><img id = ""stim"" ><div class = red_square id = ""bottomsquare"" ></div>",null,practice,word_square,LITTLE,prac_response,0,Bottom,none,true,,,,,,,
html-keyboard-response,27,61003,null,"<div style=""font-size:42px;"">LITTLE</div>",null,,word,LITTLE,,,,,,,,,,,,
html-keyboard-response,28,62517,null,"",null,,word,LITTLE,,,,,,,,,,,,
html-keyboard-response,29,62722,null,"<div style=""font-size:42px;"">TIRED</div><img id = ""stim"" ><div class = red_square id = ""topsquare"" ></div>",null,practice,word_square,TIRED,prac_response,0,Top,none,true,,,,,,,
html-keyboard-response,30,63038,null,"<div style=""font-size:42px;"">TIRED</div>",null,,word,TIRED,,,,,,,,,,,,
html-keyboard-response,31,64540,null,"",null,,word,TIRED,,,,,,,,,,,,
html-keyboard-response,32,64747,null,"<div style=""font-size:42px;"">ENTERTAINING</div><img id = ""stim"" ><div class = red_square id = ""bottomsquare"" ></div>",null,practice,word_square,ENTERTAINING,prac_response,0,Bottom,none,true,,,,,,,
html-keyboard-response,33,65061,null,"<div style=""font-size:42px;"">ENTERTAINING</div>",null,,word,ENTERTAINING,,,,,,,,,,,,
html-keyboard-response,34,66565,null,"",null,,word,ENTERTAINING,,,,,,,,,,,,
html-keyboard-response,35,66768,null,"<div style=""font-size:42px;"">GRATEFUL</div><img id = ""stim"" ><div class = green_square id = ""bottomsquare"" ></div>",null,practice,word_square,GRATEFUL,prac_response,1,Bottom,32,true,,,,,,,
html-keyboard-response,36,67084,76.30000007152557,"<div style=""font-size:42px;"">GRATEFUL</div>",32,,word,GRATEFUL,,,,,,,,,,,,
html-keyboard-response,37,68587,null,"",null,,word,GRATEFUL,,,,,,,,,,,,
html-keyboard-response,38,68789,null,"<div style=""font-size:42px;"">LOUD</div><img id = ""stim"" ><div class = red_square id = ""topsquare"" ></div>",null,practice,word_square,LOUD,prac_response,0,Top,none,true,,,,,,,
html-keyboard-response,39,69101,null,"<div style=""font-size:42px;"">LOUD</div>",null,,word,LOUD,,,,,,,,,,,,
html-keyboard-response,40,70605,null,"",null,,word,LOUD,,,,,,,,,,,,
html-keyboard-response,41,70811,null,"<div style=""font-size:42px;"">SMART</div><img id = ""stim"" ><div class = green_square id = ""topsquare"" ></div>",null,practice,word_square,SMART,prac_response,1,Top,32,true,,,,,,,
html-keyboard-response,42,71113,141.20000004768372,"<div style=""font-size:42px;"">SMART</div>",32,,word,SMART,,,,,,,,,,,,
html-keyboard-response,43,72627,null,"",null,,word,SMART,,,,,,,,,,,,
html-keyboard-response,44,72833,null,"<div style=""font-size:42px;"">SMOOTH</div><img id = ""stim"" ><div class = green_square id = ""bottomsquare"" ></div>",null,practice,word_square,SMOOTH,prac_response,1,Bottom,32,true,,,,,,,
html-keyboard-response,45,73147,115.39999997615814,"<div style=""font-size:42px;"">SMOOTH</div>",32,,word,SMOOTH,,,,,,,,,,,,
html-keyboard-response,46,74650,null,"",null,,word,SMOOTH,,,,,,,,,,,,
html-keyboard-response,47,74856,null,"<div style=""font-size:42px;"">DISHONEST</div><img id = ""stim"" ><div class = red_square id = ""bottomsquare"" ></div>",null,practice,word_square,DISHONEST,prac_response,0,Bottom,none,true,,,,,,,
html-keyboard-response,48,75173,null,"<div style=""font-size:42px;"">DISHONEST</div>",null,,word,DISHONEST,,,,,,,,,,,,
html-keyboard-response,49,76686,null,"",null,,word,DISHONEST,,,,,,,,,,,,
html-keyboard-response,50,76889,null,"<div style=""font-size:42px;"">WEALTHY</div><img id = ""stim"" ><div class = green_square id = ""topsquare"" ></div>",null,practice,word_square,WEALTHY,prac_response,1,Top,32,true,,,,,,,
html-keyboard-response,51,77205,131.89999997615814,"<div style=""font-size:42px;"">WEALTHY</div>",32,,word,WEALTHY,,,,,,,,,,,,
html-keyboard-response,52,78718,null,"",null,,word,WEALTHY,,,,,,,,,,,,
html-keyboard-response,53,78923,null,"<div style=""font-size:42px;"">BEAUTIFUL</div><img id = ""stim"" ><div class = red_square id = ""topsquare"" ></div>",null,practice,word_square,BEAUTIFUL,prac_response,0,Top,none,true,,,,,,,
html-keyboard-response,54,79226,null,"<div style=""font-size:42px;"">BEAUTIFUL</div>",null,,word,BEAUTIFUL,,,,,,,,,,,,
html-keyboard-response,55,80732,null,"",null,,word,BEAUTIFUL,,,,,,,,,,,,
html-keyboard-response,56,89078,8344.700000047684,"<p> Good job! You responded correctly to 100% of the trials. </p>
                  <p>Be sure to only press the spacebar if you see a GREEN square, and please keep your accuracy above 80%.</p>
                  <p>We're going to try once more to make sure you understand the task. press any key to continue. </p>",32,,,,,,,,,,,,,,,
html-keyboard-response,57,91230,2151.3000000715256,"<p>You will see a list of words and colored squares in the following task.<p><p>Press the spacebar whenever you see a GREEN square.<p><p>Do not press a key if the square is RED<p><p>Press the spacebar to continue.</p>",32,,,,,,,,,,,,,,,
html-keyboard-response,58,93742,null,"<div style=""font-size:60px;"">+</div>",null,,,,,,,,,,,,,,,
html-keyboard-response,59,93948,null,"<div style=""font-size:42px;"">HAPPY</div><img id = ""stim"" ><div class = red_square id = ""bottomsquare"" ></div>",null,practice2,word_square,HAPPY,prac_response,0,Bottom,none,true,,,,,,,
html-keyboard-response,60,94264,null,"<div style=""font-size:42px;"">HAPPY</div>",null,,word,HAPPY,,,,,,,,,,,,
html-keyboard-response,61,95771,null,"",null,,word,HAPPY,,,,,,,,,,,,
html-keyboard-response,62,95977,null,"<div style=""font-size:42px;"">COLD</div><img id = ""stim"" ><div class = green_square id = ""bottomsquare"" ></div>",null,practice2,word_square,,prac_response,1,Bottom,32,true,,,,,,,
html-keyboard-response,63,96291,223.19999992847443,"<div style=""font-size:42px;"">COLD</div>",32,,word,COLD,,,,,,,,,,,,
html-keyboard-response,64,97801,null,"",null,,word,COLD,,,,,,,,,,,,
html-keyboard-response,65,98005,null,"<div style=""font-size:42px;"">HEAVY</div><img id = ""stim"" ><div class = green_square id = ""topsquare"" ></div>",null,practice2,word_square,,prac_response,1,Top,32,true,,,,,,,
html-keyboard-response,66,98310,139,"<div style=""font-size:42px;"">HEAVY</div>",32,,word,HEAVY,,,,,,,,,,,,
html-keyboard-response,67,99822,null,"",null,,word,HEAVY,,,,,,,,,,,,
html-keyboard-response,68,100030,null,"<div style=""font-size:42px;"">FUNNY</div><img id = ""stim"" ><div class = red_square id = ""topsquare"" ></div>",null,practice2,word_square,,prac_response,0,Top,none,true,,,,,,,
html-keyboard-response,69,100347,null,"<div style=""font-size:42px;"">FUNNY</div>",null,,word,FUNNY,,,,,,,,,,,,
html-keyboard-response,70,101859,null,"",null,,word,FUNNY,,,,,,,,,,,,
html-keyboard-response,71,102064,null,"<div style=""font-size:42px;"">SCARY</div><img id = ""stim"" ><div class = green_square id = ""bottomsquare"" ></div>",null,practice2,word_square,,prac_response,1,Bottom,32,true,,,,,,,
html-keyboard-response,72,102366,136.80000007152557,"<div style=""font-size:42px;"">SCARY</div>",32,,word,SCARY,,,,,,,,,,,,
html-keyboard-response,73,103882,null,"",null,,word,SCARY,,,,,,,,,,,,
html-keyboard-response,74,104085,null,"<div style=""font-size:42px;"">PEACEFUL</div><img id = ""stim"" ><div class = green_square id = ""topsquare"" ></div>",null,practice2,word_square,,prac_response,1,Top,32,true,,,,,,,
html-keyboard-response,75,104389,155.89999997615814,"<div style=""font-size:42px;"">PEACEFUL</div>",32,,word,PEACEFUL,,,,,,,,,,,,
html-keyboard-response,76,105900,null,"",null,,word,PEACEFUL,,,,,,,,,,,,
html-keyboard-response,77,106105,null,"<div style=""font-size:42px;"">LITTLE</div><img id = ""stim"" ><div class = red_square id = ""bottomsquare"" ></div>",null,practice2,word_square,LITTLE,prac_response,0,Bottom,none,true,,,,,,,
html-keyboard-response,78,106419,null,"<div style=""font-size:42px;"">LITTLE</div>",null,,word,LITTLE,,,,,,,,,,,,
html-keyboard-response,79,107923,null,"",null,,word,LITTLE,,,,,,,,,,,,
html-keyboard-response,80,108127,null,"<div style=""font-size:42px;"">TIRED</div><img id = ""stim"" ><div class = red_square id = ""topsquare"" ></div>",null,practice2,word_square,,prac_response,0,Top,none,true,,,,,,,
html-keyboard-response,81,108441,null,"<div style=""font-size:42px;"">TIRED</div>",null,,word,TIRED,,,,,,,,,,,,
html-keyboard-response,82,109944,null,"",null,,word,TIRED,,,,,,,,,,,,
html-keyboard-response,83,110147,null,"<div style=""font-size:42px;"">ENTERTAINING</div><img id = ""stim"" ><div class = red_square id = ""bottomsquare"" ></div>",null,practice2,word_square,ENTERTAINING,prac_response,0,Bottom,none,true,,,,,,,
html-keyboard-response,84,110459,null,"<div style=""font-size:42px;"">ENTERTAINING</div>",null,,word,ENTERTAINING,,,,,,,,,,,,
html-keyboard-response,85,111966,null,"",null,,word,ENTERTAINING,,,,,,,,,,,,
html-keyboard-response,86,112172,null,"<div style=""font-size:42px;"">GRATEFUL</div><img id = ""stim"" ><div class = green_square id = ""bottomsquare"" ></div>",null,practice2,word_square,,prac_response,1,Bottom,32,true,,,,,,,
html-keyboard-response,87,112475,125.10000002384186,"<div style=""font-size:42px;"">GRATEFUL</div>",32,,word,GRATEFUL,,,,,,,,,,,,
html-keyboard-response,88,113984,null,"",null,,word,GRATEFUL,,,,,,,,,,,,
html-keyboard-response,89,114190,null,"<div style=""font-size:42px;"">LOUD</div><img id = ""stim"" ><div class = red_square id = ""topsquare"" ></div>",null,practice2,word_square,,prac_response,0,Top,none,true,,,,,,,
html-keyboard-response,90,114504,null,"<div style=""font-size:42px;"">LOUD</div>",null,,word,LOUD,,,,,,,,,,,,
html-keyboard-response,91,116015,null,"",null,,word,LOUD,,,,,,,,,,,,
html-keyboard-response,92,116222,null,"<div style=""font-size:42px;"">SMART</div><img id = ""stim"" ><div class = green_square id = ""topsquare"" ></div>",null,practice2,word_square,,prac_response,1,Top,32,true,,,,,,,
html-keyboard-response,93,116537,194.19999992847443,"<div style=""font-size:42px;"">SMART</div>",32,,word,SMART,,,,,,,,,,,,
html-keyboard-response,94,118039,null,"",null,,word,SMART,,,,,,,,,,,,
html-keyboard-response,95,118245,null,"<div style=""font-size:42px;"">SMOOTH</div><img id = ""stim"" ><div class = green_square id = ""bottomsquare"" ></div>",null,practice2,word_square,,prac_response,1,Bottom,32,true,,,,,,,
html-keyboard-response,96,118557,null,"<div style=""font-size:42px;"">SMOOTH</div>",null,,word,SMOOTH,,,,,,,,,,,,
html-keyboard-response,97,120059,108.20000004768372,"",32,,word,SMOOTH,,,,,,,,,,,,
html-keyboard-response,98,120266,null,"<div style=""font-size:42px;"">DISHONEST</div><img id = ""stim"" ><div class = red_square id = ""bottomsquare"" ></div>",null,practice2,word_square,DISHONEST,prac_response,0,Bottom,none,true,,,,,,,
html-keyboard-response,99,120568,null,"<div style=""font-size:42px;"">DISHONEST</div>",null,,word,DISHONEST,,,,,,,,,,,,
html-keyboard-response,100,122069,null,"",null,,word,DISHONEST,,,,,,,,,,,,
html-keyboard-response,101,122271,null,"<div style=""font-size:42px;"">WEALTHY</div><img id = ""stim"" ><div class = green_square id = ""topsquare"" ></div>",null,practice2,word_square,,prac_response,1,Top,32,false,,,,,,,
html-keyboard-response,102,122587,null,"<div style=""font-size:42px;"">WEALTHY</div>",null,,word,WEALTHY,,,,,,,,,,,,
html-keyboard-response,103,124091,null,"",null,,word,WEALTHY,,,,,,,,,,,,
html-keyboard-response,104,124298,null,"<div style=""font-size:42px;"">BEAUTIFUL</div><img id = ""stim"" ><div class = red_square id = ""topsquare"" ></div>",null,practice2,word_square,,prac_response,0,Top,none,false,,,,,,,
html-keyboard-response,105,124609,null,"<div style=""font-size:42px;"">BEAUTIFUL</div>",null,,word,BEAUTIFUL,,,,,,,,,,,,
html-keyboard-response,106,126122,null,"",null,,word,BEAUTIFUL,,,,,,,,,,,,
html-keyboard-response,107,133261,7138.600000023842,"<p> Good job! You responded correctly to 94% of the trials. </p>
                    <p>Be sure to only press the spacebar if you see a GREEN square, and please keep your accuracy above 80%.</p>
                    <p>Press any key to begin the math and recall sections. Thank you! </p>",32,,,,,,,,,,,,,,,
call-function,108,133262,,"",,,,,,,,,,,,,,,,
html-keyboard-response,109,133363,null,"",null,,,,,,,,,,,,,,,
math-period,110,142742,74997.69999945164,"",,,,,,,,,,,5,,,,,
html-keyboard-response,111,142844,null,"",null,,,,,,,,,,,,,,,
math-period,112,146809,7605.300000071526,"",,,,,,,,,,,4,,,,,
html-keyboard-response,113,146917,null,"",null,,,,,,,,,,,,,,,
math-period,114,149201,4125.899999976158,"",,,,,,,,,,,5,,,,,
html-keyboard-response,115,149302,null,"",null,,,,,,,,,,,,,,,
math-period,116,150901,2532.7999999523163,"",,,,,,,,,,,2,,,,,
html-keyboard-response,117,151004,null,"",null,,,,,,,,,,,,,,,
math-period,118,152497,2629.399999976158,"",,,,,,,,,,,3,,,,,
html-keyboard-response,119,152606,null,"",null,,,,,,,,,,,,,,,
math-period,120,154197,2678.100000023842,"",,,,,,,,,,,4,,,,,
html-keyboard-response,121,154299,null,"",null,,,,,,,,,,,,,,,
math-period,122,157005,8822.800000190735,"",,,,,,,,,,,5,,,,,
html-keyboard-response,123,157107,null,"",null,,,,,,,,,,,,,,,
math-period,124,157267,null,"",,,,,,,,,,,,,,,,
html-keyboard-response,125,158280,null,"Recall Period!",null,,,,,,,,,,,,,,,
call-function,126,158281,,"",,,,,,,,,,,,,,,,
html-keyboard-response,127,158391,null,"",null,,,,,,,,,,,,,,,
recall-period,128,161770,3377.600000023842,"",,,,,,,,,,,,,,,,
html-keyboard-response,129,161870,null,"",null,,,,,,,,,,,,,,,
recall-period,130,164665,20513.60000026226,"",,,,,,,,,,,beautiful,,,,,
html-keyboard-response,131,164777,null,"",null,,,,,,,,,,,,,,,
recall-period,132,167205,11717.600000143051,"",,,,,,,,,,,happy,,,,,
html-keyboard-response,133,167306,null,"",null,,,,,,,,,,,,,,,
recall-period,134,170830,31054.60000014305,"",,,,,,,,,,,entertaining,,,,,
html-keyboard-response,135,170947,null,"",null,,,,,,,,,,,,,,,
recall-period,136,183745,73534.30000007153,"",,,,,,,,,,,smart,,,,,
html-keyboard-response,137,183859,null,"",null,,,,,,,,,,,,,,,
recall-period,138,211173,158431.0000001192,"",,,,,,,,,,,tired,,,,,
html-keyboard-response,139,211285,null,"",null,,,,,,,,,,,,,,,
recall-period,140,233296,null,"",,,,,,,,,,,,,,,,
html-keyboard-response,141,233802,null,"Time's Up!",null,,,,,,,,,,,,,,,
html-keyboard-response,142,237110,3306.7000000476837,"<p>We will now begin the experiment!<p><p>Please try to remember all words from each list.<p><p>Press the spacebar whenever you see a GREEN square.<p><p><p><p>Press the spacebar to begin.</p>",32,,,,,,,,,,,,,,,
html-keyboard-response,143,240905,3292.3000000715256,"<div style=""font-size:48px;"">Press any key to begin list 1 of 16 </div>",32,,,,,,,,,,,,,,,
html-keyboard-response,144,243423,null,"<div style=""font-size:60px;"">+</div>",null,,,,,,,,,,,,,,,
html-keyboard-response,145,243628,null,"<div style=""font-size:42px;"">PIRATE</div><img id = ""stim"" ><div class = green_square id = topsquare></div>",null,encoding,word_square,,,1,topsquare,32,true,,,PIRATE,0,,,
html-keyboard-response,146,243931,260.5,"<div style=""font-size:42px;"">PIRATE</div>",32,,word,PIRATE,,,,,,,,,,,,
html-keyboard-response,147,245434,null,"",null,,word,PIRATE,,,,,,,,,,,,
html-keyboard-response,148,245638,null,"<div style=""font-size:42px;"">SHELTER</div><img id = ""stim"" ><div class = red_square id = bottomsquare></div>",null,encoding,word_square,,,0,bottomsquare,none,false,,,SHELTER,0,,,
html-keyboard-response,149,245955,null,"<div style=""font-size:42px;"">SHELTER</div>",null,,word,SHELTER,,,,,,,,,,,,
html-keyboard-response,150,247464,273.40000009536743,"",32,,word,SHELTER,,,,,,,,,,,,
html-keyboard-response,151,247667,null,"<div style=""font-size:42px;"">WOLF</div><img id = ""stim"" ><div class = red_square id = topsquare></div>",null,encoding,word_square,,,0,topsquare,none,true,,,WOLF,0,,,
html-keyboard-response,152,247971,null,"<div style=""font-size:42px;"">WOLF</div>",null,,word,WOLF,,,,,,,,,,,,
html-keyboard-response,153,249486,null,"",null,,word,WOLF,,,,,,,,,,,,
html-keyboard-response,154,249690,null,"<div style=""font-size:42px;"">CLOUD</div><img id = ""stim"" ><div class = green_square id = bottomsquare></div>",null,encoding,word_square,,,1,bottomsquare,32,true,,,CLOUD,0,,,
html-keyboard-response,155,249991,null,"<div style=""font-size:42px;"">CLOUD</div>",null,,word,CLOUD,,,,,,,,,,,,
html-keyboard-response,156,251501,77.39999997615814,"",32,,word,CLOUD,,,,,,,,,,,,
html-keyboard-response,157,251708,null,"<div style=""font-size:42px;"">COMET</div><img id = ""stim"" ><div class = green_square id = topsquare></div>",null,encoding,word_square,,,1,topsquare,32,true,,,COMET,0,,,
html-keyboard-response,158,252011,228.20000004768372,"<div style=""font-size:42px;"">COMET</div>",32,,word,COMET,,,,,,,,,,,,
html-keyboard-response,159,253520,null,"",null,,word,COMET,,,,,,,,,,,,
html-keyboard-response,160,253723,null,"<div style=""font-size:42px;"">JAR</div><img id = ""stim"" ><div class = red_square id = bottomsquare></div>",null,encoding,word_square,,,0,bottomsquare,none,true,,,JAR,0,,,
html-keyboard-response,161,254039,null,"<div style=""font-size:42px;"">JAR</div>",null,,word,JAR,,,,,,,,,,,,
html-keyboard-response,162,255544,null,"",null,,word,JAR,,,,,,,,,,,,
html-keyboard-response,163,255752,null,"<div style=""font-size:42px;"">BEAVER</div><img id = ""stim"" ><div class = red_square id = topsquare></div>",null,encoding,word_square,,,0,topsquare,none,true,,,BEAVER,0,,,
html-keyboard-response,164,256068,null,"<div style=""font-size:42px;"">BEAVER</div>",null,,word,BEAVER,,,,,,,,,,,,
html-keyboard-response,165,257572,null,"",null,,word,BEAVER,,,,,,,,,,,,
html-keyboard-response,166,257776,null,"<div style=""font-size:42px;"">WASHER</div><img id = ""stim"" ><div class = green_square id = bottomsquare></div>",null,encoding,word_square,,,1,bottomsquare,32,true,,,WASHER,0,,,
html-keyboard-response,167,258079,179.90000009536743,"<div style=""font-size:42px;"">WASHER</div>",32,,word,WASHER,,,,,,,,,,,,
html-keyboard-response,168,259593,null,"",null,,word,WASHER,,,,,,,,,,,,
html-keyboard-response,169,259796,null,"<div style=""font-size:42px;"">SWAMP</div><img id = ""stim"" ><div class = red_square id = bottomsquare></div>",null,encoding,word_square,,,0,bottomsquare,none,true,,,SWAMP,0,,,
html-keyboard-response,170,260098,null,"<div style=""font-size:42px;"">SWAMP</div>",null,,word,SWAMP,,,,,,,,,,,,
html-keyboard-response,171,261602,null,"",null,,word,SWAMP,,,,,,,,,,,,
html-keyboard-response,172,261805,null,"<div style=""font-size:42px;"">COOKBOOK</div><img id = ""stim"" ><div class = green_square id = topsquare></div>",null,encoding,word_square,,,1,topsquare,32,true,,,COOKBOOK,0,,,
html-keyboard-response,173,262107,119.69999992847443,"<div style=""font-size:42px;"">COOKBOOK</div>",32,,word,COOKBOOK,,,,,,,,,,,,
html-keyboard-response,174,263623,null,"",null,,word,COOKBOOK,,,,,,,,,,,,
html-keyboard-response,175,263824,null,"<div style=""font-size:42px;"">TURTLE</div><img id = ""stim"" ><div class = red_square id = topsquare></div>",null,encoding,word_square,,,0,topsquare,none,true,,,TURTLE,0,,,
html-keyboard-response,176,264136,null,"<div style=""font-size:42px;"">TURTLE</div>",null,,word,TURTLE,,,,,,,,,,,,
html-keyboard-response,177,265638,null,"",null,,word,TURTLE,,,,,,,,,,,,
html-keyboard-response,178,265840,null,"<div style=""font-size:42px;"">SLUG</div><img id = ""stim"" ><div class = red_square id = bottomsquare></div>",null,encoding,word_square,,,0,bottomsquare,none,true,,,SLUG,0,,,
html-keyboard-response,179,266156,null,"<div style=""font-size:42px;"">SLUG</div>",null,,word,SLUG,,,,,,,,,,,,
html-keyboard-response,180,267670,null,"",null,,word,SLUG,,,,,,,,,,,,
html-keyboard-response,181,267874,null,"<div style=""font-size:42px;"">CURTAIN</div><img id = ""stim"" ><div class = green_square id = bottomsquare></div>",null,encoding,word_square,,,1,bottomsquare,32,true,,,CURTAIN,0,,,
html-keyboard-response,182,268191,170.30000007152557,"<div style=""font-size:42px;"">CURTAIN</div>",32,,word,CURTAIN,,,,,,,,,,,,
html-keyboard-response,183,269704,null,"",null,,word,CURTAIN,,,,,,,,,,,,
html-keyboard-response,184,269907,null,"<div style=""font-size:42px;"">IDOL</div><img id = ""stim"" ><div class = green_square id = topsquare></div>",null,encoding,word_square,,,1,topsquare,32,true,,,IDOL,0,,,
html-keyboard-response,185,270222,237.10000002384186,"<div style=""font-size:42px;"">IDOL</div>",32,,word,IDOL,,,,,,,,,,,,
html-keyboard-response,186,271722,null,"",null,,word,IDOL,,,,,,,,,,,,
html-keyboard-response,187,271930,null,"<div style=""font-size:42px;"">HANDCUFFS</div><img id = ""stim"" ><div class = red_square id = topsquare></div>",null,encoding,word_square,,,0,topsquare,none,true,,,HANDCUFFS,0,,,
html-keyboard-response,188,272232,null,"<div style=""font-size:42px;"">HANDCUFFS</div>",null,,word,HANDCUFFS,,,,,,,,,,,,
html-keyboard-response,189,273733,null,"",null,,word,HANDCUFFS,,,,,,,,,,,,
html-keyboard-response,190,273938,null,"<div style=""font-size:42px;"">ZIPPER</div><img id = ""stim"" ><div class = green_square id = bottomsquare></div>",null,encoding,word_square,,,1,bottomsquare,32,true,,,ZIPPER,0,,,
html-keyboard-response,191,274252,106.69999992847443,"<div style=""font-size:42px;"">ZIPPER</div>",32,,word,ZIPPER,,,,,,,,,,,,
html-keyboard-response,192,275757,null,"",null,,word,ZIPPER,,,,,,,,,,,,
call-function,193,275757,,"",,,,,,,,,,,,,,,,
html-keyboard-response,194,275858,null,"",null,,,,,,,,,,,,,,,
math-period,195,280081,12701.400000095367,"",,,,,,,,,,,4numpa4,,,,,
html-keyboard-response,196,280186,null,"",null,,,,,,,,,,,,,,,
math-period,197,282625,4596.199999928474,"",,,,,,,,,,,1,,,,,
html-keyboard-response,198,282731,null,"",null,,,,,,,,,,,,,,,
math-period,199,285649,5610.000000119209,"",,,,,,,,,,,2,,,,,
html-keyboard-response,200,285753,null,"",null,,,,,,,,,,,,,,,
math-period,201,287309,2758.0999999046326,"",,,,,,,,,,,5,,,,,
html-keyboard-response,202,287425,null,"",null,,,,,,,,,,,,,,,
math-period,203,290553,5987.299999952316,"",,,,,,,,,,,2,,,,,
html-keyboard-response,204,290668,null,"",null,,,,,,,,,,,,,,,
math-period,205,291809,2024.2999999523163,"",,,,,,,,,,,4,,,,,
html-keyboard-response,206,291912,null,"",null,,,,,,,,,,,,,,,
math-period,207,292925,1864.2999999523163,"",,,,,,,,,,,4,,,,,
html-keyboard-response,208,293036,null,"",null,,,,,,,,,,,,,,,
math-period,209,296477,6552.100000143051,"",,,,,,,,,,,2,,,,,
html-keyboard-response,210,296578,null,"",null,,,,,,,,,,,,,,,
math-period,211,298609,3780.399999856949,"",,,,,,,,,,,2,,,,,
html-keyboard-response,212,298712,null,"",null,,,,,,,,,,,,,,,
math-period,213,299773,null,"",,,,,,,,,,,,,,,,
html-keyboard-response,214,300784,null,"Recall Period!",null,,,,,,,,,,,,,,,
call-function,215,300785,,"",,,,,,,,,,,,,,,,
html-keyboard-response,216,300885,null,"",null,,,,,,,,,,,,,,,
recall-period,217,303518,13209.300000071526,"",,,,,,,,,,,pirate,,,,,
html-keyboard-response,218,303621,null,"",null,,,,,,,,,,,,,,,
recall-period,219,305694,10545.099999308586,"",,,,,,,,,,,cookbook,,,,,
html-keyboard-response,220,305796,null,"",null,,,,,,,,,,,,,,,
recall-period,221,307030,5675.000000238419,"",,,,,,,,,,,zipper,,,,,
html-keyboard-response,222,307137,null,"",null,,,,,,,,,,,,,,,
recall-period,223,309718,12020.999999403954,"",,,,,,,,,,,handcuffs,,,,,
html-keyboard-response,224,309819,null,"",null,,,,,,,,,,,,,,,
recall-period,225,311822,7757.900000095367,"",,,,,,,,,,,idol,,,,,
html-keyboard-response,226,311928,null,"",null,,,,,,,,,,,,,,,
recall-period,227,320262,81902.89999985695,"",,,,,,,,,,,curtains,,,,,
html-keyboard-response,228,320370,null,"",null,,,,,,,,,,,,,,,
recall-period,229,323622,12817.600000023842,"",,,,,,,,,,,slug,,,,,
html-keyboard-response,230,323731,null,"",null,,,,,,,,,,,,,,,
recall-period,231,375799,null,"",,,,,,,,,,,,,,,,
html-keyboard-response,232,376306,null,"Time's Up!",null,,,,,,,,,,,,,,,
html-keyboard-response,233,379338,3030.899999976158,"<p> Good job! You have responded correctly to 94% of the trials. </p>
                      <p>Be sure to only press the spacebar if you see a GREEN square, and please keep your accuracy above 80%.</p>
                      <p> Press any key to continue the experiment. </p>",32,,,,,,,,,,,,,,,
html-keyboard-response,234,385502,6163.5,"<div style=""font-size:48px;"">Press any key to begin list 2 of 16 </div>",32,,,,,,,,,,,,,,,
html-keyboard-response,235,388027,null,"<div style=""font-size:60px;"">+</div>",null,,,,,,,,,,,,,,,
html-keyboard-response,236,388234,null,"<div style=""font-size:42px;"">SALMON</div><img id = ""stim"" ><div class = green_square id = bottomsquare></div>",null,encoding,word_square,,,1,bottomsquare,32,true,,,SALMON,1,,,
html-keyboard-response,237,388537,230.89999997615814,"<div style=""font-size:42px;"">SALMON</div>",32,,word,SALMON,,,,,,,,,,,,
html-keyboard-response,238,390054,null,"",null,,word,SALMON,,,,,,,,,,,,
html-keyboard-response,239,390261,null,"<div style=""font-size:42px;"">TAXI</div><img id = ""stim"" ><div class = red_square id = topsquare></div>",null,encoding,word_square,,,0,topsquare,none,true,,,TAXI,1,,,
html-keyboard-response,240,390562,null,"<div style=""font-size:42px;"">TAXI</div>",null,,word,TAXI,,,,,,,,,,,,
html-keyboard-response,241,392069,null,"",null,,word,TAXI,,,,,,,,,,,,
html-keyboard-response,242,392276,null,"<div style=""font-size:42px;"">RUST</div><img id = ""stim"" ><div class = green_square id = topsquare></div>",null,encoding,word_square,,,1,topsquare,32,true,,,RUST,1,,,
html-keyboard-response,243,392592,256.5,"<div style=""font-size:42px;"">RUST</div>",32,,word,RUST,,,,,,,,,,,,
html-keyboard-response,244,394098,null,"",null,,word,RUST,,,,,,,,,,,,
html-keyboard-response,245,394303,null,"<div style=""font-size:42px;"">BRICK</div><img id = ""stim"" ><div class = green_square id = bottomsquare></div>",null,encoding,word_square,,,1,bottomsquare,32,true,,,BRICK,1,,,
html-keyboard-response,246,394616,250.20000004768372,"<div style=""font-size:42px;"">BRICK</div>",32,,word,BRICK,,,,,,,,,,,,
html-keyboard-response,247,396126,null,"",null,,word,BRICK,,,,,,,,,,,,
html-keyboard-response,248,396330,null,"<div style=""font-size:42px;"">CORAL</div><img id = ""stim"" ><div class = red_square id = bottomsquare></div>",null,encoding,word_square,,,0,bottomsquare,none,true,,,CORAL,1,,,
html-keyboard-response,249,396634,null,"<div style=""font-size:42px;"">CORAL</div>",null,,word,CORAL,,,,,,,,,,,,
html-keyboard-response,250,398143,null,"",null,,word,CORAL,,,,,,,,,,,,
html-keyboard-response,251,398352,null,"<div style=""font-size:42px;"">ATTIRE</div><img id = ""stim"" ><div class = red_square id = topsquare></div>",null,encoding,word_square,,,0,topsquare,none,true,,,ATTIRE,1,,,
html-keyboard-response,252,398668,null,"<div style=""font-size:42px;"">ATTIRE</div>",null,,word,ATTIRE,,,,,,,,,,,,
html-keyboard-response,253,400169,null,"",null,,word,ATTIRE,,,,,,,,,,,,
html-keyboard-response,254,400375,null,"<div style=""font-size:42px;"">CRACKER</div><img id = ""stim"" ><div class = green_square id = topsquare></div>",null,encoding,word_square,,,1,topsquare,32,true,,,CRACKER,1,,,
html-keyboard-response,255,400689,145.40000009536743,"<div style=""font-size:42px;"">CRACKER</div>",32,,word,CRACKER,,,,,,,,,,,,
html-keyboard-response,256,402196,null,"",null,,word,CRACKER,,,,,,,,,,,,
html-keyboard-response,257,402398,null,"<div style=""font-size:42px;"">LETTER</div><img id = ""stim"" ><div class = red_square id = bottomsquare></div>",null,encoding,word_square,,,0,bottomsquare,none,true,,,LETTER,1,,,
html-keyboard-response,258,402709,null,"<div style=""font-size:42px;"">LETTER</div>",null,,word,LETTER,,,,,,,,,,,,
html-keyboard-response,259,404221,null,"",null,,word,LETTER,,,,,,,,,,,,
html-keyboard-response,260,404426,null,"<div style=""font-size:42px;"">BOYFRIEND</div><img id = ""stim"" ><div class = green_square id = bottomsquare></div>",null,encoding,word_square,,,1,bottomsquare,32,true,,,BOYFRIEND,1,,,
html-keyboard-response,261,404727,166.79999995231628,"<div style=""font-size:42px;"">BOYFRIEND</div>",32,,word,BOYFRIEND,,,,,,,,,,,,
html-keyboard-response,262,406230,null,"",null,,word,BOYFRIEND,,,,,,,,,,,,
html-keyboard-response,263,406433,null,"<div style=""font-size:42px;"">FLUTE</div><img id = ""stim"" ><div class = red_square id = topsquare></div>",null,encoding,word_square,,,0,topsquare,none,true,,,FLUTE,1,,,
html-keyboard-response,264,406749,null,"<div style=""font-size:42px;"">FLUTE</div>",null,,word,FLUTE,,,,,,,,,,,,
html-keyboard-response,265,408265,null,"",null,,word,FLUTE,,,,,,,,,,,,
html-keyboard-response,266,408468,null,"<div style=""font-size:42px;"">BANJO</div><img id = ""stim"" ><div class = red_square id = bottomsquare></div>",null,encoding,word_square,,,0,bottomsquare,none,true,,,BANJO,1,,,
html-keyboard-response,267,408771,null,"<div style=""font-size:42px;"">BANJO</div>",null,,word,BANJO,,,,,,,,,,,,
html-keyboard-response,268,410282,null,"",null,,word,BANJO,,,,,,,,,,,,
html-keyboard-response,269,410487,null,"<div style=""font-size:42px;"">RIVER</div><img id = ""stim"" ><div class = green_square id = topsquare></div>",null,encoding,word_square,,,1,topsquare,32,true,,,RIVER,1,,,
html-keyboard-response,270,410803,146.29999995231628,"<div style=""font-size:42px;"">RIVER</div>",32,,word,RIVER,,,,,,,,,,,,
html-keyboard-response,271,412307,null,"",null,,word,RIVER,,,,,,,,,,,,
html-keyboard-response,272,412512,null,"<div style=""font-size:42px;"">FOSSIL</div><img id = ""stim"" ><div class = green_square id = bottomsquare></div>",null,encoding,word_square,,,1,bottomsquare,32,true,,,FOSSIL,1,,,
html-keyboard-response,273,412828,149.20000004768372,"<div style=""font-size:42px;"">FOSSIL</div>",32,,word,FOSSIL,,,,,,,,,,,,
html-keyboard-response,274,414334,null,"",null,,word,FOSSIL,,,,,,,,,,,,
html-keyboard-response,275,414539,null,"<div style=""font-size:42px;"">FRAGRANCE</div><img id = ""stim"" ><div class = red_square id = topsquare></div>",null,encoding,word_square,,,0,topsquare,none,true,,,FRAGRANCE,1,,,
html-keyboard-response,276,414856,null,"<div style=""font-size:42px;"">FRAGRANCE</div>",null,,word,FRAGRANCE,,,,,,,,,,,,
html-keyboard-response,277,416366,null,"",null,,word,FRAGRANCE,,,,,,,,,,,,
html-keyboard-response,278,416573,null,"<div style=""font-size:42px;"">CABIN</div><img id = ""stim"" ><div class = red_square id = bottomsquare></div>",null,encoding,word_square,,,0,bottomsquare,none,true,,,CABIN,1,,,
html-keyboard-response,279,416874,null,"<div style=""font-size:42px;"">CABIN</div>",null,,word,CABIN,,,,,,,,,,,,
html-keyboard-response,280,418391,null,"",null,,word,CABIN,,,,,,,,,,,,
html-keyboard-response,281,418597,null,"<div style=""font-size:42px;"">BOXER</div><img id = ""stim"" ><div class = green_square id = topsquare></div>",null,encoding,word_square,,,1,topsquare,32,true,,,BOXER,1,,,
html-keyboard-response,282,418912,147.70000004768372,"<div style=""font-size:42px;"">BOXER</div>",32,,word,BOXER,,,,,,,,,,,,
html-keyboard-response,283,420429,null,"",null,,word,BOXER,,,,,,,,,,,,
call-function,284,420429,,"",,,,,,,,,,,,,,,,
html-keyboard-response,285,420539,null,"",null,,,,,,,,,,,,,,,
math-period,286,422722,3993.1999999284744,"",,,,,,,,,,,1,,,,,
html-keyboard-response,287,422833,null,"",null,,,,,,,,,,,,,,,
math-period,288,425430,4863.899999976158,"",,,,,,,,,,,3,,,,,
html-keyboard-response,289,425532,null,"",null,,,,,,,,,,,,,,,
math-period,290,426566,1906.2999999523163,"",,,,,,,,,,,4,,,,,
html-keyboard-response,291,426680,null,"",null,,,,,,,,,,,,,,,
math-period,292,428270,3006.899999976158,"",,,,,,,,,,,2,,,,,
html-keyboard-response,293,428372,null,"",null,,,,,,,,,,,,,,,
math-period,294,429446,1957.5000001192093,"",,,,,,,,,,,3,,,,,
html-keyboard-response,295,429548,null,"",null,,,,,,,,,,,,,,,
math-period,296,432886,5130.800000071526,"",,,,,,,,,,,5,,,,,
html-keyboard-response,297,433002,null,"",null,,,,,,,,,,,,,,,
math-period,298,433006,3,"",,,,,,,,,,,,,,,,
html-keyboard-response,299,433111,null,"",null,,,,,,,,,,,,,,,
math-period,300,434158,1927.6999999284744,"",,,,,,,,,,,3,,,,,
html-keyboard-response,301,434261,null,"",null,,,,,,,,,,,,,,,
math-period,302,435498,2275.4000000953674,"",,,,,,,,,,,5,,,,,
html-keyboard-response,303,435608,null,"",null,,,,,,,,,,,,,,,
math-period,304,437926,4378,"",,,,,,,,,,,3,,,,,
html-keyboard-response,305,438029,null,"",null,,,,,,,,,,,,,,,
math-period,306,441226,6224.400000095367,"",,,,,,,,,,,1,,,,,
html-keyboard-response,307,441330,null,"",null,,,,,,,,,,,,,,,
math-period,308,442730,2645.6999999284744,"",,,,,,,,,,,4,,,,,
html-keyboard-response,309,442844,null,"",null,,,,,,,,,,,,,,,
math-period,310,444442,1437.1000000238419,"",,,,,,,,,,,5,,,,,
html-keyboard-response,311,445456,null,"Recall Period!",null,,,,,,,,,,,,,,,
call-function,312,445456,,"",,,,,,,,,,,,,,,,
html-keyboard-response,313,445566,null,"",null,,,,,,,,,,,,,,,
recall-period,314,448130,13275.400000452995,"",,,,,,,,,,,fossil,,,,,
html-keyboard-response,315,448237,null,"",null,,,,,,,,,,,,,,,
recall-period,316,451254,14169.800000071526,"",,,,,,,,,,,cabin,,,,,
html-keyboard-response,317,451366,null,"",null,,,,,,,,,,,,,,,
recall-period,318,452606,5093.300000309944,"",,,,,,,,,,,cracker,,,,,
html-keyboard-response,319,452707,null,"",null,,,,,,,,,,,,,,,
recall-period,320,454990,11914.800000071526,"",,,,,,,,,,,salmon,,,,,
html-keyboard-response,321,455105,null,"",null,,,,,,,,,,,,,,,
recall-period,322,466070,51218.200000047684,"",,,,,,,,,,,rust,,,,,
html-keyboard-response,323,466177,null,"",null,,,,,,,,,,,,,,,
recall-period,324,520470,null,"",,,,,,,,,,,,,,,,
html-keyboard-response,325,520973,null,"Time's Up!",null,,,,,,,,,,,,,,,
html-keyboard-response,326,522882,1908.4000000953674,"<p> Good job! You have responded correctly to 97% of the trials. </p>
                      <p>Be sure to only press the spacebar if you see a GREEN square, and please keep your accuracy above 80%.</p>
                      <p> Press any key to continue the experiment. </p>",32,,,,,,,,,,,,,,,
html-keyboard-response,327,524726,1843.3000000715256,"<div style=""font-size:48px;"">Press any key to begin list 3 of 16 </div>",32,,,,,,,,,,,,,,,
html-keyboard-response,328,527249,null,"<div style=""font-size:60px;"">+</div>",null,,,,,,,,,,,,,,,
html-keyboard-response,329,527453,null,"<div style=""font-size:42px;"">DAD</div><img id = ""stim"" ><div class = red_square id = bottomsquare></div>",null,encoding,word_square,,,0,bottomsquare,none,true,,,DAD,2,,,
html-keyboard-response,330,527766,null,"<div style=""font-size:42px;"">DAD</div>",null,,word,DAD,,,,,,,,,,,,
html-keyboard-response,331,529272,null,"",null,,word,DAD,,,,,,,,,,,,
html-keyboard-response,332,529478,null,"<div style=""font-size:42px;"">FLESH</div><img id = ""stim"" ><div class = green_square id = topsquare></div>",null,encoding,word_square,,,1,topsquare,32,true,,,FLESH,2,,,
html-keyboard-response,333,529790,191.89999997615814,"<div style=""font-size:42px;"">FLESH</div>",32,,word,FLESH,,,,,,,,,,,,
html-keyboard-response,334,531298,null,"",null,,word,FLESH,,,,,,,,,,,,
html-keyboard-response,335,531502,null,"<div style=""font-size:42px;"">LANDSCAPE</div><img id = ""stim"" ><div class = green_square id = bottomsquare></div>",null,encoding,word_square,,,1,bottomsquare,32,true,,,LANDSCAPE,2,,,
html-keyboard-response,336,531810,210.80000007152557,"<div style=""font-size:42px;"">LANDSCAPE</div>",32,,word,LANDSCAPE,,,,,,,,,,,,
html-keyboard-response,337,533316,null,"",null,,word,LANDSCAPE,,,,,,,,,,,,
html-keyboard-response,338,533532,null,"<div style=""font-size:42px;"">TOURIST</div><img id = ""stim"" ><div class = red_square id = topsquare></div>",null,encoding,word_square,,,0,topsquare,none,true,,,TOURIST,2,,,
html-keyboard-response,339,533834,244.5,"<div style=""font-size:42px;"">TOURIST</div>",32,,word,TOURIST,,,,,,,,,,,,
html-keyboard-response,340,535343,null,"",null,,word,TOURIST,,,,,,,,,,,,
html-keyboard-response,341,535549,null,"<div style=""font-size:42px;"">CHICKEN</div><img id = ""stim"" ><div class = red_square id = bottomsquare></div>",null,encoding,word_square,,,0,bottomsquare,none,true,,,CHICKEN,2,,,
html-keyboard-response,342,535854,null,"<div style=""font-size:42px;"">CHICKEN</div>",null,,word,CHICKEN,,,,,,,,,,,,
html-keyboard-response,343,537356,null,"",null,,word,CHICKEN,,,,,,,,,,,,
html-keyboard-response,344,537563,null,"<div style=""font-size:42px;"">COBWEB</div><img id = ""stim"" ><div class = green_square id = topsquare></div>",null,encoding,word_square,,,1,topsquare,32,true,,,COBWEB,2,,,
html-keyboard-response,345,537865,218.69999992847443,"<div style=""font-size:42px;"">COBWEB</div>",32,,word,COBWEB,,,,,,,,,,,,
html-keyboard-response,346,539367,null,"",null,,word,COBWEB,,,,,,,,,,,,
html-keyboard-response,347,539575,null,"<div style=""font-size:42px;"">KETCHUP</div><img id = ""stim"" ><div class = green_square id = bottomsquare></div>",null,encoding,word_square,,,1,bottomsquare,32,true,,,KETCHUP,2,,,
html-keyboard-response,348,539892,201.89999997615814,"<div style=""font-size:42px;"">KETCHUP</div>",32,,word,KETCHUP,,,,,,,,,,,,
html-keyboard-response,349,541393,null,"",null,,word,KETCHUP,,,,,,,,,,,,
html-keyboard-response,350,541598,null,"<div style=""font-size:42px;"">RELISH</div><img id = ""stim"" ><div class = red_square id = topsquare></div>",null,encoding,word_square,,,0,topsquare,none,true,,,RELISH,2,,,
html-keyboard-response,351,541900,null,"<div style=""font-size:42px;"">RELISH</div>",null,,word,RELISH,,,,,,,,,,,,
html-keyboard-response,352,543417,null,"",null,,word,RELISH,,,,,,,,,,,,
html-keyboard-response,353,543623,null,"<div style=""font-size:42px;"">CABBAGE</div><img id = ""stim"" ><div class = green_square id = topsquare></div>",null,encoding,word_square,,,1,topsquare,32,true,,,CABBAGE,2,,,
html-keyboard-response,354,543937,238,"<div style=""font-size:42px;"">CABBAGE</div>",32,,word,CABBAGE,,,,,,,,,,,,
html-keyboard-response,355,545446,null,"",null,,word,CABBAGE,,,,,,,,,,,,
html-keyboard-response,356,545651,null,"<div style=""font-size:42px;"">SCALLOP</div><img id = ""stim"" ><div class = red_square id = bottomsquare></div>",null,encoding,word_square,,,0,bottomsquare,none,true,,,SCALLOP,2,,,
html-keyboard-response,357,545968,null,"<div style=""font-size:42px;"">SCALLOP</div>",null,,word,SCALLOP,,,,,,,,,,,,
html-keyboard-response,358,547470,null,"",null,,word,SCALLOP,,,,,,,,,,,,
html-keyboard-response,359,547675,null,"<div style=""font-size:42px;"">SUITCASE</div><img id = ""stim"" ><div class = green_square id = bottomsquare></div>",null,encoding,word_square,,,1,bottomsquare,32,true,,,SUITCASE,2,,,
html-keyboard-response,360,547977,null,"<div style=""font-size:42px;"">SUITCASE</div>",null,,word,SUITCASE,,,,,,,,,,,,
html-keyboard-response,361,549483,16,"",32,,word,SUITCASE,,,,,,,,,,,,
html-keyboard-response,362,549689,null,"<div style=""font-size:42px;"">DASHBOARD</div><img id = ""stim"" ><div class = green_square id = topsquare></div>",null,encoding,word_square,,,1,topsquare,32,true,,,DASHBOARD,2,,,
html-keyboard-response,363,549991,156.39999997615814,"<div style=""font-size:42px;"">DASHBOARD</div>",32,,word,DASHBOARD,,,,,,,,,,,,
html-keyboard-response,364,551497,null,"",null,,word,DASHBOARD,,,,,,,,,,,,
html-keyboard-response,365,551703,null,"<div style=""font-size:42px;"">EYELASH</div><img id = ""stim"" ><div class = red_square id = topsquare></div>",null,encoding,word_square,,,0,topsquare,none,true,,,EYELASH,2,,,
html-keyboard-response,366,552015,null,"<div style=""font-size:42px;"">EYELASH</div>",null,,word,EYELASH,,,,,,,,,,,,
html-keyboard-response,367,553519,null,"",null,,word,EYELASH,,,,,,,,,,,,
html-keyboard-response,368,553722,null,"<div style=""font-size:42px;"">FRECKLE</div><img id = ""stim"" ><div class = red_square id = bottomsquare></div>",null,encoding,word_square,,,0,bottomsquare,none,true,,,FRECKLE,2,,,
html-keyboard-response,369,554039,null,"<div style=""font-size:42px;"">FRECKLE</div>",null,,word,FRECKLE,,,,,,,,,,,,
html-keyboard-response,370,555545,null,"",null,,word,FRECKLE,,,,,,,,,,,,
html-keyboard-response,371,555748,null,"<div style=""font-size:42px;"">INFANT</div><img id = ""stim"" ><div class = green_square id = bottomsquare></div>",null,encoding,word_square,,,1,bottomsquare,32,true,,,INFANT,2,,,
html-keyboard-response,372,556058,145.10000002384186,"<div style=""font-size:42px;"">INFANT</div>",32,,word,INFANT,,,,,,,,,,,,
html-keyboard-response,373,557563,null,"",null,,word,INFANT,,,,,,,,,,,,
html-keyboard-response,374,557767,null,"<div style=""font-size:42px;"">HAMPER</div><img id = ""stim"" ><div class = red_square id = topsquare></div>",null,encoding,word_square,,,0,topsquare,none,true,,,HAMPER,2,,,
html-keyboard-response,375,558068,null,"<div style=""font-size:42px;"">HAMPER</div>",null,,word,HAMPER,,,,,,,,,,,,
html-keyboard-response,376,559582,null,"",null,,word,HAMPER,,,,,,,,,,,,
call-function,377,559584,,"",,,,,,,,,,,,,,,,
html-keyboard-response,378,559693,null,"",null,,,,,,,,,,,,,,,
math-period,379,563686,7661.500000119209,"",,,,,,,,,,,0,,,,,
html-keyboard-response,380,563799,null,"",null,,,,,,,,,,,,,,,
math-period,381,565170,2412.5999999046326,"",,,,,,,,,,,2,,,,,
html-keyboard-response,382,565271,null,"",null,,,,,,,,,,,,,,,
math-period,383,566586,2300.2999999523163,"",,,,,,,,,,,4,,,,,
html-keyboard-response,384,566701,null,"",null,,,,,,,,,,,,,,,
math-period,385,568234,2869.5999999046326,"",,,,,,,,,,,3,,,,,
html-keyboard-response,386,568342,null,"",null,,,,,,,,,,,,,,,
math-period,387,569362,1796,"",,,,,,,,,,,3,,,,,
html-keyboard-response,388,569465,null,"",null,,,,,,,,,,,,,,,
math-period,389,572554,5685.299999833107,"",,,,,,,,,,,1,,,,,
html-keyboard-response,390,572656,null,"",null,,,,,,,,,,,,,,,
math-period,391,575202,4815.300000071526,"",,,,,,,,,,,2,,,,,
html-keyboard-response,392,575315,null,"",null,,,,,,,,,,,,,,,
math-period,393,577626,4321.299999833107,"",,,,,,,,,,,0,,,,,
html-keyboard-response,394,577732,null,"",null,,,,,,,,,,,,,,,
math-period,395,579414,3127.6999999284744,"",,,,,,,,,,,0,,,,,
html-keyboard-response,396,579518,null,"",null,,,,,,,,,,,,,,,
math-period,397,581114,2926.899999976158,"",,,,,,,,,,,5,,,,,
html-keyboard-response,398,581226,null,"",null,,,,,,,,,,,,,,,
math-period,399,582242,1858.3999998569489,"",,,,,,,,,,,3,,,,,
html-keyboard-response,400,582344,null,"",null,,,,,,,,,,,,,,,
math-period,401,583596,null,"",,,,,,,,,,,,,,,,
html-keyboard-response,402,584598,null,"Recall Period!",null,,,,,,,,,,,,,,,
call-function,403,584599,,"",,,,,,,,,,,,,,,,
html-keyboard-response,404,584708,null,"",null,,,,,,,,,,,,,,,
recall-period,405,586014,3705.4999998807907,"",,,,,,,,,,,dad,,,,,
html-keyboard-response,406,586129,null,"",null,,,,,,,,,,,,,,,
recall-period,407,590790,49712.199999928474,"",,,,,,,,,,,flesh,,,,,
html-keyboard-response,408,590893,null,"",null,,,,,,,,,,,,,,,
recall-period,409,593390,10931.49999988079,"",,,,,,,,,,,hamper,,,,,
html-keyboard-response,410,593500,null,"",null,,,,,,,,,,,,,,,
recall-period,411,596682,20352.29999911785,"",,,,,,,,,,,scallop,,,,,
html-keyboard-response,412,596792,null,"",null,,,,,,,,,,,,,,,
recall-period,413,598662,7810.099999547005,"",,,,,,,,,,,ketchup,,,,,
html-keyboard-response,414,598766,null,"",null,,,,,,,,,,,,,,,
recall-period,415,600130,4412.199999928474,"",,,,,,,,,,,relish,,,,,
html-keyboard-response,416,600239,null,"",null,,,,,,,,,,,,,,,
recall-period,417,659602,null,"",,,,,,,,,,,,,,,,
html-keyboard-response,418,660105,null,"Time's Up!",null,,,,,,,,,,,,,,,
html-keyboard-response,419,666066,5960.5,"<p> Good job! You have responded correctly to 98% of the trials. </p>
                      <p>Be sure to only press the spacebar if you see a GREEN square, and please keep your accuracy above 80%.</p>
                      <p> Press any key to continue the experiment. </p>",32,,,,,,,,,,,,,,,
html-keyboard-response,420,667174,1107.1000000238419,"<div style=""font-size:48px;"">Press any key to begin list 4 of 16 </div>",32,,,,,,,,,,,,,,,
html-keyboard-response,421,669685,null,"<div style=""font-size:60px;"">+</div>",null,,,,,,,,,,,,,,,
html-keyboard-response,422,669893,null,"<div style=""font-size:42px;"">FLIPPER</div><img id = ""stim"" ><div class = red_square id = topsquare></div>",null,encoding,word_square,,,0,topsquare,none,true,,,FLIPPER,3,,,
html-keyboard-response,423,670196,null,"<div style=""font-size:42px;"">FLIPPER</div>",null,,word,FLIPPER,,,,,,,,,,,,
html-keyboard-response,424,671702,null,"",null,,word,FLIPPER,,,,,,,,,,,,
html-keyboard-response,425,671904,null,"<div style=""font-size:42px;"">YARD</div><img id = ""stim"" ><div class = green_square id = bottomsquare></div>",null,encoding,word_square,,,1,bottomsquare,32,true,,,YARD,3,,,
html-keyboard-response,426,672205,225.39999997615814,"<div style=""font-size:42px;"">YARD</div>",32,,word,YARD,,,,,,,,,,,,
html-keyboard-response,427,673717,null,"",null,,word,YARD,,,,,,,,,,,,
html-keyboard-response,428,673925,null,"<div style=""font-size:42px;"">CLAMP</div><img id = ""stim"" ><div class = red_square id = bottomsquare></div>",null,encoding,word_square,,,0,bottomsquare,none,true,,,CLAMP,3,,,
html-keyboard-response,429,674229,null,"<div style=""font-size:42px;"">CLAMP</div>",null,,word,CLAMP,,,,,,,,,,,,
html-keyboard-response,430,675732,null,"",null,,word,CLAMP,,,,,,,,,,,,
html-keyboard-response,431,675937,null,"<div style=""font-size:42px;"">PEPPER</div><img id = ""stim"" ><div class = red_square id = topsquare></div>",null,encoding,word_square,,,0,topsquare,none,true,,,PEPPER,3,,,
html-keyboard-response,432,676240,null,"<div style=""font-size:42px;"">PEPPER</div>",null,,word,PEPPER,,,,,,,,,,,,
html-keyboard-response,433,677744,null,"",null,,word,PEPPER,,,,,,,,,,,,
html-keyboard-response,434,677949,null,"<div style=""font-size:42px;"">PARCEL</div><img id = ""stim"" ><div class = green_square id = topsquare></div>",null,encoding,word_square,,,1,topsquare,32,true,,,PARCEL,3,,,
html-keyboard-response,435,678250,148.60000002384186,"<div style=""font-size:42px;"">PARCEL</div>",32,,word,PARCEL,,,,,,,,,,,,
html-keyboard-response,436,679753,null,"",null,,word,PARCEL,,,,,,,,,,,,
html-keyboard-response,437,679961,null,"<div style=""font-size:42px;"">CLIFF</div><img id = ""stim"" ><div class = green_square id = bottomsquare></div>",null,encoding,word_square,,,1,bottomsquare,32,true,,,CLIFF,3,,,
html-keyboard-response,438,680264,272.10000002384186,"<div style=""font-size:42px;"">CLIFF</div>",32,,word,CLIFF,,,,,,,,,,,,
html-keyboard-response,439,681770,null,"",null,,word,CLIFF,,,,,,,,,,,,
html-keyboard-response,440,681976,null,"<div style=""font-size:42px;"">SKUNK</div><img id = ""stim"" ><div class = red_square id = bottomsquare></div>",null,encoding,word_square,,,0,bottomsquare,none,true,,,SKUNK,3,,,
html-keyboard-response,441,682288,null,"<div style=""font-size:42px;"">SKUNK</div>",null,,word,SKUNK,,,,,,,,,,,,
html-keyboard-response,442,683791,null,"",null,,word,SKUNK,,,,,,,,,,,,
html-keyboard-response,443,684000,null,"<div style=""font-size:42px;"">POSSUM</div><img id = ""stim"" ><div class = green_square id = topsquare></div>",null,encoding,word_square,,,1,topsquare,32,true,,,POSSUM,3,,,
html-keyboard-response,444,684303,133.80000007152557,"<div style=""font-size:42px;"">POSSUM</div>",32,,word,POSSUM,,,,,,,,,,,,
html-keyboard-response,445,685819,null,"",null,,word,POSSUM,,,,,,,,,,,,
html-keyboard-response,446,686026,null,"<div style=""font-size:42px;"">SUGAR</div><img id = ""stim"" ><div class = red_square id = topsquare></div>",null,encoding,word_square,,,0,topsquare,none,true,,,SUGAR,3,,,
html-keyboard-response,447,686329,null,"<div style=""font-size:42px;"">SUGAR</div>",null,,word,SUGAR,,,,,,,,,,,,
html-keyboard-response,448,687836,null,"",null,,word,SUGAR,,,,,,,,,,,,
html-keyboard-response,449,688039,null,"<div style=""font-size:42px;"">SKATE</div><img id = ""stim"" ><div class = green_square id = bottomsquare></div>",null,encoding,word_square,,,1,bottomsquare,32,true,,,SKATE,3,,,
html-keyboard-response,450,688353,110.79999995231628,"<div style=""font-size:42px;"">SKATE</div>",32,,word,SKATE,,,,,,,,,,,,
html-keyboard-response,451,689858,null,"",null,,word,SKATE,,,,,,,,,,,,
html-keyboard-response,452,690067,null,"<div style=""font-size:42px;"">TRUCK</div><img id = ""stim"" ><div class = green_square id = topsquare></div>",null,encoding,word_square,,,1,topsquare,32,true,,,TRUCK,3,,,
html-keyboard-response,453,690370,122.5,"<div style=""font-size:42px;"">TRUCK</div>",32,,word,TRUCK,,,,,,,,,,,,
html-keyboard-response,454,691876,null,"",null,,word,TRUCK,,,,,,,,,,,,
html-keyboard-response,455,692093,null,"<div style=""font-size:42px;"">HOOD</div><img id = ""stim"" ><div class = red_square id = bottomsquare></div>",null,encoding,word_square,,,0,bottomsquare,none,true,,,HOOD,3,,,
html-keyboard-response,456,692409,null,"<div style=""font-size:42px;"">HOOD</div>",null,,word,HOOD,,,,,,,,,,,,
html-keyboard-response,457,693917,null,"",null,,word,HOOD,,,,,,,,,,,,
html-keyboard-response,458,694121,null,"<div style=""font-size:42px;"">EUROPE</div><img id = ""stim"" ><div class = red_square id = topsquare></div>",null,encoding,word_square,,,0,topsquare,none,true,,,EUROPE,3,,,
html-keyboard-response,459,694438,null,"<div style=""font-size:42px;"">EUROPE</div>",null,,word,EUROPE,,,,,,,,,,,,
html-keyboard-response,460,695944,null,"",null,,word,EUROPE,,,,,,,,,,,,
html-keyboard-response,461,696150,null,"<div style=""font-size:42px;"">ASIA</div><img id = ""stim"" ><div class = green_square id = bottomsquare></div>",null,encoding,word_square,,,1,bottomsquare,32,true,,,ASIA,3,,,
html-keyboard-response,462,696452,99.20000004768372,"<div style=""font-size:42px;"">ASIA</div>",32,,word,ASIA,,,,,,,,,,,,
html-keyboard-response,463,697958,null,"",null,,word,ASIA,,,,,,,,,,,,
html-keyboard-response,464,698174,null,"<div style=""font-size:42px;"">BEAST</div><img id = ""stim"" ><div class = green_square id = topsquare></div>",null,encoding,word_square,,,1,topsquare,32,true,,,BEAST,3,,,
html-keyboard-response,465,698488,99.39999997615814,"<div style=""font-size:42px;"">BEAST</div>",32,,word,BEAST,,,,,,,,,,,,
html-keyboard-response,466,699994,null,"",null,,word,BEAST,,,,,,,,,,,,
html-keyboard-response,467,700200,null,"<div style=""font-size:42px;"">SHARK</div><img id = ""stim"" ><div class = red_square id = bottomsquare></div>",null,encoding,word_square,,,0,bottomsquare,none,true,,,SHARK,3,,,
html-keyboard-response,468,700515,null,"<div style=""font-size:42px;"">SHARK</div>",null,,word,SHARK,,,,,,,,,,,,
html-keyboard-response,469,702018,null,"",null,,word,SHARK,,,,,,,,,,,,
call-function,470,702019,,"",,,,,,,,,,,,,,,,
html-keyboard-response,471,702129,null,"",null,,,,,,,,,,,,,,,
math-period,472,703850,3073.4000000953674,"",,,,,,,,,,,3,,,,,
html-keyboard-response,473,703951,null,"",null,,,,,,,,,,,,,,,
math-period,474,706830,5436.500000119209,"",,,,,,,,,,,3,,,,,
html-keyboard-response,475,706937,null,"",null,,,,,,,,,,,,,,,
math-period,476,708838,3497.9000000953674,"",,,,,,,,,,,2,,,,,
html-keyboard-response,477,708950,null,"",null,,,,,,,,,,,,,,,
math-period,478,709902,1703,"",,,,,,,,,,,4,,,,,
html-keyboard-response,479,710014,null,"",null,,,,,,,,,,,,,,,
math-period,480,713266,7653.699999928474,"",,,,,,,,,,,6,,,,,
html-keyboard-response,481,713372,null,"",null,,,,,,,,,,,,,,,
math-period,482,714234,1545.1000000238419,"",,,,,,,,,,,2,,,,,
html-keyboard-response,483,714336,null,"",null,,,,,,,,,,,,,,,
math-period,484,715246,1635.5999999046326,"",,,,,,,,,,,4,,,,,
html-keyboard-response,485,715359,null,"",null,,,,,,,,,,,,,,,
math-period,486,716170,1431.8999999761581,"",,,,,,,,,,,3,,,,,
html-keyboard-response,487,716283,null,"",null,,,,,,,,,,,,,,,
math-period,488,717386,1980.4000000953674,"",,,,,,,,,,,5,,,,,
html-keyboard-response,489,717502,null,"",null,,,,,,,,,,,,,,,
math-period,490,719626,4098.600000023842,"",,,,,,,,,,,0,,,,,
html-keyboard-response,491,719727,null,"",null,,,,,,,,,,,,,,,
math-period,492,722037,4442.600000023842,"",,,,,,,,,,,1,,,,,
html-keyboard-response,493,722144,null,"",null,,,,,,,,,,,,,,,
math-period,494,724290,4102.400000095367,"",,,,,,,,,,,2,,,,,
html-keyboard-response,495,724393,null,"",null,,,,,,,,,,,,,,,
math-period,496,725754,2564.7999999523163,"",,,,,,,,,,,1,,,,,
html-keyboard-response,497,725858,null,"",null,,,,,,,,,,,,,,,
math-period,498,726029,null,"",,,,,,,,,,,,,,,,
html-keyboard-response,499,727031,null,"Recall Period!",null,,,,,,,,,,,,,,,
call-function,500,727031,,"",,,,,,,,,,,,,,,,
html-keyboard-response,501,727132,null,"",null,,,,,,,,,,,,,,,
recall-period,502,728578,5868.699999928474,"",,,,,,,,,,,shark,,,,,
html-keyboard-response,503,728688,null,"",null,,,,,,,,,,,,,,,
recall-period,504,729495,1758.9999997615814,"",,,,,,,,,,,asia,,,,,
html-keyboard-response,505,729604,null,"",null,,,,,,,,,,,,,,,
recall-period,506,731410,10367.299999833107,"",,,,,,,,,,,flipper,,,,,
html-keyboard-response,507,731512,null,"",null,,,,,,,,,,,,,,,
recall-period,508,732410,2718.6000003814697,"",,,,,,,,,,,yard,,,,,
html-keyboard-response,509,732515,null,"",null,,,,,,,,,,,,,,,
recall-period,510,734062,4882.299999952316,"",,,,,,,,,,,skate,,,,,
html-keyboard-response,511,734176,null,"",null,,,,,,,,,,,,,,,
recall-period,512,802036,null,"",,,,,,,,,,,,,,,,
html-keyboard-response,513,802542,null,"Time's Up!",null,,,,,,,,,,,,,,,
html-keyboard-response,514,804559,2015.8999999761581,"<p> Good job! You have responded correctly to 98% of the trials. </p>
                      <p>Be sure to only press the spacebar if you see a GREEN square, and please keep your accuracy above 80%.</p>
                      <p> Press any key to continue the experiment. </p>",32,,,,,,,,,,,,,,,
html-keyboard-response,515,805142,582.8000000715256,"<div style=""font-size:48px;"">Press any key to begin list 5 of 16 </div>",32,,,,,,,,,,,,,,,
html-keyboard-response,516,807659,null,"<div style=""font-size:60px;"">+</div>",null,,,,,,,,,,,,,,,
html-keyboard-response,517,807864,null,"<div style=""font-size:42px;"">SOFTBALL</div><img id = ""stim"" ><div class = green_square id = topsquare></div>",null,encoding,word_square,,,1,topsquare,32,true,,,SOFTBALL,4,,,
html-keyboard-response,518,808170,189.5,"<div style=""font-size:42px;"">SOFTBALL</div>",32,,word,SOFTBALL,,,,,,,,,,,,
html-keyboard-response,519,809686,null,"",null,,word,SOFTBALL,,,,,,,,,,,,
html-keyboard-response,520,809892,null,"<div style=""font-size:42px;"">HEADBAND</div><img id = ""stim"" ><div class = red_square id = bottomsquare></div>",null,encoding,word_square,,,0,bottomsquare,none,true,,,HEADBAND,4,,,
html-keyboard-response,521,810207,null,"<div style=""font-size:42px;"">HEADBAND</div>",null,,word,HEADBAND,,,,,,,,,,,,
html-keyboard-response,522,811709,null,"",null,,word,HEADBAND,,,,,,,,,,,,
html-keyboard-response,523,811913,null,"<div style=""font-size:42px;"">KIDNEY</div><img id = ""stim"" ><div class = green_square id = bottomsquare></div>",null,encoding,word_square,,,1,bottomsquare,32,true,,,KIDNEY,4,,,
html-keyboard-response,524,812228,176.5,"<div style=""font-size:42px;"">KIDNEY</div>",32,,word,KIDNEY,,,,,,,,,,,,
html-keyboard-response,525,813744,null,"",null,,word,KIDNEY,,,,,,,,,,,,
html-keyboard-response,526,813952,null,"<div style=""font-size:42px;"">DUNGEON</div><img id = ""stim"" ><div class = green_square id = topsquare></div>",null,encoding,word_square,,,1,topsquare,32,true,,,DUNGEON,4,,,
html-keyboard-response,527,814255,245.20000004768372,"<div style=""font-size:42px;"">DUNGEON</div>",32,,word,DUNGEON,,,,,,,,,,,,
html-keyboard-response,528,815761,null,"",null,,word,DUNGEON,,,,,,,,,,,,
html-keyboard-response,529,815967,null,"<div style=""font-size:42px;"">SERPENT</div><img id = ""stim"" ><div class = red_square id = topsquare></div>",null,encoding,word_square,,,0,topsquare,none,false,,,SERPENT,4,,,
html-keyboard-response,530,816270,null,"<div style=""font-size:42px;"">SERPENT</div>",null,,word,SERPENT,,,,,,,,,,,,
html-keyboard-response,531,817773,347.7999999523163,"",32,,word,SERPENT,,,,,,,,,,,,
html-keyboard-response,532,817979,null,"<div style=""font-size:42px;"">SUNSET</div><img id = ""stim"" ><div class = green_square id = bottomsquare></div>",null,encoding,word_square,,,1,bottomsquare,32,true,,,SUNSET,4,,,
html-keyboard-response,533,818292,150.40000009536743,"<div style=""font-size:42px;"">SUNSET</div>",32,,word,SUNSET,,,,,,,,,,,,
html-keyboard-response,534,819795,null,"",null,,word,SUNSET,,,,,,,,,,,,
html-keyboard-response,535,819998,null,"<div style=""font-size:42px;"">BEAKER</div><img id = ""stim"" ><div class = red_square id = bottomsquare></div>",null,encoding,word_square,,,0,bottomsquare,none,true,,,BEAKER,4,,,
html-keyboard-response,536,820312,null,"<div style=""font-size:42px;"">BEAKER</div>",null,,word,BEAKER,,,,,,,,,,,,
html-keyboard-response,537,821817,null,"",null,,word,BEAKER,,,,,,,,,,,,
html-keyboard-response,538,822024,null,"<div style=""font-size:42px;"">LAMP</div><img id = ""stim"" ><div class = red_square id = topsquare></div>",null,encoding,word_square,,,0,topsquare,none,true,,,LAMP,4,,,
html-keyboard-response,539,822339,null,"<div style=""font-size:42px;"">LAMP</div>",null,,word,LAMP,,,,,,,,,,,,
html-keyboard-response,540,823854,null,"",null,,word,LAMP,,,,,,,,,,,,
html-keyboard-response,541,824062,null,"<div style=""font-size:42px;"">WIDOW</div><img id = ""stim"" ><div class = green_square id = topsquare></div>",null,encoding,word_square,,,1,topsquare,32,true,,,WIDOW,4,,,
html-keyboard-response,542,824379,175.19999992847443,"<div style=""font-size:42px;"">WIDOW</div>",32,,word,WIDOW,,,,,,,,,,,,
html-keyboard-response,543,825889,null,"",null,,word,WIDOW,,,,,,,,,,,,
html-keyboard-response,544,826092,null,"<div style=""font-size:42px;"">PEOPLE</div><img id = ""stim"" ><div class = green_square id = bottomsquare></div>",null,encoding,word_square,,,1,bottomsquare,32,true,,,PEOPLE,4,,,
html-keyboard-response,545,826404,221.69999992847443,"<div style=""font-size:42px;"">PEOPLE</div>",32,,word,PEOPLE,,,,,,,,,,,,
html-keyboard-response,546,827913,null,"",null,,word,PEOPLE,,,,,,,,,,,,
html-keyboard-response,547,828120,null,"<div style=""font-size:42px;"">CRICKET</div><img id = ""stim"" ><div class = red_square id = bottomsquare></div>",null,encoding,word_square,,,0,bottomsquare,none,true,,,CRICKET,4,,,
html-keyboard-response,548,828435,null,"<div style=""font-size:42px;"">CRICKET</div>",null,,word,CRICKET,,,,,,,,,,,,
html-keyboard-response,549,829952,null,"",null,,word,CRICKET,,,,,,,,,,,,
html-keyboard-response,550,830160,null,"<div style=""font-size:42px;"">BANDIT</div><img id = ""stim"" ><div class = red_square id = topsquare></div>",null,encoding,word_square,,,0,topsquare,none,true,,,BANDIT,4,,,
html-keyboard-response,551,830462,null,"<div style=""font-size:42px;"">BANDIT</div>",null,,word,BANDIT,,,,,,,,,,,,
html-keyboard-response,552,831978,null,"",null,,word,BANDIT,,,,,,,,,,,,
html-keyboard-response,553,832185,null,"<div style=""font-size:42px;"">SPHINX</div><img id = ""stim"" ><div class = green_square id = topsquare></div>",null,encoding,word_square,,,1,topsquare,32,true,,,SPHINX,4,,,
html-keyboard-response,554,832500,220.80000007152557,"<div style=""font-size:42px;"">SPHINX</div>",32,,word,SPHINX,,,,,,,,,,,,
html-keyboard-response,555,834006,null,"",null,,word,SPHINX,,,,,,,,,,,,
html-keyboard-response,556,834208,null,"<div style=""font-size:42px;"">PANTHER</div><img id = ""stim"" ><div class = red_square id = bottomsquare></div>",null,encoding,word_square,,,0,bottomsquare,none,true,,,PANTHER,4,,,
html-keyboard-response,557,834523,null,"<div style=""font-size:42px;"">PANTHER</div>",null,,word,PANTHER,,,,,,,,,,,,
html-keyboard-response,558,836029,null,"",null,,word,PANTHER,,,,,,,,,,,,
html-keyboard-response,559,836232,null,"<div style=""font-size:42px;"">BATHTUB</div><img id = ""stim"" ><div class = red_square id = topsquare></div>",null,encoding,word_square,,,0,topsquare,none,true,,,BATHTUB,4,,,
html-keyboard-response,560,836533,null,"<div style=""font-size:42px;"">BATHTUB</div>",null,,word,BATHTUB,,,,,,,,,,,,
html-keyboard-response,561,838049,null,"",null,,word,BATHTUB,,,,,,,,,,,,
html-keyboard-response,562,838257,null,"<div style=""font-size:42px;"">CANAL</div><img id = ""stim"" ><div class = green_square id = bottomsquare></div>",null,encoding,word_square,,,1,bottomsquare,32,true,,,CANAL,4,,,
html-keyboard-response,563,838560,256.7999999523163,"<div style=""font-size:42px;"">CANAL</div>",32,,word,CANAL,,,,,,,,,,,,
html-keyboard-response,564,840066,null,"",null,,word,CANAL,,,,,,,,,,,,
call-function,565,840067,,"",,,,,,,,,,,,,,,,
html-keyboard-response,566,840168,null,"",null,,,,,,,,,,,,,,,
math-period,567,841639,2608.0000001192093,"",,,,,,,,,,,4,,,,,
html-keyboard-response,568,841748,null,"",null,,,,,,,,,,,,,,,
math-period,569,842894,2007.2000000476837,"",,,,,,,,,,,5,,,,,
html-keyboard-response,570,842998,null,"",null,,,,,,,,,,,,,,,
math-period,571,844607,4883.499999880791,"",,,,,,,,,,,4,,,,,
html-keyboard-response,572,844721,null,"",null,,,,,,,,,,,,,,,
math-period,573,846022,2316.4999998807907,"",,,,,,,,,,,6,,,,,
html-keyboard-response,574,846123,null,"",null,,,,,,,,,,,,,,,
math-period,575,846982,1536.8999999761581,"",,,,,,,,,,,3,,,,,
html-keyboard-response,576,847084,null,"",null,,,,,,,,,,,,,,,
math-period,577,847775,1191.1999998092651,"",,,,,,,,,,,3,,,,,
html-keyboard-response,578,847891,null,"",null,,,,,,,,,,,,,,,
math-period,579,848783,1628.9000000953674,"",,,,,,,,,,,4,,,,,
html-keyboard-response,580,848887,null,"",null,,,,,,,,,,,,,,,
math-period,581,849991,2065.5999999046326,"",,,,,,,,,,,5,,,,,
html-keyboard-response,582,850103,null,"",null,,,,,,,,,,,,,,,
math-period,583,851207,2042.1999998092651,"",,,,,,,,,,,5,,,,,
html-keyboard-response,584,851308,null,"",null,,,,,,,,,,,,,,,
math-period,585,852667,2539.3000000715256,"",,,,,,,,,,,2,,,,,
html-keyboard-response,586,852780,null,"",null,,,,,,,,,,,,,,,
math-period,587,853987,2230.5999999046326,"",,,,,,,,,,,5,,,,,
html-keyboard-response,588,854088,null,"",null,,,,,,,,,,,,,,,
math-period,589,855287,2236.199999809265,"",,,,,,,,,,,3,,,,,
html-keyboard-response,590,855388,null,"",null,,,,,,,,,,,,,,,
math-period,591,856431,1912.1999998092651,"",,,,,,,,,,,6,,,,,
html-keyboard-response,592,856537,null,"",null,,,,,,,,,,,,,,,
math-period,593,857783,2305.7999999523163,"",,,,,,,,,,,4,,,,,
html-keyboard-response,594,857894,null,"",null,,,,,,,,,,,,,,,
math-period,595,859020,2080.100000023842,"",,,,,,,,,,,3,,,,,
html-keyboard-response,596,859130,null,"",null,,,,,,,,,,,,,,,
math-period,597,860139,1799.4999998807907,"",,,,,,,,,,,4,,,,,
html-keyboard-response,598,860255,null,"",null,,,,,,,,,,,,,,,
math-period,599,861439,2177.2000000476837,"",,,,,,,,,,,3,,,,,
html-keyboard-response,600,861540,null,"",null,,,,,,,,,,,,,,,
math-period,601,862855,2444.3000000715256,"",,,,,,,,,,,1,,,,,
html-keyboard-response,602,862961,null,"",null,,,,,,,,,,,,,,,
math-period,603,864076,null,"",,,,,,,,,,,,,,,,
html-keyboard-response,604,865086,null,"Recall Period!",null,,,,,,,,,,,,,,,
call-function,605,865087,,"",,,,,,,,,,,,,,,,
html-keyboard-response,606,865198,null,"",null,,,,,,,,,,,,,,,
recall-period,607,867823,11958.299999713898,"",,,,,,,,,,,canal,,,,,
html-keyboard-response,608,867929,null,"",null,,,,,,,,,,,,,,,
recall-period,609,870647,9399.399999856949,"",,,,,,,,,,,bathtub,,,,,
html-keyboard-response,610,870756,null,"",null,,,,,,,,,,,,,,,
recall-period,611,910683,343455.6999989748,"",,,,,,,,,,,bathtub,,,,,
html-keyboard-response,612,910790,null,"",null,,,,,,,,,,,,,,,
recall-period,613,920235,82653.80000042915,"",,,,,,,,,,,landscape,,,,,
html-keyboard-response,614,920344,null,"",null,,,,,,,,,,,,,,,
recall-period,615,940094,null,"",,,,,,,,,,,,,,,,
html-keyboard-response,616,940599,null,"Time's Up!",null,,,,,,,,,,,,,,,
html-keyboard-response,617,942123,1522.9000000953674,"<p> Good job! You have responded correctly to 98% of the trials. </p>
                      <p>Be sure to only press the spacebar if you see a GREEN square, and please keep your accuracy above 80%.</p>
                      <p> Press any key to continue the experiment. </p>",32,,,,,,,,,,,,,,,
html-keyboard-response,618,942955,831,"<div style=""font-size:48px;"">Press any key to begin list 6 of 16 </div>",32,,,,,,,,,,,,,,,
html-keyboard-response,619,945465,null,"<div style=""font-size:60px;"">+</div>",null,,,,,,,,,,,,,,,
html-keyboard-response,620,945673,null,"<div style=""font-size:42px;"">GREASE</div><img id = ""stim"" ><div class = green_square id = bottomsquare></div>",null,encoding,word_square,,,1,bottomsquare,32,true,,,GREASE,5,,,
html-keyboard-response,621,945978,null,"<div style=""font-size:42px;"">GREASE</div>",null,,word,GREASE,,,,,,,,,,,,
html-keyboard-response,622,947489,15.5,"",32,,word,GREASE,,,,,,,,,,,,
html-keyboard-response,623,947696,null,"<div style=""font-size:42px;"">VALVE</div><img id = ""stim"" ><div class = red_square id = topsquare></div>",null,encoding,word_square,,,0,topsquare,none,true,,,VALVE,5,,,
html-keyboard-response,624,948008,null,"<div style=""font-size:42px;"">VALVE</div>",null,,word,VALVE,,,,,,,,,,,,
html-keyboard-response,625,949525,null,"",null,,word,VALVE,,,,,,,,,,,,
html-keyboard-response,626,949731,null,"<div style=""font-size:42px;"">SCOTCH</div><img id = ""stim"" ><div class = red_square id = bottomsquare></div>",null,encoding,word_square,,,0,bottomsquare,none,true,,,SCOTCH,5,,,
html-keyboard-response,627,950047,null,"<div style=""font-size:42px;"">SCOTCH</div>",null,,word,SCOTCH,,,,,,,,,,,,
html-keyboard-response,628,951561,null,"",null,,word,SCOTCH,,,,,,,,,,,,
html-keyboard-response,629,951766,null,"<div style=""font-size:42px;"">MONARCH</div><img id = ""stim"" ><div class = green_square id = topsquare></div>",null,encoding,word_square,,,1,topsquare,32,true,,,MONARCH,5,,,
html-keyboard-response,630,952079,268,"<div style=""font-size:42px;"">MONARCH</div>",32,,word,MONARCH,,,,,,,,,,,,
html-keyboard-response,631,953581,null,"",null,,word,MONARCH,,,,,,,,,,,,
html-keyboard-response,632,953789,null,"<div style=""font-size:42px;"">SCAPEGOAT</div><img id = ""stim"" ><div class = red_square id = topsquare></div>",null,encoding,word_square,,,0,topsquare,none,true,,,SCAPEGOAT,5,,,
html-keyboard-response,633,954092,297.1999999284744,"<div style=""font-size:42px;"">SCAPEGOAT</div>",32,,word,SCAPEGOAT,,,,,,,,,,,,
html-keyboard-response,634,955594,null,"",null,,word,SCAPEGOAT,,,,,,,,,,,,
html-keyboard-response,635,955803,null,"<div style=""font-size:42px;"">VIKING</div><img id = ""stim"" ><div class = red_square id = bottomsquare></div>",null,encoding,word_square,,,0,bottomsquare,none,true,,,VIKING,5,,,
html-keyboard-response,636,956118,null,"<div style=""font-size:42px;"">VIKING</div>",null,,word,VIKING,,,,,,,,,,,,
html-keyboard-response,637,957628,null,"",null,,word,VIKING,,,,,,,,,,,,
html-keyboard-response,638,957834,null,"<div style=""font-size:42px;"">DRINK</div><img id = ""stim"" ><div class = green_square id = bottomsquare></div>",null,encoding,word_square,,,1,bottomsquare,32,true,,,DRINK,5,,,
html-keyboard-response,639,958136,null,"<div style=""font-size:42px;"">DRINK</div>",null,,word,DRINK,,,,,,,,,,,,
html-keyboard-response,640,959638,258.3000000715256,"",32,,word,DRINK,,,,,,,,,,,,
html-keyboard-response,641,959846,null,"<div style=""font-size:42px;"">PEACH</div><img id = ""stim"" ><div class = green_square id = topsquare></div>",null,encoding,word_square,,,1,topsquare,32,true,,,PEACH,5,,,
html-keyboard-response,642,960151,null,"<div style=""font-size:42px;"">PEACH</div>",null,,word,PEACH,,,,,,,,,,,,
html-keyboard-response,643,961664,263.3000000715256,"",32,,word,PEACH,,,,,,,,,,,,
html-keyboard-response,644,961867,null,"<div style=""font-size:42px;"">NAPKIN</div><img id = ""stim"" ><div class = red_square id = topsquare></div>",null,encoding,word_square,,,0,topsquare,none,true,,,NAPKIN,5,,,
html-keyboard-response,645,962171,null,"<div style=""font-size:42px;"">NAPKIN</div>",null,,word,NAPKIN,,,,,,,,,,,,
html-keyboard-response,646,963675,null,"",null,,word,NAPKIN,,,,,,,,,,,,
html-keyboard-response,647,963880,null,"<div style=""font-size:42px;"">AUTHOR</div><img id = ""stim"" ><div class = red_square id = bottomsquare></div>",null,encoding,word_square,,,0,bottomsquare,none,true,,,AUTHOR,5,,,
html-keyboard-response,648,964196,null,"<div style=""font-size:42px;"">AUTHOR</div>",null,,word,AUTHOR,,,,,,,,,,,,
html-keyboard-response,649,965700,null,"",null,,word,AUTHOR,,,,,,,,,,,,
html-keyboard-response,650,965905,null,"<div style=""font-size:42px;"">NOVEL</div><img id = ""stim"" ><div class = green_square id = bottomsquare></div>",null,encoding,word_square,,,1,bottomsquare,32,true,,,NOVEL,5,,,
html-keyboard-response,651,966208,213.30000007152557,"<div style=""font-size:42px;"">NOVEL</div>",32,,word,NOVEL,,,,,,,,,,,,
html-keyboard-response,652,967713,null,"",null,,word,NOVEL,,,,,,,,,,,,
html-keyboard-response,653,967915,null,"<div style=""font-size:42px;"">HOUSE</div><img id = ""stim"" ><div class = red_square id = topsquare></div>",null,encoding,word_square,,,0,topsquare,none,true,,,HOUSE,5,,,
html-keyboard-response,654,968217,null,"<div style=""font-size:42px;"">HOUSE</div>",null,,word,HOUSE,,,,,,,,,,,,
html-keyboard-response,655,969723,null,"",null,,word,HOUSE,,,,,,,,,,,,
html-keyboard-response,656,969928,null,"<div style=""font-size:42px;"">RECORD</div><img id = ""stim"" ><div class = green_square id = topsquare></div>",null,encoding,word_square,,,1,topsquare,32,true,,,RECORD,5,,,
html-keyboard-response,657,970234,null,"<div style=""font-size:42px;"">RECORD</div>",null,,word,RECORD,,,,,,,,,,,,
html-keyboard-response,658,971738,116.20000004768372,"",32,,word,RECORD,,,,,,,,,,,,
html-keyboard-response,659,971945,null,"<div style=""font-size:42px;"">BUG</div><img id = ""stim"" ><div class = green_square id = bottomsquare></div>",null,encoding,word_square,,,1,bottomsquare,32,true,,,BUG,5,,,
html-keyboard-response,660,972248,253.10000002384186,"<div style=""font-size:42px;"">BUG</div>",32,,word,BUG,,,,,,,,,,,,
html-keyboard-response,661,973752,null,"",null,,word,BUG,,,,,,,,,,,,
html-keyboard-response,662,973957,null,"<div style=""font-size:42px;"">WASP</div><img id = ""stim"" ><div class = red_square id = bottomsquare></div>",null,encoding,word_square,,,0,bottomsquare,none,true,,,WASP,5,,,
html-keyboard-response,663,974273,null,"<div style=""font-size:42px;"">WASP</div>",null,,word,WASP,,,,,,,,,,,,
html-keyboard-response,664,975779,null,"",null,,word,WASP,,,,,,,,,,,,
html-keyboard-response,665,975982,null,"<div style=""font-size:42px;"">LODGE</div><img id = ""stim"" ><div class = green_square id = topsquare></div>",null,encoding,word_square,,,1,topsquare,32,true,,,LODGE,5,,,
html-keyboard-response,666,976285,228.60000002384186,"<div style=""font-size:42px;"">LODGE</div>",32,,word,LODGE,,,,,,,,,,,,
html-keyboard-response,667,977790,null,"",null,,word,LODGE,,,,,,,,,,,,
call-function,668,977791,,"",,,,,,,,,,,,,,,,
html-keyboard-response,669,977892,null,"",null,,,,,,,,,,,,,,,
math-period,670,979587,3228.7999999523163,"",,,,,,,,,,,1,,,,,
html-keyboard-response,671,979692,null,"",null,,,,,,,,,,,,,,,
math-period,672,980711,1912.7000000476837,"",,,,,,,,,,,4,,,,,
html-keyboard-response,673,980813,null,"",null,,,,,,,,,,,,,,,
math-period,674,981571,1362.6000001430511,"",,,,,,,,,,,4,,,,,
html-keyboard-response,675,981678,null,"",null,,,,,,,,,,,,,,,
math-period,676,982491,1544.7999999523163,"",,,,,,,,,,,5,,,,,
html-keyboard-response,677,982600,null,"",null,,,,,,,,,,,,,,,
math-period,678,984315,5596.700000166893,"",,,,,,,,,,,4,,,,,
html-keyboard-response,679,984418,null,"",null,,,,,,,,,,,,,,,
math-period,680,985399,1748.6000001430511,"",,,,,,,,,,,4,,,,,
html-keyboard-response,681,985512,null,"",null,,,,,,,,,,,,,,,
math-period,682,986431,1664.8000000715256,"",,,,,,,,,,,5,,,,,
html-keyboard-response,683,986545,null,"",null,,,,,,,,,,,,,,,
math-period,684,987367,1466.8999999761581,"",,,,,,,,,,,5,,,,,
html-keyboard-response,685,987470,null,"",null,,,,,,,,,,,,,,,
math-period,686,988367,1644,"",,,,,,,,,,,2,,,,,
html-keyboard-response,687,988483,null,"",null,,,,,,,,,,,,,,,
math-period,688,989615,2110.7999999523163,"",,,,,,,,,,,1,,,,,
html-keyboard-response,689,989724,null,"",null,,,,,,,,,,,,,,,
math-period,690,991063,2543.100000023842,"",,,,,,,,,,,1,,,,,
html-keyboard-response,691,991169,null,"",null,,,,,,,,,,,,,,,
math-period,692,992095,1723,"",,,,,,,,,,,3,,,,,
html-keyboard-response,693,992200,null,"",null,,,,,,,,,,,,,,,
math-period,694,994411,4119.799999952316,"",,,,,,,,,,,0,,,,,
html-keyboard-response,695,994516,null,"",null,,,,,,,,,,,,,,,
math-period,696,996979,4352.900000095367,"",,,,,,,,,,,3,,,,,
html-keyboard-response,697,997081,null,"",null,,,,,,,,,,,,,,,
math-period,698,998783,3186.2000000476837,"",,,,,,,,,,,4,,,,,
html-keyboard-response,699,998894,null,"",null,,,,,,,,,,,,,,,
math-period,700,1000247,2567.6999999284744,"",,,,,,,,,,,1,,,,,
html-keyboard-response,701,1000358,null,"",null,,,,,,,,,,,,,,,
math-period,702,1001797,null,"",,,,,,,,,,,,,,,,
html-keyboard-response,703,1002804,null,"Recall Period!",null,,,,,,,,,,,,,,,
call-function,704,1002804,,"",,,,,,,,,,,,,,,,
html-keyboard-response,705,1002905,null,"",null,,,,,,,,,,,,,,,
recall-period,706,1004383,3048.1999999284744,"",,,,,,,,,,,bug,,,,,
html-keyboard-response,707,1004492,null,"",null,,,,,,,,,,,,,,,
recall-period,708,1005939,6054.700000405312,"",,,,,,,,,,,house,,,,,
html-keyboard-response,709,1006043,null,"",null,,,,,,,,,,,,,,,
recall-period,710,1008959,8727.700000405312,"",,,,,,,,,,,scotch,,,,,
html-keyboard-response,711,1009074,null,"",null,,,,,,,,,,,,,,,
recall-period,712,1013427,27116.100000023842,"",,,,,,,,,,,record,,,,,
html-keyboard-response,713,1013532,null,"",null,,,,,,,,,,,,,,,
recall-period,714,1061947,287153.60000002384,"",,,,,,,,,,,drink,,,,,
html-keyboard-response,715,1062064,null,"",null,,,,,,,,,,,,,,,
recall-period,716,1077812,null,"",,,,,,,,,,,,,,,,
html-keyboard-response,717,1078320,null,"Time's Up!",null,,,,,,,,,,,,,,,
html-keyboard-response,718,1079371,1050.1000000238419,"<p> Good job! You have responded correctly to 98% of the trials. </p>
                      <p>Be sure to only press the spacebar if you see a GREEN square, and please keep your accuracy above 80%.</p>
                      <p> Press any key to continue the experiment. </p>",32,,,,,,,,,,,,,,,
html-keyboard-response,719,1080259,886.8999999761581,"<div style=""font-size:48px;"">Press any key to begin list 7 of 16 </div>",32,,,,,,,,,,,,,,,
html-keyboard-response,720,1082777,null,"<div style=""font-size:60px;"">+</div>",null,,,,,,,,,,,,,,,
html-keyboard-response,721,1082984,null,"<div style=""font-size:42px;"">PENCIL</div><img id = ""stim"" ><div class = red_square id = bottomsquare></div>",null,encoding,word_square,,,0,bottomsquare,none,true,,,PENCIL,6,,,
html-keyboard-response,722,1083300,null,"<div style=""font-size:42px;"">PENCIL</div>",null,,word,PENCIL,,,,,,,,,,,,
html-keyboard-response,723,1084814,null,"",null,,word,PENCIL,,,,,,,,,,,,
html-keyboard-response,724,1085022,null,"<div style=""font-size:42px;"">TREAT</div><img id = ""stim"" ><div class = green_square id = topsquare></div>",null,encoding,word_square,,,1,topsquare,32,true,,,TREAT,6,,,
html-keyboard-response,725,1085337,156.39999997615814,"<div style=""font-size:42px;"">TREAT</div>",32,,word,TREAT,,,,,,,,,,,,
html-keyboard-response,726,1086849,null,"",null,,word,TREAT,,,,,,,,,,,,
html-keyboard-response,727,1087055,null,"<div style=""font-size:42px;"">FOX</div><img id = ""stim"" ><div class = red_square id = topsquare></div>",null,encoding,word_square,,,0,topsquare,none,true,,,FOX,6,,,
html-keyboard-response,728,1087371,null,"<div style=""font-size:42px;"">FOX</div>",null,,word,FOX,,,,,,,,,,,,
html-keyboard-response,729,1088872,null,"",null,,word,FOX,,,,,,,,,,,,
html-keyboard-response,730,1089081,null,"<div style=""font-size:42px;"">BRANDY</div><img id = ""stim"" ><div class = red_square id = bottomsquare></div>",null,encoding,word_square,,,0,bottomsquare,none,true,,,BRANDY,6,,,
html-keyboard-response,731,1089384,null,"<div style=""font-size:42px;"">BRANDY</div>",null,,word,BRANDY,,,,,,,,,,,,
html-keyboard-response,732,1090898,null,"",null,,word,BRANDY,,,,,,,,,,,,
html-keyboard-response,733,1091105,null,"<div style=""font-size:42px;"">BOARD</div><img id = ""stim"" ><div class = green_square id = bottomsquare></div>",null,encoding,word_square,,,1,bottomsquare,32,true,,,BOARD,6,,,
html-keyboard-response,734,1091407,225,"<div style=""font-size:42px;"">BOARD</div>",32,,word,BOARD,,,,,,,,,,,,
html-keyboard-response,735,1092909,null,"",null,,word,BOARD,,,,,,,,,,,,
html-keyboard-response,736,1093114,null,"<div style=""font-size:42px;"">BUTLER</div><img id = ""stim"" ><div class = red_square id = topsquare></div>",null,encoding,word_square,,,0,topsquare,none,true,,,BUTLER,6,,,
html-keyboard-response,737,1093430,null,"<div style=""font-size:42px;"">BUTLER</div>",null,,word,BUTLER,,,,,,,,,,,,
html-keyboard-response,738,1094939,null,"",null,,word,BUTLER,,,,,,,,,,,,
html-keyboard-response,739,1095146,null,"<div style=""font-size:42px;"">MOP</div><img id = ""stim"" ><div class = green_square id = topsquare></div>",null,encoding,word_square,,,1,topsquare,32,true,,,MOP,6,,,
html-keyboard-response,740,1095462,null,"<div style=""font-size:42px;"">MOP</div>",null,,word,MOP,,,,,,,,,,,,
html-keyboard-response,741,1096964,91.69999992847443,"",32,,word,MOP,,,,,,,,,,,,
html-keyboard-response,742,1097173,null,"<div style=""font-size:42px;"">RUG</div><img id = ""stim"" ><div class = green_square id = bottomsquare></div>",null,encoding,word_square,,,1,bottomsquare,32,true,,,RUG,6,,,
html-keyboard-response,743,1097476,117.39999997615814,"<div style=""font-size:42px;"">RUG</div>",32,,word,RUG,,,,,,,,,,,,
html-keyboard-response,744,1098985,null,"",null,,word,RUG,,,,,,,,,,,,
html-keyboard-response,745,1099194,null,"<div style=""font-size:42px;"">LITTER</div><img id = ""stim"" ><div class = red_square id = bottomsquare></div>",null,encoding,word_square,,,0,bottomsquare,none,true,,,LITTER,6,,,
html-keyboard-response,746,1099495,null,"<div style=""font-size:42px;"">LITTER</div>",null,,word,LITTER,,,,,,,,,,,,
html-keyboard-response,747,1101001,null,"",null,,word,LITTER,,,,,,,,,,,,
html-keyboard-response,748,1101204,null,"<div style=""font-size:42px;"">WRENCH</div><img id = ""stim"" ><div class = red_square id = topsquare></div>",null,encoding,word_square,,,0,topsquare,none,true,,,WRENCH,6,,,
html-keyboard-response,749,1101516,null,"<div style=""font-size:42px;"">WRENCH</div>",null,,word,WRENCH,,,,,,,,,,,,
html-keyboard-response,750,1103023,null,"",null,,word,WRENCH,,,,,,,,,,,,
html-keyboard-response,751,1103231,null,"<div style=""font-size:42px;"">COUNTRY</div><img id = ""stim"" ><div class = green_square id = topsquare></div>",null,encoding,word_square,,,1,topsquare,32,true,,,COUNTRY,6,,,
html-keyboard-response,752,1103547,160,"<div style=""font-size:42px;"">COUNTRY</div>",32,,word,COUNTRY,,,,,,,,,,,,
html-keyboard-response,753,1105052,null,"",null,,word,COUNTRY,,,,,,,,,,,,
html-keyboard-response,754,1105257,null,"<div style=""font-size:42px;"">JAPAN</div><img id = ""stim"" ><div class = green_square id = bottomsquare></div>",null,encoding,word_square,,,1,bottomsquare,32,true,,,JAPAN,6,,,
html-keyboard-response,755,1105559,101,"<div style=""font-size:42px;"">JAPAN</div>",32,,word,JAPAN,,,,,,,,,,,,
html-keyboard-response,756,1107065,null,"",null,,word,JAPAN,,,,,,,,,,,,
html-keyboard-response,757,1107271,null,"<div style=""font-size:42px;"">GAVEL</div><img id = ""stim"" ><div class = red_square id = bottomsquare></div>",null,encoding,word_square,,,0,bottomsquare,none,true,,,GAVEL,6,,,
html-keyboard-response,758,1107586,null,"<div style=""font-size:42px;"">GAVEL</div>",null,,word,GAVEL,,,,,,,,,,,,
html-keyboard-response,759,1109094,null,"",null,,word,GAVEL,,,,,,,,,,,,
html-keyboard-response,760,1109303,null,"<div style=""font-size:42px;"">CHAMPAGNE</div><img id = ""stim"" ><div class = green_square id = topsquare></div>",null,encoding,word_square,,,1,topsquare,32,true,,,CHAMPAGNE,6,,,
html-keyboard-response,761,1109619,207.09999990463257,"<div style=""font-size:42px;"">CHAMPAGNE</div>",32,,word,CHAMPAGNE,,,,,,,,,,,,
html-keyboard-response,762,1111131,null,"",null,,word,CHAMPAGNE,,,,,,,,,,,,
html-keyboard-response,763,1111340,null,"<div style=""font-size:42px;"">MILDEW</div><img id = ""stim"" ><div class = green_square id = bottomsquare></div>",null,encoding,word_square,,,1,bottomsquare,32,true,,,MILDEW,6,,,
html-keyboard-response,764,1111652,162.60000002384186,"<div style=""font-size:42px;"">MILDEW</div>",32,,word,MILDEW,,,,,,,,,,,,
html-keyboard-response,765,1113168,null,"",null,,word,MILDEW,,,,,,,,,,,,
html-keyboard-response,766,1113377,null,"<div style=""font-size:42px;"">VAGRANT</div><img id = ""stim"" ><div class = red_square id = topsquare></div>",null,encoding,word_square,,,0,topsquare,none,true,,,VAGRANT,6,,,
html-keyboard-response,767,1113693,null,"<div style=""font-size:42px;"">VAGRANT</div>",null,,word,VAGRANT,,,,,,,,,,,,
html-keyboard-response,768,1115195,null,"",null,,word,VAGRANT,,,,,,,,,,,,
call-function,769,1115196,,"",,,,,,,,,,,,,,,,
html-keyboard-response,770,1115297,null,"",null,,,,,,,,,,,,,,,
math-period,771,1117643,4471.300000071526,"",,,,,,,,,,,5,,,,,
html-keyboard-response,772,1117750,null,"",null,,,,,,,,,,,,,,,
math-period,773,1118911,2149.399999856949,"",,,,,,,,,,,3,,,,,
html-keyboard-response,774,1119013,null,"",null,,,,,,,,,,,,,,,
math-period,775,1120875,3539,"",,,,,,,,,,,0,,,,,
html-keyboard-response,776,1120991,null,"",null,,,,,,,,,,,,,,,
math-period,777,1123911,5634,"",,,,,,,,,,,2,,,,,
html-keyboard-response,778,1124013,null,"",null,,,,,,,,,,,,,,,
math-period,779,1124923,1713.6999999284744,"",,,,,,,,,,,2,,,,,
html-keyboard-response,780,1125024,null,"",null,,,,,,,,,,,,,,,
math-period,781,1125203,177.89999997615814,"",,,,,,,,,,,,,,,,
html-keyboard-response,782,1125304,null,"",null,,,,,,,,,,,,,,,
math-period,783,1126899,2996.299999833107,"",,,,,,,,,,,3,,,,,
html-keyboard-response,784,1127012,null,"",null,,,,,,,,,,,,,,,
math-period,785,1127863,1536.3000000715256,"",,,,,,,,,,,3,,,,,
html-keyboard-response,786,1127974,null,"",null,,,,,,,,,,,,,,,
math-period,787,1129011,1912.6999999284744,"",,,,,,,,,,,4,,,,,
html-keyboard-response,788,1129128,null,"",null,,,,,,,,,,,,,,,
math-period,789,1130447,2444.399999856949,"",,,,,,,,,,,1,,,,,
html-keyboard-response,790,1130551,null,"",null,,,,,,,,,,,,,,,
math-period,791,1131687,2070.899999976158,"",,,,,,,,,,,4,,,,,
html-keyboard-response,792,1131797,null,"",null,,,,,,,,,,,,,,,
math-period,793,1132691,1578.2000000476837,"",,,,,,,,,,,4,,,,,
html-keyboard-response,794,1132793,null,"",null,,,,,,,,,,,,,,,
math-period,795,1133716,1658.6999999284744,"",,,,,,,,,,,4,,,,,
html-keyboard-response,796,1133821,null,"",null,,,,,,,,,,,,,,,
math-period,797,1134679,1522.8999999761581,"",,,,,,,,,,,4,,,,,
html-keyboard-response,798,1134780,null,"",null,,,,,,,,,,,,,,,
math-period,799,1135672,1600.7999999523163,"",,,,,,,,,,,4,,,,,
html-keyboard-response,800,1135780,null,"",null,,,,,,,,,,,,,,,
math-period,801,1137435,3128.7999999523163,"",,,,,,,,,,,1,,,,,
html-keyboard-response,802,1137539,null,"",null,,,,,,,,,,,,,,,
math-period,803,1138647,2027.1000000238419,"",,,,,,,,,,,1,,,,,
html-keyboard-response,804,1138754,null,"",null,,,,,,,,,,,,,,,
math-period,805,1139198,null,"",,,,,,,,,,,,,,,,
html-keyboard-response,806,1140213,null,"Recall Period!",null,,,,,,,,,,,,,,,
call-function,807,1140214,,"",,,,,,,,,,,,,,,,
html-keyboard-response,808,1140323,null,"",null,,,,,,,,,,,,,,,
recall-period,809,1144207,24030.900000214577,"",,,,,,,,,,,champagne,,,,,
html-keyboard-response,810,1144315,null,"",null,,,,,,,,,,,,,,,
recall-period,811,1146255,7415.099999785423,"",,,,,,,,,,,Mildew,,,,,
html-keyboard-response,812,1146357,null,"",null,,,,,,,,,,,,,,,
recall-period,813,1148331,7975.899999976158,"",,,,,,,,,,,vagrant,,,,,
html-keyboard-response,814,1148443,null,"",null,,,,,,,,,,,,,,,
recall-period,815,1167531,126515.59999966621,"",,,,,,,,,,,scotch,,,,,
html-keyboard-response,816,1167648,null,"",null,,,,,,,,,,,,,,,
recall-period,817,1179043,71589.90000009537,"",,,,,,,,,,,grease,,,,,
html-keyboard-response,818,1179145,null,"",null,,,,,,,,,,,,,,,
recall-period,819,1215223,null,"",,,,,,,,,,,,,,,,
html-keyboard-response,820,1215726,null,"Time's Up!",null,,,,,,,,,,,,,,,
html-keyboard-response,821,1218516,2788.0999999046326,"<p> Good job! You have responded correctly to 98% of the trials. </p>
                      <p>Be sure to only press the spacebar if you see a GREEN square, and please keep your accuracy above 80%.</p>
                      <p> Press any key to continue the experiment. </p>",32,,,,,,,,,,,,,,,
html-keyboard-response,822,1218995,478.89999997615814,"<div style=""font-size:48px;"">Press any key to begin list 8 of 16 </div>",32,,,,,,,,,,,,,,,
html-keyboard-response,823,1221514,null,"<div style=""font-size:60px;"">+</div>",null,,,,,,,,,,,,,,,
html-keyboard-response,824,1221718,null,"<div style=""font-size:42px;"">VAMPIRE</div><img id = ""stim"" ><div class = red_square id = topsquare></div>",null,encoding,word_square,,,0,topsquare,none,true,,,VAMPIRE,7,,,
html-keyboard-response,825,1222034,null,"<div style=""font-size:42px;"">VAMPIRE</div>",null,,word,VAMPIRE,,,,,,,,,,,,
html-keyboard-response,826,1223549,null,"",null,,word,VAMPIRE,,,,,,,,,,,,
html-keyboard-response,827,1223757,null,"<div style=""font-size:42px;"">INSECT</div><img id = ""stim"" ><div class = green_square id = bottomsquare></div>",null,encoding,word_square,,,1,bottomsquare,32,true,,,INSECT,7,,,
html-keyboard-response,828,1224059,153.60000002384186,"<div style=""font-size:42px;"">INSECT</div>",32,,word,INSECT,,,,,,,,,,,,
html-keyboard-response,829,1225570,null,"",null,,word,INSECT,,,,,,,,,,,,
html-keyboard-response,830,1225778,null,"<div style=""font-size:42px;"">TWIG</div><img id = ""stim"" ><div class = green_square id = topsquare></div>",null,encoding,word_square,,,1,topsquare,32,true,,,TWIG,7,,,
html-keyboard-response,831,1226089,240.70000004768372,"<div style=""font-size:42px;"">TWIG</div>",32,,word,TWIG,,,,,,,,,,,,
html-keyboard-response,832,1227594,null,"",null,,word,TWIG,,,,,,,,,,,,
html-keyboard-response,833,1227800,null,"<div style=""font-size:42px;"">SHRUB</div><img id = ""stim"" ><div class = red_square id = bottomsquare></div>",null,encoding,word_square,,,0,bottomsquare,none,true,,,SHRUB,7,,,
html-keyboard-response,834,1228101,null,"<div style=""font-size:42px;"">SHRUB</div>",null,,word,SHRUB,,,,,,,,,,,,
html-keyboard-response,835,1229607,null,"",null,,word,SHRUB,,,,,,,,,,,,
html-keyboard-response,836,1229811,null,"<div style=""font-size:42px;"">DRILL</div><img id = ""stim"" ><div class = green_square id = bottomsquare></div>",null,encoding,word_square,,,1,bottomsquare,32,true,,,DRILL,7,,,
html-keyboard-response,837,1230113,140,"<div style=""font-size:42px;"">DRILL</div>",32,,word,DRILL,,,,,,,,,,,,
html-keyboard-response,838,1231624,null,"",null,,word,DRILL,,,,,,,,,,,,
html-keyboard-response,839,1231831,null,"<div style=""font-size:42px;"">DIVER</div><img id = ""stim"" ><div class = green_square id = topsquare></div>",null,encoding,word_square,,,1,topsquare,32,true,,,DIVER,7,,,
html-keyboard-response,840,1232144,295,"<div style=""font-size:42px;"">DIVER</div>",32,,word,DIVER,,,,,,,,,,,,
html-keyboard-response,841,1233660,null,"",null,,word,DIVER,,,,,,,,,,,,
html-keyboard-response,842,1233865,null,"<div style=""font-size:42px;"">BUBBLE</div><img id = ""stim"" ><div class = red_square id = topsquare></div>",null,encoding,word_square,,,0,topsquare,none,true,,,BUBBLE,7,,,
html-keyboard-response,843,1234167,null,"<div style=""font-size:42px;"">BUBBLE</div>",null,,word,BUBBLE,,,,,,,,,,,,
html-keyboard-response,844,1235671,null,"",null,,word,BUBBLE,,,,,,,,,,,,
html-keyboard-response,845,1235877,null,"<div style=""font-size:42px;"">BREAST</div><img id = ""stim"" ><div class = red_square id = bottomsquare></div>",null,encoding,word_square,,,0,bottomsquare,none,true,,,BREAST,7,,,
html-keyboard-response,846,1236193,null,"<div style=""font-size:42px;"">BREAST</div>",null,,word,BREAST,,,,,,,,,,,,
html-keyboard-response,847,1237709,null,"",null,,word,BREAST,,,,,,,,,,,,
html-keyboard-response,848,1237925,null,"<div style=""font-size:42px;"">CREVICE</div><img id = ""stim"" ><div class = green_square id = bottomsquare></div>",null,encoding,word_square,,,1,bottomsquare,32,true,,,CREVICE,7,,,
html-keyboard-response,849,1238241,null,"<div style=""font-size:42px;"">CREVICE</div>",null,,word,CREVICE,,,,,,,,,,,,
html-keyboard-response,850,1239744,48.800000071525574,"",32,,word,CREVICE,,,,,,,,,,,,
html-keyboard-response,851,1239948,null,"<div style=""font-size:42px;"">DRUG</div><img id = ""stim"" ><div class = green_square id = topsquare></div>",null,encoding,word_square,,,1,topsquare,32,true,,,DRUG,7,,,
html-keyboard-response,852,1240252,302.6999999284744,"<div style=""font-size:42px;"">DRUG</div>",32,,word,DRUG,,,,,,,,,,,,
html-keyboard-response,853,1241767,null,"",null,,word,DRUG,,,,,,,,,,,,
html-keyboard-response,854,1241973,null,"<div style=""font-size:42px;"">FIGHTER</div><img id = ""stim"" ><div class = red_square id = topsquare></div>",null,encoding,word_square,,,0,topsquare,none,true,,,FIGHTER,7,,,
html-keyboard-response,855,1242289,null,"<div style=""font-size:42px;"">FIGHTER</div>",null,,word,FIGHTER,,,,,,,,,,,,
html-keyboard-response,856,1243803,null,"",null,,word,FIGHTER,,,,,,,,,,,,
html-keyboard-response,857,1244011,null,"<div style=""font-size:42px;"">GRILL</div><img id = ""stim"" ><div class = green_square id = bottomsquare></div>",null,encoding,word_square,,,1,bottomsquare,32,true,,,GRILL,7,,,
html-keyboard-response,858,1244327,127.60000002384186,"<div style=""font-size:42px;"">GRILL</div>",32,,word,GRILL,,,,,,,,,,,,
html-keyboard-response,859,1245837,null,"",null,,word,GRILL,,,,,,,,,,,,
html-keyboard-response,860,1246044,null,"<div style=""font-size:42px;"">SHAMPOO</div><img id = ""stim"" ><div class = red_square id = bottomsquare></div>",null,encoding,word_square,,,0,bottomsquare,none,true,,,SHAMPOO,7,,,
html-keyboard-response,861,1246356,null,"<div style=""font-size:42px;"">SHAMPOO</div>",null,,word,SHAMPOO,,,,,,,,,,,,
html-keyboard-response,862,1247860,null,"",null,,word,SHAMPOO,,,,,,,,,,,,
html-keyboard-response,863,1248066,null,"<div style=""font-size:42px;"">SKILLET</div><img id = ""stim"" ><div class = red_square id = topsquare></div>",null,encoding,word_square,,,0,topsquare,none,true,,,SKILLET,7,,,
html-keyboard-response,864,1248382,null,"<div style=""font-size:42px;"">SKILLET</div>",null,,word,SKILLET,,,,,,,,,,,,
html-keyboard-response,865,1249888,null,"",null,,word,SKILLET,,,,,,,,,,,,
html-keyboard-response,866,1250095,null,"<div style=""font-size:42px;"">PUPIL</div><img id = ""stim"" ><div class = green_square id = topsquare></div>",null,encoding,word_square,,,1,topsquare,32,true,,,PUPIL,7,,,
html-keyboard-response,867,1250410,null,"<div style=""font-size:42px;"">PUPIL</div>",null,,word,PUPIL,,,,,,,,,,,,
html-keyboard-response,868,1251912,32.699999928474426,"",32,,word,PUPIL,,,,,,,,,,,,
html-keyboard-response,869,1252117,null,"<div style=""font-size:42px;"">FLOWER</div><img id = ""stim"" ><div class = red_square id = bottomsquare></div>",null,encoding,word_square,,,0,bottomsquare,none,true,,,FLOWER,7,,,
html-keyboard-response,870,1252433,null,"<div style=""font-size:42px;"">FLOWER</div>",null,,word,FLOWER,,,,,,,,,,,,
html-keyboard-response,871,1253939,null,"",null,,word,FLOWER,,,,,,,,,,,,
call-function,872,1253940,,"",,,,,,,,,,,,,,,,
html-keyboard-response,873,1254049,null,"",null,,,,,,,,,,,,,,,
math-period,874,1257940,7543.600000143051,"",,,,,,,,,,,0,,,,,
html-keyboard-response,875,1258048,null,"",null,,,,,,,,,,,,,,,
math-period,876,1259203,1961.3000000715256,"",,,,,,,,,,,3,,,,,
html-keyboard-response,877,1259310,null,"",null,,,,,,,,,,,,,,,
math-period,878,1260287,1720.700000166893,"",,,,,,,,,,,4,,,,,
html-keyboard-response,879,1260391,null,"",null,,,,,,,,,,,,,,,
math-period,880,1261224,1466.4999998807907,"",,,,,,,,,,,4,,,,,
html-keyboard-response,881,1261326,null,"",null,,,,,,,,,,,,,,,
math-period,882,1262231,1601.0999999046326,"",,,,,,,,,,,3,,,,,
html-keyboard-response,883,1262344,null,"",null,,,,,,,,,,,,,,,
math-period,884,1263659,2441.2000000476837,"",,,,,,,,,,,2,,,,,
html-keyboard-response,885,1263767,null,"",null,,,,,,,,,,,,,,,
math-period,886,1265148,2483.899999976158,"",,,,,,,,,,,2,,,,,
html-keyboard-response,887,1265250,null,"",null,,,,,,,,,,,,,,,
math-period,888,1266908,3085.1999999284744,"",,,,,,,,,,,6,,,,,
html-keyboard-response,889,1267015,null,"",null,,,,,,,,,,,,,,,
math-period,890,1267795,1407.4000000953674,"",,,,,,,,,,,3,,,,,
html-keyboard-response,891,1267897,null,"",null,,,,,,,,,,,,,,,
math-period,892,1269215,2402.3000000715256,"",,,,,,,,,,,4,,,,,
html-keyboard-response,893,1269317,null,"",null,,,,,,,,,,,,,,,
math-period,894,1270227,1490.3000000715256,"",,,,,,,,,,,4,,,,,
html-keyboard-response,895,1270338,null,"",null,,,,,,,,,,,,,,,
math-period,896,1271060,1210.3999999761581,"",,,,,,,,,,,4,,,,,
html-keyboard-response,897,1271161,null,"",null,,,,,,,,,,,,,,,
math-period,898,1272611,2679.3000000715256,"",,,,,,,,,,,2,,,,,
html-keyboard-response,899,1272719,null,"",null,,,,,,,,,,,,,,,
math-period,900,1273767,1891.700000166893,"",,,,,,,,,,,4,,,,,
html-keyboard-response,901,1273882,null,"",null,,,,,,,,,,,,,,,
math-period,902,1277040,6072.700000166893,"",,,,,,,,,,,3,,,,,
html-keyboard-response,903,1277141,null,"",null,,,,,,,,,,,,,,,
math-period,904,1277947,null,"",,,,,,,,,,,,,,,,
html-keyboard-response,905,1278960,null,"Recall Period!",null,,,,,,,,,,,,,,,
call-function,906,1278961,,"",,,,,,,,,,,,,,,,
html-keyboard-response,907,1279062,null,"",null,,,,,,,,,,,,,,,
recall-period,908,1281927,13555.20000052452,"",,,,,,,,,,,shampoo,,,,,
html-keyboard-response,909,1282040,null,"",null,,,,,,,,,,,,,,,
recall-period,910,1283863,8939.49999988079,"",,,,,,,,,,,skillet,,,,,
html-keyboard-response,911,1283969,null,"",null,,,,,,,,,,,,,,,
recall-period,912,1284911,2810.9000000953674,"",,,,,,,,,,,grill,,,,,
html-keyboard-response,913,1285015,null,"",null,,,,,,,,,,,,,,,
recall-period,914,1286252,5379.899999856949,"",,,,,,,,,,,vampire,,,,,
html-keyboard-response,915,1286361,null,"",null,,,,,,,,,,,,,,,
recall-period,916,1287667,4961.300000309944,"",,,,,,,,,,,student,,,,,
html-keyboard-response,917,1287781,null,"",null,,,,,,,,,,,,,,,
recall-period,918,1295880,34245.5,"",,,,,,,,,,,suck,,,,,
html-keyboard-response,919,1295981,null,"",null,,,,,,,,,,,,,,,
recall-period,920,1299648,26464.000000357628,"",,,,,,,,,,,insect,,,,,
html-keyboard-response,921,1299763,null,"",null,,,,,,,,,,,,,,,
recall-period,922,1353969,null,"",,,,,,,,,,,,,,,,
html-keyboard-response,923,1354473,null,"Time's Up!",null,,,,,,,,,,,,,,,
html-keyboard-response,924,1355948,1473.7000000476837,"<p> Good job! You have responded correctly to 98% of the trials. </p>
                      <p>Be sure to only press the spacebar if you see a GREEN square, and please keep your accuracy above 80%.</p>
                      <p> Press any key to continue the experiment. </p>",32,,,,,,,,,,,,,,,
html-keyboard-response,925,1356884,935,"<div style=""font-size:48px;"">Press any key to begin list 9 of 16 </div>",32,,,,,,,,,,,,,,,
html-keyboard-response,926,1359403,null,"<div style=""font-size:60px;"">+</div>",null,,,,,,,,,,,,,,,
html-keyboard-response,927,1359608,null,"<div style=""font-size:42px;"">WATER</div><img id = ""stim"" ><div class = green_square id = topsquare></div>",null,encoding,word_square,,,1,topsquare,32,true,,,WATER,8,,,
html-keyboard-response,928,1359912,null,"<div style=""font-size:42px;"">WATER</div>",null,,word,WATER,,,,,,,,,,,,
html-keyboard-response,929,1361422,67,"",32,,word,WATER,,,,,,,,,,,,
html-keyboard-response,930,1361627,null,"<div style=""font-size:42px;"">BRIDGE</div><img id = ""stim"" ><div class = red_square id = bottomsquare></div>",null,encoding,word_square,,,0,bottomsquare,none,true,,,BRIDGE,8,,,
html-keyboard-response,931,1361932,null,"<div style=""font-size:42px;"">BRIDGE</div>",null,,word,BRIDGE,,,,,,,,,,,,
html-keyboard-response,932,1363445,null,"",null,,word,BRIDGE,,,,,,,,,,,,
