trial_type,trial_index,time_elapsed,rt,stimulus,key_press,exp_phase,test_part,word,task,targ_cond,sq_pos,correctKeyCode,correct,value,response,Word,List,RecResp,serial_pos,colorChosen
pavlovia,0,2572,,"",,,,,,,,,,,,,,,,
external-html,1,80957,78250,"",,,,,,,,,,,,,,,,
html-keyboard-response,2,83261,2302.699999999255,"Welcome to the experiment. Press any key to begin.",13,,,,,,,,,,,,,,,
html-keyboard-response,3,184256,100993.20000000019,"<p>You will see a list of words and colored squares in the following task.<p><p>Press the spacebar whenever you see a GREEN square.<p><p>Do not press a key if the square is RED.<p><p>Press the spacebar to continue.</p>",122,,,,,,,,,,,,,,,
html-keyboard-response,4,205384,20620.700000000186,"<p>Please try to remember as many of the words as you can, and try to think about the meaning of each word as it appears.<p><p>After the detection and encoding task you will be asked to solve some math problems for 24 seconds.<p> Please solve as many problems as you can in the time given. <p><p><p>Press the spacebar to continue.</p>",32,,,,,,,,,,,,,,,
html-keyboard-response,5,221039,15149.299999999814,"After solving the math problems, you will be asked to type in as many words <p>from the previous list as you can remember for 75 seconds.<p> If you finish recalling before the 75 seconds are up,<p> just sit tight and try to think of any more words you could have missed. <p><p><p>Press the spacebar to continue.</p>",32,,,,,,,,,,,,,,,
html-keyboard-response,6,261724,40168.299999999814,"There will be 16 lists of words and recall, followed  by<p><p> a recognition phase. The experiment is expected to take up to 90 minutes.<p>We will begin with a brief practice session.<p>Press the spacebar to begin the practice.</p>",32,,,,,,,,,,,,,,,
html-keyboard-response,7,264245,null,"<div style=""font-size:60px;"">+</div>",null,,,,,,,,,,,,,,,
html-keyboard-response,8,264460,null,"<div style=""font-size:42px;"">HAPPY</div><img id = ""stim"" ><div class = red_square id = ""bottomsquare"" ></div>",null,practice,word_square,HAPPY,prac_response,0,Bottom,none,true,,,,,,,
html-keyboard-response,9,264763,null,"<div style=""font-size:42px;"">HAPPY</div>",null,,word,HAPPY,,,,,,,,,,,,
html-keyboard-response,10,266272,null,"",null,,word,HAPPY,,,,,,,,,,,,
html-keyboard-response,11,266487,null,"<div style=""font-size:42px;"">COLD</div><img id = ""stim"" ><div class = green_square id = ""bottomsquare"" ></div>",null,practice,word_square,COLD,prac_response,1,Bottom,32,true,,,,,,,
html-keyboard-response,12,266795,null,"<div style=""font-size:42px;"">COLD</div>",null,,word,COLD,,,,,,,,,,,,
html-keyboard-response,13,268301,33.60000000055879,"",32,,word,COLD,,,,,,,,,,,,
html-keyboard-response,14,268517,null,"<div style=""font-size:42px;"">HEAVY</div><img id = ""stim"" ><div class = green_square id = ""topsquare"" ></div>",null,practice,word_square,HEAVY,prac_response,1,Top,32,true,,,,,,,
html-keyboard-response,15,268824,null,"<div style=""font-size:42px;"">HEAVY</div>",null,,word,HEAVY,,,,,,,,,,,,
html-keyboard-response,16,270332,92.29999999981374,"",32,,word,HEAVY,,,,,,,,,,,,
html-keyboard-response,17,270548,null,"<div style=""font-size:42px;"">FUNNY</div><img id = ""stim"" ><div class = red_square id = ""topsquare"" ></div>",null,practice,word_square,FUNNY,prac_response,0,Top,none,true,,,,,,,
html-keyboard-response,18,270856,null,"<div style=""font-size:42px;"">FUNNY</div>",null,,word,FUNNY,,,,,,,,,,,,
html-keyboard-response,19,272362,null,"",null,,word,FUNNY,,,,,,,,,,,,
html-keyboard-response,20,272577,null,"<div style=""font-size:42px;"">SCARY</div><img id = ""stim"" ><div class = green_square id = ""bottomsquare"" ></div>",null,practice,word_square,SCARY,prac_response,1,Bottom,32,true,,,,,,,
html-keyboard-response,21,272883,null,"<div style=""font-size:42px;"">SCARY</div>",null,,word,SCARY,,,,,,,,,,,,
html-keyboard-response,22,274392,114.90000000037253,"",32,,word,SCARY,,,,,,,,,,,,
html-keyboard-response,23,274608,null,"<div style=""font-size:42px;"">PEACEFUL</div><img id = ""stim"" ><div class = green_square id = ""topsquare"" ></div>",null,practice,word_square,PEACEFUL,prac_response,1,Top,32,true,,,,,,,
html-keyboard-response,24,274916,null,"<div style=""font-size:42px;"">PEACEFUL</div>",null,,word,PEACEFUL,,,,,,,,,,,,
html-keyboard-response,25,276422,0.2999999998137355,"",32,,word,PEACEFUL,,,,,,,,,,,,
html-keyboard-response,26,276637,null,"<div style=""font-size:42px;"">LITTLE</div><img id = ""stim"" ><div class = red_square id = ""bottomsquare"" ></div>",null,practice,word_square,LITTLE,prac_response,0,Bottom,none,true,,,,,,,
html-keyboard-response,27,276945,null,"<div style=""font-size:42px;"">LITTLE</div>",null,,word,LITTLE,,,,,,,,,,,,
html-keyboard-response,28,278452,null,"",null,,word,LITTLE,,,,,,,,,,,,
html-keyboard-response,29,278668,null,"<div style=""font-size:42px;"">TIRED</div><img id = ""stim"" ><div class = red_square id = ""topsquare"" ></div>",null,practice,word_square,TIRED,prac_response,0,Top,none,true,,,,,,,
html-keyboard-response,30,278975,null,"<div style=""font-size:42px;"">TIRED</div>",null,,word,TIRED,,,,,,,,,,,,
html-keyboard-response,31,280482,null,"",null,,word,TIRED,,,,,,,,,,,,
html-keyboard-response,32,280697,null,"<div style=""font-size:42px;"">ENTERTAINING</div><img id = ""stim"" ><div class = red_square id = ""bottomsquare"" ></div>",null,practice,word_square,ENTERTAINING,prac_response,0,Bottom,none,true,,,,,,,
html-keyboard-response,33,281004,null,"<div style=""font-size:42px;"">ENTERTAINING</div>",null,,word,ENTERTAINING,,,,,,,,,,,,
html-keyboard-response,34,282513,null,"",null,,word,ENTERTAINING,,,,,,,,,,,,
html-keyboard-response,35,282728,null,"<div style=""font-size:42px;"">GRATEFUL</div><img id = ""stim"" ><div class = green_square id = ""bottomsquare"" ></div>",null,practice,word_square,GRATEFUL,prac_response,1,Bottom,32,true,,,,,,,
html-keyboard-response,36,283036,252.6000000005588,"<div style=""font-size:42px;"">GRATEFUL</div>",32,,word,GRATEFUL,,,,,,,,,,,,
html-keyboard-response,37,284544,null,"",null,,word,GRATEFUL,,,,,,,,,,,,
html-keyboard-response,38,284759,null,"<div style=""font-size:42px;"">LOUD</div><img id = ""stim"" ><div class = red_square id = ""topsquare"" ></div>",null,practice,word_square,LOUD,prac_response,0,Top,none,true,,,,,,,
html-keyboard-response,39,285065,null,"<div style=""font-size:42px;"">LOUD</div>",null,,word,LOUD,,,,,,,,,,,,
html-keyboard-response,40,286573,null,"",null,,word,LOUD,,,,,,,,,,,,
html-keyboard-response,41,286789,null,"<div style=""font-size:42px;"">SMART</div><img id = ""stim"" ><div class = green_square id = ""topsquare"" ></div>",null,practice,word_square,SMART,prac_response,1,Top,32,true,,,,,,,
html-keyboard-response,42,287097,273.29999999981374,"<div style=""font-size:42px;"">SMART</div>",32,,word,SMART,,,,,,,,,,,,
html-keyboard-response,43,288605,null,"",null,,word,SMART,,,,,,,,,,,,
html-keyboard-response,44,288820,null,"<div style=""font-size:42px;"">SMOOTH</div><img id = ""stim"" ><div class = green_square id = ""bottomsquare"" ></div>",null,practice,word_square,SMOOTH,prac_response,1,Bottom,32,true,,,,,,,
html-keyboard-response,45,289126,287.79999999981374,"<div style=""font-size:42px;"">SMOOTH</div>",32,,word,SMOOTH,,,,,,,,,,,,
html-keyboard-response,46,290634,null,"",null,,word,SMOOTH,,,,,,,,,,,,
html-keyboard-response,47,290849,null,"<div style=""font-size:42px;"">DISHONEST</div><img id = ""stim"" ><div class = red_square id = ""bottomsquare"" ></div>",null,practice,word_square,DISHONEST,prac_response,0,Bottom,none,true,,,,,,,
html-keyboard-response,48,291157,null,"<div style=""font-size:42px;"">DISHONEST</div>",null,,word,DISHONEST,,,,,,,,,,,,
html-keyboard-response,49,292664,null,"",null,,word,DISHONEST,,,,,,,,,,,,
html-keyboard-response,50,292879,null,"<div style=""font-size:42px;"">WEALTHY</div><img id = ""stim"" ><div class = green_square id = ""topsquare"" ></div>",null,practice,word_square,WEALTHY,prac_response,1,Top,32,true,,,,,,,
html-keyboard-response,51,293187,236.09999999962747,"<div style=""font-size:42px;"">WEALTHY</div>",32,,word,WEALTHY,,,,,,,,,,,,
html-keyboard-response,52,294693,null,"",null,,word,WEALTHY,,,,,,,,,,,,
html-keyboard-response,53,294908,null,"<div style=""font-size:42px;"">BEAUTIFUL</div><img id = ""stim"" ><div class = red_square id = ""topsquare"" ></div>",null,practice,word_square,BEAUTIFUL,prac_response,0,Top,none,true,,,,,,,
html-keyboard-response,54,295214,null,"<div style=""font-size:42px;"">BEAUTIFUL</div>",null,,word,BEAUTIFUL,,,,,,,,,,,,
html-keyboard-response,55,296722,null,"",null,,word,BEAUTIFUL,,,,,,,,,,,,
html-keyboard-response,56,302559,5832.200000000186,"<p> Good job! You responded correctly to 100% of the trials. </p>
                  <p>Be sure to only press the spacebar if you see a GREEN square, and please keep your accuracy above 80%.</p>
                  <p>We're going to try once more to make sure you understand the task. press any key to continue. </p>",32,,,,,,,,,,,,,,,
html-keyboard-response,57,313537,10975.800000000745,"<p>You will see a list of words and colored squares in the following task.<p><p>Press the spacebar whenever you see a GREEN square.<p><p>Do not press a key if the square is RED<p><p>Press the spacebar to continue.</p>",32,,,,,,,,,,,,,,,
html-keyboard-response,58,316059,null,"<div style=""font-size:60px;"">+</div>",null,,,,,,,,,,,,,,,
html-keyboard-response,59,316275,null,"<div style=""font-size:42px;"">HAPPY</div><img id = ""stim"" ><div class = red_square id = ""bottomsquare"" ></div>",null,practice2,word_square,HAPPY,prac_response,0,Bottom,none,true,,,,,,,
html-keyboard-response,60,316583,null,"<div style=""font-size:42px;"">HAPPY</div>",null,,word,HAPPY,,,,,,,,,,,,
html-keyboard-response,61,318088,null,"",null,,word,HAPPY,,,,,,,,,,,,
html-keyboard-response,62,318304,null,"<div style=""font-size:42px;"">COLD</div><img id = ""stim"" ><div class = green_square id = ""bottomsquare"" ></div>",null,practice2,word_square,,prac_response,1,Bottom,32,true,,,,,,,
html-keyboard-response,63,318612,null,"<div style=""font-size:42px;"">COLD</div>",null,,word,COLD,,,,,,,,,,,,
html-keyboard-response,64,320118,114,"",32,,word,COLD,,,,,,,,,,,,
html-keyboard-response,65,320332,null,"<div style=""font-size:42px;"">HEAVY</div><img id = ""stim"" ><div class = green_square id = ""topsquare"" ></div>",null,practice2,word_square,,prac_response,1,Top,32,true,,,,,,,
html-keyboard-response,66,320639,281.09999999962747,"<div style=""font-size:42px;"">HEAVY</div>",32,,word,HEAVY,,,,,,,,,,,,
html-keyboard-response,67,322147,null,"",null,,word,HEAVY,,,,,,,,,,,,
html-keyboard-response,68,322362,null,"<div style=""font-size:42px;"">FUNNY</div><img id = ""stim"" ><div class = red_square id = ""topsquare"" ></div>",null,practice2,word_square,,prac_response,0,Top,none,true,,,,,,,
html-keyboard-response,69,322669,null,"<div style=""font-size:42px;"">FUNNY</div>",null,,word,FUNNY,,,,,,,,,,,,
html-keyboard-response,70,324176,null,"",null,,word,FUNNY,,,,,,,,,,,,
html-keyboard-response,71,324391,null,"<div style=""font-size:42px;"">SCARY</div><img id = ""stim"" ><div class = green_square id = ""bottomsquare"" ></div>",null,practice2,word_square,,prac_response,1,Bottom,32,true,,,,,,,
html-keyboard-response,72,324700,214.29999999981374,"<div style=""font-size:42px;"">SCARY</div>",32,,word,SCARY,,,,,,,,,,,,
html-keyboard-response,73,326207,null,"",null,,word,SCARY,,,,,,,,,,,,
html-keyboard-response,74,326422,null,"<div style=""font-size:42px;"">PEACEFUL</div><img id = ""stim"" ><div class = green_square id = ""topsquare"" ></div>",null,practice2,word_square,,prac_response,1,Top,32,true,,,,,,,
html-keyboard-response,75,326729,null,"<div style=""font-size:42px;"">PEACEFUL</div>",null,,word,PEACEFUL,,,,,,,,,,,,
html-keyboard-response,76,328235,26.899999999441206,"",32,,word,PEACEFUL,,,,,,,,,,,,
html-keyboard-response,77,328451,null,"<div style=""font-size:42px;"">LITTLE</div><img id = ""stim"" ><div class = red_square id = ""bottomsquare"" ></div>",null,practice2,word_square,LITTLE,prac_response,0,Bottom,none,true,,,,,,,
html-keyboard-response,78,328758,null,"<div style=""font-size:42px;"">LITTLE</div>",null,,word,LITTLE,,,,,,,,,,,,
html-keyboard-response,79,330266,null,"",null,,word,LITTLE,,,,,,,,,,,,
html-keyboard-response,80,330481,null,"<div style=""font-size:42px;"">TIRED</div><img id = ""stim"" ><div class = red_square id = ""topsquare"" ></div>",null,practice2,word_square,,prac_response,0,Top,none,true,,,,,,,
html-keyboard-response,81,330788,null,"<div style=""font-size:42px;"">TIRED</div>",null,,word,TIRED,,,,,,,,,,,,
html-keyboard-response,82,332294,null,"",null,,word,TIRED,,,,,,,,,,,,
html-keyboard-response,83,332510,null,"<div style=""font-size:42px;"">ENTERTAINING</div><img id = ""stim"" ><div class = red_square id = ""bottomsquare"" ></div>",null,practice2,word_square,ENTERTAINING,prac_response,0,Bottom,none,true,,,,,,,
html-keyboard-response,84,332818,null,"<div style=""font-size:42px;"">ENTERTAINING</div>",null,,word,ENTERTAINING,,,,,,,,,,,,
html-keyboard-response,85,334326,null,"",null,,word,ENTERTAINING,,,,,,,,,,,,
html-keyboard-response,86,334540,null,"<div style=""font-size:42px;"">GRATEFUL</div><img id = ""stim"" ><div class = green_square id = ""bottomsquare"" ></div>",null,practice2,word_square,,prac_response,1,Bottom,32,true,,,,,,,
html-keyboard-response,87,334848,287.79999999981374,"<div style=""font-size:42px;"">GRATEFUL</div>",32,,word,GRATEFUL,,,,,,,,,,,,
html-keyboard-response,88,336358,null,"",null,,word,GRATEFUL,,,,,,,,,,,,
html-keyboard-response,89,336573,null,"<div style=""font-size:42px;"">LOUD</div><img id = ""stim"" ><div class = red_square id = ""topsquare"" ></div>",null,practice2,word_square,,prac_response,0,Top,none,true,,,,,,,
html-keyboard-response,90,336882,null,"<div style=""font-size:42px;"">LOUD</div>",null,,word,LOUD,,,,,,,,,,,,
html-keyboard-response,91,338389,null,"",null,,word,LOUD,,,,,,,,,,,,
html-keyboard-response,92,338605,null,"<div style=""font-size:42px;"">SMART</div><img id = ""stim"" ><div class = green_square id = ""topsquare"" ></div>",null,practice2,word_square,,prac_response,1,Top,32,true,,,,,,,
html-keyboard-response,93,338912,247.79999999981374,"<div style=""font-size:42px;"">SMART</div>",32,,word,SMART,,,,,,,,,,,,
html-keyboard-response,94,340420,null,"",null,,word,SMART,,,,,,,,,,,,
html-keyboard-response,95,340635,null,"<div style=""font-size:42px;"">SMOOTH</div><img id = ""stim"" ><div class = green_square id = ""bottomsquare"" ></div>",null,practice2,word_square,,prac_response,1,Bottom,32,true,,,,,,,
html-keyboard-response,96,340941,169.29999999981374,"<div style=""font-size:42px;"">SMOOTH</div>",32,,word,SMOOTH,,,,,,,,,,,,
html-keyboard-response,97,342449,null,"",null,,word,SMOOTH,,,,,,,,,,,,
html-keyboard-response,98,342665,null,"<div style=""font-size:42px;"">DISHONEST</div><img id = ""stim"" ><div class = red_square id = ""bottomsquare"" ></div>",null,practice2,word_square,DISHONEST,prac_response,0,Bottom,none,true,,,,,,,
html-keyboard-response,99,342971,null,"<div style=""font-size:42px;"">DISHONEST</div>",null,,word,DISHONEST,,,,,,,,,,,,
html-keyboard-response,100,344479,null,"",null,,word,DISHONEST,,,,,,,,,,,,
html-keyboard-response,101,344694,null,"<div style=""font-size:42px;"">WEALTHY</div><img id = ""stim"" ><div class = green_square id = ""topsquare"" ></div>",null,practice2,word_square,,prac_response,1,Top,32,true,,,,,,,
html-keyboard-response,102,345002,255.09999999962747,"<div style=""font-size:42px;"">WEALTHY</div>",32,,word,WEALTHY,,,,,,,,,,,,
html-keyboard-response,103,346512,null,"",null,,word,WEALTHY,,,,,,,,,,,,
html-keyboard-response,104,346725,null,"<div style=""font-size:42px;"">BEAUTIFUL</div><img id = ""stim"" ><div class = red_square id = ""topsquare"" ></div>",null,practice2,word_square,,prac_response,0,Top,none,true,,,,,,,
html-keyboard-response,105,347032,null,"<div style=""font-size:42px;"">BEAUTIFUL</div>",null,,word,BEAUTIFUL,,,,,,,,,,,,
html-keyboard-response,106,348539,null,"",null,,word,BEAUTIFUL,,,,,,,,,,,,
html-keyboard-response,107,357477,8935.299999999814,"<p> Good job! You responded correctly to 100% of the trials. </p>
                    <p>Be sure to only press the spacebar if you see a GREEN square, and please keep your accuracy above 80%.</p>
                    <p>Press any key to begin the math and recall sections. Thank you! </p>",32,,,,,,,,,,,,,,,
call-function,108,357478,,"",,,,,,,,,,,,,,,,
html-keyboard-response,109,357580,null,"",null,,,,,,,,,,,,,,,
math-period,110,372389,139543.7000000002,"",,,,,,,,,,,1,,,,,
html-keyboard-response,111,372491,null,"",null,,,,,,,,,,,,,,,
math-period,112,380413,15588.900000000373,"",,,,,,,,,,,1,,,,,
html-keyboard-response,113,380518,null,"",null,,,,,,,,,,,,,,,
math-period,114,381487,null,"",,,,,,,,,,,,,,,,
html-keyboard-response,115,382502,null,"Recall Period!",null,,,,,,,,,,,,,,,
call-function,116,382503,,"",,,,,,,,,,,,,,,,
html-keyboard-response,117,382610,null,"",null,,,,,,,,,,,,,,,
recall-period,118,388701,31572.800000002608,"",,,,,,,,,,,happy,,,,,
html-keyboard-response,119,388808,null,"",null,,,,,,,,,,,,,,,
recall-period,120,392781,10382.600000000559,"",,,,,,,,,,,loud,,,,,
html-keyboard-response,121,392883,null,"",null,,,,,,,,,,,,,,,
recall-period,122,400589,37138.40000000317,"",,,,,,,,,,,peaceful,,,,,
html-keyboard-response,123,400693,null,"",null,,,,,,,,,,,,,,,
recall-period,124,408165,36151.800000000745,"",,,,,,,,,,,scary,,,,,
html-keyboard-response,125,408269,null,"",null,,,,,,,,,,,,,,,
recall-period,126,457504,null,"",,,,,,,,,,,,,,,,
html-keyboard-response,127,458013,null,"Time's Up!",null,,,,,,,,,,,,,,,
html-keyboard-response,128,473081,15064.5,"<p>We will now begin the experiment!<p><p>Please try to remember all words from each list.<p><p>Press the spacebar whenever you see a GREEN square.<p><p><p><p>Press the spacebar to begin.</p>",32,,,,,,,,,,,,,,,
html-keyboard-response,129,481800,8212.5,"<div style=""font-size:48px;"">Press any key to begin list 1 of 16 </div>",32,,,,,,,,,,,,,,,
html-keyboard-response,130,484325,null,"<div style=""font-size:60px;"">+</div>",null,,,,,,,,,,,,,,,
html-keyboard-response,131,484540,null,"<div style=""font-size:42px;"">MUSHROOM</div><img id = ""stim"" ><div class = green_square id = topsquare></div>",null,encoding,word_square,,,1,topsquare,32,true,,,MUSHROOM,0,,,
html-keyboard-response,132,484849,null,"<div style=""font-size:42px;"">MUSHROOM</div>",null,,word,MUSHROOM,,,,,,,,,,,,
html-keyboard-response,133,486355,299.5,"",32,,word,MUSHROOM,,,,,,,,,,,,
html-keyboard-response,134,486570,null,"<div style=""font-size:42px;"">BEAKER</div><img id = ""stim"" ><div class = red_square id = bottomsquare></div>",null,encoding,word_square,,,0,bottomsquare,none,true,,,BEAKER,0,,,
html-keyboard-response,135,486877,null,"<div style=""font-size:42px;"">BEAKER</div>",null,,word,BEAKER,,,,,,,,,,,,
html-keyboard-response,136,488383,null,"",null,,word,BEAKER,,,,,,,,,,,,
html-keyboard-response,137,488599,null,"<div style=""font-size:42px;"">COBWEB</div><img id = ""stim"" ><div class = red_square id = topsquare></div>",null,encoding,word_square,,,0,topsquare,none,true,,,COBWEB,0,,,
html-keyboard-response,138,488907,null,"<div style=""font-size:42px;"">COBWEB</div>",null,,word,COBWEB,,,,,,,,,,,,
html-keyboard-response,139,490418,null,"",null,,word,COBWEB,,,,,,,,,,,,
html-keyboard-response,140,490633,null,"<div style=""font-size:42px;"">CREATURE</div><img id = ""stim"" ><div class = green_square id = bottomsquare></div>",null,encoding,word_square,,,1,bottomsquare,32,true,,,CREATURE,0,,,
html-keyboard-response,141,490940,277.2999999988824,"<div style=""font-size:42px;"">CREATURE</div>",32,,word,CREATURE,,,,,,,,,,,,
html-keyboard-response,142,492448,null,"",null,,word,CREATURE,,,,,,,,,,,,
html-keyboard-response,143,492664,null,"<div style=""font-size:42px;"">MARINE</div><img id = ""stim"" ><div class = red_square id = bottomsquare></div>",null,encoding,word_square,,,0,bottomsquare,none,true,,,MARINE,0,,,
html-keyboard-response,144,492972,null,"<div style=""font-size:42px;"">MARINE</div>",null,,word,MARINE,,,,,,,,,,,,
html-keyboard-response,145,494479,null,"",null,,word,MARINE,,,,,,,,,,,,
html-keyboard-response,146,494693,null,"<div style=""font-size:42px;"">RAFT</div><img id = ""stim"" ><div class = red_square id = topsquare></div>",null,encoding,word_square,,,0,topsquare,none,true,,,RAFT,0,,,
html-keyboard-response,147,495001,null,"<div style=""font-size:42px;"">RAFT</div>",null,,word,RAFT,,,,,,,,,,,,
html-keyboard-response,148,496507,null,"",null,,word,RAFT,,,,,,,,,,,,
html-keyboard-response,149,496723,null,"<div style=""font-size:42px;"">SOFTBALL</div><img id = ""stim"" ><div class = green_square id = topsquare></div>",null,encoding,word_square,,,1,topsquare,32,true,,,SOFTBALL,0,,,
html-keyboard-response,150,497031,242,"<div style=""font-size:42px;"">SOFTBALL</div>",32,,word,SOFTBALL,,,,,,,,,,,,
html-keyboard-response,151,498538,null,"",null,,word,SOFTBALL,,,,,,,,,,,,
html-keyboard-response,152,498752,null,"<div style=""font-size:42px;"">CRICKET</div><img id = ""stim"" ><div class = green_square id = bottomsquare></div>",null,encoding,word_square,,,1,bottomsquare,32,true,,,CRICKET,0,,,
html-keyboard-response,153,499059,null,"<div style=""font-size:42px;"">CRICKET</div>",null,,word,CRICKET,,,,,,,,,,,,
html-keyboard-response,154,500568,157.09999999962747,"",32,,word,CRICKET,,,,,,,,,,,,
html-keyboard-response,155,500784,null,"<div style=""font-size:42px;"">LOVER</div><img id = ""stim"" ><div class = green_square id = topsquare></div>",null,encoding,word_square,,,1,topsquare,32,true,,,LOVER,0,,,
html-keyboard-response,156,501092,null,"<div style=""font-size:42px;"">LOVER</div>",null,,word,LOVER,,,,,,,,,,,,
html-keyboard-response,157,502599,111.80000000074506,"",32,,word,LOVER,,,,,,,,,,,,
html-keyboard-response,158,502815,null,"<div style=""font-size:42px;"">NIGHTGOWN</div><img id = ""stim"" ><div class = green_square id = bottomsquare></div>",null,encoding,word_square,,,1,bottomsquare,32,true,,,NIGHTGOWN,0,,,
html-keyboard-response,159,503122,null,"<div style=""font-size:42px;"">NIGHTGOWN</div>",null,,word,NIGHTGOWN,,,,,,,,,,,,
html-keyboard-response,160,504629,185.5,"",32,,word,NIGHTGOWN,,,,,,,,,,,,
html-keyboard-response,161,504843,null,"<div style=""font-size:42px;"">LION</div><img id = ""stim"" ><div class = red_square id = bottomsquare></div>",null,encoding,word_square,,,0,bottomsquare,none,true,,,LION,0,,,
html-keyboard-response,162,505151,null,"<div style=""font-size:42px;"">LION</div>",null,,word,LION,,,,,,,,,,,,
html-keyboard-response,163,506659,null,"",null,,word,LION,,,,,,,,,,,,
html-keyboard-response,164,506875,null,"<div style=""font-size:42px;"">LAVA</div><img id = ""stim"" ><div class = green_square id = topsquare></div>",null,encoding,word_square,,,1,topsquare,32,true,,,LAVA,0,,,
html-keyboard-response,165,507182,282.90000000037253,"<div style=""font-size:42px;"">LAVA</div>",32,,word,LAVA,,,,,,,,,,,,
html-keyboard-response,166,508687,null,"",null,,word,LAVA,,,,,,,,,,,,
html-keyboard-response,167,508902,null,"<div style=""font-size:42px;"">BLOSSOM</div><img id = ""stim"" ><div class = red_square id = topsquare></div>",null,encoding,word_square,,,0,topsquare,none,true,,,BLOSSOM,0,,,
html-keyboard-response,168,509210,null,"<div style=""font-size:42px;"">BLOSSOM</div>",null,,word,BLOSSOM,,,,,,,,,,,,
html-keyboard-response,169,510718,null,"",null,,word,BLOSSOM,,,,,,,,,,,,
html-keyboard-response,170,510931,null,"<div style=""font-size:42px;"">SHACK</div><img id = ""stim"" ><div class = red_square id = bottomsquare></div>",null,encoding,word_square,,,0,bottomsquare,none,true,,,SHACK,0,,,
html-keyboard-response,171,511239,null,"<div style=""font-size:42px;"">SHACK</div>",null,,word,SHACK,,,,,,,,,,,,
html-keyboard-response,172,512745,null,"",null,,word,SHACK,,,,,,,,,,,,
html-keyboard-response,173,512960,null,"<div style=""font-size:42px;"">LAKE</div><img id = ""stim"" ><div class = green_square id = bottomsquare></div>",null,encoding,word_square,,,1,bottomsquare,32,true,,,LAKE,0,,,
html-keyboard-response,174,513268,227.5,"<div style=""font-size:42px;"">LAKE</div>",32,,word,LAKE,,,,,,,,,,,,
html-keyboard-response,175,514776,null,"",null,,word,LAKE,,,,,,,,,,,,
html-keyboard-response,176,514990,null,"<div style=""font-size:42px;"">BASEBALL</div><img id = ""stim"" ><div class = red_square id = topsquare></div>",null,encoding,word_square,,,0,topsquare,none,true,,,BASEBALL,0,,,
html-keyboard-response,177,515298,null,"<div style=""font-size:42px;"">BASEBALL</div>",null,,word,BASEBALL,,,,,,,,,,,,
html-keyboard-response,178,516805,null,"",null,,word,BASEBALL,,,,,,,,,,,,
call-function,179,516807,,"",,,,,,,,,,,,,,,,
html-keyboard-response,180,516914,null,"",null,,,,,,,,,,,,,,,
math-period,181,524501,12252.5,"",,,,,,,,,,,5,,,,,
html-keyboard-response,182,524606,null,"",null,,,,,,,,,,,,,,,
math-period,183,531245,11486.500000001863,"",,,,,,,,,,,0,,,,,
html-keyboard-response,184,531357,null,"",null,,,,,,,,,,,,,,,
math-period,185,536853,9054.800000000745,"",,,,,,,,,,,5,,,,,
html-keyboard-response,186,536959,null,"",null,,,,,,,,,,,,,,,
math-period,187,540816,null,"",,,,,,,,,,,,,,,,
html-keyboard-response,188,541831,null,"Recall Period!",null,,,,,,,,,,,,,,,
call-function,189,541834,,"",,,,,,,,,,,,,,,,
html-keyboard-response,190,541939,null,"",null,,,,,,,,,,,,,,,
recall-period,191,547789,26573.20000000298,"",,,,,,,,,,,lava,,,,,
html-keyboard-response,192,547905,null,"",null,,,,,,,,,,,,,,,
recall-period,193,551317,10809,"",,,,,,,,,,,lake,,,,,
html-keyboard-response,194,551424,null,"",null,,,,,,,,,,,,,,,
recall-period,195,558077,41427.10000000894,"",,,,,,,,,,,cricket,,,,,
html-keyboard-response,196,558181,null,"",null,,,,,,,,,,,,,,,
recall-period,197,562269,13331.700000004843,"",,,,,,,,,,,mushroom,,,,,
html-keyboard-response,198,562380,null,"",null,,,,,,,,,,,,,,,
recall-period,199,568141,17867.29999999702,"",,,,,,,,,,,lover,,,,,
html-keyboard-response,200,568253,null,"",null,,,,,,,,,,,,,,,
recall-period,201,580005,96199.10000000335,"",,,,,,,,,,,nightgown,,,,,
html-keyboard-response,202,580117,null,"",null,,,,,,,,,,,,,,,
recall-period,203,588854,104211.50000001304,"",,,,,,,,,,,creature,,,,,
html-keyboard-response,204,588957,null,"",null,,,,,,,,,,,,,,,
recall-period,205,616841,null,"",,,,,,,,,,,,,,,,
html-keyboard-response,206,617348,null,"Time's Up!",null,,,,,,,,,,,,,,,
html-keyboard-response,207,622102,4751.199999999255,"<p> Good job! You have responded correctly to 100% of the trials. </p>
                      <p>Be sure to only press the spacebar if you see a GREEN square, and please keep your accuracy above 80%.</p>
                      <p> Press any key to continue the experiment. </p>",32,,,,,,,,,,,,,,,
html-keyboard-response,208,623712,1607.7000000011176,"<div style=""font-size:48px;"">Press any key to begin list 2 of 16 </div>",32,,,,,,,,,,,,,,,
html-keyboard-response,209,626235,null,"<div style=""font-size:60px;"">+</div>",null,,,,,,,,,,,,,,,
html-keyboard-response,210,626450,null,"<div style=""font-size:42px;"">HORSE</div><img id = ""stim"" ><div class = red_square id = topsquare></div>",null,encoding,word_square,,,0,topsquare,none,true,,,HORSE,1,,,
html-keyboard-response,211,626758,null,"<div style=""font-size:42px;"">HORSE</div>",null,,word,HORSE,,,,,,,,,,,,
html-keyboard-response,212,628268,null,"",null,,word,HORSE,,,,,,,,,,,,
html-keyboard-response,213,628481,null,"<div style=""font-size:42px;"">FIELD</div><img id = ""stim"" ><div class = green_square id = bottomsquare></div>",null,encoding,word_square,,,1,bottomsquare,32,true,,,FIELD,1,,,
html-keyboard-response,214,628790,null,"<div style=""font-size:42px;"">FIELD</div>",null,,word,FIELD,,,,,,,,,,,,
html-keyboard-response,215,630300,78.39999999850988,"",32,,word,FIELD,,,,,,,,,,,,
html-keyboard-response,216,630515,null,"<div style=""font-size:42px;"">BARLEY</div><img id = ""stim"" ><div class = red_square id = bottomsquare></div>",null,encoding,word_square,,,0,bottomsquare,none,true,,,BARLEY,1,,,
html-keyboard-response,217,630823,null,"<div style=""font-size:42px;"">BARLEY</div>",null,,word,BARLEY,,,,,,,,,,,,
html-keyboard-response,218,632327,null,"",null,,word,BARLEY,,,,,,,,,,,,
html-keyboard-response,219,632544,null,"<div style=""font-size:42px;"">HELMET</div><img id = ""stim"" ><div class = red_square id = topsquare></div>",null,encoding,word_square,,,0,topsquare,none,true,,,HELMET,1,,,
html-keyboard-response,220,632853,null,"<div style=""font-size:42px;"">HELMET</div>",null,,word,HELMET,,,,,,,,,,,,
html-keyboard-response,221,634357,null,"",null,,word,HELMET,,,,,,,,,,,,
html-keyboard-response,222,634571,null,"<div style=""font-size:42px;"">PEDAL</div><img id = ""stim"" ><div class = green_square id = topsquare></div>",null,encoding,word_square,,,1,topsquare,32,true,,,PEDAL,1,,,
html-keyboard-response,223,634880,null,"<div style=""font-size:42px;"">PEDAL</div>",null,,word,PEDAL,,,,,,,,,,,,
html-keyboard-response,224,636386,229.40000000037253,"",32,,word,PEDAL,,,,,,,,,,,,
html-keyboard-response,225,636601,null,"<div style=""font-size:42px;"">ROBIN</div><img id = ""stim"" ><div class = red_square id = bottomsquare></div>",null,encoding,word_square,,,0,bottomsquare,none,true,,,ROBIN,1,,,
html-keyboard-response,226,636909,null,"<div style=""font-size:42px;"">ROBIN</div>",null,,word,ROBIN,,,,,,,,,,,,
html-keyboard-response,227,638414,null,"",null,,word,ROBIN,,,,,,,,,,,,
html-keyboard-response,228,638630,null,"<div style=""font-size:42px;"">POND</div><img id = ""stim"" ><div class = green_square id = bottomsquare></div>",null,encoding,word_square,,,1,bottomsquare,32,true,,,POND,1,,,
html-keyboard-response,229,638936,303.59999999962747,"<div style=""font-size:42px;"">POND</div>",32,,word,POND,,,,,,,,,,,,
html-keyboard-response,230,640445,null,"",null,,word,POND,,,,,,,,,,,,
html-keyboard-response,231,640660,null,"<div style=""font-size:42px;"">BRANDY</div><img id = ""stim"" ><div class = green_square id = topsquare></div>",null,encoding,word_square,,,1,topsquare,32,true,,,BRANDY,1,,,
html-keyboard-response,232,640968,null,"<div style=""font-size:42px;"">BRANDY</div>",null,,word,BRANDY,,,,,,,,,,,,
html-keyboard-response,233,642472,20.600000001490116,"",32,,word,BRANDY,,,,,,,,,,,,
html-keyboard-response,234,642688,null,"<div style=""font-size:42px;"">STREAM</div><img id = ""stim"" ><div class = green_square id = bottomsquare></div>",null,encoding,word_square,,,1,bottomsquare,32,true,,,STREAM,1,,,
html-keyboard-response,235,642995,null,"<div style=""font-size:42px;"">STREAM</div>",null,,word,STREAM,,,,,,,,,,,,
html-keyboard-response,236,644504,161.69999999925494,"",32,,word,STREAM,,,,,,,,,,,,
html-keyboard-response,237,644718,null,"<div style=""font-size:42px;"">KNAPSACK</div><img id = ""stim"" ><div class = green_square id = topsquare></div>",null,encoding,word_square,,,1,topsquare,32,true,,,KNAPSACK,1,,,
html-keyboard-response,238,645028,null,"<div style=""font-size:42px;"">KNAPSACK</div>",null,,word,KNAPSACK,,,,,,,,,,,,
html-keyboard-response,239,646535,8.5,"",32,,word,KNAPSACK,,,,,,,,,,,,
html-keyboard-response,240,646751,null,"<div style=""font-size:42px;"">FRECKLE</div><img id = ""stim"" ><div class = red_square id = topsquare></div>",null,encoding,word_square,,,0,topsquare,none,true,,,FRECKLE,1,,,
html-keyboard-response,241,647058,null,"<div style=""font-size:42px;"">FRECKLE</div>",null,,word,FRECKLE,,,,,,,,,,,,
html-keyboard-response,242,648563,null,"",null,,word,FRECKLE,,,,,,,,,,,,
html-keyboard-response,243,648779,null,"<div style=""font-size:42px;"">PEOPLE</div><img id = ""stim"" ><div class = red_square id = bottomsquare></div>",null,encoding,word_square,,,0,bottomsquare,none,true,,,PEOPLE,1,,,
html-keyboard-response,244,649085,null,"<div style=""font-size:42px;"">PEOPLE</div>",null,,word,PEOPLE,,,,,,,,,,,,
html-keyboard-response,245,650590,null,"",null,,word,PEOPLE,,,,,,,,,,,,
html-keyboard-response,246,650805,null,"<div style=""font-size:42px;"">POLICE</div><img id = ""stim"" ><div class = green_square id = bottomsquare></div>",null,encoding,word_square,,,1,bottomsquare,32,true,,,POLICE,1,,,
html-keyboard-response,247,651114,289.69999999925494,"<div style=""font-size:42px;"">POLICE</div>",32,,word,POLICE,,,,,,,,,,,,
html-keyboard-response,248,652616,null,"",null,,word,POLICE,,,,,,,,,,,,
html-keyboard-response,249,652832,null,"<div style=""font-size:42px;"">SUSPECT</div><img id = ""stim"" ><div class = red_square id = topsquare></div>",null,encoding,word_square,,,0,topsquare,none,true,,,SUSPECT,1,,,
html-keyboard-response,250,653139,null,"<div style=""font-size:42px;"">SUSPECT</div>",null,,word,SUSPECT,,,,,,,,,,,,
html-keyboard-response,251,654648,null,"",null,,word,SUSPECT,,,,,,,,,,,,
html-keyboard-response,252,654862,null,"<div style=""font-size:42px;"">DIVER</div><img id = ""stim"" ><div class = red_square id = bottomsquare></div>",null,encoding,word_square,,,0,bottomsquare,none,true,,,DIVER,1,,,
html-keyboard-response,253,655169,null,"<div style=""font-size:42px;"">DIVER</div>",null,,word,DIVER,,,,,,,,,,,,
html-keyboard-response,254,656675,null,"",null,,word,DIVER,,,,,,,,,,,,
html-keyboard-response,255,656891,null,"<div style=""font-size:42px;"">LOBBY</div><img id = ""stim"" ><div class = green_square id = topsquare></div>",null,encoding,word_square,,,1,topsquare,32,true,,,LOBBY,1,,,
html-keyboard-response,256,657198,null,"<div style=""font-size:42px;"">LOBBY</div>",null,,word,LOBBY,,,,,,,,,,,,
html-keyboard-response,257,658704,37.5,"",32,,word,LOBBY,,,,,,,,,,,,
call-function,258,658706,,"",,,,,,,,,,,,,,,,
html-keyboard-response,259,658807,null,"",null,,,,,,,,,,,,,,,
math-period,260,664373,10426.89999999851,"",,,,,,,,,,,5,,,,,
html-keyboard-response,261,664483,null,"",null,,,,,,,,,,,,,,,
math-period,262,666941,4594.400000002235,"",,,,,,,,,,,6,,,,,
html-keyboard-response,263,667048,null,"",null,,,,,,,,,,,,,,,
math-period,264,670125,5191.9000000003725,"",,,,,,,,,,,3,,,,,
html-keyboard-response,265,670230,null,"",null,,,,,,,,,,,,,,,
math-period,266,672325,3932.39999999851,"",,,,,,,,,,,4,,,,,
html-keyboard-response,267,672432,null,"",null,,,,,,,,,,,,,,,
math-period,268,676989,8490.800000002608,"",,,,,,,,,,,1,,,,,
html-keyboard-response,269,677105,null,"",null,,,,,,,,,,,,,,,
math-period,270,681037,5696,"",,,,,,,,,,,3,,,,,
html-keyboard-response,271,681150,null,"",null,,,,,,,,,,,,,,,
math-period,272,682720,null,"",,,,,,,,,,,,,,,,
html-keyboard-response,273,683734,null,"Recall Period!",null,,,,,,,,,,,,,,,
call-function,274,683736,,"",,,,,,,,,,,,,,,,
html-keyboard-response,275,683841,null,"",null,,,,,,,,,,,,,,,
recall-period,276,686621,15870.299999993294,"",,,,,,,,,,,police,,,,,
html-keyboard-response,277,686725,null,"",null,,,,,,,,,,,,,,,
recall-period,278,688173,6230.9000000059605,"",,,,,,,,,,,diver,,,,,
html-keyboard-response,279,688282,null,"",null,,,,,,,,,,,,,,,
recall-period,280,691653,8834.900000000373,"",,,,,,,,,,,lobby,,,,,
html-keyboard-response,281,691755,null,"",null,,,,,,,,,,,,,,,
recall-period,282,695309,14174.800000002608,"",,,,,,,,,,,barely,,,,,
html-keyboard-response,283,695413,null,"",null,,,,,,,,,,,,,,,
recall-period,284,700261,21709.099999999627,"",,,,,,,,,,,helmet,,,,,
html-keyboard-response,285,700365,null,"",null,,,,,,,,,,,,,,,
recall-period,286,704861,13848.599999999627,"",,,,,,,,,,,field,,,,,
html-keyboard-response,287,704969,null,"",null,,,,,,,,,,,,,,,
recall-period,288,711741,36292.9000000041,"",,,,,,,,,,,pedal,,,,,
html-keyboard-response,289,711844,null,"",null,,,,,,,,,,,,,,,
recall-period,290,758738,null,"",,,,,,,,,,,,,,,,
html-keyboard-response,291,759244,null,"Time's Up!",null,,,,,,,,,,,,,,,
html-keyboard-response,292,763822,4574.0999999996275,"<p> Good job! You have responded correctly to 100% of the trials. </p>
                      <p>Be sure to only press the spacebar if you see a GREEN square, and please keep your accuracy above 80%.</p>
                      <p> Press any key to continue the experiment. </p>",32,,,,,,,,,,,,,,,
html-keyboard-response,293,764568,743.6999999992549,"<div style=""font-size:48px;"">Press any key to begin list 3 of 16 </div>",32,,,,,,,,,,,,,,,
html-keyboard-response,294,767099,null,"<div style=""font-size:60px;"">+</div>",null,,,,,,,,,,,,,,,
html-keyboard-response,295,767315,null,"<div style=""font-size:42px;"">DOCK</div><img id = ""stim"" ><div class = red_square id = bottomsquare></div>",null,encoding,word_square,,,0,bottomsquare,none,true,,,DOCK,2,,,
html-keyboard-response,296,767621,null,"<div style=""font-size:42px;"">DOCK</div>",null,,word,DOCK,,,,,,,,,,,,
html-keyboard-response,297,769130,null,"",null,,word,DOCK,,,,,,,,,,,,
html-keyboard-response,298,769344,null,"<div style=""font-size:42px;"">CITRUS</div><img id = ""stim"" ><div class = green_square id = topsquare></div>",null,encoding,word_square,,,1,topsquare,32,true,,,CITRUS,2,,,
html-keyboard-response,299,769651,260.30000000074506,"<div style=""font-size:42px;"">CITRUS</div>",32,,word,CITRUS,,,,,,,,,,,,
html-keyboard-response,300,771157,null,"",null,,word,CITRUS,,,,,,,,,,,,
html-keyboard-response,301,771373,null,"<div style=""font-size:42px;"">NURSE</div><img id = ""stim"" ><div class = green_square id = bottomsquare></div>",null,encoding,word_square,,,1,bottomsquare,32,true,,,NURSE,2,,,
html-keyboard-response,302,771680,295.5,"<div style=""font-size:42px;"">NURSE</div>",32,,word,NURSE,,,,,,,,,,,,
html-keyboard-response,303,773187,null,"",null,,word,NURSE,,,,,,,,,,,,
html-keyboard-response,304,773403,null,"<div style=""font-size:42px;"">CONVICT</div><img id = ""stim"" ><div class = red_square id = topsquare></div>",null,encoding,word_square,,,0,topsquare,none,true,,,CONVICT,2,,,
html-keyboard-response,305,773709,null,"<div style=""font-size:42px;"">CONVICT</div>",null,,word,CONVICT,,,,,,,,,,,,
html-keyboard-response,306,775216,null,"",null,,word,CONVICT,,,,,,,,,,,,
html-keyboard-response,307,775430,null,"<div style=""font-size:42px;"">CRAB</div><img id = ""stim"" ><div class = green_square id = topsquare></div>",null,encoding,word_square,,,1,topsquare,32,true,,,CRAB,2,,,
html-keyboard-response,308,775737,223.30000000074506,"<div style=""font-size:42px;"">CRAB</div>",32,,word,CRAB,,,,,,,,,,,,
html-keyboard-response,309,777246,null,"",null,,word,CRAB,,,,,,,,,,,,
html-keyboard-response,310,777460,null,"<div style=""font-size:42px;"">SCAPEGOAT</div><img id = ""stim"" ><div class = green_square id = bottomsquare></div>",null,encoding,word_square,,,1,bottomsquare,32,true,,,SCAPEGOAT,2,,,
html-keyboard-response,311,777767,null,"<div style=""font-size:42px;"">SCAPEGOAT</div>",null,,word,SCAPEGOAT,,,,,,,,,,,,
html-keyboard-response,312,779275,45.30000000074506,"",32,,word,SCAPEGOAT,,,,,,,,,,,,
html-keyboard-response,313,779490,null,"<div style=""font-size:42px;"">OZONE</div><img id = ""stim"" ><div class = red_square id = bottomsquare></div>",null,encoding,word_square,,,0,bottomsquare,none,true,,,OZONE,2,,,
html-keyboard-response,314,779798,null,"<div style=""font-size:42px;"">OZONE</div>",null,,word,OZONE,,,,,,,,,,,,
html-keyboard-response,315,781306,null,"",null,,word,OZONE,,,,,,,,,,,,
html-keyboard-response,316,781522,null,"<div style=""font-size:42px;"">PLUM</div><img id = ""stim"" ><div class = red_square id = topsquare></div>",null,encoding,word_square,,,0,topsquare,none,false,,,PLUM,2,,,
html-keyboard-response,317,781829,null,"<div style=""font-size:42px;"">PLUM</div>",null,,word,PLUM,,,,,,,,,,,,
html-keyboard-response,318,783336,199,"",32,,word,PLUM,,,,,,,,,,,,
html-keyboard-response,319,783551,null,"<div style=""font-size:42px;"">SIDEWALK</div><img id = ""stim"" ><div class = red_square id = bottomsquare></div>",null,encoding,word_square,,,0,bottomsquare,none,true,,,SIDEWALK,2,,,
html-keyboard-response,320,783858,null,"<div style=""font-size:42px;"">SIDEWALK</div>",null,,word,SIDEWALK,,,,,,,,,,,,
html-keyboard-response,321,785365,null,"",null,,word,SIDEWALK,,,,,,,,,,,,
html-keyboard-response,322,785581,null,"<div style=""font-size:42px;"">TRIBE</div><img id = ""stim"" ><div class = red_square id = topsquare></div>",null,encoding,word_square,,,0,topsquare,none,true,,,TRIBE,2,,,
html-keyboard-response,323,785890,null,"<div style=""font-size:42px;"">TRIBE</div>",null,,word,TRIBE,,,,,,,,,,,,
html-keyboard-response,324,787397,null,"",null,,word,TRIBE,,,,,,,,,,,,
html-keyboard-response,325,787612,null,"<div style=""font-size:42px;"">COWBOY</div><img id = ""stim"" ><div class = green_square id = topsquare></div>",null,encoding,word_square,,,1,topsquare,32,true,,,COWBOY,2,,,
html-keyboard-response,326,787918,208.90000000037253,"<div style=""font-size:42px;"">COWBOY</div>",32,,word,COWBOY,,,,,,,,,,,,
html-keyboard-response,327,789426,null,"",null,,word,COWBOY,,,,,,,,,,,,
html-keyboard-response,328,789641,null,"<div style=""font-size:42px;"">EUROPE</div><img id = ""stim"" ><div class = red_square id = bottomsquare></div>",null,encoding,word_square,,,0,bottomsquare,none,true,,,EUROPE,2,,,
html-keyboard-response,329,789948,null,"<div style=""font-size:42px;"">EUROPE</div>",null,,word,EUROPE,,,,,,,,,,,,
html-keyboard-response,330,791453,null,"",null,,word,EUROPE,,,,,,,,,,,,
html-keyboard-response,331,791668,null,"<div style=""font-size:42px;"">SALAD</div><img id = ""stim"" ><div class = green_square id = bottomsquare></div>",null,encoding,word_square,,,1,bottomsquare,32,true,,,SALAD,2,,,
html-keyboard-response,332,791976,178.19999999925494,"<div style=""font-size:42px;"">SALAD</div>",32,,word,SALAD,,,,,,,,,,,,
html-keyboard-response,333,793494,null,"",null,,word,SALAD,,,,,,,,,,,,
html-keyboard-response,334,793709,null,"<div style=""font-size:42px;"">STALLION</div><img id = ""stim"" ><div class = green_square id = topsquare></div>",null,encoding,word_square,,,1,topsquare,32,true,,,STALLION,2,,,
html-keyboard-response,335,794019,null,"<div style=""font-size:42px;"">STALLION</div>",null,,word,STALLION,,,,,,,,,,,,
html-keyboard-response,336,795524,49.80000000074506,"",32,,word,STALLION,,,,,,,,,,,,
html-keyboard-response,337,795739,null,"<div style=""font-size:42px;"">SADDLE</div><img id = ""stim"" ><div class = red_square id = topsquare></div>",null,encoding,word_square,,,0,topsquare,none,true,,,SADDLE,2,,,
html-keyboard-response,338,796048,null,"<div style=""font-size:42px;"">SADDLE</div>",null,,word,SADDLE,,,,,,,,,,,,
html-keyboard-response,339,797553,null,"",null,,word,SADDLE,,,,,,,,,,,,
html-keyboard-response,340,797768,null,"<div style=""font-size:42px;"">ZEBRA</div><img id = ""stim"" ><div class = green_square id = bottomsquare></div>",null,encoding,word_square,,,1,bottomsquare,32,true,,,ZEBRA,2,,,
html-keyboard-response,341,798074,285,"<div style=""font-size:42px;"">ZEBRA</div>",32,,word,ZEBRA,,,,,,,,,,,,
html-keyboard-response,342,799581,null,"",null,,word,ZEBRA,,,,,,,,,,,,
call-function,343,799582,,"",,,,,,,,,,,,,,,,
html-keyboard-response,344,799684,null,"",null,,,,,,,,,,,,,,,
math-period,345,810173,111664.50000000373,"",,,,,,,,,,,0,,,,,
html-keyboard-response,346,810283,null,"",null,,,,,,,,,,,,,,,
math-period,347,814869,9051.300000000745,"",,,,,,,,,,,2,,,,,
html-keyboard-response,348,814983,null,"",null,,,,,,,,,,,,,,,
math-period,349,817029,3962.699999999255,"",,,,,,,,,,,6,,,,,
html-keyboard-response,350,817135,null,"",null,,,,,,,,,,,,,,,
math-period,351,821205,7724.299999998882,"",,,,,,,,,,,2,,,,,
html-keyboard-response,352,821318,null,"",null,,,,,,,,,,,,,,,
math-period,353,823594,2197.5,"",,,,,,,,,,,3,,,,,
html-keyboard-response,354,824609,null,"Recall Period!",null,,,,,,,,,,,,,,,
call-function,355,824611,,"",,,,,,,,,,,,,,,,
html-keyboard-response,356,824717,null,"",null,,,,,,,,,,,,,,,
recall-period,357,828733,23409.10000000149,"",,,,,,,,,,,cowboy,,,,,
html-keyboard-response,358,828847,null,"",null,,,,,,,,,,,,,,,
recall-period,359,832917,13609.19999999553,"",,,,,,,,,,,ozone,,,,,
html-keyboard-response,360,833032,null,"",null,,,,,,,,,,,,,,,
recall-period,361,834926,8300.100000005215,"",,,,,,,,,,,salad,,,,,
html-keyboard-response,362,835029,null,"",null,,,,,,,,,,,,,,,
recall-period,363,840653,14145.500000005588,"",,,,,,,,,,,plum,,,,,
html-keyboard-response,364,840764,null,"",null,,,,,,,,,,,,,,,
recall-period,365,845845,13022.500000003725,"",,,,,,,,,,,nurse,,,,,
html-keyboard-response,366,845950,null,"",null,,,,,,,,,,,,,,,
recall-period,367,850645,20859.700000006706,"",,,,,,,,,,,citrus,,,,,
html-keyboard-response,368,850750,null,"",null,,,,,,,,,,,,,,,
recall-period,369,899624,null,"",,,,,,,,,,,,,,,,
html-keyboard-response,370,900130,null,"Time's Up!",null,,,,,,,,,,,,,,,
html-keyboard-response,371,902473,2339.800000000745,"<p> Good job! You have responded correctly to 98% of the trials. </p>
                      <p>Be sure to only press the spacebar if you see a GREEN square, and please keep your accuracy above 80%.</p>
                      <p> Press any key to continue the experiment. </p>",32,,,,,,,,,,,,,,,
html-keyboard-response,372,905406,2931.2000000011176,"<div style=""font-size:48px;"">Press any key to begin list 4 of 16 </div>",32,,,,,,,,,,,,,,,
html-keyboard-response,373,907929,null,"<div style=""font-size:60px;"">+</div>",null,,,,,,,,,,,,,,,
html-keyboard-response,374,908143,null,"<div style=""font-size:42px;"">PIGEON</div><img id = ""stim"" ><div class = green_square id = bottomsquare></div>",null,encoding,word_square,,,1,bottomsquare,32,true,,,PIGEON,3,,,
html-keyboard-response,375,908448,null,"<div style=""font-size:42px;"">PIGEON</div>",null,,word,PIGEON,,,,,,,,,,,,
html-keyboard-response,376,909956,27.199999999254942,"",32,,word,PIGEON,,,,,,,,,,,,
html-keyboard-response,377,910172,null,"<div style=""font-size:42px;"">PARROT</div><img id = ""stim"" ><div class = red_square id = topsquare></div>",null,encoding,word_square,,,0,topsquare,none,false,,,PARROT,3,,,
html-keyboard-response,378,910479,null,"<div style=""font-size:42px;"">PARROT</div>",null,,word,PARROT,,,,,,,,,,,,
html-keyboard-response,379,911987,124.40000000037253,"",32,,word,PARROT,,,,,,,,,,,,
html-keyboard-response,380,912202,null,"<div style=""font-size:42px;"">SCOUT</div><img id = ""stim"" ><div class = green_square id = topsquare></div>",null,encoding,word_square,,,1,topsquare,32,true,,,SCOUT,3,,,
html-keyboard-response,381,912509,210.30000000074506,"<div style=""font-size:42px;"">SCOUT</div>",32,,word,SCOUT,,,,,,,,,,,,
html-keyboard-response,382,914015,null,"",null,,word,SCOUT,,,,,,,,,,,,
html-keyboard-response,383,914230,null,"<div style=""font-size:42px;"">DONKEY</div><img id = ""stim"" ><div class = green_square id = bottomsquare></div>",null,encoding,word_square,,,1,bottomsquare,32,true,,,DONKEY,3,,,
html-keyboard-response,384,914536,303.5,"<div style=""font-size:42px;"">DONKEY</div>",32,,word,DONKEY,,,,,,,,,,,,
html-keyboard-response,385,916045,null,"",null,,word,DONKEY,,,,,,,,,,,,
html-keyboard-response,386,916259,null,"<div style=""font-size:42px;"">FOREHEAD</div><img id = ""stim"" ><div class = red_square id = bottomsquare></div>",null,encoding,word_square,,,0,bottomsquare,none,true,,,FOREHEAD,3,,,
html-keyboard-response,387,916567,null,"<div style=""font-size:42px;"">FOREHEAD</div>",null,,word,FOREHEAD,,,,,,,,,,,,
html-keyboard-response,388,918074,null,"",null,,word,FOREHEAD,,,,,,,,,,,,
html-keyboard-response,389,918289,null,"<div style=""font-size:42px;"">SENATE</div><img id = ""stim"" ><div class = green_square id = topsquare></div>",null,encoding,word_square,,,1,topsquare,32,true,,,SENATE,3,,,
html-keyboard-response,390,918597,null,"<div style=""font-size:42px;"">SENATE</div>",null,,word,SENATE,,,,,,,,,,,,
html-keyboard-response,391,920105,87.30000000074506,"",32,,word,SENATE,,,,,,,,,,,,
html-keyboard-response,392,920321,null,"<div style=""font-size:42px;"">RAILROAD</div><img id = ""stim"" ><div class = red_square id = topsquare></div>",null,encoding,word_square,,,0,topsquare,none,true,,,RAILROAD,3,,,
html-keyboard-response,393,920629,null,"<div style=""font-size:42px;"">RAILROAD</div>",null,,word,RAILROAD,,,,,,,,,,,,
html-keyboard-response,394,922139,null,"",null,,word,RAILROAD,,,,,,,,,,,,
html-keyboard-response,395,922353,null,"<div style=""font-size:42px;"">HEART</div><img id = ""stim"" ><div class = red_square id = bottomsquare></div>",null,encoding,word_square,,,0,bottomsquare,none,true,,,HEART,3,,,
html-keyboard-response,396,922660,null,"<div style=""font-size:42px;"">HEART</div>",null,,word,HEART,,,,,,,,,,,,
html-keyboard-response,397,924167,null,"",null,,word,HEART,,,,,,,,,,,,
html-keyboard-response,398,924383,null,"<div style=""font-size:42px;"">LETTUCE</div><img id = ""stim"" ><div class = red_square id = topsquare></div>",null,encoding,word_square,,,0,topsquare,none,true,,,LETTUCE,3,,,
html-keyboard-response,399,924689,null,"<div style=""font-size:42px;"">LETTUCE</div>",null,,word,LETTUCE,,,,,,,,,,,,
html-keyboard-response,400,926197,null,"",null,,word,LETTUCE,,,,,,,,,,,,
html-keyboard-response,401,926411,null,"<div style=""font-size:42px;"">LEMON</div><img id = ""stim"" ><div class = red_square id = bottomsquare></div>",null,encoding,word_square,,,0,bottomsquare,none,true,,,LEMON,3,,,
html-keyboard-response,402,926718,null,"<div style=""font-size:42px;"">LEMON</div>",null,,word,LEMON,,,,,,,,,,,,
html-keyboard-response,403,928225,null,"",null,,word,LEMON,,,,,,,,,,,,
html-keyboard-response,404,928440,null,"<div style=""font-size:42px;"">SCARF</div><img id = ""stim"" ><div class = green_square id = bottomsquare></div>",null,encoding,word_square,,,1,bottomsquare,32,true,,,SCARF,3,,,
html-keyboard-response,405,928747,null,"<div style=""font-size:42px;"">SCARF</div>",null,,word,SCARF,,,,,,,,,,,,
html-keyboard-response,406,930252,33.90000000037253,"",32,,word,SCARF,,,,,,,,,,,,
html-keyboard-response,407,930467,null,"<div style=""font-size:42px;"">TORCH</div><img id = ""stim"" ><div class = green_square id = topsquare></div>",null,encoding,word_square,,,1,topsquare,32,true,,,TORCH,3,,,
html-keyboard-response,408,930773,null,"<div style=""font-size:42px;"">TORCH</div>",null,,word,TORCH,,,,,,,,,,,,
html-keyboard-response,409,932284,200.09999999962747,"",32,,word,TORCH,,,,,,,,,,,,
html-keyboard-response,410,932499,null,"<div style=""font-size:42px;"">PARENT</div><img id = ""stim"" ><div class = red_square id = topsquare></div>",null,encoding,word_square,,,0,topsquare,none,true,,,PARENT,3,,,
html-keyboard-response,411,932806,null,"<div style=""font-size:42px;"">PARENT</div>",null,,word,PARENT,,,,,,,,,,,,
html-keyboard-response,412,934313,null,"",null,,word,PARENT,,,,,,,,,,,,
html-keyboard-response,413,934528,null,"<div style=""font-size:42px;"">SWATTER</div><img id = ""stim"" ><div class = green_square id = bottomsquare></div>",null,encoding,word_square,,,1,bottomsquare,32,true,,,SWATTER,3,,,
html-keyboard-response,414,934836,null,"<div style=""font-size:42px;"">SWATTER</div>",null,,word,SWATTER,,,,,,,,,,,,
html-keyboard-response,415,936344,33.29999999888241,"",32,,word,SWATTER,,,,,,,,,,,,
html-keyboard-response,416,936559,null,"<div style=""font-size:42px;"">PATIENT</div><img id = ""stim"" ><div class = green_square id = topsquare></div>",null,encoding,word_square,,,1,topsquare,32,true,,,PATIENT,3,,,
html-keyboard-response,417,936867,null,"<div style=""font-size:42px;"">PATIENT</div>",null,,word,PATIENT,,,,,,,,,,,,
html-keyboard-response,418,938375,65.59999999962747,"",32,,word,PATIENT,,,,,,,,,,,,
html-keyboard-response,419,938590,null,"<div style=""font-size:42px;"">CRATER</div><img id = ""stim"" ><div class = red_square id = bottomsquare></div>",null,encoding,word_square,,,0,bottomsquare,none,true,,,CRATER,3,,,
html-keyboard-response,420,938900,null,"<div style=""font-size:42px;"">CRATER</div>",null,,word,CRATER,,,,,,,,,,,,
html-keyboard-response,421,940409,null,"",null,,word,CRATER,,,,,,,,,,,,
call-function,422,940411,,"",,,,,,,,,,,,,,,,
html-keyboard-response,423,940516,null,"",null,,,,,,,,,,,,,,,
math-period,424,948005,12367.70000000298,"",,,,,,,,,,,5,,,,,
html-keyboard-response,425,948111,null,"",null,,,,,,,,,,,,,,,
math-period,426,950725,4881.60000000149,"",,,,,,,,,,,2,,,,,
html-keyboard-response,427,950831,null,"",null,,,,,,,,,,,,,,,
math-period,428,954581,6573.299999998882,"",,,,,,,,,,,1,,,,,
html-keyboard-response,429,954685,null,"",null,,,,,,,,,,,,,,,
math-period,430,959077,8169.000000001863,"",,,,,,,,,,,5,,,,,
html-keyboard-response,431,959184,null,"",null,,,,,,,,,,,,,,,
math-period,432,961133,3728.7000000011176,"",,,,,,,,,,,3,,,,,
html-keyboard-response,433,961237,null,"",null,,,,,,,,,,,,,,,
math-period,434,962965,3318.800000000745,"",,,,,,,,,,,2,,,,,
html-keyboard-response,435,963078,null,"",null,,,,,,,,,,,,,,,
math-period,436,964416,null,"",,,,,,,,,,,,,,,,
html-keyboard-response,437,965428,null,"Recall Period!",null,,,,,,,,,,,,,,,
call-function,438,965429,,"",,,,,,,,,,,,,,,,
html-keyboard-response,439,965537,null,"",null,,,,,,,,,,,,,,,
recall-period,440,968221,13048.60000000149,"",,,,,,,,,,,parent,,,,,
html-keyboard-response,441,968331,null,"",null,,,,,,,,,,,,,,,
recall-period,442,972109,16760.200000006706,"",,,,,,,,,,,patient,,,,,
html-keyboard-response,443,972217,null,"",null,,,,,,,,,,,,,,,
recall-period,444,975133,12903.699999999255,"",,,,,,,,,,,heart,,,,,
html-keyboard-response,445,975237,null,"",null,,,,,,,,,,,,,,,
recall-period,446,981477,25753.90000000596,"",,,,,,,,,,,scarf,,,,,
html-keyboard-response,447,981580,null,"",null,,,,,,,,,,,,,,,
recall-period,448,990061,33206.10000000335,"",,,,,,,,,,,lemon,,,,,
html-keyboard-response,449,990172,null,"",null,,,,,,,,,,,,,,,
recall-period,450,995709,30531.899999996647,"",,,,,,,,,,,donkey,,,,,
html-keyboard-response,451,995812,null,"",null,,,,,,,,,,,,,,,
recall-period,452,1040446,null,"",,,,,,,,,,,,,,,,
html-keyboard-response,453,1040953,null,"Time's Up!",null,,,,,,,,,,,,,,,
html-keyboard-response,454,1044358,3402.5999999996275,"<p> Good job! You have responded correctly to 97% of the trials. </p>
                      <p>Be sure to only press the spacebar if you see a GREEN square, and please keep your accuracy above 80%.</p>
                      <p> Press any key to continue the experiment. </p>",32,,,,,,,,,,,,,,,
html-keyboard-response,455,1047534,3174.300000000745,"<div style=""font-size:48px;"">Press any key to begin list 5 of 16 </div>",32,,,,,,,,,,,,,,,
html-keyboard-response,456,1050036,null,"<div style=""font-size:60px;"">+</div>",null,,,,,,,,,,,,,,,
html-keyboard-response,457,1050253,null,"<div style=""font-size:42px;"">VALVE</div><img id = ""stim"" ><div class = green_square id = topsquare></div>",null,encoding,word_square,,,1,topsquare,32,true,,,VALVE,4,,,
html-keyboard-response,458,1050561,null,"<div style=""font-size:42px;"">VALVE</div>",null,,word,VALVE,,,,,,,,,,,,
html-keyboard-response,459,1052068,75.19999999925494,"",32,,word,VALVE,,,,,,,,,,,,
html-keyboard-response,460,1052283,null,"<div style=""font-size:42px;"">ASIA</div><img id = ""stim"" ><div class = red_square id = bottomsquare></div>",null,encoding,word_square,,,0,bottomsquare,none,true,,,ASIA,4,,,
html-keyboard-response,461,1052592,null,"<div style=""font-size:42px;"">ASIA</div>",null,,word,ASIA,,,,,,,,,,,,
html-keyboard-response,462,1054099,null,"",null,,word,ASIA,,,,,,,,,,,,
html-keyboard-response,463,1054314,null,"<div style=""font-size:42px;"">COUNTRY</div><img id = ""stim"" ><div class = red_square id = topsquare></div>",null,encoding,word_square,,,0,topsquare,none,true,,,COUNTRY,4,,,
html-keyboard-response,464,1054621,null,"<div style=""font-size:42px;"">COUNTRY</div>",null,,word,COUNTRY,,,,,,,,,,,,
html-keyboard-response,465,1056125,null,"",null,,word,COUNTRY,,,,,,,,,,,,
html-keyboard-response,466,1056341,null,"<div style=""font-size:42px;"">LAPEL</div><img id = ""stim"" ><div class = green_square id = bottomsquare></div>",null,encoding,word_square,,,1,bottomsquare,32,true,,,LAPEL,4,,,
html-keyboard-response,467,1056648,232.5,"<div style=""font-size:42px;"">LAPEL</div>",32,,word,LAPEL,,,,,,,,,,,,
html-keyboard-response,468,1058156,null,"",null,,word,LAPEL,,,,,,,,,,,,
html-keyboard-response,469,1058370,null,"<div style=""font-size:42px;"">WITNESS</div><img id = ""stim"" ><div class = red_square id = bottomsquare></div>",null,encoding,word_square,,,0,bottomsquare,none,true,,,WITNESS,4,,,
html-keyboard-response,470,1058678,null,"<div style=""font-size:42px;"">WITNESS</div>",null,,word,WITNESS,,,,,,,,,,,,
html-keyboard-response,471,1060185,null,"",null,,word,WITNESS,,,,,,,,,,,,
html-keyboard-response,472,1060402,null,"<div style=""font-size:42px;"">BOUILLON</div><img id = ""stim"" ><div class = red_square id = topsquare></div>",null,encoding,word_square,,,0,topsquare,none,true,,,BOUILLON,4,,,
html-keyboard-response,473,1060708,null,"<div style=""font-size:42px;"">BOUILLON</div>",null,,word,BOUILLON,,,,,,,,,,,,
html-keyboard-response,474,1062215,null,"",null,,word,BOUILLON,,,,,,,,,,,,
html-keyboard-response,475,1062429,null,"<div style=""font-size:42px;"">DENIM</div><img id = ""stim"" ><div class = green_square id = topsquare></div>",null,encoding,word_square,,,1,topsquare,32,true,,,DENIM,4,,,
html-keyboard-response,476,1062735,199,"<div style=""font-size:42px;"">DENIM</div>",32,,word,DENIM,,,,,,,,,,,,
html-keyboard-response,477,1064243,null,"",null,,word,DENIM,,,,,,,,,,,,
html-keyboard-response,478,1064458,null,"<div style=""font-size:42px;"">WAGON</div><img id = ""stim"" ><div class = green_square id = bottomsquare></div>",null,encoding,word_square,,,1,bottomsquare,32,true,,,WAGON,4,,,
html-keyboard-response,479,1064767,null,"<div style=""font-size:42px;"">WAGON</div>",null,,word,WAGON,,,,,,,,,,,,
html-keyboard-response,480,1066270,102.5,"",32,,word,WAGON,,,,,,,,,,,,
html-keyboard-response,481,1066485,null,"<div style=""font-size:42px;"">YACHT</div><img id = ""stim"" ><div class = green_square id = topsquare></div>",null,encoding,word_square,,,1,topsquare,32,true,,,YACHT,4,,,
html-keyboard-response,482,1066793,null,"<div style=""font-size:42px;"">YACHT</div>",null,,word,YACHT,,,,,,,,,,,,
html-keyboard-response,483,1068301,274.7000000011176,"",32,,word,YACHT,,,,,,,,,,,,
html-keyboard-response,484,1068515,null,"<div style=""font-size:42px;"">CANAL</div><img id = ""stim"" ><div class = red_square id = bottomsquare></div>",null,encoding,word_square,,,0,bottomsquare,none,true,,,CANAL,4,,,
html-keyboard-response,485,1068822,null,"<div style=""font-size:42px;"">CANAL</div>",null,,word,CANAL,,,,,,,,,,,,
html-keyboard-response,486,1070335,null,"",null,,word,CANAL,,,,,,,,,,,,
html-keyboard-response,487,1070550,null,"<div style=""font-size:42px;"">CHECKERS</div><img id = ""stim"" ><div class = green_square id = bottomsquare></div>",null,encoding,word_square,,,1,bottomsquare,32,true,,,CHECKERS,4,,,
html-keyboard-response,488,1070858,null,"<div style=""font-size:42px;"">CHECKERS</div>",null,,word,CHECKERS,,,,,,,,,,,,
html-keyboard-response,489,1072367,73.5,"",32,,word,CHECKERS,,,,,,,,,,,,
html-keyboard-response,490,1072583,null,"<div style=""font-size:42px;"">GRASS</div><img id = ""stim"" ><div class = red_square id = topsquare></div>",null,encoding,word_square,,,0,topsquare,none,true,,,GRASS,4,,,
html-keyboard-response,491,1072890,null,"<div style=""font-size:42px;"">GRASS</div>",null,,word,GRASS,,,,,,,,,,,,
html-keyboard-response,492,1074396,null,"",null,,word,GRASS,,,,,,,,,,,,
html-keyboard-response,493,1074610,null,"<div style=""font-size:42px;"">SPACE</div><img id = ""stim"" ><div class = red_square id = bottomsquare></div>",null,encoding,word_square,,,0,bottomsquare,none,true,,,SPACE,4,,,
html-keyboard-response,494,1074918,null,"<div style=""font-size:42px;"">SPACE</div>",null,,word,SPACE,,,,,,,,,,,,
html-keyboard-response,495,1076428,null,"",null,,word,SPACE,,,,,,,,,,,,
html-keyboard-response,496,1076643,null,"<div style=""font-size:42px;"">TURTLE</div><img id = ""stim"" ><div class = green_square id = topsquare></div>",null,encoding,word_square,,,1,topsquare,32,true,,,TURTLE,4,,,
html-keyboard-response,497,1076950,304.90000000037253,"<div style=""font-size:42px;"">TURTLE</div>",32,,word,TURTLE,,,,,,,,,,,,
html-keyboard-response,498,1078460,null,"",null,,word,TURTLE,,,,,,,,,,,,
html-keyboard-response,499,1078674,null,"<div style=""font-size:42px;"">CLAM</div><img id = ""stim"" ><div class = green_square id = bottomsquare></div>",null,encoding,word_square,,,1,bottomsquare,32,true,,,CLAM,4,,,
html-keyboard-response,500,1078981,null,"<div style=""font-size:42px;"">CLAM</div>",null,,word,CLAM,,,,,,,,,,,,
html-keyboard-response,501,1080491,63.59999999962747,"",32,,word,CLAM,,,,,,,,,,,,
html-keyboard-response,502,1080706,null,"<div style=""font-size:42px;"">NEUTRON</div><img id = ""stim"" ><div class = red_square id = topsquare></div>",null,encoding,word_square,,,0,topsquare,none,true,,,NEUTRON,4,,,
html-keyboard-response,503,1081014,null,"<div style=""font-size:42px;"">NEUTRON</div>",null,,word,NEUTRON,,,,,,,,,,,,
html-keyboard-response,504,1082519,null,"",null,,word,NEUTRON,,,,,,,,,,,,
call-function,505,1082522,,"",,,,,,,,,,,,,,,,
html-keyboard-response,506,1082626,null,"",null,,,,,,,,,,,,,,,
math-period,507,1087230,8532.39999999851,"",,,,,,,,,,,1,,,,,
html-keyboard-response,508,1087343,null,"",null,,,,,,,,,,,,,,,
math-period,509,1089190,3460.5,"",,,,,,,,,,,6,,,,,
html-keyboard-response,510,1089298,null,"",null,,,,,,,,,,,,,,,
math-period,511,1092005,5197.200000001118,"",,,,,,,,,,,4,,,,,
html-keyboard-response,512,1092109,null,"",null,,,,,,,,,,,,,,,
math-period,513,1095086,5711.999999998137,"",,,,,,,,,,,2,,,,,
html-keyboard-response,514,1095200,null,"",null,,,,,,,,,,,,,,,
math-period,515,1097517,4410.0999999996275,"",,,,,,,,,,,2,,,,,
html-keyboard-response,516,1097629,null,"",null,,,,,,,,,,,,,,,
math-period,517,1099485,3479.10000000149,"",,,,,,,,,,,4,,,,,
html-keyboard-response,518,1099596,null,"",null,,,,,,,,,,,,,,,
math-period,519,1101437,3464.60000000149,"",,,,,,,,,,,3,,,,,
html-keyboard-response,520,1101539,null,"",null,,,,,,,,,,,,,,,
math-period,521,1104085,4460.800000000745,"",,,,,,,,,,,5,,,,,
html-keyboard-response,522,1104187,null,"",null,,,,,,,,,,,,,,,
math-period,523,1106528,2145.2000000011176,"",,,,,,,,,,,4,,,,,
html-keyboard-response,524,1107543,null,"Recall Period!",null,,,,,,,,,,,,,,,
call-function,525,1107544,,"",,,,,,,,,,,,,,,,
html-keyboard-response,526,1107647,null,"",null,,,,,,,,,,,,,,,
recall-period,527,1111485,14400.799999998882,"",,,,,,,,,,,clam,,,,,
html-keyboard-response,528,1111591,null,"",null,,,,,,,,,,,,,,,
recall-period,529,1114973,15702.399999996647,"",,,,,,,,,,,valve,,,,,
html-keyboard-response,530,1115079,null,"",null,,,,,,,,,,,,,,,
recall-period,531,1118614,10528.500000003725,"",,,,,,,,,,,asia,,,,,
html-keyboard-response,532,1118723,null,"",null,,,,,,,,,,,,,,,
recall-period,533,1124189,14724.699999997392,"",,,,,,,,,,,wagon,,,,,
html-keyboard-response,534,1124304,null,"",null,,,,,,,,,,,,,,,
recall-period,535,1128301,17076.099999999627,"",,,,,,,,,,,yacht,,,,,
html-keyboard-response,536,1128406,null,"",null,,,,,,,,,,,,,,,
recall-period,537,1132518,13751.300000008196,"",,,,,,,,,,,checkers,,,,,
html-keyboard-response,538,1132632,null,"",null,,,,,,,,,,,,,,,
recall-period,539,1136629,9956.60000000149,"",,,,,,,,,,,denim,,,,,
html-keyboard-response,540,1136733,null,"",null,,,,,,,,,,,,,,,
recall-period,541,1182550,null,"",,,,,,,,,,,,,,,,
html-keyboard-response,542,1183058,null,"Time's Up!",null,,,,,,,,,,,,,,,
html-keyboard-response,543,1186913,3851.0999999996275,"<p> Good job! You have responded correctly to 98% of the trials. </p>
                      <p>Be sure to only press the spacebar if you see a GREEN square, and please keep your accuracy above 80%.</p>
                      <p> Press any key to continue the experiment. </p>",32,,,,,,,,,,,,,,,
html-keyboard-response,544,1191070,4154.9000000003725,"<div style=""font-size:48px;"">Press any key to begin list 6 of 16 </div>",32,,,,,,,,,,,,,,,
html-keyboard-response,545,1193588,null,"<div style=""font-size:60px;"">+</div>",null,,,,,,,,,,,,,,,
html-keyboard-response,546,1193804,null,"<div style=""font-size:42px;"">PANTHER</div><img id = ""stim"" ><div class = red_square id = topsquare></div>",null,encoding,word_square,,,0,topsquare,none,true,,,PANTHER,5,,,
html-keyboard-response,547,1194111,null,"<div style=""font-size:42px;"">PANTHER</div>",null,,word,PANTHER,,,,,,,,,,,,
html-keyboard-response,548,1195618,null,"",null,,word,PANTHER,,,,,,,,,,,,
html-keyboard-response,549,1195834,null,"<div style=""font-size:42px;"">TROMBONE</div><img id = ""stim"" ><div class = green_square id = bottomsquare></div>",null,encoding,word_square,,,1,bottomsquare,32,true,,,TROMBONE,5,,,
html-keyboard-response,550,1196142,251,"<div style=""font-size:42px;"">TROMBONE</div>",32,,word,TROMBONE,,,,,,,,,,,,
html-keyboard-response,551,1197661,null,"",null,,word,TROMBONE,,,,,,,,,,,,
html-keyboard-response,552,1197875,null,"<div style=""font-size:42px;"">PERFUME</div><img id = ""stim"" ><div class = green_square id = topsquare></div>",null,encoding,word_square,,,1,topsquare,32,true,,,PERFUME,5,,,
html-keyboard-response,553,1198184,null,"<div style=""font-size:42px;"">PERFUME</div>",null,,word,PERFUME,,,,,,,,,,,,
html-keyboard-response,554,1199704,106.19999999925494,"",32,,word,PERFUME,,,,,,,,,,,,
html-keyboard-response,555,1199919,null,"<div style=""font-size:42px;"">PIRATE</div><img id = ""stim"" ><div class = red_square id = bottomsquare></div>",null,encoding,word_square,,,0,bottomsquare,none,true,,,PIRATE,5,,,
html-keyboard-response,556,1200228,null,"<div style=""font-size:42px;"">PIRATE</div>",null,,word,PIRATE,,,,,,,,,,,,
html-keyboard-response,557,1201736,null,"",null,,word,PIRATE,,,,,,,,,,,,
html-keyboard-response,558,1201951,null,"<div style=""font-size:42px;"">LOBSTER</div><img id = ""stim"" ><div class = red_square id = topsquare></div>",null,encoding,word_square,,,0,topsquare,none,true,,,LOBSTER,5,,,
html-keyboard-response,559,1202257,null,"<div style=""font-size:42px;"">LOBSTER</div>",null,,word,LOBSTER,,,,,,,,,,,,
html-keyboard-response,560,1203762,null,"",null,,word,LOBSTER,,,,,,,,,,,,
html-keyboard-response,561,1203977,null,"<div style=""font-size:42px;"">CYCLONE</div><img id = ""stim"" ><div class = green_square id = bottomsquare></div>",null,encoding,word_square,,,1,bottomsquare,32,true,,,CYCLONE,5,,,
html-keyboard-response,562,1204284,291.8999999985099,"<div style=""font-size:42px;"">CYCLONE</div>",32,,word,CYCLONE,,,,,,,,,,,,
html-keyboard-response,563,1205791,null,"",null,,word,CYCLONE,,,,,,,,,,,,
html-keyboard-response,564,1206005,null,"<div style=""font-size:42px;"">BRIDE</div><img id = ""stim"" ><div class = red_square id = bottomsquare></div>",null,encoding,word_square,,,0,bottomsquare,none,true,,,BRIDE,5,,,
html-keyboard-response,565,1206313,null,"<div style=""font-size:42px;"">BRIDE</div>",null,,word,BRIDE,,,,,,,,,,,,
html-keyboard-response,566,1207820,null,"",null,,word,BRIDE,,,,,,,,,,,,
html-keyboard-response,567,1208036,null,"<div style=""font-size:42px;"">WHISKERS</div><img id = ""stim"" ><div class = green_square id = topsquare></div>",null,encoding,word_square,,,1,topsquare,32,true,,,WHISKERS,5,,,
html-keyboard-response,568,1208342,303.5,"<div style=""font-size:42px;"">WHISKERS</div>",32,,word,WHISKERS,,,,,,,,,,,,
html-keyboard-response,569,1209851,null,"",null,,word,WHISKERS,,,,,,,,,,,,
html-keyboard-response,570,1210067,null,"<div style=""font-size:42px;"">MARSH</div><img id = ""stim"" ><div class = green_square id = bottomsquare></div>",null,encoding,word_square,,,1,bottomsquare,32,true,,,MARSH,5,,,
html-keyboard-response,571,1210376,289.5,"<div style=""font-size:42px;"">MARSH</div>",32,,word,MARSH,,,,,,,,,,,,
html-keyboard-response,572,1211885,null,"",null,,word,MARSH,,,,,,,,,,,,
html-keyboard-response,573,1212100,null,"<div style=""font-size:42px;"">HEDGE</div><img id = ""stim"" ><div class = green_square id = topsquare></div>",null,encoding,word_square,,,1,topsquare,32,true,,,HEDGE,5,,,
html-keyboard-response,574,1212408,null,"<div style=""font-size:42px;"">HEDGE</div>",null,,word,HEDGE,,,,,,,,,,,,
html-keyboard-response,575,1213916,44.09999999962747,"",32,,word,HEDGE,,,,,,,,,,,,
html-keyboard-response,576,1214132,null,"<div style=""font-size:42px;"">CLOUD</div><img id = ""stim"" ><div class = red_square id = topsquare></div>",null,encoding,word_square,,,0,topsquare,none,true,,,CLOUD,5,,,
html-keyboard-response,577,1214438,null,"<div style=""font-size:42px;"">CLOUD</div>",null,,word,CLOUD,,,,,,,,,,,,
html-keyboard-response,578,1215946,null,"",null,,word,CLOUD,,,,,,,,,,,,
html-keyboard-response,579,1216162,null,"<div style=""font-size:42px;"">WINDSHIELD</div><img id = ""stim"" ><div class = red_square id = bottomsquare></div>",null,encoding,word_square,,,0,bottomsquare,none,true,,,WINDSHIELD,5,,,
html-keyboard-response,580,1216471,null,"<div style=""font-size:42px;"">WINDSHIELD</div>",null,,word,WINDSHIELD,,,,,,,,,,,,
html-keyboard-response,581,1217975,null,"",null,,word,WINDSHIELD,,,,,,,,,,,,
html-keyboard-response,582,1218190,null,"<div style=""font-size:42px;"">VILLAGE</div><img id = ""stim"" ><div class = green_square id = bottomsquare></div>",null,encoding,word_square,,,1,bottomsquare,32,true,,,VILLAGE,5,,,
html-keyboard-response,583,1218497,257,"<div style=""font-size:42px;"">VILLAGE</div>",32,,word,VILLAGE,,,,,,,,,,,,
html-keyboard-response,584,1220015,null,"",null,,word,VILLAGE,,,,,,,,,,,,
html-keyboard-response,585,1220231,null,"<div style=""font-size:42px;"">LEG</div><img id = ""stim"" ><div class = red_square id = topsquare></div>",null,encoding,word_square,,,0,topsquare,none,true,,,LEG,5,,,
html-keyboard-response,586,1220537,null,"<div style=""font-size:42px;"">LEG</div>",null,,word,LEG,,,,,,,,,,,,
html-keyboard-response,587,1222047,null,"",null,,word,LEG,,,,,,,,,,,,
html-keyboard-response,588,1222261,null,"<div style=""font-size:42px;"">WRIST</div><img id = ""stim"" ><div class = red_square id = bottomsquare></div>",null,encoding,word_square,,,0,bottomsquare,none,true,,,WRIST,5,,,
html-keyboard-response,589,1222569,null,"<div style=""font-size:42px;"">WRIST</div>",null,,word,WRIST,,,,,,,,,,,,
html-keyboard-response,590,1224076,null,"",null,,word,WRIST,,,,,,,,,,,,
html-keyboard-response,591,1224290,null,"<div style=""font-size:42px;"">SKILLET</div><img id = ""stim"" ><div class = green_square id = topsquare></div>",null,encoding,word_square,,,1,topsquare,32,true,,,SKILLET,5,,,
html-keyboard-response,592,1224599,234.59999999962747,"<div style=""font-size:42px;"">SKILLET</div>",32,,word,SKILLET,,,,,,,,,,,,
html-keyboard-response,593,1226105,null,"",null,,word,SKILLET,,,,,,,,,,,,
call-function,594,1226106,,"",,,,,,,,,,,,,,,,
html-keyboard-response,595,1226213,null,"",null,,,,,,,,,,,,,,,
math-period,596,1231062,9404.89999999851,"",,,,,,,,,,,1,,,,,
html-keyboard-response,597,1231165,null,"",null,,,,,,,,,,,,,,,
math-period,598,1234325,6112.900000002235,"",,,,,,,,,,,2,,,,,
html-keyboard-response,599,1234430,null,"",null,,,,,,,,,,,,,,,
math-period,600,1236349,3566.199999999255,"",,,,,,,,,,,1,,,,,
html-keyboard-response,601,1236454,null,"",null,,,,,,,,,,,,,,,
math-period,602,1238758,4126.39999999851,"",,,,,,,,,,,1,,,,,
html-keyboard-response,603,1238861,null,"",null,,,,,,,,,,,,,,,
math-period,604,1244486,18799.500000001863,"",,,,,,,,,,,3,,,,,
html-keyboard-response,605,1244592,null,"",null,,,,,,,,,,,,,,,
math-period,606,1247286,4579.5999999996275,"",,,,,,,,,,,2,,,,,
html-keyboard-response,607,1247390,null,"",null,,,,,,,,,,,,,,,
math-period,608,1249886,4805.5,"",,,,,,,,,,,5,,,,,
html-keyboard-response,609,1250002,null,"",null,,,,,,,,,,,,,,,
math-period,610,1250110,null,"",,,,,,,,,,,,,,,,
html-keyboard-response,611,1251124,null,"Recall Period!",null,,,,,,,,,,,,,,,
call-function,612,1251126,,"",,,,,,,,,,,,,,,,
html-keyboard-response,613,1251233,null,"",null,,,,,,,,,,,,,,,
recall-period,614,1253182,8408.900000004098,"",,,,,,,,,,,cloud,,,,,
html-keyboard-response,615,1253292,null,"",null,,,,,,,,,,,,,,,
recall-period,616,1256693,20936.49999999255,"",,,,,,,,,,,windshield,,,,,
html-keyboard-response,617,1256798,null,"",null,,,,,,,,,,,,,,,
recall-period,618,1260710,16469.499999994412,"",,,,,,,,,,,village,,,,,
html-keyboard-response,619,1260814,null,"",null,,,,,,,,,,,,,,,
recall-period,620,1263246,13313.29999999702,"",,,,,,,,,,,lobster,,,,,
html-keyboard-response,621,1263354,null,"",null,,,,,,,,,,,,,,,
recall-period,622,1265918,11663.900000002235,"",,,,,,,,,,,cyclone,,,,,
html-keyboard-response,623,1266027,null,"",null,,,,,,,,,,,,,,,
recall-period,624,1270782,23528.299999993294,"",,,,,,,,,,,marsh,,,,,
html-keyboard-response,625,1270885,null,"",null,,,,,,,,,,,,,,,
recall-period,626,1277438,21256.40000000596,"",,,,,,,,,,,panther,,,,,
html-keyboard-response,627,1277539,null,"",null,,,,,,,,,,,,,,,
recall-period,628,1326139,null,"",,,,,,,,,,,,,,,,
html-keyboard-response,629,1326645,null,"Time's Up!",null,,,,,,,,,,,,,,,
html-keyboard-response,630,1333609,6961.300000000745,"<p> Good job! You have responded correctly to 98% of the trials. </p>
                      <p>Be sure to only press the spacebar if you see a GREEN square, and please keep your accuracy above 80%.</p>
                      <p> Press any key to continue the experiment. </p>",32,,,,,,,,,,,,,,,
html-keyboard-response,631,1335235,1623.2000000011176,"<div style=""font-size:48px;"">Press any key to begin list 7 of 16 </div>",32,,,,,,,,,,,,,,,
html-keyboard-response,632,1337751,null,"<div style=""font-size:60px;"">+</div>",null,,,,,,,,,,,,,,,
html-keyboard-response,633,1337967,null,"<div style=""font-size:42px;"">SAPPHIRE</div><img id = ""stim"" ><div class = red_square id = bottomsquare></div>",null,encoding,word_square,,,0,bottomsquare,none,true,,,SAPPHIRE,6,,,
html-keyboard-response,634,1338273,null,"<div style=""font-size:42px;"">SAPPHIRE</div>",null,,word,SAPPHIRE,,,,,,,,,,,,
html-keyboard-response,635,1339779,null,"",null,,word,SAPPHIRE,,,,,,,,,,,,
html-keyboard-response,636,1339994,null,"<div style=""font-size:42px;"">LUNCH</div><img id = ""stim"" ><div class = green_square id = topsquare></div>",null,encoding,word_square,,,1,topsquare,32,true,,,LUNCH,6,,,
html-keyboard-response,637,1340303,210.90000000037253,"<div style=""font-size:42px;"">LUNCH</div>",32,,word,LUNCH,,,,,,,,,,,,
html-keyboard-response,638,1341810,null,"",null,,word,LUNCH,,,,,,,,,,,,
html-keyboard-response,639,1342025,null,"<div style=""font-size:42px;"">PICNIC</div><img id = ""stim"" ><div class = green_square id = bottomsquare></div>",null,encoding,word_square,,,1,bottomsquare,32,true,,,PICNIC,6,,,
html-keyboard-response,640,1342332,228.30000000074506,"<div style=""font-size:42px;"">PICNIC</div>",32,,word,PICNIC,,,,,,,,,,,,
html-keyboard-response,641,1343839,null,"",null,,word,PICNIC,,,,,,,,,,,,
html-keyboard-response,642,1344055,null,"<div style=""font-size:42px;"">PLAID</div><img id = ""stim"" ><div class = red_square id = topsquare></div>",null,encoding,word_square,,,0,topsquare,none,true,,,PLAID,6,,,
html-keyboard-response,643,1344365,null,"<div style=""font-size:42px;"">PLAID</div>",null,,word,PLAID,,,,,,,,,,,,
html-keyboard-response,644,1345871,null,"",null,,word,PLAID,,,,,,,,,,,,
html-keyboard-response,645,1346088,null,"<div style=""font-size:42px;"">QUAIL</div><img id = ""stim"" ><div class = green_square id = topsquare></div>",null,encoding,word_square,,,1,topsquare,32,true,,,QUAIL,6,,,
html-keyboard-response,646,1346391,301.40000000037253,"<div style=""font-size:42px;"">QUAIL</div>",32,,word,QUAIL,,,,,,,,,,,,
html-keyboard-response,647,1347899,null,"",null,,word,QUAIL,,,,,,,,,,,,
html-keyboard-response,648,1348116,null,"<div style=""font-size:42px;"">WAIST</div><img id = ""stim"" ><div class = green_square id = bottomsquare></div>",null,encoding,word_square,,,1,bottomsquare,32,true,,,WAIST,6,,,
html-keyboard-response,649,1348423,null,"<div style=""font-size:42px;"">WAIST</div>",null,,word,WAIST,,,,,,,,,,,,
html-keyboard-response,650,1349930,28.300000000745058,"",32,,word,WAIST,,,,,,,,,,,,
html-keyboard-response,651,1350145,null,"<div style=""font-size:42px;"">PIANO</div><img id = ""stim"" ><div class = red_square id = bottomsquare></div>",null,encoding,word_square,,,0,bottomsquare,none,true,,,PIANO,6,,,
html-keyboard-response,652,1350453,null,"<div style=""font-size:42px;"">PIANO</div>",null,,word,PIANO,,,,,,,,,,,,
html-keyboard-response,653,1351958,null,"",null,,word,PIANO,,,,,,,,,,,,
html-keyboard-response,654,1352173,null,"<div style=""font-size:42px;"">MAILBOX</div><img id = ""stim"" ><div class = red_square id = topsquare></div>",null,encoding,word_square,,,0,topsquare,none,true,,,MAILBOX,6,,,
html-keyboard-response,655,1352482,null,"<div style=""font-size:42px;"">MAILBOX</div>",null,,word,MAILBOX,,,,,,,,,,,,
html-keyboard-response,656,1353989,null,"",null,,word,MAILBOX,,,,,,,,,,,,
html-keyboard-response,657,1354204,null,"<div style=""font-size:42px;"">BOX</div><img id = ""stim"" ><div class = red_square id = bottomsquare></div>",null,encoding,word_square,,,0,bottomsquare,none,true,,,BOX,6,,,
html-keyboard-response,658,1354511,null,"<div style=""font-size:42px;"">BOX</div>",null,,word,BOX,,,,,,,,,,,,
html-keyboard-response,659,1356018,null,"",null,,word,BOX,,,,,,,,,,,,
html-keyboard-response,660,1356234,null,"<div style=""font-size:42px;"">OX</div><img id = ""stim"" ><div class = green_square id = topsquare></div>",null,encoding,word_square,,,1,topsquare,32,true,,,OX,6,,,
html-keyboard-response,661,1356542,null,"<div style=""font-size:42px;"">OX</div>",null,,word,OX,,,,,,,,,,,,
html-keyboard-response,662,1358059,15.099999999627471,"",32,,word,OX,,,,,,,,,,,,
html-keyboard-response,663,1358276,null,"<div style=""font-size:42px;"">PLUMBER</div><img id = ""stim"" ><div class = red_square id = topsquare></div>",null,encoding,word_square,,,0,topsquare,none,true,,,PLUMBER,6,,,
html-keyboard-response,664,1358585,null,"<div style=""font-size:42px;"">PLUMBER</div>",null,,word,PLUMBER,,,,,,,,,,,,
html-keyboard-response,665,1360092,null,"",null,,word,PLUMBER,,,,,,,,,,,,
html-keyboard-response,666,1360307,null,"<div style=""font-size:42px;"">KNUCKLE</div><img id = ""stim"" ><div class = green_square id = bottomsquare></div>",null,encoding,word_square,,,1,bottomsquare,32,true,,,KNUCKLE,6,,,
html-keyboard-response,667,1360616,225.7000000011176,"<div style=""font-size:42px;"">KNUCKLE</div>",32,,word,KNUCKLE,,,,,,,,,,,,
html-keyboard-response,668,1362120,null,"",null,,word,KNUCKLE,,,,,,,,,,,,
html-keyboard-response,669,1362334,null,"<div style=""font-size:42px;"">COUNTY</div><img id = ""stim"" ><div class = green_square id = topsquare></div>",null,encoding,word_square,,,1,topsquare,32,true,,,COUNTY,6,,,
html-keyboard-response,670,1362644,246.80000000074506,"<div style=""font-size:42px;"">COUNTY</div>",32,,word,COUNTY,,,,,,,,,,,,
html-keyboard-response,671,1364151,null,"",null,,word,COUNTY,,,,,,,,,,,,
html-keyboard-response,672,1364366,null,"<div style=""font-size:42px;"">JOKER</div><img id = ""stim"" ><div class = red_square id = bottomsquare></div>",null,encoding,word_square,,,0,bottomsquare,none,true,,,JOKER,6,,,
html-keyboard-response,673,1364674,null,"<div style=""font-size:42px;"">JOKER</div>",null,,word,JOKER,,,,,,,,,,,,
html-keyboard-response,674,1366180,null,"",null,,word,JOKER,,,,,,,,,,,,
html-keyboard-response,675,1366395,null,"<div style=""font-size:42px;"">TABLET</div><img id = ""stim"" ><div class = red_square id = topsquare></div>",null,encoding,word_square,,,0,topsquare,none,true,,,TABLET,6,,,
html-keyboard-response,676,1366702,null,"<div style=""font-size:42px;"">TABLET</div>",null,,word,TABLET,,,,,,,,,,,,
html-keyboard-response,677,1368210,null,"",null,,word,TABLET,,,,,,,,,,,,
html-keyboard-response,678,1368425,null,"<div style=""font-size:42px;"">MUMMY</div><img id = ""stim"" ><div class = green_square id = bottomsquare></div>",null,encoding,word_square,,,1,bottomsquare,32,true,,,MUMMY,6,,,
html-keyboard-response,679,1368733,189.7999999988824,"<div style=""font-size:42px;"">MUMMY</div>",32,,word,MUMMY,,,,,,,,,,,,
html-keyboard-response,680,1370241,null,"",null,,word,MUMMY,,,,,,,,,,,,
call-function,681,1370244,,"",,,,,,,,,,,,,,,,
html-keyboard-response,682,1370348,null,"",null,,,,,,,,,,,,,,,
math-period,683,1373790,6416.400000002235,"",,,,,,,,,,,2,,,,,
html-keyboard-response,684,1373893,null,"",null,,,,,,,,,,,,,,,
math-period,685,1375669,3361.2999999988824,"",,,,,,,,,,,3,,,,,
html-keyboard-response,686,1375784,null,"",null,,,,,,,,,,,,,,,
math-period,687,1377885,3546.0999999996275,"",,,,,,,,,,,4,,,,,
html-keyboard-response,688,1377998,null,"",null,,,,,,,,,,,,,,,
math-period,689,1379997,3725.0000000018626,"",,,,,,,,,,,3,,,,,
html-keyboard-response,690,1380101,null,"",null,,,,,,,,,,,,,,,
math-period,691,1383645,5918.89999999851,"",,,,,,,,,,,1,,,,,
html-keyboard-response,692,1383751,null,"",null,,,,,,,,,,,,,,,
math-period,693,1389341,16774.700000001118,"",,,,,,,,,,,5,,,,,
html-keyboard-response,694,1389457,null,"",null,,,,,,,,,,,,,,,
math-period,695,1392422,5312.300000000745,"",,,,,,,,,,,5,,,,,
html-keyboard-response,696,1392533,null,"",null,,,,,,,,,,,,,,,
math-period,697,1394256,null,"",,,,,,,,,,,,,,,,
html-keyboard-response,698,1395271,null,"Recall Period!",null,,,,,,,,,,,,,,,
call-function,699,1395273,,"",,,,,,,,,,,,,,,,
html-keyboard-response,700,1395380,null,"",null,,,,,,,,,,,,,,,
recall-period,701,1397973,13665.49999999255,"",,,,,,,,,,,mailbox,,,,,
html-keyboard-response,702,1398087,null,"",null,,,,,,,,,,,,,,,
recall-period,703,1399677,4903.70000000298,"",,,,,,,,,,,box,,,,,
html-keyboard-response,704,1399793,null,"",null,,,,,,,,,,,,,,,
recall-period,705,1400613,1625.9999999981374,"",,,,,,,,,,,ox,,,,,
html-keyboard-response,706,1400717,null,"",null,,,,,,,,,,,,,,,
recall-period,707,1406205,20206.400000002235,"",,,,,,,,,,,piano,,,,,
html-keyboard-response,708,1406310,null,"",null,,,,,,,,,,,,,,,
recall-period,709,1408822,12378.39999999851,"",,,,,,,,,,,lunch,,,,,
html-keyboard-response,710,1408923,null,"",null,,,,,,,,,,,,,,,
recall-period,711,1412717,11364.499999996275,"",,,,,,,,,,,picnic,,,,,
html-keyboard-response,712,1412831,null,"",null,,,,,,,,,,,,,,,
recall-period,713,1416325,8083.799999995157,"",,,,,,,,,,,plaid,,,,,
html-keyboard-response,714,1416439,null,"",null,,,,,,,,,,,,,,,
recall-period,715,1470287,null,"",,,,,,,,,,,,,,,,
html-keyboard-response,716,1470793,null,"Time's Up!",null,,,,,,,,,,,,,,,
html-keyboard-response,717,1475769,4972,"<p> Good job! You have responded correctly to 98% of the trials. </p>
                      <p>Be sure to only press the spacebar if you see a GREEN square, and please keep your accuracy above 80%.</p>
                      <p> Press any key to continue the experiment. </p>",32,,,,,,,,,,,,,,,
html-keyboard-response,718,1479299,3526.300000000745,"<div style=""font-size:48px;"">Press any key to begin list 8 of 16 </div>",32,,,,,,,,,,,,,,,
html-keyboard-response,719,1481826,null,"<div style=""font-size:60px;"">+</div>",null,,,,,,,,,,,,,,,
html-keyboard-response,720,1482042,null,"<div style=""font-size:42px;"">RACCOON</div><img id = ""stim"" ><div class = green_square id = bottomsquare></div>",null,encoding,word_square,,,1,bottomsquare,32,true,,,RACCOON,7,,,
html-keyboard-response,721,1482345,243,"<div style=""font-size:42px;"">RACCOON</div>",32,,word,RACCOON,,,,,,,,,,,,
html-keyboard-response,722,1483858,null,"",null,,word,RACCOON,,,,,,,,,,,,
html-keyboard-response,723,1484072,null,"<div style=""font-size:42px;"">CROSS</div><img id = ""stim"" ><div class = red_square id = topsquare></div>",null,encoding,word_square,,,0,topsquare,none,true,,,CROSS,7,,,
html-keyboard-response,724,1484381,null,"<div style=""font-size:42px;"">CROSS</div>",null,,word,CROSS,,,,,,,,,,,,
html-keyboard-response,725,1485887,null,"",null,,word,CROSS,,,,,,,,,,,,
html-keyboard-response,726,1486101,null,"<div style=""font-size:42px;"">IDOL</div><img id = ""stim"" ><div class = red_square id = bottomsquare></div>",null,encoding,word_square,,,0,bottomsquare,none,true,,,IDOL,7,,,
html-keyboard-response,727,1486410,null,"<div style=""font-size:42px;"">IDOL</div>",null,,word,IDOL,,,,,,,,,,,,
html-keyboard-response,728,1487929,null,"",null,,word,IDOL,,,,,,,,,,,,
html-keyboard-response,729,1488144,null,"<div style=""font-size:42px;"">ANTLER</div><img id = ""stim"" ><div class = green_square id = topsquare></div>",null,encoding,word_square,,,1,topsquare,32,true,,,ANTLER,7,,,
html-keyboard-response,730,1488449,303.09999999962747,"<div style=""font-size:42px;"">ANTLER</div>",32,,word,ANTLER,,,,,,,,,,,,
html-keyboard-response,731,1489960,null,"",null,,word,ANTLER,,,,,,,,,,,,
html-keyboard-response,732,1490175,null,"<div style=""font-size:42px;"">GAZELLE</div><img id = ""stim"" ><div class = green_square id = bottomsquare></div>",null,encoding,word_square,,,1,bottomsquare,32,true,,,GAZELLE,7,,,
html-keyboard-response,733,1490482,285.90000000037253,"<div style=""font-size:42px;"">GAZELLE</div>",32,,word,GAZELLE,,,,,,,,,,,,
html-keyboard-response,734,1491987,null,"",null,,word,GAZELLE,,,,,,,,,,,,
html-keyboard-response,735,1492202,null,"<div style=""font-size:42px;"">BROTHER</div><img id = ""stim"" ><div class = red_square id = topsquare></div>",null,encoding,word_square,,,0,topsquare,none,true,,,BROTHER,7,,,
html-keyboard-response,736,1492510,null,"<div style=""font-size:42px;"">BROTHER</div>",null,,word,BROTHER,,,,,,,,,,,,
html-keyboard-response,737,1494015,null,"",null,,word,BROTHER,,,,,,,,,,,,
html-keyboard-response,738,1494230,null,"<div style=""font-size:42px;"">FRIEND</div><img id = ""stim"" ><div class = green_square id = topsquare></div>",null,encoding,word_square,,,1,topsquare,32,true,,,FRIEND,7,,,
html-keyboard-response,739,1494538,null,"<div style=""font-size:42px;"">FRIEND</div>",null,,word,FRIEND,,,,,,,,,,,,
html-keyboard-response,740,1496042,18.300000000745058,"",32,,word,FRIEND,,,,,,,,,,,,
html-keyboard-response,741,1496258,null,"<div style=""font-size:42px;"">POSSUM</div><img id = ""stim"" ><div class = red_square id = bottomsquare></div>",null,encoding,word_square,,,0,bottomsquare,none,true,,,POSSUM,7,,,
html-keyboard-response,742,1496565,null,"<div style=""font-size:42px;"">POSSUM</div>",null,,word,POSSUM,,,,,,,,,,,,
html-keyboard-response,743,1498072,null,"",null,,word,POSSUM,,,,,,,,,,,,
html-keyboard-response,744,1498287,null,"<div style=""font-size:42px;"">ARMY</div><img id = ""stim"" ><div class = red_square id = topsquare></div>",null,encoding,word_square,,,0,topsquare,none,true,,,ARMY,7,,,
html-keyboard-response,745,1498595,null,"<div style=""font-size:42px;"">ARMY</div>",null,,word,ARMY,,,,,,,,,,,,
html-keyboard-response,746,1500102,null,"",null,,word,ARMY,,,,,,,,,,,,
html-keyboard-response,747,1500318,null,"<div style=""font-size:42px;"">CLIPPERS</div><img id = ""stim"" ><div class = red_square id = bottomsquare></div>",null,encoding,word_square,,,0,bottomsquare,none,true,,,CLIPPERS,7,,,
html-keyboard-response,748,1500625,null,"<div style=""font-size:42px;"">CLIPPERS</div>",null,,word,CLIPPERS,,,,,,,,,,,,
html-keyboard-response,749,1502130,null,"",null,,word,CLIPPERS,,,,,,,,,,,,
html-keyboard-response,750,1502347,null,"<div style=""font-size:42px;"">GLASS</div><img id = ""stim"" ><div class = green_square id = bottomsquare></div>",null,encoding,word_square,,,1,bottomsquare,32,true,,,GLASS,7,,,
html-keyboard-response,751,1502654,211.2999999988824,"<div style=""font-size:42px;"">GLASS</div>",32,,word,GLASS,,,,,,,,,,,,
html-keyboard-response,752,1504160,null,"",null,,word,GLASS,,,,,,,,,,,,
html-keyboard-response,753,1504376,null,"<div style=""font-size:42px;"">YARN</div><img id = ""stim"" ><div class = green_square id = topsquare></div>",null,encoding,word_square,,,1,topsquare,32,true,,,YARN,7,,,
html-keyboard-response,754,1504684,228.2999999988824,"<div style=""font-size:42px;"">YARN</div>",32,,word,YARN,,,,,,,,,,,,
html-keyboard-response,755,1506192,null,"",null,,word,YARN,,,,,,,,,,,,
html-keyboard-response,756,1506407,null,"<div style=""font-size:42px;"">BASKET</div><img id = ""stim"" ><div class = red_square id = topsquare></div>",null,encoding,word_square,,,0,topsquare,none,true,,,BASKET,7,,,
html-keyboard-response,757,1506714,null,"<div style=""font-size:42px;"">BASKET</div>",null,,word,BASKET,,,,,,,,,,,,
html-keyboard-response,758,1508222,null,"",null,,word,BASKET,,,,,,,,,,,,
html-keyboard-response,759,1508439,null,"<div style=""font-size:42px;"">TRUMPET</div><img id = ""stim"" ><div class = green_square id = bottomsquare></div>",null,encoding,word_square,,,1,bottomsquare,32,true,,,TRUMPET,7,,,
html-keyboard-response,760,1508745,166.2999999988824,"<div style=""font-size:42px;"">TRUMPET</div>",32,,word,TRUMPET,,,,,,,,,,,,
html-keyboard-response,761,1510250,null,"",null,,word,TRUMPET,,,,,,,,,,,,
html-keyboard-response,762,1510465,null,"<div style=""font-size:42px;"">ISLAND</div><img id = ""stim"" ><div class = green_square id = topsquare></div>",null,encoding,word_square,,,1,topsquare,32,true,,,ISLAND,7,,,
html-keyboard-response,763,1510773,284.2000000011176,"<div style=""font-size:42px;"">ISLAND</div>",32,,word,ISLAND,,,,,,,,,,,,
html-keyboard-response,764,1512280,null,"",null,,word,ISLAND,,,,,,,,,,,,
html-keyboard-response,765,1512493,null,"<div style=""font-size:42px;"">MARKET</div><img id = ""stim"" ><div class = red_square id = bottomsquare></div>",null,encoding,word_square,,,0,bottomsquare,none,true,,,MARKET,7,,,
html-keyboard-response,766,1512801,null,"<div style=""font-size:42px;"">MARKET</div>",null,,word,MARKET,,,,,,,,,,,,
html-keyboard-response,767,1514311,null,"",null,,word,MARKET,,,,,,,,,,,,
call-function,768,1514314,,"",,,,,,,,,,,,,,,,
html-keyboard-response,769,1514433,null,"",null,,,,,,,,,,,,,,,
math-period,770,1520014,9135.099999999627,"",,,,,,,,,,,4,,,,,
html-keyboard-response,771,1520123,null,"",null,,,,,,,,,,,,,,,
math-period,772,1522222,3789.4000000003725,"",,,,,,,,,,,3,,,,,
html-keyboard-response,773,1522323,null,"",null,,,,,,,,,,,,,,,
math-period,774,1525173,5331.699999999255,"",,,,,,,,,,,4,,,,,
html-keyboard-response,775,1525290,null,"",null,,,,,,,,,,,,,,,
math-period,776,1529534,7623.5,"",,,,,,,,,,,2,,,,,
html-keyboard-response,777,1529642,null,"",null,,,,,,,,,,,,,,,
math-period,778,1533174,6532.5999999996275,"",,,,,,,,,,,3,,,,,
html-keyboard-response,779,1533287,null,"",null,,,,,,,,,,,,,,,
math-period,780,1536110,4923.0999999996275,"",,,,,,,,,,,5,,,,,
html-keyboard-response,781,1536220,null,"",null,,,,,,,,,,,,,,,
math-period,782,1538315,1865.9000000003725,"",,,,,,,,,,,5,,,,,
html-keyboard-response,783,1539329,null,"Recall Period!",null,,,,,,,,,,,,,,,
call-function,784,1539332,,"",,,,,,,,,,,,,,,,
html-keyboard-response,785,1539436,null,"",null,,,,,,,,,,,,,,,
recall-period,786,1542126,9576.000000001863,"",,,,,,,,,,,possum,,,,,
html-keyboard-response,787,1542235,null,"",null,,,,,,,,,,,,,,,
recall-period,788,1543822,4849.19999999553,"",,,,,,,,,,,army,,,,,
html-keyboard-response,789,1543927,null,"",null,,,,,,,,,,,,,,,
recall-period,790,1547094,11632.099999997765,"",,,,,,,,,,,trumpet,,,,,
html-keyboard-response,791,1547197,null,"",null,,,,,,,,,,,,,,,
recall-period,792,1550326,20076.099999995902,"",,,,,,,,,,,islamd,,,,,
html-keyboard-response,793,1550429,null,"",null,,,,,,,,,,,,,,,
recall-period,794,1552710,10827.799999998882,"",,,,,,,,,,,island,,,,,
html-keyboard-response,795,1552814,null,"",null,,,,,,,,,,,,,,,
recall-period,796,1556246,18694.099999999627,"",,,,,,,,,,,cross,,,,,
html-keyboard-response,797,1556348,null,"",null,,,,,,,,,,,,,,,
recall-period,798,1558654,5902.30000000447,"",,,,,,,,,,,idol,,,,,
html-keyboard-response,799,1558763,null,"",null,,,,,,,,,,,,,,,
recall-period,800,1560542,5470.499999998137,"",,,,,,,,,,,art,,,,,
html-keyboard-response,801,1560656,null,"",null,,,,,,,,,,,,,,,
recall-period,802,1565238,18848.69999999553,"",,,,,,,,,,,brother,,,,,
html-keyboard-response,803,1565347,null,"",null,,,,,,,,,,,,,,,
recall-period,804,1567910,9694.70000000298,"",,,,,,,,,,,friend,,,,,
html-keyboard-response,805,1568020,null,"",null,,,,,,,,,,,,,,,
recall-period,806,1614334,null,"",,,,,,,,,,,,,,,,
html-keyboard-response,807,1614842,null,"Time's Up!",null,,,,,,,,,,,,,,,
html-keyboard-response,808,1619394,4547.699999999255,"<p> Good job! You have responded correctly to 98% of the trials. </p>
                      <p>Be sure to only press the spacebar if you see a GREEN square, and please keep your accuracy above 80%.</p>
                      <p> Press any key to continue the experiment. </p>",32,,,,,,,,,,,,,,,
html-keyboard-response,809,1623272,3875.2999999988824,"<div style=""font-size:48px;"">Press any key to begin list 9 of 16 </div>",32,,,,,,,,,,,,,,,
html-keyboard-response,810,1625791,null,"<div style=""font-size:60px;"">+</div>",null,,,,,,,,,,,,,,,
html-keyboard-response,811,1626007,null,"<div style=""font-size:42px;"">FOLDER</div><img id = ""stim"" ><div class = green_square id = topsquare></div>",null,encoding,word_square,,,1,topsquare,32,true,,,FOLDER,8,,,
html-keyboard-response,812,1626314,173.69999999925494,"<div style=""font-size:42px;"">FOLDER</div>",32,,word,FOLDER,,,,,,,,,,,,
html-keyboard-response,813,1627819,null,"",null,,word,FOLDER,,,,,,,,,,,,
html-keyboard-response,814,1628035,null,"<div style=""font-size:42px;"">BATHTUB</div><img id = ""stim"" ><div class = green_square id = bottomsquare></div>",null,encoding,word_square,,,1,bottomsquare,32,true,,,BATHTUB,8,,,
html-keyboard-response,815,1628343,299.09999999962747,"<div style=""font-size:42px;"">BATHTUB</div>",32,,word,BATHTUB,,,,,,,,,,,,
html-keyboard-response,816,1629861,null,"",null,,word,BATHTUB,,,,,,,,,,,,
html-keyboard-response,817,1630076,null,"<div style=""font-size:42px;"">PAIL</div><img id = ""stim"" ><div class = red_square id = bottomsquare></div>",null,encoding,word_square,,,0,bottomsquare,none,true,,,PAIL,8,,,
html-keyboard-response,818,1630382,null,"<div style=""font-size:42px;"">PAIL</div>",null,,word,PAIL,,,,,,,,,,,,
html-keyboard-response,819,1631889,null,"",null,,word,PAIL,,,,,,,,,,,,
html-keyboard-response,820,1632105,null,"<div style=""font-size:42px;"">NOTEBOOK</div><img id = ""stim"" ><div class = red_square id = topsquare></div>",null,encoding,word_square,,,0,topsquare,none,true,,,NOTEBOOK,8,,,
html-keyboard-response,821,1632413,null,"<div style=""font-size:42px;"">NOTEBOOK</div>",null,,word,NOTEBOOK,,,,,,,,,,,,
html-keyboard-response,822,1633920,null,"",null,,word,NOTEBOOK,,,,,,,,,,,,
html-keyboard-response,823,1634137,null,"<div style=""font-size:42px;"">ATLAS</div><img id = ""stim"" ><div class = green_square id = topsquare></div>",null,encoding,word_square,,,1,topsquare,32,true,,,ATLAS,8,,,
html-keyboard-response,824,1634444,237.30000000074506,"<div style=""font-size:42px;"">ATLAS</div>",32,,word,ATLAS,,,,,,,,,,,,
html-keyboard-response,825,1635953,null,"",null,,word,ATLAS,,,,,,,,,,,,
html-keyboard-response,826,1636169,null,"<div style=""font-size:42px;"">COFFIN</div><img id = ""stim"" ><div class = green_square id = bottomsquare></div>",null,encoding,word_square,,,1,bottomsquare,32,true,,,COFFIN,8,,,
html-keyboard-response,827,1636477,243.19999999925494,"<div style=""font-size:42px;"">COFFIN</div>",32,,word,COFFIN,,,,,,,,,,,,
html-keyboard-response,828,1637987,null,"",null,,word,COFFIN,,,,,,,,,,,,
html-keyboard-response,829,1638203,null,"<div style=""font-size:42px;"">SAND</div><img id = ""stim"" ><div class = red_square id = bottomsquare></div>",null,encoding,word_square,,,0,bottomsquare,none,false,,,SAND,8,,,
html-keyboard-response,830,1638510,null,"<div style=""font-size:42px;"">SAND</div>",null,,word,SAND,,,,,,,,,,,,
html-keyboard-response,831,1640018,278.5,"",32,,word,SAND,,,,,,,,,,,,
html-keyboard-response,832,1640232,null,"<div style=""font-size:42px;"">HAMPER</div><img id = ""stim"" ><div class = red_square id = topsquare></div>",null,encoding,word_square,,,0,topsquare,none,true,,,HAMPER,8,,,
html-keyboard-response,833,1640540,null,"<div style=""font-size:42px;"">HAMPER</div>",null,,word,HAMPER,,,,,,,,,,,,
html-keyboard-response,834,1642047,null,"",null,,word,HAMPER,,,,,,,,,,,,
html-keyboard-response,835,1642262,null,"<div style=""font-size:42px;"">ACTOR</div><img id = ""stim"" ><div class = green_square id = topsquare></div>",null,encoding,word_square,,,1,topsquare,32,true,,,ACTOR,8,,,
html-keyboard-response,836,1642569,182.90000000037253,"<div style=""font-size:42px;"">ACTOR</div>",32,,word,ACTOR,,,,,,,,,,,,
html-keyboard-response,837,1644076,null,"",null,,word,ACTOR,,,,,,,,,,,,
html-keyboard-response,838,1644290,null,"<div style=""font-size:42px;"">CATCHER</div><img id = ""stim"" ><div class = red_square id = bottomsquare></div>",null,encoding,word_square,,,0,bottomsquare,none,true,,,CATCHER,8,,,
html-keyboard-response,839,1644599,null,"<div style=""font-size:42px;"">CATCHER</div>",null,,word,CATCHER,,,,,,,,,,,,
html-keyboard-response,840,1646109,null,"",null,,word,CATCHER,,,,,,,,,,,,
html-keyboard-response,841,1646325,null,"<div style=""font-size:42px;"">FIGHTER</div><img id = ""stim"" ><div class = red_square id = topsquare></div>",null,encoding,word_square,,,0,topsquare,none,true,,,FIGHTER,8,,,
html-keyboard-response,842,1646634,null,"<div style=""font-size:42px;"">FIGHTER</div>",null,,word,FIGHTER,,,,,,,,,,,,
html-keyboard-response,843,1648139,null,"",null,,word,FIGHTER,,,,,,,,,,,,
html-keyboard-response,844,1648355,null,"<div style=""font-size:42px;"">GODDESS</div><img id = ""stim"" ><div class = green_square id = bottomsquare></div>",null,encoding,word_square,,,1,bottomsquare,32,true,,,GODDESS,8,,,
html-keyboard-response,845,1648664,243.80000000074506,"<div style=""font-size:42px;"">GODDESS</div>",32,,word,GODDESS,,,,,,,,,,,,
html-keyboard-response,846,1650172,null,"",null,,word,GODDESS,,,,,,,,,,,,
html-keyboard-response,847,1650385,null,"<div style=""font-size:42px;"">LABEL</div><img id = ""stim"" ><div class = red_square id = bottomsquare></div>",null,encoding,word_square,,,0,bottomsquare,none,true,,,LABEL,8,,,
html-keyboard-response,848,1650696,null,"<div style=""font-size:42px;"">LABEL</div>",null,,word,LABEL,,,,,,,,,,,,
html-keyboard-response,849,1652202,null,"",null,,word,LABEL,,,,,,,,,,,,
html-keyboard-response,850,1652417,null,"<div style=""font-size:42px;"">BLENDER</div><img id = ""stim"" ><div class = green_square id = topsquare></div>",null,encoding,word_square,,,1,topsquare,32,true,,,BLENDER,8,,,
html-keyboard-response,851,1652724,267.2999999988824,"<div style=""font-size:42px;"">BLENDER</div>",32,,word,BLENDER,,,,,,,,,,,,
html-keyboard-response,852,1654230,null,"",null,,word,BLENDER,,,,,,,,,,,,
html-keyboard-response,853,1654446,null,"<div style=""font-size:42px;"">FRANCE</div><img id = ""stim"" ><div class = green_square id = bottomsquare></div>",null,encoding,word_square,,,1,bottomsquare,32,true,,,FRANCE,8,,,
html-keyboard-response,854,1654752,262.19999999925494,"<div style=""font-size:42px;"">FRANCE</div>",32,,word,FRANCE,,,,,,,,,,,,
html-keyboard-response,855,1656260,null,"",null,,word,FRANCE,,,,,,,,,,,,
html-keyboard-response,856,1656476,null,"<div style=""font-size:42px;"">JAPAN</div><img id = ""stim"" ><div class = red_square id = topsquare></div>",null,encoding,word_square,,,0,topsquare,none,true,,,JAPAN,8,,,
html-keyboard-response,857,1656784,null,"<div style=""font-size:42px;"">JAPAN</div>",null,,word,JAPAN,,,,,,,,,,,,
html-keyboard-response,858,1658290,null,"",null,,word,JAPAN,,,,,,,,,,,,
call-function,859,1658291,,"",,,,,,,,,,,,,,,,
html-keyboard-response,860,1658392,null,"",null,,,,,,,,,,,,,,,
math-period,861,1662357,7345.5,"",,,,,,,,,,,5,,,,,
html-keyboard-response,862,1662461,null,"",null,,,,,,,,,,,,,,,
math-period,863,1665037,4942.4000000003725,"",,,,,,,,,,,3,,,,,
html-keyboard-response,864,1665141,null,"",null,,,,,,,,,,,,,,,
math-period,865,1667533,4551.500000001863,"",,,,,,,,,,,2,,,,,
html-keyboard-response,866,1667646,null,"",null,,,,,,,,,,,,,,,
math-period,867,1669125,2812.4999999981374,"",,,,,,,,,,,3,,,,,
html-keyboard-response,868,1669228,null,"",null,,,,,,,,,,,,,,,
math-period,869,1671101,3552.699999999255,"",,,,,,,,,,,1,,,,,
html-keyboard-response,870,1671217,null,"",null,,,,,,,,,,,,,,,
math-period,871,1673069,3528.5,"",,,,,,,,,,,6,,,,,
html-keyboard-response,872,1673183,null,"",null,,,,,,,,,,,,,,,
math-period,873,1674901,3307.0999999996275,"",,,,,,,,,,,5,,,,,
html-keyboard-response,874,1675011,null,"",null,,,,,,,,,,,,,,,
math-period,875,1676613,3041.9000000003725,"",,,,,,,,,,,3,,,,,
html-keyboard-response,876,1676718,null,"",null,,,,,,,,,,,,,,,
math-period,877,1678077,2596.89999999851,"",,,,,,,,,,,2,,,,,
