trial_type,trial_index,time_elapsed,rt,stimulus,key_press,exp_phase,test_part,word,task,targ_cond,sq_pos,correctKeyCode,correct,value,response,Word,List,RecResp,serial_pos,colorChosen
pavlovia,0,2501,,"",,,,,,,,,,,,,,,,
external-html,1,28028,25507,"",,,,,,,,,,,,,,,,
html-keyboard-response,2,29900,1863.7999999523163,"Welcome to the experiment. Press any key to begin.",74,,,,,,,,,,,,,,,
html-keyboard-response,3,35588,5684.600000023842,"<p>You will see a list of words and colored squares in the following task.<p><p>Press the spacebar whenever you see a GREEN square.<p><p>Do not press a key if the square is RED.<p><p>Press the spacebar to continue.</p>",32,,,,,,,,,,,,,,,
html-keyboard-response,4,41178,5080.299999952316,"<p>Please try to remember as many of the words as you can, and try to think about the meaning of each word as it appears.<p><p>After the detection and encoding task you will be asked to solve some math problems for 24 seconds.<p> Please solve as many problems as you can in the time given. <p><p><p>Press the spacebar to continue.</p>",32,,,,,,,,,,,,,,,
html-keyboard-response,5,45061,3370.399999976158,"After solving the math problems, you will be asked to type in as many words <p>from the previous list as you can remember for 75 seconds.<p> If you finish recalling before the 75 seconds are up,<p> just sit tight and try to think of any more words you could have missed. <p><p><p>Press the spacebar to continue.</p>",32,,,,,,,,,,,,,,,
html-keyboard-response,6,49113,3540.399999976158,"There will be 16 lists of words and recall, followed  by<p><p> a recognition phase. The experiment is expected to take up to 90 minutes.<p>We will begin with a brief practice session.<p>Press the spacebar to begin the practice.</p>",32,,,,,,,,,,,,,,,
html-keyboard-response,7,51640,null,"<div style=""font-size:60px;"">+</div>",null,,,,,,,,,,,,,,,
html-keyboard-response,8,51847,null,"<div style=""font-size:42px;"">HAPPY</div><img id = ""stim"" ><div class = red_square id = ""bottomsquare"" ></div>",null,practice,word_square,HAPPY,prac_response,0,Bottom,none,true,,,,,,,
html-keyboard-response,9,52169,null,"<div style=""font-size:42px;"">HAPPY</div>",null,,word,HAPPY,,,,,,,,,,,,
html-keyboard-response,10,53677,null,"",null,,word,HAPPY,,,,,,,,,,,,
html-keyboard-response,11,53900,null,"<div style=""font-size:42px;"">COLD</div><img id = ""stim"" ><div class = green_square id = ""bottomsquare"" ></div>",null,practice,word_square,COLD,prac_response,1,Bottom,32,true,,,,,,,
html-keyboard-response,12,54221,null,"<div style=""font-size:42px;"">COLD</div>",null,,word,COLD,,,,,,,,,,,,
html-keyboard-response,13,55737,84.39999997615814,"",32,,word,COLD,,,,,,,,,,,,
html-keyboard-response,14,55969,null,"<div style=""font-size:42px;"">HEAVY</div><img id = ""stim"" ><div class = green_square id = ""topsquare"" ></div>",null,practice,word_square,HEAVY,prac_response,1,Top,32,true,,,,,,,
html-keyboard-response,15,56273,null,"<div style=""font-size:42px;"">HEAVY</div>",null,,word,HEAVY,,,,,,,,,,,,
html-keyboard-response,16,57791,47.800000071525574,"",32,,word,HEAVY,,,,,,,,,,,,
html-keyboard-response,17,57997,null,"<div style=""font-size:42px;"">FUNNY</div><img id = ""stim"" ><div class = red_square id = ""topsquare"" ></div>",null,practice,word_square,FUNNY,prac_response,0,Top,none,true,,,,,,,
html-keyboard-response,18,58313,null,"<div style=""font-size:42px;"">FUNNY</div>",null,,word,FUNNY,,,,,,,,,,,,
html-keyboard-response,19,59828,null,"",null,,word,FUNNY,,,,,,,,,,,,
html-keyboard-response,20,60041,null,"<div style=""font-size:42px;"">SCARY</div><img id = ""stim"" ><div class = green_square id = ""bottomsquare"" ></div>",null,practice,word_square,SCARY,prac_response,1,Bottom,32,true,,,,,,,
html-keyboard-response,21,60347,222.5,"<div style=""font-size:42px;"">SCARY</div>",32,,word,SCARY,,,,,,,,,,,,
html-keyboard-response,22,61864,null,"",null,,word,SCARY,,,,,,,,,,,,
html-keyboard-response,23,62070,null,"<div style=""font-size:42px;"">PEACEFUL</div><img id = ""stim"" ><div class = green_square id = ""topsquare"" ></div>",null,practice,word_square,PEACEFUL,prac_response,1,Top,32,true,,,,,,,
html-keyboard-response,24,62385,null,"<div style=""font-size:42px;"">PEACEFUL</div>",null,,word,PEACEFUL,,,,,,,,,,,,
html-keyboard-response,25,63892,43.60000002384186,"",32,,word,PEACEFUL,,,,,,,,,,,,
html-keyboard-response,26,64106,null,"<div style=""font-size:42px;"">LITTLE</div><img id = ""stim"" ><div class = red_square id = ""bottomsquare"" ></div>",null,practice,word_square,LITTLE,prac_response,0,Bottom,none,true,,,,,,,
html-keyboard-response,27,64422,null,"<div style=""font-size:42px;"">LITTLE</div>",null,,word,LITTLE,,,,,,,,,,,,
html-keyboard-response,28,65934,null,"",null,,word,LITTLE,,,,,,,,,,,,
html-keyboard-response,29,66141,null,"<div style=""font-size:42px;"">TIRED</div><img id = ""stim"" ><div class = red_square id = ""topsquare"" ></div>",null,practice,word_square,TIRED,prac_response,0,Top,none,true,,,,,,,
html-keyboard-response,30,66448,null,"<div style=""font-size:42px;"">TIRED</div>",null,,word,TIRED,,,,,,,,,,,,
html-keyboard-response,31,67952,null,"",null,,word,TIRED,,,,,,,,,,,,
html-keyboard-response,32,68179,null,"<div style=""font-size:42px;"">ENTERTAINING</div><img id = ""stim"" ><div class = red_square id = ""bottomsquare"" ></div>",null,practice,word_square,ENTERTAINING,prac_response,0,Bottom,none,true,,,,,,,
html-keyboard-response,33,68486,null,"<div style=""font-size:42px;"">ENTERTAINING</div>",null,,word,ENTERTAINING,,,,,,,,,,,,
html-keyboard-response,34,69996,null,"",null,,word,ENTERTAINING,,,,,,,,,,,,
html-keyboard-response,35,70209,null,"<div style=""font-size:42px;"">GRATEFUL</div><img id = ""stim"" ><div class = green_square id = ""bottomsquare"" ></div>",null,practice,word_square,GRATEFUL,prac_response,1,Bottom,32,true,,,,,,,
html-keyboard-response,36,70517,157.20000004768372,"<div style=""font-size:42px;"">GRATEFUL</div>",32,,word,GRATEFUL,,,,,,,,,,,,
html-keyboard-response,37,72023,null,"",null,,word,GRATEFUL,,,,,,,,,,,,
html-keyboard-response,38,72237,null,"<div style=""font-size:42px;"">LOUD</div><img id = ""stim"" ><div class = red_square id = ""topsquare"" ></div>",null,practice,word_square,LOUD,prac_response,0,Top,none,true,,,,,,,
html-keyboard-response,39,72566,null,"<div style=""font-size:42px;"">LOUD</div>",null,,word,LOUD,,,,,,,,,,,,
html-keyboard-response,40,74071,null,"",null,,word,LOUD,,,,,,,,,,,,
html-keyboard-response,41,74277,null,"<div style=""font-size:42px;"">SMART</div><img id = ""stim"" ><div class = green_square id = ""topsquare"" ></div>",null,practice,word_square,SMART,prac_response,1,Top,32,true,,,,,,,
html-keyboard-response,42,74597,204.79999995231628,"<div style=""font-size:42px;"">SMART</div>",32,,word,SMART,,,,,,,,,,,,
html-keyboard-response,43,76103,null,"",null,,word,SMART,,,,,,,,,,,,
html-keyboard-response,44,76312,null,"<div style=""font-size:42px;"">SMOOTH</div><img id = ""stim"" ><div class = green_square id = ""bottomsquare"" ></div>",null,practice,word_square,SMOOTH,prac_response,1,Bottom,32,true,,,,,,,
html-keyboard-response,45,76617,180.70000004768372,"<div style=""font-size:42px;"">SMOOTH</div>",32,,word,SMOOTH,,,,,,,,,,,,
html-keyboard-response,46,78140,null,"",null,,word,SMOOTH,,,,,,,,,,,,
html-keyboard-response,47,78354,null,"<div style=""font-size:42px;"">DISHONEST</div><img id = ""stim"" ><div class = red_square id = ""bottomsquare"" ></div>",null,practice,word_square,DISHONEST,prac_response,0,Bottom,none,true,,,,,,,
html-keyboard-response,48,78672,null,"<div style=""font-size:42px;"">DISHONEST</div>",null,,word,DISHONEST,,,,,,,,,,,,
html-keyboard-response,49,80185,null,"",null,,word,DISHONEST,,,,,,,,,,,,
html-keyboard-response,50,80391,null,"<div style=""font-size:42px;"">WEALTHY</div><img id = ""stim"" ><div class = green_square id = ""topsquare"" ></div>",null,practice,word_square,WEALTHY,prac_response,1,Top,32,true,,,,,,,
html-keyboard-response,51,80698,192.60000002384186,"<div style=""font-size:42px;"">WEALTHY</div>",32,,word,WEALTHY,,,,,,,,,,,,
html-keyboard-response,52,82214,null,"",null,,word,WEALTHY,,,,,,,,,,,,
html-keyboard-response,53,82437,null,"<div style=""font-size:42px;"">BEAUTIFUL</div><img id = ""stim"" ><div class = red_square id = ""topsquare"" ></div>",null,practice,word_square,BEAUTIFUL,prac_response,0,Top,none,true,,,,,,,
html-keyboard-response,54,82747,null,"<div style=""font-size:42px;"">BEAUTIFUL</div>",null,,word,BEAUTIFUL,,,,,,,,,,,,
html-keyboard-response,55,84264,null,"",null,,word,BEAUTIFUL,,,,,,,,,,,,
html-keyboard-response,56,89873,5594.799999952316,"<p> Good job! You responded correctly to 100% of the trials. </p>
                  <p>Be sure to only press the spacebar if you see a GREEN square, and please keep your accuracy above 80%.</p>
                  <p>We're going to try once more to make sure you understand the task. press any key to continue. </p>",72,,,,,,,,,,,,,,,
html-keyboard-response,57,93390,3514.1999999284744,"<p>You will see a list of words and colored squares in the following task.<p><p>Press the spacebar whenever you see a GREEN square.<p><p>Do not press a key if the square is RED<p><p>Press the spacebar to continue.</p>",32,,,,,,,,,,,,,,,
html-keyboard-response,58,95915,null,"<div style=""font-size:60px;"">+</div>",null,,,,,,,,,,,,,,,
html-keyboard-response,59,96122,null,"<div style=""font-size:42px;"">HAPPY</div><img id = ""stim"" ><div class = red_square id = ""bottomsquare"" ></div>",null,practice2,word_square,HAPPY,prac_response,0,Bottom,none,true,,,,,,,
html-keyboard-response,60,96429,null,"<div style=""font-size:42px;"">HAPPY</div>",null,,word,HAPPY,,,,,,,,,,,,
html-keyboard-response,61,97934,null,"",null,,word,HAPPY,,,,,,,,,,,,
html-keyboard-response,62,98152,null,"<div style=""font-size:42px;"">COLD</div><img id = ""stim"" ><div class = green_square id = ""bottomsquare"" ></div>",null,practice2,word_square,,prac_response,1,Bottom,32,true,,,,,,,
html-keyboard-response,63,98466,256,"<div style=""font-size:42px;"">COLD</div>",32,,word,COLD,,,,,,,,,,,,
html-keyboard-response,64,99970,null,"",null,,word,COLD,,,,,,,,,,,,
html-keyboard-response,65,100188,null,"<div style=""font-size:42px;"">HEAVY</div><img id = ""stim"" ><div class = green_square id = ""topsquare"" ></div>",null,practice2,word_square,,prac_response,1,Top,32,true,,,,,,,
html-keyboard-response,66,100498,199.90000009536743,"<div style=""font-size:42px;"">HEAVY</div>",32,,word,HEAVY,,,,,,,,,,,,
html-keyboard-response,67,102001,null,"",null,,word,HEAVY,,,,,,,,,,,,
html-keyboard-response,68,102210,null,"<div style=""font-size:42px;"">FUNNY</div><img id = ""stim"" ><div class = red_square id = ""topsquare"" ></div>",null,practice2,word_square,,prac_response,0,Top,none,true,,,,,,,
html-keyboard-response,69,102529,null,"<div style=""font-size:42px;"">FUNNY</div>",null,,word,FUNNY,,,,,,,,,,,,
html-keyboard-response,70,104034,null,"",null,,word,FUNNY,,,,,,,,,,,,
html-keyboard-response,71,104248,null,"<div style=""font-size:42px;"">SCARY</div><img id = ""stim"" ><div class = green_square id = ""bottomsquare"" ></div>",null,practice2,word_square,,prac_response,1,Bottom,32,true,,,,,,,
html-keyboard-response,72,104551,228.69999992847443,"<div style=""font-size:42px;"">SCARY</div>",32,,word,SCARY,,,,,,,,,,,,
html-keyboard-response,73,106075,null,"",null,,word,SCARY,,,,,,,,,,,,
html-keyboard-response,74,106285,null,"<div style=""font-size:42px;"">PEACEFUL</div><img id = ""stim"" ><div class = green_square id = ""topsquare"" ></div>",null,practice2,word_square,,prac_response,1,Top,32,true,,,,,,,
html-keyboard-response,75,106602,261.6999999284744,"<div style=""font-size:42px;"">PEACEFUL</div>",32,,word,PEACEFUL,,,,,,,,,,,,
html-keyboard-response,76,108107,null,"",null,,word,PEACEFUL,,,,,,,,,,,,
html-keyboard-response,77,108326,null,"<div style=""font-size:42px;"">LITTLE</div><img id = ""stim"" ><div class = red_square id = ""bottomsquare"" ></div>",null,practice2,word_square,LITTLE,prac_response,0,Bottom,none,true,,,,,,,
html-keyboard-response,78,108634,null,"<div style=""font-size:42px;"">LITTLE</div>",null,,word,LITTLE,,,,,,,,,,,,
html-keyboard-response,79,110152,null,"",null,,word,LITTLE,,,,,,,,,,,,
html-keyboard-response,80,110364,null,"<div style=""font-size:42px;"">TIRED</div><img id = ""stim"" ><div class = red_square id = ""topsquare"" ></div>",null,practice2,word_square,,prac_response,0,Top,none,true,,,,,,,
html-keyboard-response,81,110667,null,"<div style=""font-size:42px;"">TIRED</div>",null,,word,TIRED,,,,,,,,,,,,
html-keyboard-response,82,112181,null,"",null,,word,TIRED,,,,,,,,,,,,
html-keyboard-response,83,112388,null,"<div style=""font-size:42px;"">ENTERTAINING</div><img id = ""stim"" ><div class = red_square id = ""bottomsquare"" ></div>",null,practice2,word_square,ENTERTAINING,prac_response,0,Bottom,none,true,,,,,,,
html-keyboard-response,84,112696,null,"<div style=""font-size:42px;"">ENTERTAINING</div>",null,,word,ENTERTAINING,,,,,,,,,,,,
html-keyboard-response,85,114257,null,"",null,,word,ENTERTAINING,,,,,,,,,,,,
html-keyboard-response,86,114489,null,"<div style=""font-size:42px;"">GRATEFUL</div><img id = ""stim"" ><div class = green_square id = ""bottomsquare"" ></div>",null,practice2,word_square,,prac_response,1,Bottom,32,true,,,,,,,
html-keyboard-response,87,114804,203.59999990463257,"<div style=""font-size:42px;"">GRATEFUL</div>",32,,word,GRATEFUL,,,,,,,,,,,,
html-keyboard-response,88,116317,null,"",null,,word,GRATEFUL,,,,,,,,,,,,
html-keyboard-response,89,116523,null,"<div style=""font-size:42px;"">LOUD</div><img id = ""stim"" ><div class = red_square id = ""topsquare"" ></div>",null,practice2,word_square,,prac_response,0,Top,none,true,,,,,,,
html-keyboard-response,90,116832,null,"<div style=""font-size:42px;"">LOUD</div>",null,,word,LOUD,,,,,,,,,,,,
html-keyboard-response,91,118345,null,"",null,,word,LOUD,,,,,,,,,,,,
html-keyboard-response,92,118556,null,"<div style=""font-size:42px;"">SMART</div><img id = ""stim"" ><div class = green_square id = ""topsquare"" ></div>",null,practice2,word_square,,prac_response,1,Top,32,true,,,,,,,
html-keyboard-response,93,118875,141.10000002384186,"<div style=""font-size:42px;"">SMART</div>",32,,word,SMART,,,,,,,,,,,,
html-keyboard-response,94,120388,null,"",null,,word,SMART,,,,,,,,,,,,
html-keyboard-response,95,120605,null,"<div style=""font-size:42px;"">SMOOTH</div><img id = ""stim"" ><div class = green_square id = ""bottomsquare"" ></div>",null,practice2,word_square,,prac_response,1,Bottom,32,true,,,,,,,
html-keyboard-response,96,120908,212.70000004768372,"<div style=""font-size:42px;"">SMOOTH</div>",32,,word,SMOOTH,,,,,,,,,,,,
html-keyboard-response,97,122413,null,"",null,,word,SMOOTH,,,,,,,,,,,,
html-keyboard-response,98,122620,null,"<div style=""font-size:42px;"">DISHONEST</div><img id = ""stim"" ><div class = red_square id = ""bottomsquare"" ></div>",null,practice2,word_square,DISHONEST,prac_response,0,Bottom,none,true,,,,,,,
html-keyboard-response,99,122935,null,"<div style=""font-size:42px;"">DISHONEST</div>",null,,word,DISHONEST,,,,,,,,,,,,
html-keyboard-response,100,124441,null,"",null,,word,DISHONEST,,,,,,,,,,,,
html-keyboard-response,101,124655,null,"<div style=""font-size:42px;"">WEALTHY</div><img id = ""stim"" ><div class = green_square id = ""topsquare"" ></div>",null,practice2,word_square,,prac_response,1,Top,32,true,,,,,,,
html-keyboard-response,102,124961,230.70000004768372,"<div style=""font-size:42px;"">WEALTHY</div>",32,,word,WEALTHY,,,,,,,,,,,,
html-keyboard-response,103,126472,null,"",null,,word,WEALTHY,,,,,,,,,,,,
html-keyboard-response,104,126687,null,"<div style=""font-size:42px;"">BEAUTIFUL</div><img id = ""stim"" ><div class = red_square id = ""topsquare"" ></div>",null,practice2,word_square,,prac_response,0,Top,none,true,,,,,,,
html-keyboard-response,105,126995,null,"<div style=""font-size:42px;"">BEAUTIFUL</div>",null,,word,BEAUTIFUL,,,,,,,,,,,,
html-keyboard-response,106,128508,null,"",null,,word,BEAUTIFUL,,,,,,,,,,,,
html-keyboard-response,107,151906,23394.5,"<p> Good job! You responded correctly to 100% of the trials. </p>
                    <p>Be sure to only press the spacebar if you see a GREEN square, and please keep your accuracy above 80%.</p>
                    <p>Press any key to begin the math and recall sections. Thank you! </p>",74,,,,,,,,,,,,,,,
call-function,108,151909,,"",,,,,,,,,,,,,,,,
html-keyboard-response,109,152024,null,"",null,,,,,,,,,,,,,,,
math-period,110,158740,11721.5,"",,,,,,,,,,,2,,,,,
html-keyboard-response,111,158844,null,"",null,,,,,,,,,,,,,,,
math-period,112,163130,7808.299999952316,"",,,,,,,,,,,4,,,,,
html-keyboard-response,113,163272,null,"",null,,,,,,,,,,,,,,,
math-period,114,168601,9645.400000095367,"",,,,,,,,,,,3,,,,,
html-keyboard-response,115,168713,null,"",null,,,,,,,,,,,,,,,
math-period,116,171661,5454.599999904633,"",,,,,,,,,,,5,,,,,
html-keyboard-response,117,171769,null,"",null,,,,,,,,,,,,,,,
math-period,118,175552,7114.100000143051,"",,,,,,,,,,,2,,,,,
html-keyboard-response,119,175665,null,"",null,,,,,,,,,,,,,,,
math-period,120,175939,null,"",,,,,,,,,,,,,,,,
html-keyboard-response,121,176952,null,"Recall Period!",null,,,,,,,,,,,,,,,
call-function,122,176954,,"",,,,,,,,,,,,,,,,
html-keyboard-response,123,177059,null,"",null,,,,,,,,,,,,,,,
recall-period,124,188414,196910.6999988556,"",,,,,,,,,,,entertaining,,,,,
html-keyboard-response,125,188530,null,"",null,,,,,,,,,,,,,,,
recall-period,126,198755,58316.799999952316,"",,,,,,,,,,,scary,,,,,
html-keyboard-response,127,198867,null,"",null,,,,,,,,,,,,,,,
recall-period,128,203225,25476.799999833107,"",,,,,,,,,,,grateful,,,,,
html-keyboard-response,129,203335,null,"",null,,,,,,,,,,,,,,,
recall-period,130,237266,195993.09999978542,"",,,,,,,,,,,green,,,,,
html-keyboard-response,131,237374,null,"",null,,,,,,,,,,,,,,,
recall-period,132,251968,null,"",,,,,,,,,,,,,,,,
html-keyboard-response,133,252485,null,"Time's Up!",null,,,,,,,,,,,,,,,
html-keyboard-response,134,255861,3372.7000000476837,"<p>We will now begin the experiment!<p><p>Please try to remember all words from each list.<p><p>Press the spacebar whenever you see a GREEN square.<p><p><p><p>Press the spacebar to begin.</p>",32,,,,,,,,,,,,,,,
html-keyboard-response,135,257732,1360.3999999761581,"<div style=""font-size:48px;"">Press any key to begin list 1 of 16 </div>",74,,,,,,,,,,,,,,,
html-keyboard-response,136,260264,null,"<div style=""font-size:60px;"">+</div>",null,,,,,,,,,,,,,,,
html-keyboard-response,137,260467,null,"<div style=""font-size:42px;"">PIRATE</div><img id = ""stim"" ><div class = green_square id = topsquare></div>",null,encoding,word_square,,,1,topsquare,32,true,,,PIRATE,0,,,
html-keyboard-response,138,260783,267.10000002384186,"<div style=""font-size:42px;"">PIRATE</div>",32,,word,PIRATE,,,,,,,,,,,,
html-keyboard-response,139,262292,null,"",null,,word,PIRATE,,,,,,,,,,,,
html-keyboard-response,140,262510,null,"<div style=""font-size:42px;"">SHELTER</div><img id = ""stim"" ><div class = red_square id = bottomsquare></div>",null,encoding,word_square,,,0,bottomsquare,none,true,,,SHELTER,0,,,
html-keyboard-response,141,262818,null,"<div style=""font-size:42px;"">SHELTER</div>",null,,word,SHELTER,,,,,,,,,,,,
html-keyboard-response,142,264333,null,"",null,,word,SHELTER,,,,,,,,,,,,
html-keyboard-response,143,264539,null,"<div style=""font-size:42px;"">WOLF</div><img id = ""stim"" ><div class = red_square id = topsquare></div>",null,encoding,word_square,,,0,topsquare,none,true,,,WOLF,0,,,
html-keyboard-response,144,264852,null,"<div style=""font-size:42px;"">WOLF</div>",null,,word,WOLF,,,,,,,,,,,,
html-keyboard-response,145,266360,null,"",null,,word,WOLF,,,,,,,,,,,,
html-keyboard-response,146,266577,null,"<div style=""font-size:42px;"">CLOUD</div><img id = ""stim"" ><div class = green_square id = bottomsquare></div>",null,encoding,word_square,,,1,bottomsquare,32,true,,,CLOUD,0,,,
html-keyboard-response,147,266886,245.5,"<div style=""font-size:42px;"">CLOUD</div>",32,,word,CLOUD,,,,,,,,,,,,
html-keyboard-response,148,268400,null,"",null,,word,CLOUD,,,,,,,,,,,,
html-keyboard-response,149,268618,null,"<div style=""font-size:42px;"">COMET</div><img id = ""stim"" ><div class = red_square id = bottomsquare></div>",null,encoding,word_square,,,0,bottomsquare,none,true,,,COMET,0,,,
html-keyboard-response,150,268932,null,"<div style=""font-size:42px;"">COMET</div>",null,,word,COMET,,,,,,,,,,,,
html-keyboard-response,151,270447,null,"",null,,word,COMET,,,,,,,,,,,,
html-keyboard-response,152,270653,null,"<div style=""font-size:42px;"">JAR</div><img id = ""stim"" ><div class = green_square id = topsquare></div>",null,encoding,word_square,,,1,topsquare,32,true,,,JAR,0,,,
html-keyboard-response,153,270959,244.39999997615814,"<div style=""font-size:42px;"">JAR</div>",32,,word,JAR,,,,,,,,,,,,
html-keyboard-response,154,272465,null,"",null,,word,JAR,,,,,,,,,,,,
html-keyboard-response,155,272671,null,"<div style=""font-size:42px;"">BEAVER</div><img id = ""stim"" ><div class = green_square id = bottomsquare></div>",null,encoding,word_square,,,1,bottomsquare,32,true,,,BEAVER,0,,,
html-keyboard-response,156,272976,187.69999992847443,"<div style=""font-size:42px;"">BEAVER</div>",32,,word,BEAVER,,,,,,,,,,,,
html-keyboard-response,157,274486,null,"",null,,word,BEAVER,,,,,,,,,,,,
html-keyboard-response,158,274692,null,"<div style=""font-size:42px;"">WASHER</div><img id = ""stim"" ><div class = red_square id = topsquare></div>",null,encoding,word_square,,,0,topsquare,none,true,,,WASHER,0,,,
html-keyboard-response,159,274998,null,"<div style=""font-size:42px;"">WASHER</div>",null,,word,WASHER,,,,,,,,,,,,
html-keyboard-response,160,276511,null,"",null,,word,WASHER,,,,,,,,,,,,
html-keyboard-response,161,276725,null,"<div style=""font-size:42px;"">SWAMP</div><img id = ""stim"" ><div class = red_square id = bottomsquare></div>",null,encoding,word_square,,,0,bottomsquare,none,true,,,SWAMP,0,,,
html-keyboard-response,162,277033,null,"<div style=""font-size:42px;"">SWAMP</div>",null,,word,SWAMP,,,,,,,,,,,,
html-keyboard-response,163,278547,null,"",null,,word,SWAMP,,,,,,,,,,,,
html-keyboard-response,164,278773,null,"<div style=""font-size:42px;"">COOKBOOK</div><img id = ""stim"" ><div class = green_square id = topsquare></div>",null,encoding,word_square,,,1,topsquare,32,true,,,COOKBOOK,0,,,
html-keyboard-response,165,279080,174.60000002384186,"<div style=""font-size:42px;"">COOKBOOK</div>",32,,word,COOKBOOK,,,,,,,,,,,,
html-keyboard-response,166,280596,null,"",null,,word,COOKBOOK,,,,,,,,,,,,
html-keyboard-response,167,280802,null,"<div style=""font-size:42px;"">TURTLE</div><img id = ""stim"" ><div class = red_square id = topsquare></div>",null,encoding,word_square,,,0,topsquare,none,true,,,TURTLE,0,,,
html-keyboard-response,168,281110,null,"<div style=""font-size:42px;"">TURTLE</div>",null,,word,TURTLE,,,,,,,,,,,,
html-keyboard-response,169,282618,null,"",null,,word,TURTLE,,,,,,,,,,,,
html-keyboard-response,170,282832,null,"<div style=""font-size:42px;"">SLUG</div><img id = ""stim"" ><div class = green_square id = bottomsquare></div>",null,encoding,word_square,,,1,bottomsquare,32,true,,,SLUG,0,,,
html-keyboard-response,171,283142,149.89999997615814,"<div style=""font-size:42px;"">SLUG</div>",32,,word,SLUG,,,,,,,,,,,,
html-keyboard-response,172,284658,null,"",null,,word,SLUG,,,,,,,,,,,,
html-keyboard-response,173,284871,null,"<div style=""font-size:42px;"">CURTAIN</div><img id = ""stim"" ><div class = red_square id = bottomsquare></div>",null,encoding,word_square,,,0,bottomsquare,none,true,,,CURTAIN,0,,,
html-keyboard-response,174,285179,null,"<div style=""font-size:42px;"">CURTAIN</div>",null,,word,CURTAIN,,,,,,,,,,,,
html-keyboard-response,175,286691,null,"",null,,word,CURTAIN,,,,,,,,,,,,
html-keyboard-response,176,286901,null,"<div style=""font-size:42px;"">IDOL</div><img id = ""stim"" ><div class = red_square id = topsquare></div>",null,encoding,word_square,,,0,topsquare,none,true,,,IDOL,0,,,
html-keyboard-response,177,287212,null,"<div style=""font-size:42px;"">IDOL</div>",null,,word,IDOL,,,,,,,,,,,,
html-keyboard-response,178,288718,null,"",null,,word,IDOL,,,,,,,,,,,,
html-keyboard-response,179,288925,null,"<div style=""font-size:42px;"">HANDCUFFS</div><img id = ""stim"" ><div class = green_square id = topsquare></div>",null,encoding,word_square,,,1,topsquare,32,true,,,HANDCUFFS,0,,,
html-keyboard-response,180,289234,217.10000002384186,"<div style=""font-size:42px;"">HANDCUFFS</div>",32,,word,HANDCUFFS,,,,,,,,,,,,
html-keyboard-response,181,290752,null,"",null,,word,HANDCUFFS,,,,,,,,,,,,
html-keyboard-response,182,290960,null,"<div style=""font-size:42px;"">ZIPPER</div><img id = ""stim"" ><div class = green_square id = bottomsquare></div>",null,encoding,word_square,,,1,bottomsquare,32,true,,,ZIPPER,0,,,
html-keyboard-response,183,291267,165.39999997615814,"<div style=""font-size:42px;"">ZIPPER</div>",32,,word,ZIPPER,,,,,,,,,,,,
html-keyboard-response,184,292777,null,"",null,,word,ZIPPER,,,,,,,,,,,,
call-function,185,292779,,"",,,,,,,,,,,,,,,,
html-keyboard-response,186,292889,null,"",null,,,,,,,,,,,,,,,
math-period,187,297455,8093.400000095367,"",,,,,,,,,,,2,,,,,
html-keyboard-response,188,297562,null,"",null,,,,,,,,,,,,,,,
math-period,189,300034,4457,"",,,,,,,,,,,4,,,,,
html-keyboard-response,190,300153,null,"",null,,,,,,,,,,,,,,,
math-period,191,303418,6007.500000119209,"",,,,,,,,,,,3,,,,,
html-keyboard-response,192,303536,null,"",null,,,,,,,,,,,,,,,
math-period,193,307383,6950.299999952316,"",,,,,,,,,,,2,,,,,
html-keyboard-response,194,307487,null,"",null,,,,,,,,,,,,,,,
math-period,195,312031,8175.799999952316,"",,,,,,,,,,,3,,,,,
html-keyboard-response,196,312143,null,"",null,,,,,,,,,,,,,,,
math-period,197,316752,8495.199999928474,"",,,,,,,,,,,1,,,,,
html-keyboard-response,198,316857,null,"",null,,,,,,,,,,,,,,,
math-period,199,316862,null,"",,,,,,,,,,,,,,,,
html-keyboard-response,200,317876,null,"Recall Period!",null,,,,,,,,,,,,,,,
call-function,201,317879,,"",,,,,,,,,,,,,,,,
html-keyboard-response,202,317989,null,"",null,,,,,,,,,,,,,,,
recall-period,203,324975,39279.89999961853,"",,,,,,,,,,,pirate,,,,,
html-keyboard-response,204,325088,null,"",null,,,,,,,,,,,,,,,
recall-period,205,340143,70133.99999988079,"",,,,,,,,,,,wind,,,,,
html-keyboard-response,206,340248,null,"",null,,,,,,,,,,,,,,,
recall-period,207,392885,null,"",,,,,,,,,,,,,,,,
html-keyboard-response,208,393391,null,"Time's Up!",null,,,,,,,,,,,,,,,
html-keyboard-response,209,396803,3407.6999999284744,"<p> Good job! You have responded correctly to 100% of the trials. </p>
                      <p>Be sure to only press the spacebar if you see a GREEN square, and please keep your accuracy above 80%.</p>
                      <p> Press any key to continue the experiment. </p>",74,,,,,,,,,,,,,,,
html-keyboard-response,210,403864,7056.699999928474,"<div style=""font-size:48px;"">Press any key to begin list 2 of 16 </div>",74,,,,,,,,,,,,,,,
html-keyboard-response,211,406372,null,"<div style=""font-size:60px;"">+</div>",null,,,,,,,,,,,,,,,
html-keyboard-response,212,406580,null,"<div style=""font-size:42px;"">SALMON</div><img id = ""stim"" ><div class = green_square id = bottomsquare></div>",null,encoding,word_square,,,1,bottomsquare,32,true,,,SALMON,1,,,
html-keyboard-response,213,406886,155.70000004768372,"<div style=""font-size:42px;"">SALMON</div>",32,,word,SALMON,,,,,,,,,,,,
html-keyboard-response,214,408394,null,"",null,,word,SALMON,,,,,,,,,,,,
html-keyboard-response,215,408603,null,"<div style=""font-size:42px;"">TAXI</div><img id = ""stim"" ><div class = green_square id = topsquare></div>",null,encoding,word_square,,,1,topsquare,32,true,,,TAXI,1,,,
html-keyboard-response,216,408912,214,"<div style=""font-size:42px;"">TAXI</div>",32,,word,TAXI,,,,,,,,,,,,
html-keyboard-response,217,410419,null,"",null,,word,TAXI,,,,,,,,,,,,
html-keyboard-response,218,410624,null,"<div style=""font-size:42px;"">RUST</div><img id = ""stim"" ><div class = red_square id = topsquare></div>",null,encoding,word_square,,,0,topsquare,none,true,,,RUST,1,,,
html-keyboard-response,219,410930,null,"<div style=""font-size:42px;"">RUST</div>",null,,word,RUST,,,,,,,,,,,,
html-keyboard-response,220,412437,null,"",null,,word,RUST,,,,,,,,,,,,
html-keyboard-response,221,412651,null,"<div style=""font-size:42px;"">BRICK</div><img id = ""stim"" ><div class = red_square id = bottomsquare></div>",null,encoding,word_square,,,0,bottomsquare,none,true,,,BRICK,1,,,
html-keyboard-response,222,412954,null,"<div style=""font-size:42px;"">BRICK</div>",null,,word,BRICK,,,,,,,,,,,,
html-keyboard-response,223,414463,null,"",null,,word,BRICK,,,,,,,,,,,,
html-keyboard-response,224,414672,null,"<div style=""font-size:42px;"">CORAL</div><img id = ""stim"" ><div class = green_square id = bottomsquare></div>",null,encoding,word_square,,,1,bottomsquare,32,true,,,CORAL,1,,,
html-keyboard-response,225,414976,118.60000002384186,"<div style=""font-size:42px;"">CORAL</div>",32,,word,CORAL,,,,,,,,,,,,
html-keyboard-response,226,416485,null,"",null,,word,CORAL,,,,,,,,,,,,
html-keyboard-response,227,416695,null,"<div style=""font-size:42px;"">ATTIRE</div><img id = ""stim"" ><div class = red_square id = topsquare></div>",null,encoding,word_square,,,0,topsquare,none,true,,,ATTIRE,1,,,
html-keyboard-response,228,417004,null,"<div style=""font-size:42px;"">ATTIRE</div>",null,,word,ATTIRE,,,,,,,,,,,,
html-keyboard-response,229,418515,null,"",null,,word,ATTIRE,,,,,,,,,,,,
html-keyboard-response,230,418720,null,"<div style=""font-size:42px;"">CRACKER</div><img id = ""stim"" ><div class = green_square id = topsquare></div>",null,encoding,word_square,,,1,topsquare,32,true,,,CRACKER,1,,,
html-keyboard-response,231,419028,246.20000004768372,"<div style=""font-size:42px;"">CRACKER</div>",32,,word,CRACKER,,,,,,,,,,,,
html-keyboard-response,232,420544,null,"",null,,word,CRACKER,,,,,,,,,,,,
html-keyboard-response,233,420752,null,"<div style=""font-size:42px;"">LETTER</div><img id = ""stim"" ><div class = red_square id = bottomsquare></div>",null,encoding,word_square,,,0,bottomsquare,none,true,,,LETTER,1,,,
html-keyboard-response,234,421059,null,"<div style=""font-size:42px;"">LETTER</div>",null,,word,LETTER,,,,,,,,,,,,
html-keyboard-response,235,422565,null,"",null,,word,LETTER,,,,,,,,,,,,
html-keyboard-response,236,422771,null,"<div style=""font-size:42px;"">BOYFRIEND</div><img id = ""stim"" ><div class = red_square id = topsquare></div>",null,encoding,word_square,,,0,topsquare,none,true,,,BOYFRIEND,1,,,
html-keyboard-response,237,423076,null,"<div style=""font-size:42px;"">BOYFRIEND</div>",null,,word,BOYFRIEND,,,,,,,,,,,,
html-keyboard-response,238,424581,null,"",null,,word,BOYFRIEND,,,,,,,,,,,,
html-keyboard-response,239,424792,null,"<div style=""font-size:42px;"">FLUTE</div><img id = ""stim"" ><div class = green_square id = bottomsquare></div>",null,encoding,word_square,,,1,bottomsquare,32,true,,,FLUTE,1,,,
html-keyboard-response,240,425097,145,"<div style=""font-size:42px;"">FLUTE</div>",32,,word,FLUTE,,,,,,,,,,,,
html-keyboard-response,241,426608,null,"",null,,word,FLUTE,,,,,,,,,,,,
html-keyboard-response,242,426820,null,"<div style=""font-size:42px;"">BANJO</div><img id = ""stim"" ><div class = green_square id = topsquare></div>",null,encoding,word_square,,,1,topsquare,32,true,,,BANJO,1,,,
html-keyboard-response,243,427124,217,"<div style=""font-size:42px;"">BANJO</div>",32,,word,BANJO,,,,,,,,,,,,
html-keyboard-response,244,428634,null,"",null,,word,BANJO,,,,,,,,,,,,
html-keyboard-response,245,428840,null,"<div style=""font-size:42px;"">RIVER</div><img id = ""stim"" ><div class = red_square id = bottomsquare></div>",null,encoding,word_square,,,0,bottomsquare,none,true,,,RIVER,1,,,
html-keyboard-response,246,429145,null,"<div style=""font-size:42px;"">RIVER</div>",null,,word,RIVER,,,,,,,,,,,,
html-keyboard-response,247,430649,null,"",null,,word,RIVER,,,,,,,,,,,,
html-keyboard-response,248,430857,null,"<div style=""font-size:42px;"">FOSSIL</div><img id = ""stim"" ><div class = green_square id = bottomsquare></div>",null,encoding,word_square,,,1,bottomsquare,32,true,,,FOSSIL,1,,,
html-keyboard-response,249,431166,197.70000004768372,"<div style=""font-size:42px;"">FOSSIL</div>",32,,word,FOSSIL,,,,,,,,,,,,
html-keyboard-response,250,432676,null,"",null,,word,FOSSIL,,,,,,,,,,,,
html-keyboard-response,251,432881,null,"<div style=""font-size:42px;"">FRAGRANCE</div><img id = ""stim"" ><div class = red_square id = topsquare></div>",null,encoding,word_square,,,0,topsquare,none,true,,,FRAGRANCE,1,,,
html-keyboard-response,252,433184,null,"<div style=""font-size:42px;"">FRAGRANCE</div>",null,,word,FRAGRANCE,,,,,,,,,,,,
html-keyboard-response,253,434695,null,"",null,,word,FRAGRANCE,,,,,,,,,,,,
html-keyboard-response,254,434902,null,"<div style=""font-size:42px;"">CABIN</div><img id = ""stim"" ><div class = red_square id = bottomsquare></div>",null,encoding,word_square,,,0,bottomsquare,none,true,,,CABIN,1,,,
html-keyboard-response,255,435211,null,"<div style=""font-size:42px;"">CABIN</div>",null,,word,CABIN,,,,,,,,,,,,
html-keyboard-response,256,436725,null,"",null,,word,CABIN,,,,,,,,,,,,
html-keyboard-response,257,436931,null,"<div style=""font-size:42px;"">BOXER</div><img id = ""stim"" ><div class = green_square id = topsquare></div>",null,encoding,word_square,,,1,topsquare,32,true,,,BOXER,1,,,
html-keyboard-response,258,437239,211.89999997615814,"<div style=""font-size:42px;"">BOXER</div>",32,,word,BOXER,,,,,,,,,,,,
html-keyboard-response,259,438746,null,"",null,,word,BOXER,,,,,,,,,,,,
call-function,260,438748,,"",,,,,,,,,,,,,,,,
html-keyboard-response,261,438852,null,"",null,,,,,,,,,,,,,,,
math-period,262,450277,37509.800000190735,"",,,,,,,,,,,1,,,,,
html-keyboard-response,263,450384,null,"",null,,,,,,,,,,,,,,,
math-period,264,452860,4414.099999904633,"",,,,,,,,,,,2,,,,,
html-keyboard-response,265,452963,null,"",null,,,,,,,,,,,,,,,
math-period,266,455184,3751.7000000476837,"",,,,,,,,,,,2,,,,,
html-keyboard-response,267,455335,null,"",null,,,,,,,,,,,,,,,
math-period,268,459211,6854,"",,,,,,,,,,,0,,,,,
html-keyboard-response,269,459323,null,"",null,,,,,,,,,,,,,,,
math-period,270,462396,5681.600000023842,"",,,,,,,,,,,2,,,,,
html-keyboard-response,271,462503,null,"",null,,,,,,,,,,,,,,,
math-period,272,462758,null,"",,,,,,,,,,,,,,,,
html-keyboard-response,273,463769,null,"Recall Period!",null,,,,,,,,,,,,,,,
call-function,274,463771,,"",,,,,,,,,,,,,,,,
html-keyboard-response,275,463881,null,"",null,,,,,,,,,,,,,,,
recall-period,276,466574,13129.200000047684,"",,,,,,,,,,,salmon,,,,,
html-keyboard-response,277,466682,null,"",null,,,,,,,,,,,,,,,
recall-period,278,469238,11761.099999904633,"",,,,,,,,,,,letter,,,,,
html-keyboard-response,279,469348,null,"",null,,,,,,,,,,,,,,,
recall-period,280,473161,17417.300000071526,"",,,,,,,,,,,cracker,,,,,
html-keyboard-response,281,473268,null,"",null,,,,,,,,,,,,,,,
recall-period,282,476620,11069.200000286102,"",,,,,,,,,,,brick,,,,,
html-keyboard-response,283,476724,null,"",null,,,,,,,,,,,,,,,
recall-period,284,501554,24825.399999976158,"",,,,,,,,,,,,,,,,
html-keyboard-response,285,501661,null,"",null,,,,,,,,,,,,,,,
recall-period,286,538775,null,"",,,,,,,,,,,,,,,,
html-keyboard-response,287,539281,null,"Time's Up!",null,,,,,,,,,,,,,,,
html-keyboard-response,288,541458,2172.600000023842,"<p> Good job! You have responded correctly to 100% of the trials. </p>
                      <p>Be sure to only press the spacebar if you see a GREEN square, and please keep your accuracy above 80%.</p>
                      <p> Press any key to continue the experiment. </p>",72,,,,,,,,,,,,,,,
html-keyboard-response,289,543034,1573.7000000476837,"<div style=""font-size:48px;"">Press any key to begin list 3 of 16 </div>",74,,,,,,,,,,,,,,,
html-keyboard-response,290,545540,null,"<div style=""font-size:60px;"">+</div>",null,,,,,,,,,,,,,,,
html-keyboard-response,291,545752,null,"<div style=""font-size:42px;"">DAD</div><img id = ""stim"" ><div class = red_square id = bottomsquare></div>",null,encoding,word_square,,,0,bottomsquare,none,true,,,DAD,2,,,
html-keyboard-response,292,546059,null,"<div style=""font-size:42px;"">DAD</div>",null,,word,DAD,,,,,,,,,,,,
html-keyboard-response,293,547568,null,"",null,,word,DAD,,,,,,,,,,,,
html-keyboard-response,294,547783,null,"<div style=""font-size:42px;"">FLESH</div><img id = ""stim"" ><div class = green_square id = topsquare></div>",null,encoding,word_square,,,1,topsquare,32,true,,,FLESH,2,,,
html-keyboard-response,295,548086,261.90000009536743,"<div style=""font-size:42px;"">FLESH</div>",32,,word,FLESH,,,,,,,,,,,,
html-keyboard-response,296,549594,null,"",null,,word,FLESH,,,,,,,,,,,,
html-keyboard-response,297,549798,null,"<div style=""font-size:42px;"">LANDSCAPE</div><img id = ""stim"" ><div class = green_square id = bottomsquare></div>",null,encoding,word_square,,,1,bottomsquare,32,true,,,LANDSCAPE,2,,,
html-keyboard-response,298,550102,198.89999997615814,"<div style=""font-size:42px;"">LANDSCAPE</div>",32,,word,LANDSCAPE,,,,,,,,,,,,
html-keyboard-response,299,551614,null,"",null,,word,LANDSCAPE,,,,,,,,,,,,
html-keyboard-response,300,551838,null,"<div style=""font-size:42px;"">TOURIST</div><img id = ""stim"" ><div class = red_square id = topsquare></div>",null,encoding,word_square,,,0,topsquare,none,true,,,TOURIST,2,,,
html-keyboard-response,301,552142,null,"<div style=""font-size:42px;"">TOURIST</div>",null,,word,TOURIST,,,,,,,,,,,,
html-keyboard-response,302,553653,null,"",null,,word,TOURIST,,,,,,,,,,,,
html-keyboard-response,303,553860,null,"<div style=""font-size:42px;"">CHICKEN</div><img id = ""stim"" ><div class = green_square id = topsquare></div>",null,encoding,word_square,,,1,topsquare,32,true,,,CHICKEN,2,,,
html-keyboard-response,304,554167,226.5,"<div style=""font-size:42px;"">CHICKEN</div>",32,,word,CHICKEN,,,,,,,,,,,,
html-keyboard-response,305,555671,null,"",null,,word,CHICKEN,,,,,,,,,,,,
html-keyboard-response,306,555877,null,"<div style=""font-size:42px;"">COBWEB</div><img id = ""stim"" ><div class = red_square id = bottomsquare></div>",null,encoding,word_square,,,0,bottomsquare,none,true,,,COBWEB,2,,,
html-keyboard-response,307,556184,null,"<div style=""font-size:42px;"">COBWEB</div>",null,,word,COBWEB,,,,,,,,,,,,
html-keyboard-response,308,557703,null,"",null,,word,COBWEB,,,,,,,,,,,,
html-keyboard-response,309,557913,null,"<div style=""font-size:42px;"">KETCHUP</div><img id = ""stim"" ><div class = red_square id = topsquare></div>",null,encoding,word_square,,,0,topsquare,none,true,,,KETCHUP,2,,,
html-keyboard-response,310,558220,null,"<div style=""font-size:42px;"">KETCHUP</div>",null,,word,KETCHUP,,,,,,,,,,,,
html-keyboard-response,311,559728,null,"",null,,word,KETCHUP,,,,,,,,,,,,
html-keyboard-response,312,559936,null,"<div style=""font-size:42px;"">RELISH</div><img id = ""stim"" ><div class = green_square id = bottomsquare></div>",null,encoding,word_square,,,1,bottomsquare,32,true,,,RELISH,2,,,
html-keyboard-response,313,560242,107.20000004768372,"<div style=""font-size:42px;"">RELISH</div>",32,,word,RELISH,,,,,,,,,,,,
html-keyboard-response,314,561751,null,"",null,,word,RELISH,,,,,,,,,,,,
html-keyboard-response,315,561965,null,"<div style=""font-size:42px;"">CABBAGE</div><img id = ""stim"" ><div class = green_square id = topsquare></div>",null,encoding,word_square,,,1,topsquare,32,true,,,CABBAGE,2,,,
html-keyboard-response,316,562270,300.39999997615814,"<div style=""font-size:42px;"">CABBAGE</div>",32,,word,CABBAGE,,,,,,,,,,,,
html-keyboard-response,317,563781,null,"",null,,word,CABBAGE,,,,,,,,,,,,
html-keyboard-response,318,563988,null,"<div style=""font-size:42px;"">SCALLOP</div><img id = ""stim"" ><div class = red_square id = bottomsquare></div>",null,encoding,word_square,,,0,bottomsquare,none,true,,,SCALLOP,2,,,
html-keyboard-response,319,564299,null,"<div style=""font-size:42px;"">SCALLOP</div>",null,,word,SCALLOP,,,,,,,,,,,,
html-keyboard-response,320,565804,null,"",null,,word,SCALLOP,,,,,,,,,,,,
html-keyboard-response,321,566012,null,"<div style=""font-size:42px;"">SUITCASE</div><img id = ""stim"" ><div class = green_square id = bottomsquare></div>",null,encoding,word_square,,,1,bottomsquare,32,true,,,SUITCASE,2,,,
html-keyboard-response,322,566323,162.40000009536743,"<div style=""font-size:42px;"">SUITCASE</div>",32,,word,SUITCASE,,,,,,,,,,,,
html-keyboard-response,323,567830,null,"",null,,word,SUITCASE,,,,,,,,,,,,
html-keyboard-response,324,568038,null,"<div style=""font-size:42px;"">DASHBOARD</div><img id = ""stim"" ><div class = red_square id = topsquare></div>",null,encoding,word_square,,,0,topsquare,none,true,,,DASHBOARD,2,,,
html-keyboard-response,325,568347,null,"<div style=""font-size:42px;"">DASHBOARD</div>",null,,word,DASHBOARD,,,,,,,,,,,,
html-keyboard-response,326,569856,null,"",null,,word,DASHBOARD,,,,,,,,,,,,
html-keyboard-response,327,570059,null,"<div style=""font-size:42px;"">EYELASH</div><img id = ""stim"" ><div class = green_square id = topsquare></div>",null,encoding,word_square,,,1,topsquare,32,true,,,EYELASH,2,,,
html-keyboard-response,328,570370,155.89999997615814,"<div style=""font-size:42px;"">EYELASH</div>",32,,word,EYELASH,,,,,,,,,,,,
html-keyboard-response,329,571883,null,"",null,,word,EYELASH,,,,,,,,,,,,
html-keyboard-response,330,572094,null,"<div style=""font-size:42px;"">FRECKLE</div><img id = ""stim"" ><div class = green_square id = bottomsquare></div>",null,encoding,word_square,,,1,bottomsquare,32,true,,,FRECKLE,2,,,
html-keyboard-response,331,572397,157.89999997615814,"<div style=""font-size:42px;"">FRECKLE</div>",32,,word,FRECKLE,,,,,,,,,,,,
html-keyboard-response,332,573902,null,"",null,,word,FRECKLE,,,,,,,,,,,,
html-keyboard-response,333,574109,null,"<div style=""font-size:42px;"">INFANT</div><img id = ""stim"" ><div class = red_square id = bottomsquare></div>",null,encoding,word_square,,,0,bottomsquare,none,true,,,INFANT,2,,,
html-keyboard-response,334,574417,null,"<div style=""font-size:42px;"">INFANT</div>",null,,word,INFANT,,,,,,,,,,,,
html-keyboard-response,335,575921,null,"",null,,word,INFANT,,,,,,,,,,,,
html-keyboard-response,336,576137,null,"<div style=""font-size:42px;"">HAMPER</div><img id = ""stim"" ><div class = red_square id = topsquare></div>",null,encoding,word_square,,,0,topsquare,none,true,,,HAMPER,2,,,
html-keyboard-response,337,576442,null,"<div style=""font-size:42px;"">HAMPER</div>",null,,word,HAMPER,,,,,,,,,,,,
html-keyboard-response,338,577945,null,"",null,,word,HAMPER,,,,,,,,,,,,
call-function,339,577949,,"",,,,,,,,,,,,,,,,
html-keyboard-response,340,578057,null,"",null,,,,,,,,,,,,,,,
math-period,341,583399,9962.700000047684,"",,,,,,,,,,,0,,,,,
html-keyboard-response,342,583506,null,"",null,,,,,,,,,,,,,,,
math-period,343,586799,6092.199999928474,"",,,,,,,,,,,6,,,,,
html-keyboard-response,344,586909,null,"",null,,,,,,,,,,,,,,,
math-period,345,591630,8865.49999988079,"",,,,,,,,,,,6,,,,,
html-keyboard-response,346,591737,null,"",null,,,,,,,,,,,,,,,
math-period,347,594822,5702.399999976158,"",,,,,,,,,,,2,,,,,
html-keyboard-response,348,594926,null,"",null,,,,,,,,,,,,,,,
math-period,349,601950,null,"",,,,,,,,,,,,,,,,
html-keyboard-response,350,602965,null,"Recall Period!",null,,,,,,,,,,,,,,,
call-function,351,602967,,"",,,,,,,,,,,,,,,,
html-keyboard-response,352,603070,null,"",null,,,,,,,,,,,,,,,
recall-period,353,608522,34029.60000014305,"",,,,,,,,,,,hamper,,,,,
html-keyboard-response,354,608646,null,"",null,,,,,,,,,,,,,,,
recall-period,355,610413,8433.799999833107,"",,,,,,,,,,,beaver,,,,,
html-keyboard-response,356,610521,null,"",null,,,,,,,,,,,,,,,
recall-period,357,677976,null,"",,,,,,,,,,,,,,,,
html-keyboard-response,358,678484,null,"Time's Up!",null,,,,,,,,,,,,,,,
html-keyboard-response,359,681934,3444.7999999523163,"<p> Good job! You have responded correctly to 100% of the trials. </p>
                      <p>Be sure to only press the spacebar if you see a GREEN square, and please keep your accuracy above 80%.</p>
                      <p> Press any key to continue the experiment. </p>",72,,,,,,,,,,,,,,,
html-keyboard-response,360,684746,2808.2999999523163,"<div style=""font-size:48px;"">Press any key to begin list 4 of 16 </div>",72,,,,,,,,,,,,,,,
html-keyboard-response,361,687262,null,"<div style=""font-size:60px;"">+</div>",null,,,,,,,,,,,,,,,
html-keyboard-response,362,687470,null,"<div style=""font-size:42px;"">FLIPPER</div><img id = ""stim"" ><div class = red_square id = topsquare></div>",null,encoding,word_square,,,0,topsquare,none,true,,,FLIPPER,3,,,
html-keyboard-response,363,687778,null,"<div style=""font-size:42px;"">FLIPPER</div>",null,,word,FLIPPER,,,,,,,,,,,,
html-keyboard-response,364,689283,null,"",null,,word,FLIPPER,,,,,,,,,,,,
html-keyboard-response,365,689491,null,"<div style=""font-size:42px;"">YARD</div><img id = ""stim"" ><div class = red_square id = bottomsquare></div>",null,encoding,word_square,,,0,bottomsquare,none,true,,,YARD,3,,,
html-keyboard-response,366,689801,null,"<div style=""font-size:42px;"">YARD</div>",null,,word,YARD,,,,,,,,,,,,
html-keyboard-response,367,691305,null,"",null,,word,YARD,,,,,,,,,,,,
html-keyboard-response,368,691514,null,"<div style=""font-size:42px;"">CLAMP</div><img id = ""stim"" ><div class = green_square id = bottomsquare></div>",null,encoding,word_square,,,1,bottomsquare,32,true,,,CLAMP,3,,,
html-keyboard-response,369,691821,null,"<div style=""font-size:42px;"">CLAMP</div>",null,,word,CLAMP,,,,,,,,,,,,
html-keyboard-response,370,693332,71.39999997615814,"",32,,word,CLAMP,,,,,,,,,,,,
html-keyboard-response,371,693538,null,"<div style=""font-size:42px;"">PEPPER</div><img id = ""stim"" ><div class = green_square id = topsquare></div>",null,encoding,word_square,,,1,topsquare,32,true,,,PEPPER,3,,,
html-keyboard-response,372,693849,231.40000009536743,"<div style=""font-size:42px;"">PEPPER</div>",32,,word,PEPPER,,,,,,,,,,,,
html-keyboard-response,373,695356,null,"",null,,word,PEPPER,,,,,,,,,,,,
html-keyboard-response,374,695564,null,"<div style=""font-size:42px;"">PARCEL</div><img id = ""stim"" ><div class = red_square id = topsquare></div>",null,encoding,word_square,,,0,topsquare,none,true,,,PARCEL,3,,,
html-keyboard-response,375,695875,null,"<div style=""font-size:42px;"">PARCEL</div>",null,,word,PARCEL,,,,,,,,,,,,
html-keyboard-response,376,697382,null,"",null,,word,PARCEL,,,,,,,,,,,,
html-keyboard-response,377,697589,null,"<div style=""font-size:42px;"">CLIFF</div><img id = ""stim"" ><div class = green_square id = bottomsquare></div>",null,encoding,word_square,,,1,bottomsquare,32,true,,,CLIFF,3,,,
html-keyboard-response,378,697899,220.70000004768372,"<div style=""font-size:42px;"">CLIFF</div>",32,,word,CLIFF,,,,,,,,,,,,
html-keyboard-response,379,699410,null,"",null,,word,CLIFF,,,,,,,,,,,,
html-keyboard-response,380,699615,null,"<div style=""font-size:42px;"">SKUNK</div><img id = ""stim"" ><div class = red_square id = bottomsquare></div>",null,encoding,word_square,,,0,bottomsquare,none,true,,,SKUNK,3,,,
html-keyboard-response,381,699943,null,"<div style=""font-size:42px;"">SKUNK</div>",null,,word,SKUNK,,,,,,,,,,,,
html-keyboard-response,382,701454,null,"",null,,word,SKUNK,,,,,,,,,,,,
html-keyboard-response,383,701660,null,"<div style=""font-size:42px;"">POSSUM</div><img id = ""stim"" ><div class = green_square id = topsquare></div>",null,encoding,word_square,,,1,topsquare,32,true,,,POSSUM,3,,,
html-keyboard-response,384,701972,null,"<div style=""font-size:42px;"">POSSUM</div>",null,,word,POSSUM,,,,,,,,,,,,
html-keyboard-response,385,703480,161.29999995231628,"",32,,word,POSSUM,,,,,,,,,,,,
html-keyboard-response,386,703684,null,"<div style=""font-size:42px;"">SUGAR</div><img id = ""stim"" ><div class = green_square id = bottomsquare></div>",null,encoding,word_square,,,1,bottomsquare,32,true,,,SUGAR,3,,,
html-keyboard-response,387,704005,null,"<div style=""font-size:42px;"">SUGAR</div>",null,,word,SUGAR,,,,,,,,,,,,
html-keyboard-response,388,705516,11.199999928474426,"",32,,word,SUGAR,,,,,,,,,,,,
html-keyboard-response,389,705722,null,"<div style=""font-size:42px;"">SKATE</div><img id = ""stim"" ><div class = red_square id = topsquare></div>",null,encoding,word_square,,,0,topsquare,none,true,,,SKATE,3,,,
html-keyboard-response,390,706028,null,"<div style=""font-size:42px;"">SKATE</div>",null,,word,SKATE,,,,,,,,,,,,
html-keyboard-response,391,707535,null,"",null,,word,SKATE,,,,,,,,,,,,
html-keyboard-response,392,707758,null,"<div style=""font-size:42px;"">TRUCK</div><img id = ""stim"" ><div class = red_square id = bottomsquare></div>",null,encoding,word_square,,,0,bottomsquare,none,true,,,TRUCK,3,,,
html-keyboard-response,393,708066,null,"<div style=""font-size:42px;"">TRUCK</div>",null,,word,TRUCK,,,,,,,,,,,,
html-keyboard-response,394,709572,null,"",null,,word,TRUCK,,,,,,,,,,,,
html-keyboard-response,395,709785,null,"<div style=""font-size:42px;"">HOOD</div><img id = ""stim"" ><div class = green_square id = topsquare></div>",null,encoding,word_square,,,1,topsquare,32,true,,,HOOD,3,,,
html-keyboard-response,396,710096,254.5,"<div style=""font-size:42px;"">HOOD</div>",32,,word,HOOD,,,,,,,,,,,,
html-keyboard-response,397,711605,null,"",null,,word,HOOD,,,,,,,,,,,,
html-keyboard-response,398,711813,null,"<div style=""font-size:42px;"">EUROPE</div><img id = ""stim"" ><div class = red_square id = topsquare></div>",null,encoding,word_square,,,0,topsquare,none,true,,,EUROPE,3,,,
html-keyboard-response,399,712121,null,"<div style=""font-size:42px;"">EUROPE</div>",null,,word,EUROPE,,,,,,,,,,,,
html-keyboard-response,400,713630,null,"",null,,word,EUROPE,,,,,,,,,,,,
html-keyboard-response,401,713844,null,"<div style=""font-size:42px;"">ASIA</div><img id = ""stim"" ><div class = green_square id = bottomsquare></div>",null,encoding,word_square,,,1,bottomsquare,32,true,,,ASIA,3,,,
html-keyboard-response,402,714154,213.80000007152557,"<div style=""font-size:42px;"">ASIA</div>",32,,word,ASIA,,,,,,,,,,,,
html-keyboard-response,403,715660,null,"",null,,word,ASIA,,,,,,,,,,,,
html-keyboard-response,404,715865,null,"<div style=""font-size:42px;"">BEAST</div><img id = ""stim"" ><div class = green_square id = topsquare></div>",null,encoding,word_square,,,1,topsquare,32,true,,,BEAST,3,,,
html-keyboard-response,405,716169,256.1999999284744,"<div style=""font-size:42px;"">BEAST</div>",32,,word,BEAST,,,,,,,,,,,,
html-keyboard-response,406,717678,null,"",null,,word,BEAST,,,,,,,,,,,,
html-keyboard-response,407,717889,null,"<div style=""font-size:42px;"">SHARK</div><img id = ""stim"" ><div class = red_square id = bottomsquare></div>",null,encoding,word_square,,,0,bottomsquare,none,true,,,SHARK,3,,,
html-keyboard-response,408,718203,null,"<div style=""font-size:42px;"">SHARK</div>",null,,word,SHARK,,,,,,,,,,,,
html-keyboard-response,409,719712,null,"",null,,word,SHARK,,,,,,,,,,,,
call-function,410,719715,,"",,,,,,,,,,,,,,,,
html-keyboard-response,411,719822,null,"",null,,,,,,,,,,,,,,,
math-period,412,722144,3944.0000001192093,"",,,,,,,,,,,4,,,,,
html-keyboard-response,413,722258,null,"",null,,,,,,,,,,,,,,,
math-period,414,724012,3220.5,"",,,,,,,,,,,5,,,,,
html-keyboard-response,415,724119,null,"",null,,,,,,,,,,,,,,,
math-period,416,728829,9147.600000023842,"",,,,,,,,,,,1,,,,,
html-keyboard-response,417,728940,null,"",null,,,,,,,,,,,,,,,
math-period,418,730598,2971.7000000476837,"",,,,,,,,,,,2,,,,,
html-keyboard-response,419,730705,null,"",null,,,,,,,,,,,,,,,
math-period,420,732067,2505.7999999523163,"",,,,,,,,,,,3,,,,,
html-keyboard-response,421,732173,null,"",null,,,,,,,,,,,,,,,
math-period,422,733716,2859.9999998807907,"",,,,,,,,,,,6,,,,,
html-keyboard-response,423,733826,null,"",null,,,,,,,,,,,,,,,
math-period,424,735546,3206.100000023842,"",,,,,,,,,,,5,,,,,
html-keyboard-response,425,735655,null,"",null,,,,,,,,,,,,,,,
math-period,426,737681,3847.300000190735,"",,,,,,,,,,,4,,,,,
html-keyboard-response,427,737792,null,"",null,,,,,,,,,,,,,,,
math-period,428,739332,2875.6999999284744,"",,,,,,,,,,,5,,,,,
html-keyboard-response,429,739435,null,"",null,,,,,,,,,,,,,,,
math-period,430,740600,2140.899999976158,"",,,,,,,,,,,6,,,,,
html-keyboard-response,431,740705,null,"",null,,,,,,,,,,,,,,,
math-period,432,741943,2275.4000000953674,"",,,,,,,,,,,5,,,,,
html-keyboard-response,433,742052,null,"",null,,,,,,,,,,,,,,,
math-period,434,743722,1601.4000000953674,"",,,,,,,,,,,5,,,,,
html-keyboard-response,435,744729,null,"Recall Period!",null,,,,,,,,,,,,,,,
call-function,436,744731,,"",,,,,,,,,,,,,,,,
html-keyboard-response,437,744841,null,"",null,,,,,,,,,,,,,,,
recall-period,438,750147,44897.99999964237,"",,,,,,,,,,,flipper,,,,,
html-keyboard-response,439,750253,null,"",null,,,,,,,,,,,,,,,
recall-period,440,753738,17373.499999642372,"",,,,,,,,,,,clamp,,,,,
html-keyboard-response,441,753847,null,"",null,,,,,,,,,,,,,,,
recall-period,442,755857,6953.799999713898,"",,,,,,,,,,,yard,,,,,
html-keyboard-response,443,755968,null,"",null,,,,,,,,,,,,,,,
recall-period,444,758874,11618.699999928474,"",,,,,,,,,,,skunk,,,,,
html-keyboard-response,445,758980,null,"",null,,,,,,,,,,,,,,,
recall-period,446,761128,10136.800000309944,"",,,,,,,,,,,possum,,,,,
html-keyboard-response,447,761234,null,"",null,,,,,,,,,,,,,,,
recall-period,448,819752,null,"",,,,,,,,,,,,,,,,
html-keyboard-response,449,820257,null,"Time's Up!",null,,,,,,,,,,,,,,,
html-keyboard-response,450,825573,5311.599999904633,"<p> Good job! You have responded correctly to 100% of the trials. </p>
                      <p>Be sure to only press the spacebar if you see a GREEN square, and please keep your accuracy above 80%.</p>
                      <p> Press any key to continue the experiment. </p>",75,,,,,,,,,,,,,,,
html-keyboard-response,451,839571,13995.100000023842,"<div style=""font-size:48px;"">Press any key to begin list 5 of 16 </div>",71,,,,,,,,,,,,,,,
html-keyboard-response,452,842082,null,"<div style=""font-size:60px;"">+</div>",null,,,,,,,,,,,,,,,
html-keyboard-response,453,842288,null,"<div style=""font-size:42px;"">SOFTBALL</div><img id = ""stim"" ><div class = green_square id = topsquare></div>",null,encoding,word_square,,,1,topsquare,32,true,,,SOFTBALL,4,,,
html-keyboard-response,454,842594,217.20000004768372,"<div style=""font-size:42px;"">SOFTBALL</div>",32,,word,SOFTBALL,,,,,,,,,,,,
html-keyboard-response,455,844102,null,"",null,,word,SOFTBALL,,,,,,,,,,,,
html-keyboard-response,456,844308,null,"<div style=""font-size:42px;"">HEADBAND</div><img id = ""stim"" ><div class = red_square id = bottomsquare></div>",null,encoding,word_square,,,0,bottomsquare,none,true,,,HEADBAND,4,,,
html-keyboard-response,457,844619,null,"<div style=""font-size:42px;"">HEADBAND</div>",null,,word,HEADBAND,,,,,,,,,,,,
html-keyboard-response,458,846137,null,"",null,,word,HEADBAND,,,,,,,,,,,,
html-keyboard-response,459,846346,null,"<div style=""font-size:42px;"">KIDNEY</div><img id = ""stim"" ><div class = red_square id = topsquare></div>",null,encoding,word_square,,,0,topsquare,none,true,,,KIDNEY,4,,,
html-keyboard-response,460,846657,null,"<div style=""font-size:42px;"">KIDNEY</div>",null,,word,KIDNEY,,,,,,,,,,,,
html-keyboard-response,461,848171,null,"",null,,word,KIDNEY,,,,,,,,,,,,
html-keyboard-response,462,848379,null,"<div style=""font-size:42px;"">DUNGEON</div><img id = ""stim"" ><div class = green_square id = bottomsquare></div>",null,encoding,word_square,,,1,bottomsquare,32,true,,,DUNGEON,4,,,
html-keyboard-response,463,848695,175.79999995231628,"<div style=""font-size:42px;"">DUNGEON</div>",32,,word,DUNGEON,,,,,,,,,,,,
html-keyboard-response,464,850207,null,"",null,,word,DUNGEON,,,,,,,,,,,,
html-keyboard-response,465,850413,null,"<div style=""font-size:42px;"">SERPENT</div><img id = ""stim"" ><div class = green_square id = topsquare></div>",null,encoding,word_square,,,1,topsquare,32,true,,,SERPENT,4,,,
html-keyboard-response,466,850721,184.89999997615814,"<div style=""font-size:42px;"">SERPENT</div>",32,,word,SERPENT,,,,,,,,,,,,
html-keyboard-response,467,852229,null,"",null,,word,SERPENT,,,,,,,,,,,,
html-keyboard-response,468,852435,null,"<div style=""font-size:42px;"">SUNSET</div><img id = ""stim"" ><div class = green_square id = bottomsquare></div>",null,encoding,word_square,,,1,bottomsquare,32,true,,,SUNSET,4,,,
html-keyboard-response,469,852742,263.10000002384186,"<div style=""font-size:42px;"">SUNSET</div>",32,,word,SUNSET,,,,,,,,,,,,
html-keyboard-response,470,854282,null,"",null,,word,SUNSET,,,,,,,,,,,,
html-keyboard-response,471,854490,null,"<div style=""font-size:42px;"">BEAKER</div><img id = ""stim"" ><div class = green_square id = topsquare></div>",null,encoding,word_square,,,1,topsquare,32,true,,,BEAKER,4,,,
html-keyboard-response,472,854794,164.09999990463257,"<div style=""font-size:42px;"">BEAKER</div>",32,,word,BEAKER,,,,,,,,,,,,
html-keyboard-response,473,856319,null,"",null,,word,BEAKER,,,,,,,,,,,,
html-keyboard-response,474,856546,null,"<div style=""font-size:42px;"">LAMP</div><img id = ""stim"" ><div class = red_square id = bottomsquare></div>",null,encoding,word_square,,,0,bottomsquare,none,true,,,LAMP,4,,,
html-keyboard-response,475,856852,null,"<div style=""font-size:42px;"">LAMP</div>",null,,word,LAMP,,,,,,,,,,,,
html-keyboard-response,476,858366,null,"",null,,word,LAMP,,,,,,,,,,,,
html-keyboard-response,477,858578,null,"<div style=""font-size:42px;"">WIDOW</div><img id = ""stim"" ><div class = green_square id = bottomsquare></div>",null,encoding,word_square,,,1,bottomsquare,32,true,,,WIDOW,4,,,
html-keyboard-response,478,858886,192.60000002384186,"<div style=""font-size:42px;"">WIDOW</div>",32,,word,WIDOW,,,,,,,,,,,,
html-keyboard-response,479,860399,null,"",null,,word,WIDOW,,,,,,,,,,,,
html-keyboard-response,480,860607,null,"<div style=""font-size:42px;"">PEOPLE</div><img id = ""stim"" ><div class = red_square id = topsquare></div>",null,encoding,word_square,,,0,topsquare,none,true,,,PEOPLE,4,,,
html-keyboard-response,481,860914,null,"<div style=""font-size:42px;"">PEOPLE</div>",null,,word,PEOPLE,,,,,,,,,,,,
html-keyboard-response,482,862421,null,"",null,,word,PEOPLE,,,,,,,,,,,,
html-keyboard-response,483,862631,null,"<div style=""font-size:42px;"">CRICKET</div><img id = ""stim"" ><div class = red_square id = bottomsquare></div>",null,encoding,word_square,,,0,bottomsquare,none,true,,,CRICKET,4,,,
html-keyboard-response,484,862940,null,"<div style=""font-size:42px;"">CRICKET</div>",null,,word,CRICKET,,,,,,,,,,,,
html-keyboard-response,485,864451,null,"",null,,word,CRICKET,,,,,,,,,,,,
html-keyboard-response,486,864663,null,"<div style=""font-size:42px;"">BANDIT</div><img id = ""stim"" ><div class = green_square id = topsquare></div>",null,encoding,word_square,,,1,topsquare,32,true,,,BANDIT,4,,,
html-keyboard-response,487,864972,218.90000009536743,"<div style=""font-size:42px;"">BANDIT</div>",32,,word,BANDIT,,,,,,,,,,,,
html-keyboard-response,488,866479,null,"",null,,word,BANDIT,,,,,,,,,,,,
html-keyboard-response,489,866687,null,"<div style=""font-size:42px;"">SPHINX</div><img id = ""stim"" ><div class = red_square id = topsquare></div>",null,encoding,word_square,,,0,topsquare,none,true,,,SPHINX,4,,,
html-keyboard-response,490,866999,null,"<div style=""font-size:42px;"">SPHINX</div>",null,,word,SPHINX,,,,,,,,,,,,
html-keyboard-response,491,868507,null,"",null,,word,SPHINX,,,,,,,,,,,,
html-keyboard-response,492,868711,null,"<div style=""font-size:42px;"">PANTHER</div><img id = ""stim"" ><div class = green_square id = bottomsquare></div>",null,encoding,word_square,,,1,bottomsquare,32,true,,,PANTHER,4,,,
html-keyboard-response,493,869026,139.5,"<div style=""font-size:42px;"">PANTHER</div>",32,,word,PANTHER,,,,,,,,,,,,
html-keyboard-response,494,870535,null,"",null,,word,PANTHER,,,,,,,,,,,,
html-keyboard-response,495,870743,null,"<div style=""font-size:42px;"">BATHTUB</div><img id = ""stim"" ><div class = red_square id = bottomsquare></div>",null,encoding,word_square,,,0,bottomsquare,none,true,,,BATHTUB,4,,,
html-keyboard-response,496,871051,null,"<div style=""font-size:42px;"">BATHTUB</div>",null,,word,BATHTUB,,,,,,,,,,,,
html-keyboard-response,497,872574,null,"",null,,word,BATHTUB,,,,,,,,,,,,
html-keyboard-response,498,872780,null,"<div style=""font-size:42px;"">CANAL</div><img id = ""stim"" ><div class = red_square id = topsquare></div>",null,encoding,word_square,,,0,topsquare,none,true,,,CANAL,4,,,
html-keyboard-response,499,873089,null,"<div style=""font-size:42px;"">CANAL</div>",null,,word,CANAL,,,,,,,,,,,,
html-keyboard-response,500,874598,null,"",null,,word,CANAL,,,,,,,,,,,,
call-function,501,874601,,"",,,,,,,,,,,,,,,,
html-keyboard-response,502,874709,null,"",null,,,,,,,,,,,,,,,
math-period,503,877711,5098.399999976158,"",,,,,,,,,,,3,,,,,
html-keyboard-response,504,877817,null,"",null,,,,,,,,,,,,,,,
math-period,505,879249,2550.5999999046326,"",,,,,,,,,,,3,,,,,
html-keyboard-response,506,879362,null,"",null,,,,,,,,,,,,,,,
math-period,507,880982,2907.399999976158,"",,,,,,,,,,,2,,,,,
html-keyboard-response,508,881091,null,"",null,,,,,,,,,,,,,,,
math-period,509,882431,2406.9000000953674,"",,,,,,,,,,,3,,,,,
html-keyboard-response,510,882538,null,"",null,,,,,,,,,,,,,,,
math-period,511,884174,2995,"",,,,,,,,,,,4,,,,,
html-keyboard-response,512,884281,null,"",null,,,,,,,,,,,,,,,
math-period,513,886366,3883.600000023842,"",,,,,,,,,,,2,,,,,
html-keyboard-response,514,886470,null,"",null,,,,,,,,,,,,,,,
math-period,515,888374,3531.5999999046326,"",,,,,,,,,,,2,,,,,
html-keyboard-response,516,888479,null,"",null,,,,,,,,,,,,,,,
math-period,517,892871,8017.199999928474,"",,,,,,,,,,,1,,,,,
html-keyboard-response,518,892984,null,"",null,,,,,,,,,,,,,,,
math-period,519,895699,8624.700000166893,"",,,,,,,,,,,6,,,,,
html-keyboard-response,520,895803,null,"",null,,,,,,,,,,,,,,,
math-period,521,897673,3518.7000000476837,"",,,,,,,,,,,1,,,,,
html-keyboard-response,522,897781,null,"",null,,,,,,,,,,,,,,,
math-period,523,898616,null,"",,,,,,,,,,,,,,,,
html-keyboard-response,524,899622,null,"Recall Period!",null,,,,,,,,,,,,,,,
call-function,525,899625,,"",,,,,,,,,,,,,,,,
html-keyboard-response,526,899734,null,"",null,,,,,,,,,,,,,,,
recall-period,527,904747,35390.800000071526,"",,,,,,,,,,,serpent,,,,,
html-keyboard-response,528,904854,null,"",null,,,,,,,,,,,,,,,
recall-period,529,906587,8617.900000095367,"",,,,,,,,,,,dungeon,,,,,
html-keyboard-response,530,906695,null,"",null,,,,,,,,,,,,,,,
recall-period,531,908007,4807,"",,,,,,,,,,,sunset,,,,,
html-keyboard-response,532,908115,null,"",null,,,,,,,,,,,,,,,
recall-period,533,974630,null,"",,,,,,,,,,,,,,,,
html-keyboard-response,534,975139,null,"Time's Up!",null,,,,,,,,,,,,,,,
html-keyboard-response,535,986118,10975.200000047684,"<p> Good job! You have responded correctly to 100% of the trials. </p>
                      <p>Be sure to only press the spacebar if you see a GREEN square, and please keep your accuracy above 80%.</p>
                      <p> Press any key to continue the experiment. </p>",71,,,,,,,,,,,,,,,
html-keyboard-response,536,988161,2039.3999999761581,"<div style=""font-size:48px;"">Press any key to begin list 6 of 16 </div>",71,,,,,,,,,,,,,,,
html-keyboard-response,537,990671,null,"<div style=""font-size:60px;"">+</div>",null,,,,,,,,,,,,,,,
html-keyboard-response,538,990877,null,"<div style=""font-size:42px;"">GREASE</div><img id = ""stim"" ><div class = red_square id = topsquare></div>",null,encoding,word_square,,,0,topsquare,none,true,,,GREASE,5,,,
html-keyboard-response,539,991195,null,"<div style=""font-size:42px;"">GREASE</div>",null,,word,GREASE,,,,,,,,,,,,
html-keyboard-response,540,992708,null,"",null,,word,GREASE,,,,,,,,,,,,
html-keyboard-response,541,992916,null,"<div style=""font-size:42px;"">VALVE</div><img id = ""stim"" ><div class = red_square id = bottomsquare></div>",null,encoding,word_square,,,0,bottomsquare,none,true,,,VALVE,5,,,
html-keyboard-response,542,993226,null,"<div style=""font-size:42px;"">VALVE</div>",null,,word,VALVE,,,,,,,,,,,,
html-keyboard-response,543,994738,null,"",null,,word,VALVE,,,,,,,,,,,,
html-keyboard-response,544,994949,null,"<div style=""font-size:42px;"">SCOTCH</div><img id = ""stim"" ><div class = green_square id = bottomsquare></div>",null,encoding,word_square,,,1,bottomsquare,32,true,,,SCOTCH,5,,,
html-keyboard-response,545,995259,null,"<div style=""font-size:42px;"">SCOTCH</div>",null,,word,SCOTCH,,,,,,,,,,,,
html-keyboard-response,546,996769,77.89999997615814,"",32,,word,SCOTCH,,,,,,,,,,,,
html-keyboard-response,547,996974,null,"<div style=""font-size:42px;"">MONARCH</div><img id = ""stim"" ><div class = red_square id = topsquare></div>",null,encoding,word_square,,,0,topsquare,none,true,,,MONARCH,5,,,
html-keyboard-response,548,997283,null,"<div style=""font-size:42px;"">MONARCH</div>",null,,word,MONARCH,,,,,,,,,,,,
html-keyboard-response,549,998793,null,"",null,,word,MONARCH,,,,,,,,,,,,
html-keyboard-response,550,999000,null,"<div style=""font-size:42px;"">SCAPEGOAT</div><img id = ""stim"" ><div class = green_square id = topsquare></div>",null,encoding,word_square,,,1,topsquare,32,true,,,SCAPEGOAT,5,,,
html-keyboard-response,551,999314,230.10000002384186,"<div style=""font-size:42px;"">SCAPEGOAT</div>",32,,word,SCAPEGOAT,,,,,,,,,,,,
html-keyboard-response,552,1000822,null,"",null,,word,SCAPEGOAT,,,,,,,,,,,,
html-keyboard-response,553,1001031,null,"<div style=""font-size:42px;"">VIKING</div><img id = ""stim"" ><div class = red_square id = bottomsquare></div>",null,encoding,word_square,,,0,bottomsquare,none,true,,,VIKING,5,,,
html-keyboard-response,554,1001343,null,"<div style=""font-size:42px;"">VIKING</div>",null,,word,VIKING,,,,,,,,,,,,
html-keyboard-response,555,1002852,null,"",null,,word,VIKING,,,,,,,,,,,,
html-keyboard-response,556,1003062,null,"<div style=""font-size:42px;"">DRINK</div><img id = ""stim"" ><div class = red_square id = topsquare></div>",null,encoding,word_square,,,0,topsquare,none,true,,,DRINK,5,,,
html-keyboard-response,557,1003367,null,"<div style=""font-size:42px;"">DRINK</div>",null,,word,DRINK,,,,,,,,,,,,
html-keyboard-response,558,1004876,null,"",null,,word,DRINK,,,,,,,,,,,,
html-keyboard-response,559,1005137,null,"<div style=""font-size:42px;"">PEACH</div><img id = ""stim"" ><div class = green_square id = bottomsquare></div>",null,encoding,word_square,,,1,bottomsquare,32,true,,,PEACH,5,,,
html-keyboard-response,560,1005443,236.70000004768372,"<div style=""font-size:42px;"">PEACH</div>",32,,word,PEACH,,,,,,,,,,,,
html-keyboard-response,561,1006949,null,"",null,,word,PEACH,,,,,,,,,,,,
html-keyboard-response,562,1007157,null,"<div style=""font-size:42px;"">NAPKIN</div><img id = ""stim"" ><div class = red_square id = bottomsquare></div>",null,encoding,word_square,,,0,bottomsquare,none,true,,,NAPKIN,5,,,
html-keyboard-response,563,1007461,null,"<div style=""font-size:42px;"">NAPKIN</div>",null,,word,NAPKIN,,,,,,,,,,,,
html-keyboard-response,564,1008969,null,"",null,,word,NAPKIN,,,,,,,,,,,,
html-keyboard-response,565,1009178,null,"<div style=""font-size:42px;"">AUTHOR</div><img id = ""stim"" ><div class = green_square id = topsquare></div>",null,encoding,word_square,,,1,topsquare,32,true,,,AUTHOR,5,,,
html-keyboard-response,566,1009489,238.89999997615814,"<div style=""font-size:42px;"">AUTHOR</div>",32,,word,AUTHOR,,,,,,,,,,,,
html-keyboard-response,567,1011000,null,"",null,,word,AUTHOR,,,,,,,,,,,,
html-keyboard-response,568,1011206,null,"<div style=""font-size:42px;"">NOVEL</div><img id = ""stim"" ><div class = green_square id = bottomsquare></div>",null,encoding,word_square,,,1,bottomsquare,32,true,,,NOVEL,5,,,
html-keyboard-response,569,1011515,224.79999995231628,"<div style=""font-size:42px;"">NOVEL</div>",32,,word,NOVEL,,,,,,,,,,,,
html-keyboard-response,570,1013024,null,"",null,,word,NOVEL,,,,,,,,,,,,
html-keyboard-response,571,1013233,null,"<div style=""font-size:42px;"">HOUSE</div><img id = ""stim"" ><div class = green_square id = topsquare></div>",null,encoding,word_square,,,1,topsquare,32,true,,,HOUSE,5,,,
html-keyboard-response,572,1013541,null,"<div style=""font-size:42px;"">HOUSE</div>",null,,word,HOUSE,,,,,,,,,,,,
html-keyboard-response,573,1015054,152,"",32,,word,HOUSE,,,,,,,,,,,,
html-keyboard-response,574,1015258,null,"<div style=""font-size:42px;"">RECORD</div><img id = ""stim"" ><div class = green_square id = bottomsquare></div>",null,encoding,word_square,,,1,bottomsquare,32,true,,,RECORD,5,,,
html-keyboard-response,575,1015564,217,"<div style=""font-size:42px;"">RECORD</div>",32,,word,RECORD,,,,,,,,,,,,
html-keyboard-response,576,1017073,null,"",null,,word,RECORD,,,,,,,,,,,,
html-keyboard-response,577,1017285,null,"<div style=""font-size:42px;"">BUG</div><img id = ""stim"" ><div class = red_square id = topsquare></div>",null,encoding,word_square,,,0,topsquare,none,true,,,BUG,5,,,
html-keyboard-response,578,1017590,null,"<div style=""font-size:42px;"">BUG</div>",null,,word,BUG,,,,,,,,,,,,
html-keyboard-response,579,1019099,null,"",null,,word,BUG,,,,,,,,,,,,
html-keyboard-response,580,1019306,null,"<div style=""font-size:42px;"">WASP</div><img id = ""stim"" ><div class = red_square id = bottomsquare></div>",null,encoding,word_square,,,0,bottomsquare,none,true,,,WASP,5,,,
html-keyboard-response,581,1019611,null,"<div style=""font-size:42px;"">WASP</div>",null,,word,WASP,,,,,,,,,,,,
html-keyboard-response,582,1021135,null,"",null,,word,WASP,,,,,,,,,,,,
html-keyboard-response,583,1021347,null,"<div style=""font-size:42px;"">LODGE</div><img id = ""stim"" ><div class = green_square id = topsquare></div>",null,encoding,word_square,,,1,topsquare,32,true,,,LODGE,5,,,
html-keyboard-response,584,1021662,230.69999992847443,"<div style=""font-size:42px;"">LODGE</div>",32,,word,LODGE,,,,,,,,,,,,
html-keyboard-response,585,1023168,null,"",null,,word,LODGE,,,,,,,,,,,,
call-function,586,1023171,,"",,,,,,,,,,,,,,,,
html-keyboard-response,587,1023284,null,"",null,,,,,,,,,,,,,,,
math-period,588,1027236,6201.299999952316,"",,,,,,,,,,,2,,,,,
html-keyboard-response,589,1027340,null,"",null,,,,,,,,,,,,,,,
math-period,590,1029247,3409.7999999523163,"",,,,,,,,,,,2,,,,,
html-keyboard-response,591,1029353,null,"",null,,,,,,,,,,,,,,,
math-period,592,1032352,5774.300000071526,"",,,,,,,,,,,4,,,,,
html-keyboard-response,593,1032460,null,"",null,,,,,,,,,,,,,,,
math-period,594,1035697,6242.000000119209,"",,,,,,,,,,,3,,,,,
html-keyboard-response,595,1035808,null,"",null,,,,,,,,,,,,,,,
math-period,596,1038489,5077.400000095367,"",,,,,,,,,,,2,,,,,
html-keyboard-response,597,1038594,null,"",null,,,,,,,,,,,,,,,
math-period,598,1040664,3868.100000023842,"",,,,,,,,,,,1,,,,,
html-keyboard-response,599,1040770,null,"",null,,,,,,,,,,,,,,,
math-period,600,1042974,4177.600000143051,"",,,,,,,,,,,4,,,,,
html-keyboard-response,601,1043110,null,"",null,,,,,,,,,,,,,,,
math-period,602,1045001,3449.2000000476837,"",,,,,,,,,,,2,,,,,
html-keyboard-response,603,1045106,null,"",null,,,,,,,,,,,,,,,
math-period,604,1046785,3064.7000000476837,"",,,,,,,,,,,6,,,,,
html-keyboard-response,605,1046900,null,"",null,,,,,,,,,,,,,,,
math-period,606,1047177,null,"",,,,,,,,,,,,,,,,
html-keyboard-response,607,1048182,null,"Recall Period!",null,,,,,,,,,,,,,,,
call-function,608,1048185,,"",,,,,,,,,,,,,,,,
html-keyboard-response,609,1048294,null,"",null,,,,,,,,,,,,,,,
recall-period,610,1052593,23005.299999833107,"",,,,,,,,,,,scotch,,,,,
html-keyboard-response,611,1052698,null,"",null,,,,,,,,,,,,,,,
recall-period,612,1054590,9212.700000286102,"",,,,,,,,,,,grease,,,,,
html-keyboard-response,613,1054703,null,"",null,,,,,,,,,,,,,,,
recall-period,614,1058714,20388.60000026226,"",,,,,,,,,,,valve,,,,,
html-keyboard-response,615,1058821,null,"",null,,,,,,,,,,,,,,,
recall-period,616,1123187,null,"",,,,,,,,,,,,,,,,
html-keyboard-response,617,1123697,null,"Time's Up!",null,,,,,,,,,,,,,,,
html-keyboard-response,618,1125735,2034.7999999523163,"<p> Good job! You have responded correctly to 100% of the trials. </p>
                      <p>Be sure to only press the spacebar if you see a GREEN square, and please keep your accuracy above 80%.</p>
                      <p> Press any key to continue the experiment. </p>",66,,,,,,,,,,,,,,,
html-keyboard-response,619,1127108,1370.1000000238419,"<div style=""font-size:48px;"">Press any key to begin list 7 of 16 </div>",75,,,,,,,,,,,,,,,
html-keyboard-response,620,1129621,null,"<div style=""font-size:60px;"">+</div>",null,,,,,,,,,,,,,,,
html-keyboard-response,621,1129850,null,"<div style=""font-size:42px;"">PENCIL</div><img id = ""stim"" ><div class = red_square id = bottomsquare></div>",null,encoding,word_square,,,0,bottomsquare,none,true,,,PENCIL,6,,,
html-keyboard-response,622,1130158,null,"<div style=""font-size:42px;"">PENCIL</div>",null,,word,PENCIL,,,,,,,,,,,,
html-keyboard-response,623,1131662,null,"",null,,word,PENCIL,,,,,,,,,,,,
html-keyboard-response,624,1131868,null,"<div style=""font-size:42px;"">TREAT</div><img id = ""stim"" ><div class = green_square id = topsquare></div>",null,encoding,word_square,,,1,topsquare,32,true,,,TREAT,6,,,
html-keyboard-response,625,1132178,null,"<div style=""font-size:42px;"">TREAT</div>",null,,word,TREAT,,,,,,,,,,,,
html-keyboard-response,626,1133686,88.60000002384186,"",32,,word,TREAT,,,,,,,,,,,,
html-keyboard-response,627,1133892,null,"<div style=""font-size:42px;"">FOX</div><img id = ""stim"" ><div class = green_square id = bottomsquare></div>",null,encoding,word_square,,,1,bottomsquare,32,true,,,FOX,6,,,
html-keyboard-response,628,1134217,234.70000004768372,"<div style=""font-size:42px;"">FOX</div>",32,,word,FOX,,,,,,,,,,,,
html-keyboard-response,629,1135722,null,"",null,,word,FOX,,,,,,,,,,,,
html-keyboard-response,630,1135929,null,"<div style=""font-size:42px;"">BRANDY</div><img id = ""stim"" ><div class = red_square id = topsquare></div>",null,encoding,word_square,,,0,topsquare,none,true,,,BRANDY,6,,,
html-keyboard-response,631,1136233,null,"<div style=""font-size:42px;"">BRANDY</div>",null,,word,BRANDY,,,,,,,,,,,,
html-keyboard-response,632,1137741,null,"",null,,word,BRANDY,,,,,,,,,,,,
html-keyboard-response,633,1137945,null,"<div style=""font-size:42px;"">BOARD</div><img id = ""stim"" ><div class = red_square id = bottomsquare></div>",null,encoding,word_square,,,0,bottomsquare,none,true,,,BOARD,6,,,
html-keyboard-response,634,1138252,null,"<div style=""font-size:42px;"">BOARD</div>",null,,word,BOARD,,,,,,,,,,,,
html-keyboard-response,635,1139761,null,"",null,,word,BOARD,,,,,,,,,,,,
html-keyboard-response,636,1139970,null,"<div style=""font-size:42px;"">BUTLER</div><img id = ""stim"" ><div class = red_square id = topsquare></div>",null,encoding,word_square,,,0,topsquare,none,true,,,BUTLER,6,,,
html-keyboard-response,637,1140283,null,"<div style=""font-size:42px;"">BUTLER</div>",null,,word,BUTLER,,,,,,,,,,,,
html-keyboard-response,638,1141795,null,"",null,,word,BUTLER,,,,,,,,,,,,
html-keyboard-response,639,1142000,null,"<div style=""font-size:42px;"">MOP</div><img id = ""stim"" ><div class = red_square id = bottomsquare></div>",null,encoding,word_square,,,0,bottomsquare,none,true,,,MOP,6,,,
html-keyboard-response,640,1142304,null,"<div style=""font-size:42px;"">MOP</div>",null,,word,MOP,,,,,,,,,,,,
html-keyboard-response,641,1143831,null,"",null,,word,MOP,,,,,,,,,,,,
html-keyboard-response,642,1144052,null,"<div style=""font-size:42px;"">RUG</div><img id = ""stim"" ><div class = green_square id = topsquare></div>",null,encoding,word_square,,,1,topsquare,32,true,,,RUG,6,,,
html-keyboard-response,643,1144363,289.2000000476837,"<div style=""font-size:42px;"">RUG</div>",32,,word,RUG,,,,,,,,,,,,
html-keyboard-response,644,1145874,null,"",null,,word,RUG,,,,,,,,,,,,
html-keyboard-response,645,1146085,null,"<div style=""font-size:42px;"">LITTER</div><img id = ""stim"" ><div class = red_square id = topsquare></div>",null,encoding,word_square,,,0,topsquare,none,true,,,LITTER,6,,,
html-keyboard-response,646,1146389,null,"<div style=""font-size:42px;"">LITTER</div>",null,,word,LITTER,,,,,,,,,,,,
html-keyboard-response,647,1147893,null,"",null,,word,LITTER,,,,,,,,,,,,
html-keyboard-response,648,1148099,null,"<div style=""font-size:42px;"">WRENCH</div><img id = ""stim"" ><div class = green_square id = bottomsquare></div>",null,encoding,word_square,,,1,bottomsquare,32,true,,,WRENCH,6,,,
html-keyboard-response,649,1148405,301.40000009536743,"<div style=""font-size:42px;"">WRENCH</div>",32,,word,WRENCH,,,,,,,,,,,,
html-keyboard-response,650,1149910,null,"",null,,word,WRENCH,,,,,,,,,,,,
html-keyboard-response,651,1150120,null,"<div style=""font-size:42px;"">COUNTRY</div><img id = ""stim"" ><div class = green_square id = topsquare></div>",null,encoding,word_square,,,1,topsquare,32,true,,,COUNTRY,6,,,
html-keyboard-response,652,1150431,null,"<div style=""font-size:42px;"">COUNTRY</div>",null,,word,COUNTRY,,,,,,,,,,,,
html-keyboard-response,653,1151939,71.79999995231628,"",32,,word,COUNTRY,,,,,,,,,,,,
html-keyboard-response,654,1152157,null,"<div style=""font-size:42px;"">JAPAN</div><img id = ""stim"" ><div class = red_square id = bottomsquare></div>",null,encoding,word_square,,,0,bottomsquare,none,true,,,JAPAN,6,,,
html-keyboard-response,655,1152461,null,"<div style=""font-size:42px;"">JAPAN</div>",null,,word,JAPAN,,,,,,,,,,,,
html-keyboard-response,656,1153974,null,"",null,,word,JAPAN,,,,,,,,,,,,
html-keyboard-response,657,1154187,null,"<div style=""font-size:42px;"">GAVEL</div><img id = ""stim"" ><div class = green_square id = bottomsquare></div>",null,encoding,word_square,,,1,bottomsquare,32,true,,,GAVEL,6,,,
html-keyboard-response,658,1154493,282.60000002384186,"<div style=""font-size:42px;"">GAVEL</div>",32,,word,GAVEL,,,,,,,,,,,,
html-keyboard-response,659,1156000,null,"",null,,word,GAVEL,,,,,,,,,,,,
html-keyboard-response,660,1156226,null,"<div style=""font-size:42px;"">CHAMPAGNE</div><img id = ""stim"" ><div class = red_square id = topsquare></div>",null,encoding,word_square,,,0,topsquare,none,true,,,CHAMPAGNE,6,,,
html-keyboard-response,661,1156533,null,"<div style=""font-size:42px;"">CHAMPAGNE</div>",null,,word,CHAMPAGNE,,,,,,,,,,,,
html-keyboard-response,662,1158042,null,"",null,,word,CHAMPAGNE,,,,,,,,,,,,
html-keyboard-response,663,1158254,null,"<div style=""font-size:42px;"">MILDEW</div><img id = ""stim"" ><div class = green_square id = topsquare></div>",null,encoding,word_square,,,1,topsquare,32,true,,,MILDEW,6,,,
html-keyboard-response,664,1158561,261.7000000476837,"<div style=""font-size:42px;"">MILDEW</div>",32,,word,MILDEW,,,,,,,,,,,,
html-keyboard-response,665,1160067,null,"",null,,word,MILDEW,,,,,,,,,,,,
html-keyboard-response,666,1160277,null,"<div style=""font-size:42px;"">VAGRANT</div><img id = ""stim"" ><div class = green_square id = bottomsquare></div>",null,encoding,word_square,,,1,bottomsquare,32,false,,,VAGRANT,6,,,
html-keyboard-response,667,1160584,null,"<div style=""font-size:42px;"">VAGRANT</div>",null,,word,VAGRANT,,,,,,,,,,,,
html-keyboard-response,668,1162116,null,"",null,,word,VAGRANT,,,,,,,,,,,,
call-function,669,1162121,,"",,,,,,,,,,,,,,,,
html-keyboard-response,670,1162230,null,"",null,,,,,,,,,,,,,,,
math-period,671,1165775,5655.699999928474,"",,,,,,,,,,,3,,,,,
html-keyboard-response,672,1165884,null,"",null,,,,,,,,,,,,,,,
math-period,673,1169697,6763.799999952316,"",,,,,,,,,,,5,,,,,
html-keyboard-response,674,1169803,null,"",null,,,,,,,,,,,,,,,
math-period,675,1171937,3958.100000143051,"",,,,,,,,,,,4,,,,,
html-keyboard-response,676,1172043,null,"",null,,,,,,,,,,,,,,,
math-period,677,1173445,2575.2999999523163,"",,,,,,,,,,,3,,,,,
html-keyboard-response,678,1173554,null,"",null,,,,,,,,,,,,,,,
math-period,679,1175215,3040,"",,,,,,,,,,,4,,,,,
html-keyboard-response,680,1175325,null,"",null,,,,,,,,,,,,,,,
math-period,681,1178264,5584.899999976158,"",,,,,,,,,,,4,,,,,
html-keyboard-response,682,1178369,null,"",null,,,,,,,,,,,,,,,
math-period,683,1182085,7244.899999976158,"",,,,,,,,,,,5,,,,,
html-keyboard-response,684,1182193,null,"",null,,,,,,,,,,,,,,,
math-period,685,1185468,6321.900000095367,"",,,,,,,,,,,0,,,,,
html-keyboard-response,686,1185578,null,"",null,,,,,,,,,,,,,,,
math-period,687,1186129,null,"",,,,,,,,,,,,,,,,
html-keyboard-response,688,1187135,null,"Recall Period!",null,,,,,,,,,,,,,,,
call-function,689,1187137,,"",,,,,,,,,,,,,,,,
html-keyboard-response,690,1187249,null,"",null,,,,,,,,,,,,,,,
recall-period,691,1197650,74298.59999978542,"",,,,,,,,,,,vagrant,,,,,
html-keyboard-response,692,1197755,null,"",null,,,,,,,,,,,,,,,
recall-period,693,1204549,51071.59999990463,"",,,,,,,,,,,wrench,,,,,
html-keyboard-response,694,1204654,null,"",null,,,,,,,,,,,,,,,
recall-period,695,1262143,null,"",,,,,,,,,,,,,,,,
html-keyboard-response,696,1262652,null,"Time's Up!",null,,,,,,,,,,,,,,,
html-keyboard-response,697,1266628,3972.8000000715256,"<p> Good job! You have responded correctly to 99% of the trials. </p>
                      <p>Be sure to only press the spacebar if you see a GREEN square, and please keep your accuracy above 80%.</p>
                      <p> Press any key to continue the experiment. </p>",72,,,,,,,,,,,,,,,
html-keyboard-response,698,1267877,1245,"<div style=""font-size:48px;"">Press any key to begin list 8 of 16 </div>",72,,,,,,,,,,,,,,,
html-keyboard-response,699,1270408,null,"<div style=""font-size:60px;"">+</div>",null,,,,,,,,,,,,,,,
html-keyboard-response,700,1270617,null,"<div style=""font-size:42px;"">VAMPIRE</div><img id = ""stim"" ><div class = green_square id = bottomsquare></div>",null,encoding,word_square,,,1,bottomsquare,32,false,,,VAMPIRE,7,,,
html-keyboard-response,701,1270921,null,"<div style=""font-size:42px;"">VAMPIRE</div>",null,,word,VAMPIRE,,,,,,,,,,,,
html-keyboard-response,702,1272429,null,"",null,,word,VAMPIRE,,,,,,,,,,,,
html-keyboard-response,703,1272636,null,"<div style=""font-size:42px;"">INSECT</div><img id = ""stim"" ><div class = green_square id = topsquare></div>",null,encoding,word_square,,,1,topsquare,32,true,,,INSECT,7,,,
html-keyboard-response,704,1272946,236.39999997615814,"<div style=""font-size:42px;"">INSECT</div>",32,,word,INSECT,,,,,,,,,,,,
html-keyboard-response,705,1274456,null,"",null,,word,INSECT,,,,,,,,,,,,
html-keyboard-response,706,1274662,null,"<div style=""font-size:42px;"">TWIG</div><img id = ""stim"" ><div class = red_square id = topsquare></div>",null,encoding,word_square,,,0,topsquare,none,true,,,TWIG,7,,,
html-keyboard-response,707,1274979,null,"<div style=""font-size:42px;"">TWIG</div>",null,,word,TWIG,,,,,,,,,,,,
html-keyboard-response,708,1276487,null,"",null,,word,TWIG,,,,,,,,,,,,
html-keyboard-response,709,1276692,null,"<div style=""font-size:42px;"">SHRUB</div><img id = ""stim"" ><div class = green_square id = bottomsquare></div>",null,encoding,word_square,,,1,bottomsquare,32,true,,,SHRUB,7,,,
html-keyboard-response,710,1277001,250.89999997615814,"<div style=""font-size:42px;"">SHRUB</div>",32,,word,SHRUB,,,,,,,,,,,,
html-keyboard-response,711,1278509,null,"",null,,word,SHRUB,,,,,,,,,,,,
html-keyboard-response,712,1278718,null,"<div style=""font-size:42px;"">DRILL</div><img id = ""stim"" ><div class = red_square id = bottomsquare></div>",null,encoding,word_square,,,0,bottomsquare,none,true,,,DRILL,7,,,
html-keyboard-response,713,1279022,null,"<div style=""font-size:42px;"">DRILL</div>",null,,word,DRILL,,,,,,,,,,,,
html-keyboard-response,714,1280531,null,"",null,,word,DRILL,,,,,,,,,,,,
html-keyboard-response,715,1280743,null,"<div style=""font-size:42px;"">DIVER</div><img id = ""stim"" ><div class = green_square id = topsquare></div>",null,encoding,word_square,,,1,topsquare,32,true,,,DIVER,7,,,
html-keyboard-response,716,1281054,null,"<div style=""font-size:42px;"">DIVER</div>",null,,word,DIVER,,,,,,,,,,,,
html-keyboard-response,717,1282566,84.60000002384186,"",32,,word,DIVER,,,,,,,,,,,,
html-keyboard-response,718,1282774,null,"<div style=""font-size:42px;"">BUBBLE</div><img id = ""stim"" ><div class = green_square id = bottomsquare></div>",null,encoding,word_square,,,1,bottomsquare,32,true,,,BUBBLE,7,,,
html-keyboard-response,719,1283082,null,"<div style=""font-size:42px;"">BUBBLE</div>",null,,word,BUBBLE,,,,,,,,,,,,
html-keyboard-response,720,1284597,0.8000000715255737,"",32,,word,BUBBLE,,,,,,,,,,,,
html-keyboard-response,721,1284805,null,"<div style=""font-size:42px;"">BREAST</div><img id = ""stim"" ><div class = red_square id = topsquare></div>",null,encoding,word_square,,,0,topsquare,none,true,,,BREAST,7,,,
html-keyboard-response,722,1285122,null,"<div style=""font-size:42px;"">BREAST</div>",null,,word,BREAST,,,,,,,,,,,,
html-keyboard-response,723,1286632,null,"",null,,word,BREAST,,,,,,,,,,,,
html-keyboard-response,724,1286844,null,"<div style=""font-size:42px;"">CREVICE</div><img id = ""stim"" ><div class = green_square id = topsquare></div>",null,encoding,word_square,,,1,topsquare,32,true,,,CREVICE,7,,,
html-keyboard-response,725,1287152,null,"<div style=""font-size:42px;"">CREVICE</div>",null,,word,CREVICE,,,,,,,,,,,,
html-keyboard-response,726,1288659,63.300000071525574,"",32,,word,CREVICE,,,,,,,,,,,,
html-keyboard-response,727,1288871,null,"<div style=""font-size:42px;"">DRUG</div><img id = ""stim"" ><div class = red_square id = bottomsquare></div>",null,encoding,word_square,,,0,bottomsquare,none,true,,,DRUG,7,,,
html-keyboard-response,728,1289178,null,"<div style=""font-size:42px;"">DRUG</div>",null,,word,DRUG,,,,,,,,,,,,
html-keyboard-response,729,1290686,null,"",null,,word,DRUG,,,,,,,,,,,,
html-keyboard-response,730,1290897,null,"<div style=""font-size:42px;"">FIGHTER</div><img id = ""stim"" ><div class = red_square id = topsquare></div>",null,encoding,word_square,,,0,topsquare,none,true,,,FIGHTER,7,,,
html-keyboard-response,731,1291202,null,"<div style=""font-size:42px;"">FIGHTER</div>",null,,word,FIGHTER,,,,,,,,,,,,
html-keyboard-response,732,1292711,null,"",null,,word,FIGHTER,,,,,,,,,,,,
html-keyboard-response,733,1292919,null,"<div style=""font-size:42px;"">GRILL</div><img id = ""stim"" ><div class = red_square id = bottomsquare></div>",null,encoding,word_square,,,0,bottomsquare,none,true,,,GRILL,7,,,
html-keyboard-response,734,1293226,null,"<div style=""font-size:42px;"">GRILL</div>",null,,word,GRILL,,,,,,,,,,,,
html-keyboard-response,735,1294734,null,"",null,,word,GRILL,,,,,,,,,,,,
html-keyboard-response,736,1294945,null,"<div style=""font-size:42px;"">SHAMPOO</div><img id = ""stim"" ><div class = red_square id = topsquare></div>",null,encoding,word_square,,,0,topsquare,none,true,,,SHAMPOO,7,,,
html-keyboard-response,737,1295255,null,"<div style=""font-size:42px;"">SHAMPOO</div>",null,,word,SHAMPOO,,,,,,,,,,,,
html-keyboard-response,738,1296763,null,"",null,,word,SHAMPOO,,,,,,,,,,,,
html-keyboard-response,739,1296973,null,"<div style=""font-size:42px;"">SKILLET</div><img id = ""stim"" ><div class = green_square id = bottomsquare></div>",null,encoding,word_square,,,1,bottomsquare,32,true,,,SKILLET,7,,,
html-keyboard-response,740,1297297,150.90000009536743,"<div style=""font-size:42px;"">SKILLET</div>",32,,word,SKILLET,,,,,,,,,,,,
html-keyboard-response,741,1298811,null,"",null,,word,SKILLET,,,,,,,,,,,,
html-keyboard-response,742,1299018,null,"<div style=""font-size:42px;"">PUPIL</div><img id = ""stim"" ><div class = green_square id = topsquare></div>",null,encoding,word_square,,,1,topsquare,32,true,,,PUPIL,7,,,
html-keyboard-response,743,1299322,null,"<div style=""font-size:42px;"">PUPIL</div>",null,,word,PUPIL,,,,,,,,,,,,
html-keyboard-response,744,1300833,58.200000047683716,"",32,,word,PUPIL,,,,,,,,,,,,
html-keyboard-response,745,1301039,null,"<div style=""font-size:42px;"">FLOWER</div><img id = ""stim"" ><div class = red_square id = bottomsquare></div>",null,encoding,word_square,,,0,bottomsquare,none,true,,,FLOWER,7,,,
html-keyboard-response,746,1301354,null,"<div style=""font-size:42px;"">FLOWER</div>",null,,word,FLOWER,,,,,,,,,,,,
html-keyboard-response,747,1302866,null,"",null,,word,FLOWER,,,,,,,,,,,,
call-function,748,1302872,,"",,,,,,,,,,,,,,,,
html-keyboard-response,749,1302978,null,"",null,,,,,,,,,,,,,,,
math-period,750,1305992,5530.399999976158,"",,,,,,,,,,,6,,,,,
html-keyboard-response,751,1306099,null,"",null,,,,,,,,,,,,,,,
math-period,752,1308961,5234.899999856949,"",,,,,,,,,,,2,,,,,
html-keyboard-response,753,1309070,null,"",null,,,,,,,,,,,,,,,
math-period,754,1311828,5106.100000023842,"",,,,,,,,,,,1,,,,,
html-keyboard-response,755,1311935,null,"",null,,,,,,,,,,,,,,,
math-period,756,1314399,4644.599999904633,"",,,,,,,,,,,2,,,,,
html-keyboard-response,757,1314508,null,"",null,,,,,,,,,,,,,,,
math-period,758,1316367,3463.1999999284744,"",,,,,,,,,,,2,,,,,
html-keyboard-response,759,1316476,null,"",null,,,,,,,,,,,,,,,
math-period,760,1319673,6020.499999880791,"",,,,,,,,,,,2,,,,,
html-keyboard-response,761,1319776,null,"",null,,,,,,,,,,,,,,,
math-period,762,1322204,4586.899999976158,"",,,,,,,,,,,5,,,,,
html-keyboard-response,763,1322314,null,"",null,,,,,,,,,,,,,,,
math-period,764,1324362,3825.5999999046326,"",,,,,,,,,,,0,,,,,
html-keyboard-response,765,1324475,null,"",null,,,,,,,,,,,,,,,
math-period,766,1326884,2267,"",,,,,,,,,,,4,,,,,
html-keyboard-response,767,1327891,null,"Recall Period!",null,,,,,,,,,,,,,,,
call-function,768,1327894,,"",,,,,,,,,,,,,,,,
html-keyboard-response,769,1328002,null,"",null,,,,,,,,,,,,,,,
recall-period,770,1348394,138297.49999964237,"",,,,,,,,,,,breast,,,,,
html-keyboard-response,771,1348502,null,"",null,,,,,,,,,,,,,,,
recall-period,772,1351572,15855.699999809265,"",,,,,,,,,,,crevice,,,,,
html-keyboard-response,773,1351678,null,"",null,,,,,,,,,,,,,,,
recall-period,774,1402903,null,"",,,,,,,,,,,,,,,,
html-keyboard-response,775,1403411,null,"Time's Up!",null,,,,,,,,,,,,,,,
html-keyboard-response,776,1414520,11104.5,"<p> Good job! You have responded correctly to 98% of the trials. </p>
                      <p>Be sure to only press the spacebar if you see a GREEN square, and please keep your accuracy above 80%.</p>
                      <p> Press any key to continue the experiment. </p>",71,,,,,,,,,,,,,,,
html-keyboard-response,777,1415588,1062.7000000476837,"<div style=""font-size:48px;"">Press any key to begin list 9 of 16 </div>",32,,,,,,,,,,,,,,,
html-keyboard-response,778,1418098,null,"<div style=""font-size:60px;"">+</div>",null,,,,,,,,,,,,,,,
html-keyboard-response,779,1418308,null,"<div style=""font-size:42px;"">WATER</div><img id = ""stim"" ><div class = green_square id = topsquare></div>",null,encoding,word_square,,,1,topsquare,32,true,,,WATER,8,,,
html-keyboard-response,780,1418616,287.7000000476837,"<div style=""font-size:42px;"">WATER</div>",32,,word,WATER,,,,,,,,,,,,
html-keyboard-response,781,1420124,null,"",null,,word,WATER,,,,,,,,,,,,
html-keyboard-response,782,1420346,null,"<div style=""font-size:42px;"">BRIDGE</div><img id = ""stim"" ><div class = red_square id = bottomsquare></div>",null,encoding,word_square,,,0,bottomsquare,none,true,,,BRIDGE,8,,,
html-keyboard-response,783,1420654,null,"<div style=""font-size:42px;"">BRIDGE</div>",null,,word,BRIDGE,,,,,,,,,,,,
html-keyboard-response,784,1422165,null,"",null,,word,BRIDGE,,,,,,,,,,,,
html-keyboard-response,785,1422373,null,"<div style=""font-size:42px;"">PAVEMENT</div><img id = ""stim"" ><div class = red_square id = topsquare></div>",null,encoding,word_square,,,0,topsquare,none,true,,,PAVEMENT,8,,,
html-keyboard-response,786,1422678,null,"<div style=""font-size:42px;"">PAVEMENT</div>",null,,word,PAVEMENT,,,,,,,,,,,,
html-keyboard-response,787,1424189,null,"",null,,word,PAVEMENT,,,,,,,,,,,,
html-keyboard-response,788,1424396,null,"<div style=""font-size:42px;"">GAZELLE</div><img id = ""stim"" ><div class = green_square id = bottomsquare></div>",null,encoding,word_square,,,1,bottomsquare,32,true,,,GAZELLE,8,,,
html-keyboard-response,789,1424701,null,"<div style=""font-size:42px;"">GAZELLE</div>",null,,word,GAZELLE,,,,,,,,,,,,
html-keyboard-response,790,1426213,32.200000047683716,"",32,,word,GAZELLE,,,,,,,,,,,,
html-keyboard-response,791,1426421,null,"<div style=""font-size:42px;"">BROOK</div><img id = ""stim"" ><div class = red_square id = bottomsquare></div>",null,encoding,word_square,,,0,bottomsquare,none,true,,,BROOK,8,,,
html-keyboard-response,792,1426730,null,"<div style=""font-size:42px;"">BROOK</div>",null,,word,BROOK,,,,,,,,,,,,
html-keyboard-response,793,1428236,null,"",null,,word,BROOK,,,,,,,,,,,,
html-keyboard-response,794,1428445,null,"<div style=""font-size:42px;"">LAKE</div><img id = ""stim"" ><div class = green_square id = topsquare></div>",null,encoding,word_square,,,1,topsquare,32,true,,,LAKE,8,,,
html-keyboard-response,795,1428750,248.70000004768372,"<div style=""font-size:42px;"">LAKE</div>",32,,word,LAKE,,,,,,,,,,,,
html-keyboard-response,796,1430263,null,"",null,,word,LAKE,,,,,,,,,,,,
html-keyboard-response,797,1430478,null,"<div style=""font-size:42px;"">LUNCH</div><img id = ""stim"" ><div class = red_square id = topsquare></div>",null,encoding,word_square,,,0,topsquare,none,true,,,LUNCH,8,,,
html-keyboard-response,798,1430786,null,"<div style=""font-size:42px;"">LUNCH</div>",null,,word,LUNCH,,,,,,,,,,,,
html-keyboard-response,799,1432299,null,"",null,,word,LUNCH,,,,,,,,,,,,
html-keyboard-response,800,1432510,null,"<div style=""font-size:42px;"">KITCHEN</div><img id = ""stim"" ><div class = red_square id = bottomsquare></div>",null,encoding,word_square,,,0,bottomsquare,none,true,,,KITCHEN,8,,,
html-keyboard-response,801,1432818,null,"<div style=""font-size:42px;"">KITCHEN</div>",null,,word,KITCHEN,,,,,,,,,,,,
html-keyboard-response,802,1434340,null,"",null,,word,KITCHEN,,,,,,,,,,,,
html-keyboard-response,803,1434545,null,"<div style=""font-size:42px;"">GANGSTER</div><img id = ""stim"" ><div class = green_square id = bottomsquare></div>",null,encoding,word_square,,,1,bottomsquare,32,true,,,GANGSTER,8,,,
html-keyboard-response,804,1434854,267.7000000476837,"<div style=""font-size:42px;"">GANGSTER</div>",32,,word,GANGSTER,,,,,,,,,,,,
html-keyboard-response,805,1436367,null,"",null,,word,GANGSTER,,,,,,,,,,,,
html-keyboard-response,806,1436583,null,"<div style=""font-size:42px;"">ELK</div><img id = ""stim"" ><div class = green_square id = topsquare></div>",null,encoding,word_square,,,1,topsquare,32,true,,,ELK,8,,,
html-keyboard-response,807,1436889,230.59999990463257,"<div style=""font-size:42px;"">ELK</div>",32,,word,ELK,,,,,,,,,,,,
html-keyboard-response,808,1438399,null,"",null,,word,ELK,,,,,,,,,,,,
html-keyboard-response,809,1438609,null,"<div style=""font-size:42px;"">BEEF</div><img id = ""stim"" ><div class = red_square id = topsquare></div>",null,encoding,word_square,,,0,topsquare,none,true,,,BEEF,8,,,
html-keyboard-response,810,1438916,null,"<div style=""font-size:42px;"">BEEF</div>",null,,word,BEEF,,,,,,,,,,,,
html-keyboard-response,811,1440424,null,"",null,,word,BEEF,,,,,,,,,,,,
html-keyboard-response,812,1440633,null,"<div style=""font-size:42px;"">RIFLE</div><img id = ""stim"" ><div class = green_square id = bottomsquare></div>",null,encoding,word_square,,,1,bottomsquare,32,true,,,RIFLE,8,,,
html-keyboard-response,813,1440942,231.19999992847443,"<div style=""font-size:42px;"">RIFLE</div>",32,,word,RIFLE,,,,,,,,,,,,
html-keyboard-response,814,1442450,null,"",null,,word,RIFLE,,,,,,,,,,,,
html-keyboard-response,815,1442659,null,"<div style=""font-size:42px;"">PALACE</div><img id = ""stim"" ><div class = green_square id = topsquare></div>",null,encoding,word_square,,,1,topsquare,32,true,,,PALACE,8,,,
html-keyboard-response,816,1442968,172.70000004768372,"<div style=""font-size:42px;"">PALACE</div>",32,,word,PALACE,,,,,,,,,,,,
html-keyboard-response,817,1444477,null,"",null,,word,PALACE,,,,,,,,,,,,
html-keyboard-response,818,1444685,null,"<div style=""font-size:42px;"">PUMPKIN</div><img id = ""stim"" ><div class = green_square id = bottomsquare></div>",null,encoding,word_square,,,1,bottomsquare,32,true,,,PUMPKIN,8,,,
html-keyboard-response,819,1444993,190.10000002384186,"<div style=""font-size:42px;"">PUMPKIN</div>",32,,word,PUMPKIN,,,,,,,,,,,,
html-keyboard-response,820,1446501,null,"",null,,word,PUMPKIN,,,,,,,,,,,,
html-keyboard-response,821,1446708,null,"<div style=""font-size:42px;"">MEAT</div><img id = ""stim"" ><div class = red_square id = bottomsquare></div>",null,encoding,word_square,,,0,bottomsquare,none,true,,,MEAT,8,,,
html-keyboard-response,822,1447018,null,"<div style=""font-size:42px;"">MEAT</div>",null,,word,MEAT,,,,,,,,,,,,
html-keyboard-response,823,1448522,null,"",null,,word,MEAT,,,,,,,,,,,,
html-keyboard-response,824,1448728,null,"<div style=""font-size:42px;"">DOCTOR</div><img id = ""stim"" ><div class = red_square id = topsquare></div>",null,encoding,word_square,,,0,topsquare,none,true,,,DOCTOR,8,,,
html-keyboard-response,825,1449032,null,"<div style=""font-size:42px;"">DOCTOR</div>",null,,word,DOCTOR,,,,,,,,,,,,
html-keyboard-response,826,1450541,null,"",null,,word,DOCTOR,,,,,,,,,,,,
call-function,827,1450545,,"",,,,,,,,,,,,,,,,
html-keyboard-response,828,1450652,null,"",null,,,,,,,,,,,,,,,
math-period,829,1454364,6082.5,"",,,,,,,,,,,4,,,,,
html-keyboard-response,830,1454471,null,"",null,,,,,,,,,,,,,,,
math-period,831,1465055,96581.20000040531,"",,,,,,,,,,,4,,,,,
html-keyboard-response,832,1465164,null,"",null,,,,,,,,,,,,,,,
math-period,833,1469064,7610.200000047684,"",,,,,,,,,,,2,,,,,
html-keyboard-response,834,1469169,null,"",null,,,,,,,,,,,,,,,
math-period,835,1471155,3665.0000001192093,"",,,,,,,,,,,5,,,,,
html-keyboard-response,836,1471271,null,"",null,,,,,,,,,,,,,,,
math-period,837,1473613,4363.100000023842,"",,,,,,,,,,,0,,,,,
html-keyboard-response,838,1473721,null,"",null,,,,,,,,,,,,,,,
math-period,839,1474550,null,"",,,,,,,,,,,,,,,,
html-keyboard-response,840,1475562,null,"Recall Period!",null,,,,,,,,,,,,,,,
call-function,841,1475564,,"",,,,,,,,,,,,,,,,
html-keyboard-response,842,1475674,null,"",null,,,,,,,,,,,,,,,
recall-period,843,1478958,18080.49999988079,"",,,,,,,,,,,gazelle,,,,,
html-keyboard-response,844,1479063,null,"",null,,,,,,,,,,,,,,,
recall-period,845,1550576,null,"",,,,,,,,,,,,,,,,
html-keyboard-response,846,1551091,null,"Time's Up!",null,,,,,,,,,,,,,,,
html-keyboard-response,847,1558880,7784.700000047684,"<p> Good job! You have responded correctly to 99% of the trials. </p>
                      <p>Be sure to only press the spacebar if you see a GREEN square, and please keep your accuracy above 80%.</p>
                      <p> Press any key to continue the experiment. </p>",71,,,,,,,,,,,,,,,
html-keyboard-response,848,1560478,1594.1000000238419,"<div style=""font-size:48px;"">Press any key to begin list 10 of 16 </div>",71,,,,,,,,,,,,,,,
html-keyboard-response,849,1562991,null,"<div style=""font-size:60px;"">+</div>",null,,,,,,,,,,,,,,,
html-keyboard-response,850,1563198,null,"<div style=""font-size:42px;"">NIGHTGOWN</div><img id = ""stim"" ><div class = red_square id = topsquare></div>",null,encoding,word_square,,,0,topsquare,none,true,,,NIGHTGOWN,9,,,
html-keyboard-response,851,1563507,null,"<div style=""font-size:42px;"">NIGHTGOWN</div>",null,,word,NIGHTGOWN,,,,,,,,,,,,
html-keyboard-response,852,1565018,null,"",null,,word,NIGHTGOWN,,,,,,,,,,,,
html-keyboard-response,853,1565230,null,"<div style=""font-size:42px;"">DUSTPAN</div><img id = ""stim"" ><div class = red_square id = bottomsquare></div>",null,encoding,word_square,,,0,bottomsquare,none,true,,,DUSTPAN,9,,,
html-keyboard-response,854,1565540,null,"<div style=""font-size:42px;"">DUSTPAN</div>",null,,word,DUSTPAN,,,,,,,,,,,,
html-keyboard-response,855,1567047,null,"",null,,word,DUSTPAN,,,,,,,,,,,,
html-keyboard-response,856,1567255,null,"<div style=""font-size:42px;"">ROACH</div><img id = ""stim"" ><div class = green_square id = bottomsquare></div>",null,encoding,word_square,,,1,bottomsquare,32,true,,,ROACH,9,,,
html-keyboard-response,857,1567562,null,"<div style=""font-size:42px;"">ROACH</div>",null,,word,ROACH,,,,,,,,,,,,
html-keyboard-response,858,1569071,235.19999992847443,"",32,,word,ROACH,,,,,,,,,,,,
html-keyboard-response,859,1569283,null,"<div style=""font-size:42px;"">CROOK</div><img id = ""stim"" ><div class = green_square id = topsquare></div>",null,encoding,word_square,,,1,topsquare,32,true,,,CROOK,9,,,
html-keyboard-response,860,1569593,183.59999990463257,"<div style=""font-size:42px;"">CROOK</div>",32,,word,CROOK,,,,,,,,,,,,
html-keyboard-response,861,1571104,null,"",null,,word,CROOK,,,,,,,,,,,,
