trial_type,trial_index,time_elapsed,rt,stimulus,key_press,exp_phase,test_part,word,task,targ_cond,sq_pos,correctKeyCode,correct,value,response,Word,List,RecResp,serial_pos,colorChosen
pavlovia,0,2384,,"",,,,,,,,,,,,,,,,
external-html,1,377680,375041,"",,,,,,,,,,,,,,,,
html-keyboard-response,2,380374,2692,"Welcome to the experiment. Press any key to begin.",32,,,,,,,,,,,,,,,
html-keyboard-response,3,388428,8053,"<p>You will see a list of words and colored squares in the following task.<p><p>Press the spacebar whenever you see a GREEN square.<p><p>Do not press a key if the square is RED.<p><p>Press the spacebar to continue.</p>",32,,,,,,,,,,,,,,,
html-keyboard-response,4,403571,14634,"<p>Please try to remember as many of the words as you can, and try to think about the meaning of each word as it appears.<p><p>After the detection and encoding task you will be asked to solve some math problems for 24 seconds.<p> Please solve as many problems as you can in the time given. <p><p><p>Press the spacebar to continue.</p>",32,,,,,,,,,,,,,,,
html-keyboard-response,5,410257,6170,"After solving the math problems, you will be asked to type in as many words <p>from the previous list as you can remember for 75 seconds.<p> If you finish recalling before the 75 seconds are up,<p> just sit tight and try to think of any more words you could have missed. <p><p><p>Press the spacebar to continue.</p>",32,,,,,,,,,,,,,,,
html-keyboard-response,6,415738,4966,"There will be 16 lists of words and recall, followed  by<p><p> a recognition phase. The experiment is expected to take up to 90 minutes.<p>We will begin with a brief practice session.<p>Press the spacebar to begin the practice.</p>",32,,,,,,,,,,,,,,,
html-keyboard-response,7,418256,null,"<div style=""font-size:60px;"">+</div>",null,,,,,,,,,,,,,,,
html-keyboard-response,8,418459,null,"<div style=""font-size:42px;"">HAPPY</div><img id = ""stim"" ><div class = red_square id = ""bottomsquare"" ></div>",null,practice,word_square,HAPPY,prac_response,0,Bottom,none,true,,,,,,,
html-keyboard-response,9,418776,null,"<div style=""font-size:42px;"">HAPPY</div>",null,,word,HAPPY,,,,,,,,,,,,
html-keyboard-response,10,420291,null,"",null,,word,HAPPY,,,,,,,,,,,,
html-keyboard-response,11,420497,null,"<div style=""font-size:42px;"">COLD</div><img id = ""stim"" ><div class = green_square id = ""bottomsquare"" ></div>",null,practice,word_square,COLD,prac_response,1,Bottom,32,true,,,,,,,
html-keyboard-response,12,420798,213,"<div style=""font-size:42px;"">COLD</div>",32,,word,COLD,,,,,,,,,,,,
html-keyboard-response,13,422314,null,"",null,,word,COLD,,,,,,,,,,,,
html-keyboard-response,14,422520,null,"<div style=""font-size:42px;"">HEAVY</div><img id = ""stim"" ><div class = green_square id = ""topsquare"" ></div>",null,practice,word_square,HEAVY,prac_response,1,Top,32,true,,,,,,,
html-keyboard-response,15,422821,270,"<div style=""font-size:42px;"">HEAVY</div>",32,,word,HEAVY,,,,,,,,,,,,
html-keyboard-response,16,424336,null,"",null,,word,HEAVY,,,,,,,,,,,,
html-keyboard-response,17,424541,null,"<div style=""font-size:42px;"">FUNNY</div><img id = ""stim"" ><div class = red_square id = ""topsquare"" ></div>",null,practice,word_square,FUNNY,prac_response,0,Top,none,true,,,,,,,
html-keyboard-response,18,424843,null,"<div style=""font-size:42px;"">FUNNY</div>",null,,word,FUNNY,,,,,,,,,,,,
html-keyboard-response,19,426346,null,"",null,,word,FUNNY,,,,,,,,,,,,
html-keyboard-response,20,426551,null,"<div style=""font-size:42px;"">SCARY</div><img id = ""stim"" ><div class = green_square id = ""bottomsquare"" ></div>",null,practice,word_square,SCARY,prac_response,1,Bottom,32,true,,,,,,,
html-keyboard-response,21,426853,152,"<div style=""font-size:42px;"">SCARY</div>",32,,word,SCARY,,,,,,,,,,,,
html-keyboard-response,22,428355,null,"",null,,word,SCARY,,,,,,,,,,,,
html-keyboard-response,23,428561,null,"<div style=""font-size:42px;"">PEACEFUL</div><img id = ""stim"" ><div class = green_square id = ""topsquare"" ></div>",null,practice,word_square,PEACEFUL,prac_response,1,Top,32,true,,,,,,,
html-keyboard-response,24,428862,237,"<div style=""font-size:42px;"">PEACEFUL</div>",32,,word,PEACEFUL,,,,,,,,,,,,
html-keyboard-response,25,430378,null,"",null,,word,PEACEFUL,,,,,,,,,,,,
html-keyboard-response,26,430584,null,"<div style=""font-size:42px;"">LITTLE</div><img id = ""stim"" ><div class = red_square id = ""bottomsquare"" ></div>",null,practice,word_square,LITTLE,prac_response,0,Bottom,none,true,,,,,,,
html-keyboard-response,27,430886,null,"<div style=""font-size:42px;"">LITTLE</div>",null,,word,LITTLE,,,,,,,,,,,,
html-keyboard-response,28,432399,null,"",null,,word,LITTLE,,,,,,,,,,,,
html-keyboard-response,29,432604,null,"<div style=""font-size:42px;"">TIRED</div><img id = ""stim"" ><div class = red_square id = ""topsquare"" ></div>",null,practice,word_square,TIRED,prac_response,0,Top,none,true,,,,,,,
html-keyboard-response,30,432919,null,"<div style=""font-size:42px;"">TIRED</div>",null,,word,TIRED,,,,,,,,,,,,
html-keyboard-response,31,434428,null,"",null,,word,TIRED,,,,,,,,,,,,
html-keyboard-response,32,434633,null,"<div style=""font-size:42px;"">ENTERTAINING</div><img id = ""stim"" ><div class = red_square id = ""bottomsquare"" ></div>",null,practice,word_square,ENTERTAINING,prac_response,0,Bottom,none,true,,,,,,,
html-keyboard-response,33,434946,null,"<div style=""font-size:42px;"">ENTERTAINING</div>",null,,word,ENTERTAINING,,,,,,,,,,,,
html-keyboard-response,34,436461,null,"",null,,word,ENTERTAINING,,,,,,,,,,,,
html-keyboard-response,35,436666,null,"<div style=""font-size:42px;"">GRATEFUL</div><img id = ""stim"" ><div class = green_square id = ""bottomsquare"" ></div>",null,practice,word_square,GRATEFUL,prac_response,1,Bottom,32,true,,,,,,,
html-keyboard-response,36,436967,236,"<div style=""font-size:42px;"">GRATEFUL</div>",32,,word,GRATEFUL,,,,,,,,,,,,
html-keyboard-response,37,438470,null,"",null,,word,GRATEFUL,,,,,,,,,,,,
html-keyboard-response,38,438677,null,"<div style=""font-size:42px;"">LOUD</div><img id = ""stim"" ><div class = red_square id = ""topsquare"" ></div>",null,practice,word_square,LOUD,prac_response,0,Top,none,true,,,,,,,
html-keyboard-response,39,438977,null,"<div style=""font-size:42px;"">LOUD</div>",null,,word,LOUD,,,,,,,,,,,,
html-keyboard-response,40,440482,null,"",null,,word,LOUD,,,,,,,,,,,,
html-keyboard-response,41,440687,null,"<div style=""font-size:42px;"">SMART</div><img id = ""stim"" ><div class = green_square id = ""topsquare"" ></div>",null,practice,word_square,SMART,prac_response,1,Top,32,true,,,,,,,
html-keyboard-response,42,441000,175,"<div style=""font-size:42px;"">SMART</div>",32,,word,SMART,,,,,,,,,,,,
html-keyboard-response,43,442512,null,"",null,,word,SMART,,,,,,,,,,,,
html-keyboard-response,44,442718,null,"<div style=""font-size:42px;"">SMOOTH</div><img id = ""stim"" ><div class = green_square id = ""bottomsquare"" ></div>",null,practice,word_square,SMOOTH,prac_response,1,Bottom,32,true,,,,,,,
html-keyboard-response,45,443020,231,"<div style=""font-size:42px;"">SMOOTH</div>",32,,word,SMOOTH,,,,,,,,,,,,
html-keyboard-response,46,444521,null,"",null,,word,SMOOTH,,,,,,,,,,,,
html-keyboard-response,47,444728,null,"<div style=""font-size:42px;"">DISHONEST</div><img id = ""stim"" ><div class = red_square id = ""bottomsquare"" ></div>",null,practice,word_square,DISHONEST,prac_response,0,Bottom,none,true,,,,,,,
html-keyboard-response,48,445044,null,"<div style=""font-size:42px;"">DISHONEST</div>",null,,word,DISHONEST,,,,,,,,,,,,
html-keyboard-response,49,446551,null,"",null,,word,DISHONEST,,,,,,,,,,,,
html-keyboard-response,50,446754,null,"<div style=""font-size:42px;"">WEALTHY</div><img id = ""stim"" ><div class = green_square id = ""topsquare"" ></div>",null,practice,word_square,WEALTHY,prac_response,1,Top,32,true,,,,,,,
html-keyboard-response,51,447055,145,"<div style=""font-size:42px;"">WEALTHY</div>",32,,word,WEALTHY,,,,,,,,,,,,
html-keyboard-response,52,448571,null,"",null,,word,WEALTHY,,,,,,,,,,,,
html-keyboard-response,53,448778,null,"<div style=""font-size:42px;"">BEAUTIFUL</div><img id = ""stim"" ><div class = red_square id = ""topsquare"" ></div>",null,practice,word_square,BEAUTIFUL,prac_response,0,Top,none,true,,,,,,,
html-keyboard-response,54,449094,null,"<div style=""font-size:42px;"">BEAUTIFUL</div>",null,,word,BEAUTIFUL,,,,,,,,,,,,
html-keyboard-response,55,450597,null,"",null,,word,BEAUTIFUL,,,,,,,,,,,,
html-keyboard-response,56,456245,5646,"<p> Good job! You responded correctly to 100% of the trials. </p>
                  <p>Be sure to only press the spacebar if you see a GREEN square, and please keep your accuracy above 80%.</p>
                  <p>We're going to try once more to make sure you understand the task. press any key to continue. </p>",32,,,,,,,,,,,,,,,
html-keyboard-response,57,457701,1455,"<p>You will see a list of words and colored squares in the following task.<p><p>Press the spacebar whenever you see a GREEN square.<p><p>Do not press a key if the square is RED<p><p>Press the spacebar to continue.</p>",32,,,,,,,,,,,,,,,
html-keyboard-response,58,460216,null,"<div style=""font-size:60px;"">+</div>",null,,,,,,,,,,,,,,,
html-keyboard-response,59,460421,null,"<div style=""font-size:42px;"">HAPPY</div><img id = ""stim"" ><div class = red_square id = ""bottomsquare"" ></div>",null,practice2,word_square,HAPPY,prac_response,0,Bottom,none,true,,,,,,,
html-keyboard-response,60,460723,null,"<div style=""font-size:42px;"">HAPPY</div>",null,,word,HAPPY,,,,,,,,,,,,
html-keyboard-response,61,462227,null,"",null,,word,HAPPY,,,,,,,,,,,,
html-keyboard-response,62,462431,null,"<div style=""font-size:42px;"">COLD</div><img id = ""stim"" ><div class = green_square id = ""bottomsquare"" ></div>",null,practice2,word_square,,prac_response,1,Bottom,32,true,,,,,,,
html-keyboard-response,63,462733,204,"<div style=""font-size:42px;"">COLD</div>",32,,word,COLD,,,,,,,,,,,,
html-keyboard-response,64,464237,null,"",null,,word,COLD,,,,,,,,,,,,
html-keyboard-response,65,464443,null,"<div style=""font-size:42px;"">HEAVY</div><img id = ""stim"" ><div class = green_square id = ""topsquare"" ></div>",null,practice2,word_square,,prac_response,1,Top,32,true,,,,,,,
html-keyboard-response,66,464744,223,"<div style=""font-size:42px;"">HEAVY</div>",32,,word,HEAVY,,,,,,,,,,,,
html-keyboard-response,67,466246,null,"",null,,word,HEAVY,,,,,,,,,,,,
html-keyboard-response,68,466454,null,"<div style=""font-size:42px;"">FUNNY</div><img id = ""stim"" ><div class = red_square id = ""topsquare"" ></div>",null,practice2,word_square,,prac_response,0,Top,none,true,,,,,,,
html-keyboard-response,69,466769,null,"<div style=""font-size:42px;"">FUNNY</div>",null,,word,FUNNY,,,,,,,,,,,,
html-keyboard-response,70,468284,null,"",null,,word,FUNNY,,,,,,,,,,,,
html-keyboard-response,71,468486,null,"<div style=""font-size:42px;"">SCARY</div><img id = ""stim"" ><div class = green_square id = ""bottomsquare"" ></div>",null,practice2,word_square,,prac_response,1,Bottom,32,true,,,,,,,
html-keyboard-response,72,468790,179,"<div style=""font-size:42px;"">SCARY</div>",32,,word,SCARY,,,,,,,,,,,,
html-keyboard-response,73,470298,null,"",null,,word,SCARY,,,,,,,,,,,,
html-keyboard-response,74,470505,null,"<div style=""font-size:42px;"">PEACEFUL</div><img id = ""stim"" ><div class = green_square id = ""topsquare"" ></div>",null,practice2,word_square,,prac_response,1,Top,32,true,,,,,,,
html-keyboard-response,75,470806,232,"<div style=""font-size:42px;"">PEACEFUL</div>",32,,word,PEACEFUL,,,,,,,,,,,,
html-keyboard-response,76,472322,null,"",null,,word,PEACEFUL,,,,,,,,,,,,
html-keyboard-response,77,472525,null,"<div style=""font-size:42px;"">LITTLE</div><img id = ""stim"" ><div class = red_square id = ""bottomsquare"" ></div>",null,practice2,word_square,LITTLE,prac_response,0,Bottom,none,true,,,,,,,
html-keyboard-response,78,472836,null,"<div style=""font-size:42px;"">LITTLE</div>",null,,word,LITTLE,,,,,,,,,,,,
html-keyboard-response,79,474341,null,"",null,,word,LITTLE,,,,,,,,,,,,
html-keyboard-response,80,474547,null,"<div style=""font-size:42px;"">TIRED</div><img id = ""stim"" ><div class = red_square id = ""topsquare"" ></div>",null,practice2,word_square,,prac_response,0,Top,none,true,,,,,,,
html-keyboard-response,81,474862,null,"<div style=""font-size:42px;"">TIRED</div>",null,,word,TIRED,,,,,,,,,,,,
html-keyboard-response,82,476366,null,"",null,,word,TIRED,,,,,,,,,,,,
html-keyboard-response,83,476569,null,"<div style=""font-size:42px;"">ENTERTAINING</div><img id = ""stim"" ><div class = red_square id = ""bottomsquare"" ></div>",null,practice2,word_square,ENTERTAINING,prac_response,0,Bottom,none,true,,,,,,,
html-keyboard-response,84,476886,null,"<div style=""font-size:42px;"">ENTERTAINING</div>",null,,word,ENTERTAINING,,,,,,,,,,,,
html-keyboard-response,85,478393,null,"",null,,word,ENTERTAINING,,,,,,,,,,,,
html-keyboard-response,86,478599,null,"<div style=""font-size:42px;"">GRATEFUL</div><img id = ""stim"" ><div class = green_square id = ""bottomsquare"" ></div>",null,practice2,word_square,,prac_response,1,Bottom,32,true,,,,,,,
html-keyboard-response,87,478900,177,"<div style=""font-size:42px;"">GRATEFUL</div>",32,,word,GRATEFUL,,,,,,,,,,,,
html-keyboard-response,88,480411,null,"",null,,word,GRATEFUL,,,,,,,,,,,,
html-keyboard-response,89,480617,null,"<div style=""font-size:42px;"">LOUD</div><img id = ""stim"" ><div class = red_square id = ""topsquare"" ></div>",null,practice2,word_square,,prac_response,0,Top,none,true,,,,,,,
html-keyboard-response,90,480933,null,"<div style=""font-size:42px;"">LOUD</div>",null,,word,LOUD,,,,,,,,,,,,
html-keyboard-response,91,482448,null,"",null,,word,LOUD,,,,,,,,,,,,
html-keyboard-response,92,482655,null,"<div style=""font-size:42px;"">SMART</div><img id = ""stim"" ><div class = green_square id = ""topsquare"" ></div>",null,practice2,word_square,,prac_response,1,Top,32,true,,,,,,,
html-keyboard-response,93,482957,167,"<div style=""font-size:42px;"">SMART</div>",32,,word,SMART,,,,,,,,,,,,
html-keyboard-response,94,484462,null,"",null,,word,SMART,,,,,,,,,,,,
html-keyboard-response,95,484665,null,"<div style=""font-size:42px;"">SMOOTH</div><img id = ""stim"" ><div class = green_square id = ""bottomsquare"" ></div>",null,practice2,word_square,,prac_response,1,Bottom,32,true,,,,,,,
html-keyboard-response,96,484977,null,"<div style=""font-size:42px;"">SMOOTH</div>",null,,word,SMOOTH,,,,,,,,,,,,
html-keyboard-response,97,486479,54,"",32,,word,SMOOTH,,,,,,,,,,,,
html-keyboard-response,98,486685,null,"<div style=""font-size:42px;"">DISHONEST</div><img id = ""stim"" ><div class = red_square id = ""bottomsquare"" ></div>",null,practice2,word_square,DISHONEST,prac_response,0,Bottom,none,true,,,,,,,
html-keyboard-response,99,487002,null,"<div style=""font-size:42px;"">DISHONEST</div>",null,,word,DISHONEST,,,,,,,,,,,,
html-keyboard-response,100,488509,null,"",null,,word,DISHONEST,,,,,,,,,,,,
html-keyboard-response,101,488713,null,"<div style=""font-size:42px;"">WEALTHY</div><img id = ""stim"" ><div class = green_square id = ""topsquare"" ></div>",null,practice2,word_square,,prac_response,1,Top,32,true,,,,,,,
html-keyboard-response,102,489014,206,"<div style=""font-size:42px;"">WEALTHY</div>",32,,word,WEALTHY,,,,,,,,,,,,
html-keyboard-response,103,490529,null,"",null,,word,WEALTHY,,,,,,,,,,,,
html-keyboard-response,104,490733,null,"<div style=""font-size:42px;"">BEAUTIFUL</div><img id = ""stim"" ><div class = red_square id = ""topsquare"" ></div>",null,practice2,word_square,,prac_response,0,Top,none,false,,,,,,,
html-keyboard-response,105,491046,null,"<div style=""font-size:42px;"">BEAUTIFUL</div>",null,,word,BEAUTIFUL,,,,,,,,,,,,
html-keyboard-response,106,492549,null,"",null,,word,BEAUTIFUL,,,,,,,,,,,,
html-keyboard-response,107,497135,4585,"<p> Good job! You responded correctly to 100% of the trials. </p>
                    <p>Be sure to only press the spacebar if you see a GREEN square, and please keep your accuracy above 80%.</p>
                    <p>Press any key to begin the math and recall sections. Thank you! </p>",32,,,,,,,,,,,,,,,
call-function,108,497136,,"",,,,,,,,,,,,,,,,
html-keyboard-response,109,497239,null,"",null,,,,,,,,,,,,,,,
math-period,110,503822,16369,"",,,,,,,,,,,3 ,,,,,
html-keyboard-response,111,503938,null,"",null,,,,,,,,,,,,,,,
math-period,112,505568,3085,"",,,,,,,,,,,4,,,,,
html-keyboard-response,113,505676,null,"",null,,,,,,,,,,,,,,,
math-period,114,508414,8401,"",,,,,,,,,,,4,,,,,
html-keyboard-response,115,508527,null,"",null,,,,,,,,,,,,,,,
math-period,116,510269,3107,"",,,,,,,,,,,4,,,,,
html-keyboard-response,117,510372,null,"",null,,,,,,,,,,,,,,,
math-period,118,513229,5386,"",,,,,,,,,,,4,,,,,
html-keyboard-response,119,513345,null,"",null,,,,,,,,,,,,,,,
math-period,120,516820,6716,"",,,,,,,,,,,1,,,,,
html-keyboard-response,121,516924,null,"",null,,,,,,,,,,,,,,,
math-period,122,521148,null,"",,,,,,,,,,,,,,,,
html-keyboard-response,123,522160,null,"Recall Period!",null,,,,,,,,,,,,,,,
call-function,124,522161,,"",,,,,,,,,,,,,,,,
html-keyboard-response,125,522262,null,"",null,,,,,,,,,,,,,,,
recall-period,126,526868,21106,"",,,,,,,,,,,heavy,,,,,
html-keyboard-response,127,526972,null,"",null,,,,,,,,,,,,,,,
recall-period,128,535963,42800,"",,,,,,,,,,,math,,,,,
html-keyboard-response,129,536064,null,"",null,,,,,,,,,,,,,,,
recall-period,130,560703,238922,"",,,,,,,,,,,enter,,,,,
html-keyboard-response,131,560808,null,"",null,,,,,,,,,,,,,,,
recall-period,132,597174,null,"",,,,,,,,,,,,,,,,
html-keyboard-response,133,597680,null,"Time's Up!",null,,,,,,,,,,,,,,,
html-keyboard-response,134,602476,4794,"<p>We will now begin the experiment!<p><p>Please try to remember all words from each list.<p><p>Press the spacebar whenever you see a GREEN square.<p><p><p><p>Press the spacebar to begin.</p>",13,,,,,,,,,,,,,,,
html-keyboard-response,135,604803,1824,"<div style=""font-size:48px;"">Press any key to begin list 1 of 16 </div>",32,,,,,,,,,,,,,,,
html-keyboard-response,136,607313,null,"<div style=""font-size:60px;"">+</div>",null,,,,,,,,,,,,,,,
html-keyboard-response,137,607518,null,"<div style=""font-size:42px;"">BROOK</div><img id = ""stim"" ><div class = green_square id = topsquare></div>",null,encoding,word_square,,,1,topsquare,32,true,,,BROOK,0,,,
html-keyboard-response,138,607833,null,"<div style=""font-size:42px;"">BROOK</div>",null,,word,BROOK,,,,,,,,,,,,
html-keyboard-response,139,609345,7,"",32,,word,BROOK,,,,,,,,,,,,
html-keyboard-response,140,609548,null,"<div style=""font-size:42px;"">PUDDLE</div><img id = ""stim"" ><div class = green_square id = bottomsquare></div>",null,encoding,word_square,,,1,bottomsquare,32,true,,,PUDDLE,0,,,
html-keyboard-response,141,609862,173,"<div style=""font-size:42px;"">PUDDLE</div>",32,,word,PUDDLE,,,,,,,,,,,,
html-keyboard-response,142,611377,null,"",null,,word,PUDDLE,,,,,,,,,,,,
html-keyboard-response,143,611582,null,"<div style=""font-size:42px;"">LAPEL</div><img id = ""stim"" ><div class = green_square id = topsquare></div>",null,encoding,word_square,,,1,topsquare,32,true,,,LAPEL,0,,,
html-keyboard-response,144,611884,194,"<div style=""font-size:42px;"">LAPEL</div>",32,,word,LAPEL,,,,,,,,,,,,
html-keyboard-response,145,613386,988,"",32,,word,LAPEL,,,,,,,,,,,,
html-keyboard-response,146,613593,null,"<div style=""font-size:42px;"">MUSTARD</div><img id = ""stim"" ><div class = red_square id = bottomsquare></div>",null,encoding,word_square,,,0,bottomsquare,none,true,,,MUSTARD,0,,,
html-keyboard-response,147,613895,null,"<div style=""font-size:42px;"">MUSTARD</div>",null,,word,MUSTARD,,,,,,,,,,,,
html-keyboard-response,148,615410,null,"",null,,word,MUSTARD,,,,,,,,,,,,
html-keyboard-response,149,615615,null,"<div style=""font-size:42px;"">BRACES</div><img id = ""stim"" ><div class = red_square id = topsquare></div>",null,encoding,word_square,,,0,topsquare,none,true,,,BRACES,0,,,
html-keyboard-response,150,615917,null,"<div style=""font-size:42px;"">BRACES</div>",null,,word,BRACES,,,,,,,,,,,,
html-keyboard-response,151,617431,null,"",null,,word,BRACES,,,,,,,,,,,,
html-keyboard-response,152,617635,null,"<div style=""font-size:42px;"">AWARD</div><img id = ""stim"" ><div class = green_square id = bottomsquare></div>",null,encoding,word_square,,,1,bottomsquare,32,true,,,AWARD,0,,,
html-keyboard-response,153,617951,140,"<div style=""font-size:42px;"">AWARD</div>",32,,word,AWARD,,,,,,,,,,,,
html-keyboard-response,154,619467,null,"",null,,word,AWARD,,,,,,,,,,,,
html-keyboard-response,155,619673,null,"<div style=""font-size:42px;"">LUMBER</div><img id = ""stim"" ><div class = red_square id = bottomsquare></div>",null,encoding,word_square,,,0,bottomsquare,none,true,,,LUMBER,0,,,
html-keyboard-response,156,619975,null,"<div style=""font-size:42px;"">LUMBER</div>",null,,word,LUMBER,,,,,,,,,,,,
html-keyboard-response,157,621491,null,"",null,,word,LUMBER,,,,,,,,,,,,
html-keyboard-response,158,621696,null,"<div style=""font-size:42px;"">STAR</div><img id = ""stim"" ><div class = red_square id = topsquare></div>",null,encoding,word_square,,,0,topsquare,none,true,,,STAR,0,,,
html-keyboard-response,159,622011,null,"<div style=""font-size:42px;"">STAR</div>",null,,word,STAR,,,,,,,,,,,,
html-keyboard-response,160,623525,null,"",null,,word,STAR,,,,,,,,,,,,
html-keyboard-response,161,623732,null,"<div style=""font-size:42px;"">BENCH</div><img id = ""stim"" ><div class = green_square id = topsquare></div>",null,encoding,word_square,,,1,topsquare,32,true,,,BENCH,0,,,
html-keyboard-response,162,624033,275,"<div style=""font-size:42px;"">BENCH</div>",32,,word,BENCH,,,,,,,,,,,,
html-keyboard-response,163,625537,null,"",null,,word,BENCH,,,,,,,,,,,,
html-keyboard-response,164,625742,null,"<div style=""font-size:42px;"">COFFIN</div><img id = ""stim"" ><div class = red_square id = bottomsquare></div>",null,encoding,word_square,,,0,bottomsquare,none,true,,,COFFIN,0,,,
html-keyboard-response,165,626058,null,"<div style=""font-size:42px;"">COFFIN</div>",null,,word,COFFIN,,,,,,,,,,,,
html-keyboard-response,166,627570,null,"",null,,word,COFFIN,,,,,,,,,,,,
html-keyboard-response,167,627773,null,"<div style=""font-size:42px;"">BANDIT</div><img id = ""stim"" ><div class = green_square id = bottomsquare></div>",null,encoding,word_square,,,1,bottomsquare,32,true,,,BANDIT,0,,,
html-keyboard-response,168,628076,null,"<div style=""font-size:42px;"">BANDIT</div>",null,,word,BANDIT,,,,,,,,,,,,
html-keyboard-response,169,629583,83,"",32,,word,BANDIT,,,,,,,,,,,,
html-keyboard-response,170,629785,null,"<div style=""font-size:42px;"">DUSTPAN</div><img id = ""stim"" ><div class = green_square id = topsquare></div>",null,encoding,word_square,,,1,topsquare,32,true,,,DUSTPAN,0,,,
html-keyboard-response,171,630100,null,"<div style=""font-size:42px;"">DUSTPAN</div>",null,,word,DUSTPAN,,,,,,,,,,,,
html-keyboard-response,172,631603,273,"",32,,word,DUSTPAN,,,,,,,,,,,,
html-keyboard-response,173,631819,null,"<div style=""font-size:42px;"">JACKET</div><img id = ""stim"" ><div class = red_square id = topsquare></div>",null,encoding,word_square,,,0,topsquare,none,true,,,JACKET,0,,,
html-keyboard-response,174,632133,null,"<div style=""font-size:42px;"">JACKET</div>",null,,word,JACKET,,,,,,,,,,,,
html-keyboard-response,175,633635,null,"",null,,word,JACKET,,,,,,,,,,,,
html-keyboard-response,176,633839,null,"<div style=""font-size:42px;"">YARN</div><img id = ""stim"" ><div class = red_square id = bottomsquare></div>",null,encoding,word_square,,,0,bottomsquare,none,true,,,YARN,0,,,
html-keyboard-response,177,634141,null,"<div style=""font-size:42px;"">YARN</div>",null,,word,YARN,,,,,,,,,,,,
html-keyboard-response,178,635655,null,"",null,,word,YARN,,,,,,,,,,,,
html-keyboard-response,179,635860,null,"<div style=""font-size:42px;"">DOCK</div><img id = ""stim"" ><div class = green_square id = bottomsquare></div>",null,encoding,word_square,,,1,bottomsquare,32,true,,,DOCK,0,,,
html-keyboard-response,180,636173,201,"<div style=""font-size:42px;"">DOCK</div>",32,,word,DOCK,,,,,,,,,,,,
html-keyboard-response,181,637682,null,"",null,,word,DOCK,,,,,,,,,,,,
html-keyboard-response,182,637887,null,"<div style=""font-size:42px;"">COLLEGE</div><img id = ""stim"" ><div class = red_square id = topsquare></div>",null,encoding,word_square,,,0,topsquare,none,true,,,COLLEGE,0,,,
html-keyboard-response,183,638189,null,"<div style=""font-size:42px;"">COLLEGE</div>",null,,word,COLLEGE,,,,,,,,,,,,
html-keyboard-response,184,639693,null,"",null,,word,COLLEGE,,,,,,,,,,,,
call-function,185,639694,,"",,,,,,,,,,,,,,,,
html-keyboard-response,186,639795,null,"",null,,,,,,,,,,,,,,,
math-period,187,642614,5202,"",,,,,,,,,,,4,,,,,
html-keyboard-response,188,642717,null,"",null,,,,,,,,,,,,,,,
math-period,189,643717,1879,"",,,,,,,,,,,4,,,,,
html-keyboard-response,190,643827,null,"",null,,,,,,,,,,,,,,,
math-period,191,645127,2403,"",,,,,,,,,,,3,,,,,
html-keyboard-response,192,645231,null,"",null,,,,,,,,,,,,,,,
math-period,193,646350,2074,"",,,,,,,,,,,3,,,,,
html-keyboard-response,194,646451,null,"",null,,,,,,,,,,,,,,,
math-period,195,650045,6993,"",,,,,,,,,,,1,,,,,
html-keyboard-response,196,650149,null,"",null,,,,,,,,,,,,,,,
math-period,197,652589,4605,"",,,,,,,,,,,4,,,,,
html-keyboard-response,198,652704,null,"",null,,,,,,,,,,,,,,,
math-period,199,654605,3566,"",,,,,,,,,,,2,,,,,
html-keyboard-response,200,654705,null,"",null,,,,,,,,,,,,,,,
math-period,201,655908,2322,"",,,,,,,,,,,2,,,,,
html-keyboard-response,202,656008,null,"",null,,,,,,,,,,,,,,,
math-period,203,657877,3557,"",,,,,,,,,,,3,,,,,
html-keyboard-response,204,657980,null,"",null,,,,,,,,,,,,,,,
math-period,205,660124,7324,"",,,,,,,,,,,4,,,,,
html-keyboard-response,206,660225,null,"",null,,,,,,,,,,,,,,,
math-period,207,662532,4474,"",,,,,,,,,,,1,,,,,
html-keyboard-response,208,662635,null,"",null,,,,,,,,,,,,,,,
math-period,209,663709,null,"",,,,,,,,,,,,,,,,
html-keyboard-response,210,664723,null,"Recall Period!",null,,,,,,,,,,,,,,,
call-function,211,664723,,"",,,,,,,,,,,,,,,,
html-keyboard-response,212,664823,null,"",null,,,,,,,,,,,,,,,
recall-period,213,666339,6892,"",,,,,,,,,,,award,,,,,
html-keyboard-response,214,666453,null,"",null,,,,,,,,,,,,,,,
recall-period,215,667195,2748,"",,,,,,,,,,,bench,,,,,
html-keyboard-response,216,667304,null,"",null,,,,,,,,,,,,,,,
recall-period,217,668010,2782,"",,,,,,,,,,,bandit,,,,,
html-keyboard-response,218,668112,null,"",null,,,,,,,,,,,,,,,
recall-period,219,672035,21717,"",,,,,,,,,,,lapel,,,,,
html-keyboard-response,220,672147,null,"",null,,,,,,,,,,,,,,,
recall-period,221,674211,13952,"",,,,,,,,,,,dustbowl,,,,,
html-keyboard-response,222,674316,null,"",null,,,,,,,,,,,,,,,
recall-period,223,739739,null,"",,,,,,,,,,,,,,,,
html-keyboard-response,224,740245,null,"Time's Up!",null,,,,,,,,,,,,,,,
html-keyboard-response,225,744554,4308,"<p> Good job! You have responded correctly to 100% of the trials. </p>
                      <p>Be sure to only press the spacebar if you see a GREEN square, and please keep your accuracy above 80%.</p>
                      <p> Press any key to continue the experiment. </p>",13,,,,,,,,,,,,,,,
html-keyboard-response,226,746137,1582,"<div style=""font-size:48px;"">Press any key to begin list 2 of 16 </div>",32,,,,,,,,,,,,,,,
html-keyboard-response,227,748660,null,"<div style=""font-size:60px;"">+</div>",null,,,,,,,,,,,,,,,
html-keyboard-response,228,748866,null,"<div style=""font-size:42px;"">MARSH</div><img id = ""stim"" ><div class = red_square id = topsquare></div>",null,encoding,word_square,,,0,topsquare,none,true,,,MARSH,1,,,
html-keyboard-response,229,749178,null,"<div style=""font-size:42px;"">MARSH</div>",null,,word,MARSH,,,,,,,,,,,,
html-keyboard-response,230,750685,null,"",null,,word,MARSH,,,,,,,,,,,,
html-keyboard-response,231,750891,null,"<div style=""font-size:42px;"">PADDLE</div><img id = ""stim"" ><div class = green_square id = bottomsquare></div>",null,encoding,word_square,,,1,bottomsquare,32,true,,,PADDLE,1,,,
html-keyboard-response,232,751192,253,"<div style=""font-size:42px;"">PADDLE</div>",32,,word,PADDLE,,,,,,,,,,,,
html-keyboard-response,233,752705,null,"",null,,word,PADDLE,,,,,,,,,,,,
html-keyboard-response,234,752910,null,"<div style=""font-size:42px;"">PLAQUE</div><img id = ""stim"" ><div class = red_square id = bottomsquare></div>",null,encoding,word_square,,,0,bottomsquare,none,true,,,PLAQUE,1,,,
html-keyboard-response,235,753223,null,"<div style=""font-size:42px;"">PLAQUE</div>",null,,word,PLAQUE,,,,,,,,,,,,
html-keyboard-response,236,754730,null,"",null,,word,PLAQUE,,,,,,,,,,,,
html-keyboard-response,237,754935,null,"<div style=""font-size:42px;"">VAMPIRE</div><img id = ""stim"" ><div class = red_square id = topsquare></div>",null,encoding,word_square,,,0,topsquare,none,true,,,VAMPIRE,1,,,
html-keyboard-response,238,755250,null,"<div style=""font-size:42px;"">VAMPIRE</div>",null,,word,VAMPIRE,,,,,,,,,,,,
html-keyboard-response,239,756759,null,"",null,,word,VAMPIRE,,,,,,,,,,,,
html-keyboard-response,240,756963,null,"<div style=""font-size:42px;"">HAYSTACK</div><img id = ""stim"" ><div class = green_square id = topsquare></div>",null,encoding,word_square,,,1,topsquare,32,true,,,HAYSTACK,1,,,
html-keyboard-response,241,757276,156,"<div style=""font-size:42px;"">HAYSTACK</div>",32,,word,HAYSTACK,,,,,,,,,,,,
html-keyboard-response,242,758780,null,"",null,,word,HAYSTACK,,,,,,,,,,,,
html-keyboard-response,243,758984,null,"<div style=""font-size:42px;"">VICTIM</div><img id = ""stim"" ><div class = green_square id = bottomsquare></div>",null,encoding,word_square,,,1,bottomsquare,32,true,,,VICTIM,1,,,
html-keyboard-response,244,759299,null,"<div style=""font-size:42px;"">VICTIM</div>",null,,word,VICTIM,,,,,,,,,,,,
html-keyboard-response,245,760813,11,"",32,,word,VICTIM,,,,,,,,,,,,
html-keyboard-response,246,761017,null,"<div style=""font-size:42px;"">LODGE</div><img id = ""stim"" ><div class = red_square id = bottomsquare></div>",null,encoding,word_square,,,0,bottomsquare,none,true,,,LODGE,1,,,
html-keyboard-response,247,761332,null,"<div style=""font-size:42px;"">LODGE</div>",null,,word,LODGE,,,,,,,,,,,,
html-keyboard-response,248,762834,null,"",null,,word,LODGE,,,,,,,,,,,,
html-keyboard-response,249,763042,null,"<div style=""font-size:42px;"">LAKE</div><img id = ""stim"" ><div class = green_square id = topsquare></div>",null,encoding,word_square,,,1,topsquare,32,true,,,LAKE,1,,,
html-keyboard-response,250,763342,244,"<div style=""font-size:42px;"">LAKE</div>",32,,word,LAKE,,,,,,,,,,,,
html-keyboard-response,251,764847,null,"",null,,word,LAKE,,,,,,,,,,,,
html-keyboard-response,252,765052,null,"<div style=""font-size:42px;"">ANGEL</div><img id = ""stim"" ><div class = red_square id = topsquare></div>",null,encoding,word_square,,,0,topsquare,none,true,,,ANGEL,1,,,
html-keyboard-response,253,765367,null,"<div style=""font-size:42px;"">ANGEL</div>",null,,word,ANGEL,,,,,,,,,,,,
html-keyboard-response,254,766882,null,"",null,,word,ANGEL,,,,,,,,,,,,
html-keyboard-response,255,767087,null,"<div style=""font-size:42px;"">VIKING</div><img id = ""stim"" ><div class = red_square id = bottomsquare></div>",null,encoding,word_square,,,0,bottomsquare,none,true,,,VIKING,1,,,
html-keyboard-response,256,767402,null,"<div style=""font-size:42px;"">VIKING</div>",null,,word,VIKING,,,,,,,,,,,,
html-keyboard-response,257,768919,null,"",null,,word,VIKING,,,,,,,,,,,,
html-keyboard-response,258,769124,null,"<div style=""font-size:42px;"">CRACKER</div><img id = ""stim"" ><div class = green_square id = bottomsquare></div>",null,encoding,word_square,,,1,bottomsquare,32,true,,,CRACKER,1,,,
html-keyboard-response,259,769426,217,"<div style=""font-size:42px;"">CRACKER</div>",32,,word,CRACKER,,,,,,,,,,,,
html-keyboard-response,260,770939,null,"",null,,word,CRACKER,,,,,,,,,,,,
html-keyboard-response,261,771143,null,"<div style=""font-size:42px;"">HEDGE</div><img id = ""stim"" ><div class = red_square id = topsquare></div>",null,encoding,word_square,,,0,topsquare,none,true,,,HEDGE,1,,,
html-keyboard-response,262,771459,null,"<div style=""font-size:42px;"">HEDGE</div>",null,,word,HEDGE,,,,,,,,,,,,
html-keyboard-response,263,772963,null,"",null,,word,HEDGE,,,,,,,,,,,,
html-keyboard-response,264,773169,null,"<div style=""font-size:42px;"">SADDLE</div><img id = ""stim"" ><div class = red_square id = bottomsquare></div>",null,encoding,word_square,,,0,bottomsquare,none,true,,,SADDLE,1,,,
html-keyboard-response,265,773486,null,"<div style=""font-size:42px;"">SADDLE</div>",null,,word,SADDLE,,,,,,,,,,,,
html-keyboard-response,266,774995,null,"",null,,word,SADDLE,,,,,,,,,,,,
html-keyboard-response,267,775200,null,"<div style=""font-size:42px;"">WAGON</div><img id = ""stim"" ><div class = green_square id = topsquare></div>",null,encoding,word_square,,,1,topsquare,32,true,,,WAGON,1,,,
html-keyboard-response,268,775501,253,"<div style=""font-size:42px;"">WAGON</div>",32,,word,WAGON,,,,,,,,,,,,
html-keyboard-response,269,777015,null,"",null,,word,WAGON,,,,,,,,,,,,
html-keyboard-response,270,777222,null,"<div style=""font-size:42px;"">HAND</div><img id = ""stim"" ><div class = green_square id = bottomsquare></div>",null,encoding,word_square,,,1,bottomsquare,32,true,,,HAND,1,,,
html-keyboard-response,271,777524,null,"<div style=""font-size:42px;"">HAND</div>",null,,word,HAND,,,,,,,,,,,,
html-keyboard-response,272,779041,207,"",32,,word,HAND,,,,,,,,,,,,
html-keyboard-response,273,779245,null,"<div style=""font-size:42px;"">DANDRUFF</div><img id = ""stim"" ><div class = green_square id = topsquare></div>",null,encoding,word_square,,,1,topsquare,32,true,,,DANDRUFF,1,,,
html-keyboard-response,274,779561,191,"<div style=""font-size:42px;"">DANDRUFF</div>",32,,word,DANDRUFF,,,,,,,,,,,,
html-keyboard-response,275,781066,null,"",null,,word,DANDRUFF,,,,,,,,,,,,
call-function,276,781066,,"",,,,,,,,,,,,,,,,
html-keyboard-response,277,781167,null,"",null,,,,,,,,,,,,,,,
math-period,278,783053,3311,"",,,,,,,,,,,2,,,,,
html-keyboard-response,279,783164,null,"",null,,,,,,,,,,,,,,,
math-period,280,785156,3829,"",,,,,,,,,,,1,,,,,
html-keyboard-response,281,785270,null,"",null,,,,,,,,,,,,,,,
math-period,282,786348,2001,"",,,,,,,,,,,3,,,,,
html-keyboard-response,283,786454,null,"",null,,,,,,,,,,,,,,,
math-period,284,787900,2536,"",,,,,,,,,,,4,,,,,
html-keyboard-response,285,788001,null,"",null,,,,,,,,,,,,,,,
math-period,286,792404,7724,"",,,,,,,,,,,0,,,,,
html-keyboard-response,287,792504,null,"",null,,,,,,,,,,,,,,,
math-period,288,794579,3995,"",,,,,,,,,,,1,,,,,
html-keyboard-response,289,794694,null,"",null,,,,,,,,,,,,,,,
math-period,290,797491,5446,"",,,,,,,,,,,2,,,,,
html-keyboard-response,291,797592,null,"",null,,,,,,,,,,,,,,,
math-period,292,800275,4602,"",,,,,,,,,,,3,,,,,
html-keyboard-response,293,800380,null,"",null,,,,,,,,,,,,,,,
math-period,294,802642,4392,"",,,,,,,,,,,1,,,,,
html-keyboard-response,295,802756,null,"",null,,,,,,,,,,,,,,,
math-period,296,804691,3611,"",,,,,,,,,,,4,,,,,
html-keyboard-response,297,804795,null,"",null,,,,,,,,,,,,,,,
math-period,298,805077,null,"",,,,,,,,,,,,,,,,
html-keyboard-response,299,806085,null,"Recall Period!",null,,,,,,,,,,,,,,,
call-function,300,806086,,"",,,,,,,,,,,,,,,,
html-keyboard-response,301,806188,null,"",null,,,,,,,,,,,,,,,
recall-period,302,807545,7280,"",,,,,,,,,,,paddle,,,,,
html-keyboard-response,303,807650,null,"",null,,,,,,,,,,,,,,,
recall-period,304,808777,6208,"",,,,,,,,,,,haystack,,,,,
html-keyboard-response,305,808884,null,"",null,,,,,,,,,,,,,,,
recall-period,306,810337,7520,"",,,,,,,,,,,victim,,,,,
html-keyboard-response,307,810446,null,"",null,,,,,,,,,,,,,,,
recall-period,308,811689,6586,"",,,,,,,,,,,dandruff,,,,,
html-keyboard-response,309,811803,null,"",null,,,,,,,,,,,,,,,
recall-period,310,881088,null,"",,,,,,,,,,,,,,,,
html-keyboard-response,311,881596,null,"Time's Up!",null,,,,,,,,,,,,,,,
html-keyboard-response,312,883506,1908,"<p> Good job! You have responded correctly to 100% of the trials. </p>
                      <p>Be sure to only press the spacebar if you see a GREEN square, and please keep your accuracy above 80%.</p>
                      <p> Press any key to continue the experiment. </p>",32,,,,,,,,,,,,,,,
html-keyboard-response,313,884840,1333,"<div style=""font-size:48px;"">Press any key to begin list 3 of 16 </div>",32,,,,,,,,,,,,,,,
html-keyboard-response,314,887362,null,"<div style=""font-size:60px;"">+</div>",null,,,,,,,,,,,,,,,
html-keyboard-response,315,887564,null,"<div style=""font-size:42px;"">CHECKERS</div><img id = ""stim"" ><div class = red_square id = bottomsquare></div>",null,encoding,word_square,,,0,bottomsquare,none,true,,,CHECKERS,2,,,
html-keyboard-response,316,887879,null,"<div style=""font-size:42px;"">CHECKERS</div>",null,,word,CHECKERS,,,,,,,,,,,,
html-keyboard-response,317,889382,null,"",null,,word,CHECKERS,,,,,,,,,,,,
html-keyboard-response,318,889586,null,"<div style=""font-size:42px;"">GLASSES</div><img id = ""stim"" ><div class = red_square id = topsquare></div>",null,encoding,word_square,,,0,topsquare,none,true,,,GLASSES,2,,,
html-keyboard-response,319,889888,null,"<div style=""font-size:42px;"">GLASSES</div>",null,,word,GLASSES,,,,,,,,,,,,
html-keyboard-response,320,891392,null,"",null,,word,GLASSES,,,,,,,,,,,,
html-keyboard-response,321,891597,null,"<div style=""font-size:42px;"">SOCKET</div><img id = ""stim"" ><div class = red_square id = bottomsquare></div>",null,encoding,word_square,,,0,bottomsquare,none,true,,,SOCKET,2,,,
html-keyboard-response,322,891899,null,"<div style=""font-size:42px;"">SOCKET</div>",null,,word,SOCKET,,,,,,,,,,,,
html-keyboard-response,323,893405,null,"",null,,word,SOCKET,,,,,,,,,,,,
html-keyboard-response,324,893610,null,"<div style=""font-size:42px;"">BUTLER</div><img id = ""stim"" ><div class = green_square id = topsquare></div>",null,encoding,word_square,,,1,topsquare,32,true,,,BUTLER,2,,,
html-keyboard-response,325,893925,165,"<div style=""font-size:42px;"">BUTLER</div>",32,,word,BUTLER,,,,,,,,,,,,
html-keyboard-response,326,895442,null,"",null,,word,BUTLER,,,,,,,,,,,,
html-keyboard-response,327,895649,null,"<div style=""font-size:42px;"">DRAWING</div><img id = ""stim"" ><div class = green_square id = bottomsquare></div>",null,encoding,word_square,,,1,bottomsquare,32,true,,,DRAWING,2,,,
html-keyboard-response,328,895962,197,"<div style=""font-size:42px;"">DRAWING</div>",32,,word,DRAWING,,,,,,,,,,,,
html-keyboard-response,329,897476,null,"",null,,word,DRAWING,,,,,,,,,,,,
html-keyboard-response,330,897680,null,"<div style=""font-size:42px;"">CANOE</div><img id = ""stim"" ><div class = red_square id = topsquare></div>",null,encoding,word_square,,,0,topsquare,none,true,,,CANOE,2,,,
html-keyboard-response,331,897996,null,"<div style=""font-size:42px;"">CANOE</div>",null,,word,CANOE,,,,,,,,,,,,
html-keyboard-response,332,899512,null,"",null,,word,CANOE,,,,,,,,,,,,
html-keyboard-response,333,899717,null,"<div style=""font-size:42px;"">SCULPTURE</div><img id = ""stim"" ><div class = green_square id = topsquare></div>",null,encoding,word_square,,,1,topsquare,32,true,,,SCULPTURE,2,,,
html-keyboard-response,334,900032,209,"<div style=""font-size:42px;"">SCULPTURE</div>",32,,word,SCULPTURE,,,,,,,,,,,,
html-keyboard-response,335,901546,null,"",null,,word,SCULPTURE,,,,,,,,,,,,
html-keyboard-response,336,901752,null,"<div style=""font-size:42px;"">SKETCH</div><img id = ""stim"" ><div class = green_square id = bottomsquare></div>",null,encoding,word_square,,,1,bottomsquare,32,true,,,SKETCH,2,,,
html-keyboard-response,337,902052,286,"<div style=""font-size:42px;"">SKETCH</div>",32,,word,SKETCH,,,,,,,,,,,,
html-keyboard-response,338,903559,null,"",null,,word,SKETCH,,,,,,,,,,,,
html-keyboard-response,339,903765,null,"<div style=""font-size:42px;"">SHOVEL</div><img id = ""stim"" ><div class = red_square id = bottomsquare></div>",null,encoding,word_square,,,0,bottomsquare,none,true,,,SHOVEL,2,,,
html-keyboard-response,340,904067,null,"<div style=""font-size:42px;"">SHOVEL</div>",null,,word,SHOVEL,,,,,,,,,,,,
html-keyboard-response,341,905579,null,"",null,,word,SHOVEL,,,,,,,,,,,,
html-keyboard-response,342,905784,null,"<div style=""font-size:42px;"">CASHIER</div><img id = ""stim"" ><div class = green_square id = topsquare></div>",null,encoding,word_square,,,1,topsquare,32,true,,,CASHIER,2,,,
html-keyboard-response,343,906098,181,"<div style=""font-size:42px;"">CASHIER</div>",32,,word,CASHIER,,,,,,,,,,,,
html-keyboard-response,344,907611,null,"",null,,word,CASHIER,,,,,,,,,,,,
html-keyboard-response,345,907816,null,"<div style=""font-size:42px;"">PARENT</div><img id = ""stim"" ><div class = red_square id = topsquare></div>",null,encoding,word_square,,,0,topsquare,none,true,,,PARENT,2,,,
html-keyboard-response,346,908132,null,"<div style=""font-size:42px;"">PARENT</div>",null,,word,PARENT,,,,,,,,,,,,
html-keyboard-response,347,909634,null,"",null,,word,PARENT,,,,,,,,,,,,
html-keyboard-response,348,909840,null,"<div style=""font-size:42px;"">CUSTARD</div><img id = ""stim"" ><div class = red_square id = bottomsquare></div>",null,encoding,word_square,,,0,bottomsquare,none,true,,,CUSTARD,2,,,
html-keyboard-response,349,910153,149,"<div style=""font-size:42px;"">CUSTARD</div>",32,,word,CUSTARD,,,,,,,,,,,,
html-keyboard-response,350,911659,null,"",null,,word,CUSTARD,,,,,,,,,,,,
html-keyboard-response,351,911864,null,"<div style=""font-size:42px;"">GIRL</div><img id = ""stim"" ><div class = green_square id = bottomsquare></div>",null,encoding,word_square,,,1,bottomsquare,32,true,,,GIRL,2,,,
html-keyboard-response,352,912176,100,"<div style=""font-size:42px;"">GIRL</div>",32,,word,GIRL,,,,,,,,,,,,
html-keyboard-response,353,913682,null,"",null,,word,GIRL,,,,,,,,,,,,
html-keyboard-response,354,913889,null,"<div style=""font-size:42px;"">DAUGHTER</div><img id = ""stim"" ><div class = green_square id = topsquare></div>",null,encoding,word_square,,,1,topsquare,32,true,,,DAUGHTER,2,,,
html-keyboard-response,355,914205,null,"<div style=""font-size:42px;"">DAUGHTER</div>",null,,word,DAUGHTER,,,,,,,,,,,,
html-keyboard-response,356,915719,167,"",32,,word,DAUGHTER,,,,,,,,,,,,
html-keyboard-response,357,915924,null,"<div style=""font-size:42px;"">SUPPER</div><img id = ""stim"" ><div class = red_square id = topsquare></div>",null,encoding,word_square,,,0,topsquare,none,true,,,SUPPER,2,,,
html-keyboard-response,358,916239,null,"<div style=""font-size:42px;"">SUPPER</div>",null,,word,SUPPER,,,,,,,,,,,,
html-keyboard-response,359,917747,null,"",null,,word,SUPPER,,,,,,,,,,,,
html-keyboard-response,360,917952,null,"<div style=""font-size:42px;"">BALLOON</div><img id = ""stim"" ><div class = green_square id = bottomsquare></div>",null,encoding,word_square,,,1,bottomsquare,32,true,,,BALLOON,2,,,
html-keyboard-response,361,918253,251,"<div style=""font-size:42px;"">BALLOON</div>",32,,word,BALLOON,,,,,,,,,,,,
html-keyboard-response,362,919759,null,"",null,,word,BALLOON,,,,,,,,,,,,
call-function,363,919759,,"",,,,,,,,,,,,,,,,
html-keyboard-response,364,919860,null,"",null,,,,,,,,,,,,,,,
math-period,365,922180,3948,"",,,,,,,,,,,2,,,,,
html-keyboard-response,366,922285,null,"",null,,,,,,,,,,,,,,,
math-period,367,923291,1826,"",,,,,,,,,,,3,,,,,
html-keyboard-response,368,923393,null,"",null,,,,,,,,,,,,,,,
math-period,369,924420,1852,"",,,,,,,,,,,3,,,,,
html-keyboard-response,370,924531,null,"",null,,,,,,,,,,,,,,,
math-period,371,927227,5228,"",,,,,,,,,,,5,,,,,
html-keyboard-response,372,927331,null,"",null,,,,,,,,,,,,,,,
math-period,373,929034,3277,"",,,,,,,,,,,1,,,,,
html-keyboard-response,374,929142,null,"",null,,,,,,,,,,,,,,,
math-period,375,930827,3126,"",,,,,,,,,,,4,,,,,
html-keyboard-response,376,930928,null,"",null,,,,,,,,,,,,,,,
math-period,377,932738,3536,"",,,,,,,,,,,1,,,,,
html-keyboard-response,378,932838,null,"",null,,,,,,,,,,,,,,,
math-period,379,934634,3381,"",,,,,,,,,,,4,,,,,
html-keyboard-response,380,934746,null,"",null,,,,,,,,,,,,,,,
math-period,381,939715,9110,"",,,,,,,,,,,0,,,,,
html-keyboard-response,382,939817,null,"",null,,,,,,,,,,,,,,,
math-period,383,941849,3932,"",,,,,,,,,,,1,,,,,
html-keyboard-response,384,941953,null,"",null,,,,,,,,,,,,,,,
math-period,385,943763,1807,"",,,,,,,,,,,2,,,,,
html-keyboard-response,386,944766,null,"Recall Period!",null,,,,,,,,,,,,,,,
call-function,387,944767,,"",,,,,,,,,,,,,,,,
html-keyboard-response,388,944877,null,"",null,,,,,,,,,,,,,,,
recall-period,389,946497,8380,"",,,,,,,,,,,butler,,,,,
html-keyboard-response,390,946600,null,"",null,,,,,,,,,,,,,,,
recall-period,391,947377,3774,"",,,,,,,,,,,drawing,,,,,
html-keyboard-response,392,947481,null,"",null,,,,,,,,,,,,,,,
recall-period,393,949849,14996,"",,,,,,,,,,,sculpture,,,,,
html-keyboard-response,394,949961,null,"",null,,,,,,,,,,,,,,,
recall-period,395,950536,1491,"",,,,,,,,,,,girl,,,,,
html-keyboard-response,396,950636,null,"",null,,,,,,,,,,,,,,,
recall-period,397,951600,4378,"",,,,,,,,,,,daughter,,,,,
html-keyboard-response,398,951715,null,"",null,,,,,,,,,,,,,,,
recall-period,399,1019768,null,"",,,,,,,,,,,,,,,,
html-keyboard-response,400,1020274,null,"Time's Up!",null,,,,,,,,,,,,,,,
html-keyboard-response,401,1025368,5092,"<p> Good job! You have responded correctly to 100% of the trials. </p>
                      <p>Be sure to only press the spacebar if you see a GREEN square, and please keep your accuracy above 80%.</p>
                      <p> Press any key to continue the experiment. </p>",32,,,,,,,,,,,,,,,
html-keyboard-response,402,1026607,1238,"<div style=""font-size:48px;"">Press any key to begin list 4 of 16 </div>",32,,,,,,,,,,,,,,,
html-keyboard-response,403,1029118,null,"<div style=""font-size:60px;"">+</div>",null,,,,,,,,,,,,,,,
html-keyboard-response,404,1029323,null,"<div style=""font-size:42px;"">CROOK</div><img id = ""stim"" ><div class = green_square id = bottomsquare></div>",null,encoding,word_square,,,1,bottomsquare,32,true,,,CROOK,3,,,
html-keyboard-response,405,1029639,195,"<div style=""font-size:42px;"">CROOK</div>",32,,word,CROOK,,,,,,,,,,,,
html-keyboard-response,406,1031152,null,"",null,,word,CROOK,,,,,,,,,,,,
html-keyboard-response,407,1031357,null,"<div style=""font-size:42px;"">CURTAIN</div><img id = ""stim"" ><div class = red_square id = topsquare></div>",null,encoding,word_square,,,0,topsquare,none,true,,,CURTAIN,3,,,
html-keyboard-response,408,1031658,null,"<div style=""font-size:42px;"">CURTAIN</div>",null,,word,CURTAIN,,,,,,,,,,,,
html-keyboard-response,409,1033159,null,"",null,,word,CURTAIN,,,,,,,,,,,,
html-keyboard-response,410,1033365,null,"<div style=""font-size:42px;"">SERPENT</div><img id = ""stim"" ><div class = green_square id = topsquare></div>",null,encoding,word_square,,,1,topsquare,32,true,,,SERPENT,3,,,
html-keyboard-response,411,1033667,160,"<div style=""font-size:42px;"">SERPENT</div>",32,,word,SERPENT,,,,,,,,,,,,
html-keyboard-response,412,1035182,null,"",null,,word,SERPENT,,,,,,,,,,,,
html-keyboard-response,413,1035390,null,"<div style=""font-size:42px;"">CANAL</div><img id = ""stim"" ><div class = green_square id = bottomsquare></div>",null,encoding,word_square,,,1,bottomsquare,32,true,,,CANAL,3,,,
html-keyboard-response,414,1035691,248,"<div style=""font-size:42px;"">CANAL</div>",32,,word,CANAL,,,,,,,,,,,,
html-keyboard-response,415,1037207,null,"",null,,word,CANAL,,,,,,,,,,,,
html-keyboard-response,416,1037412,null,"<div style=""font-size:42px;"">MAPLE</div><img id = ""stim"" ><div class = red_square id = bottomsquare></div>",null,encoding,word_square,,,0,bottomsquare,none,true,,,MAPLE,3,,,
html-keyboard-response,417,1037727,null,"<div style=""font-size:42px;"">MAPLE</div>",null,,word,MAPLE,,,,,,,,,,,,
html-keyboard-response,418,1039241,null,"",null,,word,MAPLE,,,,,,,,,,,,
html-keyboard-response,419,1039447,null,"<div style=""font-size:42px;"">TWIG</div><img id = ""stim"" ><div class = red_square id = topsquare></div>",null,encoding,word_square,,,0,topsquare,none,true,,,TWIG,3,,,
html-keyboard-response,420,1039762,null,"<div style=""font-size:42px;"">TWIG</div>",null,,word,TWIG,,,,,,,,,,,,
html-keyboard-response,421,1041278,null,"",null,,word,TWIG,,,,,,,,,,,,
html-keyboard-response,422,1041483,null,"<div style=""font-size:42px;"">LEMON</div><img id = ""stim"" ><div class = green_square id = topsquare></div>",null,encoding,word_square,,,1,topsquare,32,true,,,LEMON,3,,,
html-keyboard-response,423,1041783,249,"<div style=""font-size:42px;"">LEMON</div>",32,,word,LEMON,,,,,,,,,,,,
html-keyboard-response,424,1043287,null,"",null,,word,LEMON,,,,,,,,,,,,
html-keyboard-response,425,1043495,null,"<div style=""font-size:42px;"">GYMNAST</div><img id = ""stim"" ><div class = red_square id = bottomsquare></div>",null,encoding,word_square,,,0,bottomsquare,none,true,,,GYMNAST,3,,,
html-keyboard-response,426,1043810,null,"<div style=""font-size:42px;"">GYMNAST</div>",null,,word,GYMNAST,,,,,,,,,,,,
html-keyboard-response,427,1045323,null,"",null,,word,GYMNAST,,,,,,,,,,,,
html-keyboard-response,428,1045526,null,"<div style=""font-size:42px;"">PASSAGE</div><img id = ""stim"" ><div class = green_square id = bottomsquare></div>",null,encoding,word_square,,,1,bottomsquare,32,true,,,PASSAGE,3,,,
html-keyboard-response,429,1045829,null,"<div style=""font-size:42px;"">PASSAGE</div>",null,,word,PASSAGE,,,,,,,,,,,,
html-keyboard-response,430,1047335,6,"",32,,word,PASSAGE,,,,,,,,,,,,
html-keyboard-response,431,1047543,null,"<div style=""font-size:42px;"">COOK</div><img id = ""stim"" ><div class = green_square id = topsquare></div>",null,encoding,word_square,,,1,topsquare,32,true,,,COOK,3,,,
html-keyboard-response,432,1047845,277,"<div style=""font-size:42px;"">COOK</div>",32,,word,COOK,,,,,,,,,,,,
html-keyboard-response,433,1049354,null,"",null,,word,COOK,,,,,,,,,,,,
html-keyboard-response,434,1049559,null,"<div style=""font-size:42px;"">SNACK</div><img id = ""stim"" ><div class = red_square id = topsquare></div>",null,encoding,word_square,,,0,topsquare,none,true,,,SNACK,3,,,
html-keyboard-response,435,1049874,null,"<div style=""font-size:42px;"">SNACK</div>",null,,word,SNACK,,,,,,,,,,,,
html-keyboard-response,436,1051378,null,"",null,,word,SNACK,,,,,,,,,,,,
html-keyboard-response,437,1051582,null,"<div style=""font-size:42px;"">OATMEAL</div><img id = ""stim"" ><div class = green_square id = bottomsquare></div>",null,encoding,word_square,,,1,bottomsquare,32,true,,,OATMEAL,3,,,
html-keyboard-response,438,1051885,166,"<div style=""font-size:42px;"">OATMEAL</div>",32,,word,OATMEAL,,,,,,,,,,,,
html-keyboard-response,439,1053391,null,"",null,,word,OATMEAL,,,,,,,,,,,,
html-keyboard-response,440,1053597,null,"<div style=""font-size:42px;"">HEART</div><img id = ""stim"" ><div class = green_square id = topsquare></div>",null,encoding,word_square,,,1,topsquare,32,true,,,HEART,3,,,
html-keyboard-response,441,1053912,null,"<div style=""font-size:42px;"">HEART</div>",null,,word,HEART,,,,,,,,,,,,
html-keyboard-response,442,1055415,19,"",32,,word,HEART,,,,,,,,,,,,
html-keyboard-response,443,1055619,null,"<div style=""font-size:42px;"">SHRUB</div><img id = ""stim"" ><div class = red_square id = bottomsquare></div>",null,encoding,word_square,,,0,bottomsquare,none,true,,,SHRUB,3,,,
html-keyboard-response,444,1055934,null,"<div style=""font-size:42px;"">SHRUB</div>",null,,word,SHRUB,,,,,,,,,,,,
html-keyboard-response,445,1057436,null,"",null,,word,SHRUB,,,,,,,,,,,,
html-keyboard-response,446,1057643,null,"<div style=""font-size:42px;"">KEEPER</div><img id = ""stim"" ><div class = red_square id = topsquare></div>",null,encoding,word_square,,,0,topsquare,none,true,,,KEEPER,3,,,
html-keyboard-response,447,1057959,null,"<div style=""font-size:42px;"">KEEPER</div>",null,,word,KEEPER,,,,,,,,,,,,
html-keyboard-response,448,1059462,null,"",null,,word,KEEPER,,,,,,,,,,,,
html-keyboard-response,449,1059667,null,"<div style=""font-size:42px;"">WAITRESS</div><img id = ""stim"" ><div class = red_square id = bottomsquare></div>",null,encoding,word_square,,,0,bottomsquare,none,true,,,WAITRESS,3,,,
html-keyboard-response,450,1059983,null,"<div style=""font-size:42px;"">WAITRESS</div>",null,,word,WAITRESS,,,,,,,,,,,,
html-keyboard-response,451,1061488,null,"",null,,word,WAITRESS,,,,,,,,,,,,
call-function,452,1061488,,"",,,,,,,,,,,,,,,,
html-keyboard-response,453,1061589,null,"",null,,,,,,,,,,,,,,,
math-period,454,1064067,4784,"",,,,,,,,,,,1,,,,,
html-keyboard-response,455,1064170,null,"",null,,,,,,,,,,,,,,,
math-period,456,1065603,2575,"",,,,,,,,,,,4,,,,,
html-keyboard-response,457,1065711,null,"",null,,,,,,,,,,,,,,,
math-period,458,1067074,2458,"",,,,,,,,,,,3,,,,,
html-keyboard-response,459,1067181,null,"",null,,,,,,,,,,,,,,,
math-period,460,1069882,5062,"",,,,,,,,,,,5,,,,,
html-keyboard-response,461,1069992,null,"",null,,,,,,,,,,,,,,,
math-period,462,1072290,4432,"",,,,,,,,,,,1,,,,,
html-keyboard-response,463,1072398,null,"",null,,,,,,,,,,,,,,,
math-period,464,1074050,3059,"",,,,,,,,,,,4,,,,,
html-keyboard-response,465,1074166,null,"",null,,,,,,,,,,,,,,,
math-period,466,1075809,3122,"",,,,,,,,,,,1,,,,,
html-keyboard-response,467,1075925,null,"",null,,,,,,,,,,,,,,,
math-period,468,1078113,3700,"",,,,,,,,,,,5,,,,,
html-keyboard-response,469,1078226,null,"",null,,,,,,,,,,,,,,,
math-period,470,1079705,2786,"",,,,,,,,,,,2,,,,,
html-keyboard-response,471,1079807,null,"",null,,,,,,,,,,,,,,,
math-period,472,1082137,4344,"",,,,,,,,,,,4,,,,,
html-keyboard-response,473,1082250,null,"",null,,,,,,,,,,,,,,,
math-period,474,1083512,2329,"",,,,,,,,,,,3,,,,,
html-keyboard-response,475,1083628,null,"",null,,,,,,,,,,,,,,,
math-period,476,1085493,1611,"",,,,,,,,,,,4,,,,,
html-keyboard-response,477,1086509,null,"Recall Period!",null,,,,,,,,,,,,,,,
call-function,478,1086511,,"",,,,,,,,,,,,,,,,
html-keyboard-response,479,1086611,null,"",null,,,,,,,,,,,,,,,
recall-period,480,1088592,9818,"",,,,,,,,,,,crook,,,,,
html-keyboard-response,481,1088705,null,"",null,,,,,,,,,,,,,,,
recall-period,482,1089952,5889,"",,,,,,,,,,,serpent,,,,,
html-keyboard-response,483,1090064,null,"",null,,,,,,,,,,,,,,,
recall-period,484,1091544,2956,"",,,,,,,,,,,canal,,,,,
html-keyboard-response,485,1091645,null,"",null,,,,,,,,,,,,,,,
recall-period,486,1161513,null,"",,,,,,,,,,,,,,,,
html-keyboard-response,487,1162020,null,"Time's Up!",null,,,,,,,,,,,,,,,
html-keyboard-response,488,1163231,1210,"<p> Good job! You have responded correctly to 100% of the trials. </p>
                      <p>Be sure to only press the spacebar if you see a GREEN square, and please keep your accuracy above 80%.</p>
                      <p> Press any key to continue the experiment. </p>",32,,,,,,,,,,,,,,,
html-keyboard-response,489,1165478,2246,"<div style=""font-size:48px;"">Press any key to begin list 5 of 16 </div>",32,,,,,,,,,,,,,,,
html-keyboard-response,490,1167988,null,"<div style=""font-size:60px;"">+</div>",null,,,,,,,,,,,,,,,
html-keyboard-response,491,1168194,null,"<div style=""font-size:42px;"">TART</div><img id = ""stim"" ><div class = green_square id = topsquare></div>",null,encoding,word_square,,,1,topsquare,32,true,,,TART,4,,,
html-keyboard-response,492,1168495,211,"<div style=""font-size:42px;"">TART</div>",32,,word,TART,,,,,,,,,,,,
html-keyboard-response,493,1169999,null,"",null,,word,TART,,,,,,,,,,,,
html-keyboard-response,494,1170206,null,"<div style=""font-size:42px;"">CLERK</div><img id = ""stim"" ><div class = red_square id = bottomsquare></div>",null,encoding,word_square,,,0,bottomsquare,none,true,,,CLERK,4,,,
html-keyboard-response,495,1170510,null,"<div style=""font-size:42px;"">CLERK</div>",null,,word,CLERK,,,,,,,,,,,,
html-keyboard-response,496,1172026,null,"",null,,word,CLERK,,,,,,,,,,,,
html-keyboard-response,497,1172229,null,"<div style=""font-size:42px;"">FIREMAN</div><img id = ""stim"" ><div class = red_square id = topsquare></div>",null,encoding,word_square,,,0,topsquare,none,true,,,FIREMAN,4,,,
html-keyboard-response,498,1172543,null,"<div style=""font-size:42px;"">FIREMAN</div>",null,,word,FIREMAN,,,,,,,,,,,,
html-keyboard-response,499,1174044,null,"",null,,word,FIREMAN,,,,,,,,,,,,
html-keyboard-response,500,1174250,null,"<div style=""font-size:42px;"">BLENDER</div><img id = ""stim"" ><div class = green_square id = bottomsquare></div>",null,encoding,word_square,,,1,bottomsquare,32,true,,,BLENDER,4,,,
html-keyboard-response,501,1174551,211,"<div style=""font-size:42px;"">BLENDER</div>",32,,word,BLENDER,,,,,,,,,,,,
html-keyboard-response,502,1176061,null,"",null,,word,BLENDER,,,,,,,,,,,,
html-keyboard-response,503,1176267,null,"<div style=""font-size:42px;"">PISTON</div><img id = ""stim"" ><div class = red_square id = bottomsquare></div>",null,encoding,word_square,,,0,bottomsquare,none,true,,,PISTON,4,,,
html-keyboard-response,504,1176569,null,"<div style=""font-size:42px;"">PISTON</div>",null,,word,PISTON,,,,,,,,,,,,
html-keyboard-response,505,1178079,null,"",null,,word,PISTON,,,,,,,,,,,,
html-keyboard-response,506,1178285,null,"<div style=""font-size:42px;"">PRIEST</div><img id = ""stim"" ><div class = green_square id = topsquare></div>",null,encoding,word_square,,,1,topsquare,32,true,,,PRIEST,4,,,
html-keyboard-response,507,1178589,206,"<div style=""font-size:42px;"">PRIEST</div>",32,,word,PRIEST,,,,,,,,,,,,
html-keyboard-response,508,1180094,null,"",null,,word,PRIEST,,,,,,,,,,,,
html-keyboard-response,509,1180299,null,"<div style=""font-size:42px;"">SPHINX</div><img id = ""stim"" ><div class = green_square id = bottomsquare></div>",null,encoding,word_square,,,1,bottomsquare,32,true,,,SPHINX,4,,,
html-keyboard-response,510,1180614,null,"<div style=""font-size:42px;"">SPHINX</div>",null,,word,SPHINX,,,,,,,,,,,,
html-keyboard-response,511,1182119,157,"",32,,word,SPHINX,,,,,,,,,,,,
html-keyboard-response,512,1182326,null,"<div style=""font-size:42px;"">PANTHER</div><img id = ""stim"" ><div class = green_square id = topsquare></div>",null,encoding,word_square,,,1,topsquare,32,true,,,PANTHER,4,,,
html-keyboard-response,513,1182627,246,"<div style=""font-size:42px;"">PANTHER</div>",32,,word,PANTHER,,,,,,,,,,,,
html-keyboard-response,514,1184134,null,"",null,,word,PANTHER,,,,,,,,,,,,
html-keyboard-response,515,1184339,null,"<div style=""font-size:42px;"">JOKER</div><img id = ""stim"" ><div class = red_square id = topsquare></div>",null,encoding,word_square,,,0,topsquare,none,true,,,JOKER,4,,,
html-keyboard-response,516,1184653,null,"<div style=""font-size:42px;"">JOKER</div>",null,,word,JOKER,,,,,,,,,,,,
html-keyboard-response,517,1186166,null,"",null,,word,JOKER,,,,,,,,,,,,
html-keyboard-response,518,1186370,null,"<div style=""font-size:42px;"">PAPER</div><img id = ""stim"" ><div class = red_square id = bottomsquare></div>",null,encoding,word_square,,,0,bottomsquare,none,true,,,PAPER,4,,,
html-keyboard-response,519,1186684,null,"<div style=""font-size:42px;"">PAPER</div>",null,,word,PAPER,,,,,,,,,,,,
html-keyboard-response,520,1188189,null,"",null,,word,PAPER,,,,,,,,,,,,
html-keyboard-response,521,1188395,null,"<div style=""font-size:42px;"">JUDGE</div><img id = ""stim"" ><div class = green_square id = bottomsquare></div>",null,encoding,word_square,,,1,bottomsquare,32,true,,,JUDGE,4,,,
html-keyboard-response,522,1188696,176,"<div style=""font-size:42px;"">JUDGE</div>",32,,word,JUDGE,,,,,,,,,,,,
html-keyboard-response,523,1190211,null,"",null,,word,JUDGE,,,,,,,,,,,,
html-keyboard-response,524,1190415,null,"<div style=""font-size:42px;"">JELLY</div><img id = ""stim"" ><div class = green_square id = topsquare></div>",null,encoding,word_square,,,1,topsquare,32,true,,,JELLY,4,,,
html-keyboard-response,525,1190717,null,"<div style=""font-size:42px;"">JELLY</div>",null,,word,JELLY,,,,,,,,,,,,
html-keyboard-response,526,1192218,94,"",32,,word,JELLY,,,,,,,,,,,,
html-keyboard-response,527,1192424,null,"<div style=""font-size:42px;"">GRAVE</div><img id = ""stim"" ><div class = red_square id = topsquare></div>",null,encoding,word_square,,,0,topsquare,none,true,,,GRAVE,4,,,
html-keyboard-response,528,1192726,null,"<div style=""font-size:42px;"">GRAVE</div>",null,,word,GRAVE,,,,,,,,,,,,
html-keyboard-response,529,1194234,null,"",null,,word,GRAVE,,,,,,,,,,,,
html-keyboard-response,530,1194438,null,"<div style=""font-size:42px;"">TOMBSTONE</div><img id = ""stim"" ><div class = red_square id = bottomsquare></div>",null,encoding,word_square,,,0,bottomsquare,none,true,,,TOMBSTONE,4,,,
html-keyboard-response,531,1194741,null,"<div style=""font-size:42px;"">TOMBSTONE</div>",null,,word,TOMBSTONE,,,,,,,,,,,,
html-keyboard-response,532,1196245,null,"",null,,word,TOMBSTONE,,,,,,,,,,,,
html-keyboard-response,533,1196449,null,"<div style=""font-size:42px;"">DRILL</div><img id = ""stim"" ><div class = green_square id = bottomsquare></div>",null,encoding,word_square,,,1,bottomsquare,32,true,,,DRILL,4,,,
html-keyboard-response,534,1196751,176,"<div style=""font-size:42px;"">DRILL</div>",32,,word,DRILL,,,,,,,,,,,,
html-keyboard-response,535,1198260,null,"",null,,word,DRILL,,,,,,,,,,,,
html-keyboard-response,536,1198464,null,"<div style=""font-size:42px;"">CONCRETE</div><img id = ""stim"" ><div class = red_square id = topsquare></div>",null,encoding,word_square,,,0,topsquare,none,true,,,CONCRETE,4,,,
html-keyboard-response,537,1198769,null,"<div style=""font-size:42px;"">CONCRETE</div>",null,,word,CONCRETE,,,,,,,,,,,,
html-keyboard-response,538,1200278,null,"",null,,word,CONCRETE,,,,,,,,,,,,
call-function,539,1200279,,"",,,,,,,,,,,,,,,,
html-keyboard-response,540,1200381,null,"",null,,,,,,,,,,,,,,,
math-period,541,1201954,2687,"",,,,,,,,,,,3,,,,,
html-keyboard-response,542,1202056,null,"",null,,,,,,,,,,,,,,,
math-period,543,1203298,2279,"",,,,,,,,,,,4,,,,,
html-keyboard-response,544,1203405,null,"",null,,,,,,,,,,,,,,,
math-period,545,1204690,2343,"",,,,,,,,,,,2,,,,,
html-keyboard-response,546,1204793,null,"",null,,,,,,,,,,,,,,,
math-period,547,1205657,1596,"",,,,,,,,,,,2,,,,,
html-keyboard-response,548,1205766,null,"",null,,,,,,,,,,,,,,,
math-period,549,1208497,5010,"",,,,,,,,,,,3,,,,,
html-keyboard-response,550,1208598,null,"",null,,,,,,,,,,,,,,,
math-period,551,1210569,3394,"",,,,,,,,,,,1,,,,,
html-keyboard-response,552,1210670,null,"",null,,,,,,,,,,,,,,,
math-period,553,1211992,2420,"",,,,,,,,,,,4,,,,,
html-keyboard-response,554,1212094,null,"",null,,,,,,,,,,,,,,,
math-period,555,1214232,4065,"",,,,,,,,,,,0,,,,,
html-keyboard-response,556,1214333,null,"",null,,,,,,,,,,,,,,,
math-period,557,1216098,3284,"",,,,,,,,,,,2,,,,,
html-keyboard-response,558,1216207,null,"",null,,,,,,,,,,,,,,,
math-period,559,1217616,2639,"",,,,,,,,,,,1,,,,,
html-keyboard-response,560,1217719,null,"",null,,,,,,,,,,,,,,,
math-period,561,1219840,4014,"",,,,,,,,,,,3,,,,,
html-keyboard-response,562,1219941,null,"",null,,,,,,,,,,,,,,,
math-period,563,1223631,7122,"",,,,,,,,,,,0,,,,,
html-keyboard-response,564,1223732,null,"",null,,,,,,,,,,,,,,,
math-period,565,1224289,null,"",,,,,,,,,,,,,,,,
html-keyboard-response,566,1225300,null,"Recall Period!",null,,,,,,,,,,,,,,,
call-function,567,1225301,,"",,,,,,,,,,,,,,,,
html-keyboard-response,568,1225409,null,"",null,,,,,,,,,,,,,,,
recall-period,569,1226799,5062,"",,,,,,,,,,,tart,,,,,
html-keyboard-response,570,1226903,null,"",null,,,,,,,,,,,,,,,
recall-period,571,1227919,5160,"",,,,,,,,,,,blender,,,,,
html-keyboard-response,572,1228023,null,"",null,,,,,,,,,,,,,,,
recall-period,573,1228855,3211,"",,,,,,,,,,,priest,,,,,
html-keyboard-response,574,1228970,null,"",null,,,,,,,,,,,,,,,
recall-period,575,1230094,3556,"",,,,,,,,,,,sphinx,,,,,
html-keyboard-response,576,1230199,null,"",null,,,,,,,,,,,,,,,
recall-period,577,1300306,null,"",,,,,,,,,,,,,,,,
html-keyboard-response,578,1300811,null,"Time's Up!",null,,,,,,,,,,,,,,,
html-keyboard-response,579,1302912,2098,"<p> Good job! You have responded correctly to 100% of the trials. </p>
                      <p>Be sure to only press the spacebar if you see a GREEN square, and please keep your accuracy above 80%.</p>
                      <p> Press any key to continue the experiment. </p>",13,,,,,,,,,,,,,,,
html-keyboard-response,580,1304119,1206,"<div style=""font-size:48px;"">Press any key to begin list 6 of 16 </div>",32,,,,,,,,,,,,,,,
html-keyboard-response,581,1306635,null,"<div style=""font-size:60px;"">+</div>",null,,,,,,,,,,,,,,,
html-keyboard-response,582,1306840,null,"<div style=""font-size:42px;"">NAPKIN</div><img id = ""stim"" ><div class = red_square id = topsquare></div>",null,encoding,word_square,,,0,topsquare,none,true,,,NAPKIN,5,,,
html-keyboard-response,583,1307154,null,"<div style=""font-size:42px;"">NAPKIN</div>",null,,word,NAPKIN,,,,,,,,,,,,
html-keyboard-response,584,1308666,null,"",null,,word,NAPKIN,,,,,,,,,,,,
html-keyboard-response,585,1308870,null,"<div style=""font-size:42px;"">SURGEON</div><img id = ""stim"" ><div class = green_square id = bottomsquare></div>",null,encoding,word_square,,,1,bottomsquare,32,true,,,SURGEON,5,,,
html-keyboard-response,586,1309172,261,"<div style=""font-size:42px;"">SURGEON</div>",32,,word,SURGEON,,,,,,,,,,,,
html-keyboard-response,587,1310688,null,"",null,,word,SURGEON,,,,,,,,,,,,
html-keyboard-response,588,1310893,null,"<div style=""font-size:42px;"">STAKE</div><img id = ""stim"" ><div class = red_square id = bottomsquare></div>",null,encoding,word_square,,,0,bottomsquare,none,true,,,STAKE,5,,,
html-keyboard-response,589,1311207,null,"<div style=""font-size:42px;"">STAKE</div>",null,,word,STAKE,,,,,,,,,,,,
html-keyboard-response,590,1312722,null,"",null,,word,STAKE,,,,,,,,,,,,
html-keyboard-response,591,1312929,null,"<div style=""font-size:42px;"">CORAL</div><img id = ""stim"" ><div class = red_square id = topsquare></div>",null,encoding,word_square,,,0,topsquare,none,true,,,CORAL,5,,,
html-keyboard-response,592,1313245,null,"<div style=""font-size:42px;"">CORAL</div>",null,,word,CORAL,,,,,,,,,,,,
html-keyboard-response,593,1314748,null,"",null,,word,CORAL,,,,,,,,,,,,
html-keyboard-response,594,1314954,null,"<div style=""font-size:42px;"">PEBBLE</div><img id = ""stim"" ><div class = green_square id = topsquare></div>",null,encoding,word_square,,,1,topsquare,32,true,,,PEBBLE,5,,,
html-keyboard-response,595,1315257,178,"<div style=""font-size:42px;"">PEBBLE</div>",32,,word,PEBBLE,,,,,,,,,,,,
html-keyboard-response,596,1316767,null,"",null,,word,PEBBLE,,,,,,,,,,,,
html-keyboard-response,597,1316972,null,"<div style=""font-size:42px;"">STRING</div><img id = ""stim"" ><div class = green_square id = bottomsquare></div>",null,encoding,word_square,,,1,bottomsquare,32,true,,,STRING,5,,,
html-keyboard-response,598,1317277,304,"<div style=""font-size:42px;"">STRING</div>",32,,word,STRING,,,,,,,,,,,,
html-keyboard-response,599,1318786,null,"",null,,word,STRING,,,,,,,,,,,,
html-keyboard-response,600,1318992,null,"<div style=""font-size:42px;"">ATHLETE</div><img id = ""stim"" ><div class = red_square id = bottomsquare></div>",null,encoding,word_square,,,0,bottomsquare,none,true,,,ATHLETE,5,,,
html-keyboard-response,601,1319309,null,"<div style=""font-size:42px;"">ATHLETE</div>",null,,word,ATHLETE,,,,,,,,,,,,
html-keyboard-response,602,1320814,null,"",null,,word,ATHLETE,,,,,,,,,,,,
html-keyboard-response,603,1321018,null,"<div style=""font-size:42px;"">COUNTY</div><img id = ""stim"" ><div class = red_square id = topsquare></div>",null,encoding,word_square,,,0,topsquare,none,true,,,COUNTY,5,,,
html-keyboard-response,604,1321333,null,"<div style=""font-size:42px;"">COUNTY</div>",null,,word,COUNTY,,,,,,,,,,,,
html-keyboard-response,605,1322837,null,"",null,,word,COUNTY,,,,,,,,,,,,
html-keyboard-response,606,1323041,null,"<div style=""font-size:42px;"">NOVEL</div><img id = ""stim"" ><div class = green_square id = topsquare></div>",null,encoding,word_square,,,1,topsquare,32,true,,,NOVEL,5,,,
html-keyboard-response,607,1323343,217,"<div style=""font-size:42px;"">NOVEL</div>",32,,word,NOVEL,,,,,,,,,,,,
html-keyboard-response,608,1324860,null,"",null,,word,NOVEL,,,,,,,,,,,,
html-keyboard-response,609,1325065,null,"<div style=""font-size:42px;"">MISTER</div><img id = ""stim"" ><div class = green_square id = bottomsquare></div>",null,encoding,word_square,,,1,bottomsquare,32,true,,,MISTER,5,,,
html-keyboard-response,610,1325381,null,"<div style=""font-size:42px;"">MISTER</div>",null,,word,MISTER,,,,,,,,,,,,
html-keyboard-response,611,1326896,77,"",32,,word,MISTER,,,,,,,,,,,,
html-keyboard-response,612,1327101,null,"<div style=""font-size:42px;"">PAVEMENT</div><img id = ""stim"" ><div class = green_square id = topsquare></div>",null,encoding,word_square,,,1,topsquare,32,true,,,PAVEMENT,5,,,
html-keyboard-response,613,1327416,null,"<div style=""font-size:42px;"">PAVEMENT</div>",null,,word,PAVEMENT,,,,,,,,,,,,
html-keyboard-response,614,1328922,441,"",32,,word,PAVEMENT,,,,,,,,,,,,
html-keyboard-response,615,1329129,null,"<div style=""font-size:42px;"">SOFA</div><img id = ""stim"" ><div class = red_square id = bottomsquare></div>",null,encoding,word_square,,,0,bottomsquare,none,true,,,SOFA,5,,,
html-keyboard-response,616,1329445,null,"<div style=""font-size:42px;"">SOFA</div>",null,,word,SOFA,,,,,,,,,,,,
html-keyboard-response,617,1330957,null,"",null,,word,SOFA,,,,,,,,,,,,
html-keyboard-response,618,1331162,null,"<div style=""font-size:42px;"">TRIBE</div><img id = ""stim"" ><div class = green_square id = bottomsquare></div>",null,encoding,word_square,,,1,bottomsquare,32,true,,,TRIBE,5,,,
html-keyboard-response,619,1331476,207,"<div style=""font-size:42px;"">TRIBE</div>",32,,word,TRIBE,,,,,,,,,,,,
html-keyboard-response,620,1332993,null,"",null,,word,TRIBE,,,,,,,,,,,,
html-keyboard-response,621,1333197,null,"<div style=""font-size:42px;"">NOMAD</div><img id = ""stim"" ><div class = red_square id = topsquare></div>",null,encoding,word_square,,,0,topsquare,none,true,,,NOMAD,5,,,
html-keyboard-response,622,1333510,null,"<div style=""font-size:42px;"">NOMAD</div>",null,,word,NOMAD,,,,,,,,,,,,
html-keyboard-response,623,1335015,null,"",null,,word,NOMAD,,,,,,,,,,,,
html-keyboard-response,624,1335220,null,"<div style=""font-size:42px;"">DIVER</div><img id = ""stim"" ><div class = red_square id = bottomsquare></div>",null,encoding,word_square,,,0,bottomsquare,none,true,,,DIVER,5,,,
html-keyboard-response,625,1335537,null,"<div style=""font-size:42px;"">DIVER</div>",null,,word,DIVER,,,,,,,,,,,,
html-keyboard-response,626,1337053,null,"",null,,word,DIVER,,,,,,,,,,,,
html-keyboard-response,627,1337258,null,"<div style=""font-size:42px;"">RAFT</div><img id = ""stim"" ><div class = green_square id = topsquare></div>",null,encoding,word_square,,,1,topsquare,32,true,,,RAFT,5,,,
html-keyboard-response,628,1337559,238,"<div style=""font-size:42px;"">RAFT</div>",32,,word,RAFT,,,,,,,,,,,,
html-keyboard-response,629,1339075,null,"",null,,word,RAFT,,,,,,,,,,,,
call-function,630,1339076,,"",,,,,,,,,,,,,,,,
html-keyboard-response,631,1339178,null,"",null,,,,,,,,,,,,,,,
math-period,632,1341329,4011,"",,,,,,,,,,,3,,,,,
html-keyboard-response,633,1341429,null,"",null,,,,,,,,,,,,,,,
math-period,634,1342808,4430,"",,,,,,,,,,,4,,,,,
html-keyboard-response,635,1342916,null,"",null,,,,,,,,,,,,,,,
math-period,636,1344385,2653,"",,,,,,,,,,,6,,,,,
html-keyboard-response,637,1344488,null,"",null,,,,,,,,,,,,,,,
math-period,638,1349008,17148,"",,,,,,,,,,,2,,,,,
html-keyboard-response,639,1349111,null,"",null,,,,,,,,,,,,,,,
math-period,640,1350512,2614,"",,,,,,,,,,,2,,,,,
html-keyboard-response,641,1350614,null,"",null,,,,,,,,,,,,,,,
math-period,642,1356224,8617,"",,,,,,,,,,,2,,,,,
html-keyboard-response,643,1356325,null,"",null,,,,,,,,,,,,,,,
math-period,644,1359064,5225,"",,,,,,,,,,,1,,,,,
html-keyboard-response,645,1359173,null,"",null,,,,,,,,,,,,,,,
math-period,646,1361479,4287,"",,,,,,,,,,,2,,,,,
html-keyboard-response,647,1361590,null,"",null,,,,,,,,,,,,,,,
math-period,648,1363088,null,"",,,,,,,,,,,,,,,,
html-keyboard-response,649,1364102,null,"Recall Period!",null,,,,,,,,,,,,,,,
call-function,650,1364103,,"",,,,,,,,,,,,,,,,
html-keyboard-response,651,1364213,null,"",null,,,,,,,,,,,,,,,
recall-period,652,1365670,8352,"",,,,,,,,,,,surgeon,,,,,
html-keyboard-response,653,1365772,null,"",null,,,,,,,,,,,,,,,
recall-period,654,1367246,6399,"",,,,,,,,,,,pebble,,,,,
html-keyboard-response,655,1367363,null,"",null,,,,,,,,,,,,,,,
recall-period,656,1368142,3197,"",,,,,,,,,,,spring,,,,,
html-keyboard-response,657,1368246,null,"",null,,,,,,,,,,,,,,,
recall-period,658,1395963,318649,"",,,,,,,,,,,tiger,,,,,
html-keyboard-response,659,1396067,null,"",null,,,,,,,,,,,,,,,
recall-period,660,1439119,null,"",,,,,,,,,,,,,,,,
html-keyboard-response,661,1439627,null,"Time's Up!",null,,,,,,,,,,,,,,,
html-keyboard-response,662,1440782,1152,"<p> Good job! You have responded correctly to 100% of the trials. </p>
                      <p>Be sure to only press the spacebar if you see a GREEN square, and please keep your accuracy above 80%.</p>
                      <p> Press any key to continue the experiment. </p>",32,,,,,,,,,,,,,,,
html-keyboard-response,663,1442245,1461,"<div style=""font-size:48px;"">Press any key to begin list 7 of 16 </div>",32,,,,,,,,,,,,,,,
html-keyboard-response,664,1444759,null,"<div style=""font-size:60px;"">+</div>",null,,,,,,,,,,,,,,,
html-keyboard-response,665,1444962,null,"<div style=""font-size:42px;"">KEYBOARD</div><img id = ""stim"" ><div class = red_square id = bottomsquare></div>",null,encoding,word_square,,,0,bottomsquare,none,true,,,KEYBOARD,6,,,
html-keyboard-response,666,1445263,null,"<div style=""font-size:42px;"">KEYBOARD</div>",null,,word,KEYBOARD,,,,,,,,,,,,
html-keyboard-response,667,1446765,null,"",null,,word,KEYBOARD,,,,,,,,,,,,
html-keyboard-response,668,1446970,null,"<div style=""font-size:42px;"">AIRCRAFT</div><img id = ""stim"" ><div class = green_square id = topsquare></div>",null,encoding,word_square,,,1,topsquare,32,true,,,AIRCRAFT,6,,,
html-keyboard-response,669,1447272,280,"<div style=""font-size:42px;"">AIRCRAFT</div>",32,,word,AIRCRAFT,,,,,,,,,,,,
html-keyboard-response,670,1448774,null,"",null,,word,AIRCRAFT,,,,,,,,,,,,
html-keyboard-response,671,1448978,null,"<div style=""font-size:42px;"">ROBOT</div><img id = ""stim"" ><div class = green_square id = bottomsquare></div>",null,encoding,word_square,,,1,bottomsquare,32,true,,,ROBOT,6,,,
html-keyboard-response,672,1449280,265,"<div style=""font-size:42px;"">ROBOT</div>",32,,word,ROBOT,,,,,,,,,,,,
html-keyboard-response,673,1450796,null,"",null,,word,ROBOT,,,,,,,,,,,,
html-keyboard-response,674,1451001,null,"<div style=""font-size:42px;"">BULLET</div><img id = ""stim"" ><div class = red_square id = topsquare></div>",null,encoding,word_square,,,0,topsquare,none,true,,,BULLET,6,,,
html-keyboard-response,675,1451315,null,"<div style=""font-size:42px;"">BULLET</div>",null,,word,BULLET,,,,,,,,,,,,
html-keyboard-response,676,1452820,null,"",null,,word,BULLET,,,,,,,,,,,,
html-keyboard-response,677,1453025,null,"<div style=""font-size:42px;"">DRUG</div><img id = ""stim"" ><div class = green_square id = topsquare></div>",null,encoding,word_square,,,1,topsquare,32,true,,,DRUG,6,,,
html-keyboard-response,678,1453328,201,"<div style=""font-size:42px;"">DRUG</div>",32,,word,DRUG,,,,,,,,,,,,
html-keyboard-response,679,1454832,null,"",null,,word,DRUG,,,,,,,,,,,,
html-keyboard-response,680,1455037,null,"<div style=""font-size:42px;"">SPOUSE</div><img id = ""stim"" ><div class = red_square id = bottomsquare></div>",null,encoding,word_square,,,0,bottomsquare,none,true,,,SPOUSE,6,,,
html-keyboard-response,681,1455353,null,"<div style=""font-size:42px;"">SPOUSE</div>",null,,word,SPOUSE,,,,,,,,,,,,
html-keyboard-response,682,1456860,null,"",null,,word,SPOUSE,,,,,,,,,,,,
html-keyboard-response,683,1457065,null,"<div style=""font-size:42px;"">BUSH</div><img id = ""stim"" ><div class = red_square id = topsquare></div>",null,encoding,word_square,,,0,topsquare,none,true,,,BUSH,6,,,
html-keyboard-response,684,1457380,null,"<div style=""font-size:42px;"">BUSH</div>",null,,word,BUSH,,,,,,,,,,,,
html-keyboard-response,685,1458886,null,"",null,,word,BUSH,,,,,,,,,,,,
html-keyboard-response,686,1459093,null,"<div style=""font-size:42px;"">CEILING</div><img id = ""stim"" ><div class = red_square id = bottomsquare></div>",null,encoding,word_square,,,0,bottomsquare,none,true,,,CEILING,6,,,
html-keyboard-response,687,1459408,null,"<div style=""font-size:42px;"">CEILING</div>",null,,word,CEILING,,,,,,,,,,,,
html-keyboard-response,688,1460914,null,"",null,,word,CEILING,,,,,,,,,,,,
html-keyboard-response,689,1461118,null,"<div style=""font-size:42px;"">CARTON</div><img id = ""stim"" ><div class = green_square id = bottomsquare></div>",null,encoding,word_square,,,1,bottomsquare,32,true,,,CARTON,6,,,
html-keyboard-response,690,1461434,211,"<div style=""font-size:42px;"">CARTON</div>",32,,word,CARTON,,,,,,,,,,,,
html-keyboard-response,691,1462937,null,"",null,,word,CARTON,,,,,,,,,,,,
html-keyboard-response,692,1463141,null,"<div style=""font-size:42px;"">TIMBER</div><img id = ""stim"" ><div class = green_square id = topsquare></div>",null,encoding,word_square,,,1,topsquare,32,false,,,TIMBER,6,,,
html-keyboard-response,693,1463443,null,"<div style=""font-size:42px;"">TIMBER</div>",null,,word,TIMBER,,,,,,,,,,,,
html-keyboard-response,694,1464949,null,"",null,,word,TIMBER,,,,,,,,,,,,
html-keyboard-response,695,1465154,null,"<div style=""font-size:42px;"">LEOPARD</div><img id = ""stim"" ><div class = red_square id = topsquare></div>",null,encoding,word_square,,,0,topsquare,none,true,,,LEOPARD,6,,,
html-keyboard-response,696,1465470,null,"<div style=""font-size:42px;"">LEOPARD</div>",null,,word,LEOPARD,,,,,,,,,,,,
html-keyboard-response,697,1466977,null,"",null,,word,LEOPARD,,,,,,,,,,,,
html-keyboard-response,698,1467180,null,"<div style=""font-size:42px;"">HUMAN</div><img id = ""stim"" ><div class = red_square id = bottomsquare></div>",null,encoding,word_square,,,0,bottomsquare,none,true,,,HUMAN,6,,,
html-keyboard-response,699,1467497,null,"<div style=""font-size:42px;"">HUMAN</div>",null,,word,HUMAN,,,,,,,,,,,,
html-keyboard-response,700,1469009,null,"",null,,word,HUMAN,,,,,,,,,,,,
html-keyboard-response,701,1469215,null,"<div style=""font-size:42px;"">CREATURE</div><img id = ""stim"" ><div class = green_square id = bottomsquare></div>",null,encoding,word_square,,,1,bottomsquare,32,true,,,CREATURE,6,,,
html-keyboard-response,702,1469531,202,"<div style=""font-size:42px;"">CREATURE</div>",32,,word,CREATURE,,,,,,,,,,,,
html-keyboard-response,703,1471034,null,"",null,,word,CREATURE,,,,,,,,,,,,
html-keyboard-response,704,1471238,null,"<div style=""font-size:42px;"">LIVER</div><img id = ""stim"" ><div class = green_square id = topsquare></div>",null,encoding,word_square,,,1,topsquare,32,true,,,LIVER,6,,,
html-keyboard-response,705,1471540,null,"<div style=""font-size:42px;"">LIVER</div>",null,,word,LIVER,,,,,,,,,,,,
html-keyboard-response,706,1473055,164,"",32,,word,LIVER,,,,,,,,,,,,
html-keyboard-response,707,1473259,null,"<div style=""font-size:42px;"">BUTCHER</div><img id = ""stim"" ><div class = red_square id = topsquare></div>",null,encoding,word_square,,,0,topsquare,none,true,,,BUTCHER,6,,,
html-keyboard-response,708,1473575,null,"<div style=""font-size:42px;"">BUTCHER</div>",null,,word,BUTCHER,,,,,,,,,,,,
html-keyboard-response,709,1475078,null,"",null,,word,BUTCHER,,,,,,,,,,,,
html-keyboard-response,710,1475283,null,"<div style=""font-size:42px;"">BUCKET</div><img id = ""stim"" ><div class = green_square id = bottomsquare></div>",null,encoding,word_square,,,1,bottomsquare,32,true,,,BUCKET,6,,,
html-keyboard-response,711,1475594,308,"<div style=""font-size:42px;"">BUCKET</div>",32,,word,BUCKET,,,,,,,,,,,,
html-keyboard-response,712,1477106,null,"",null,,word,BUCKET,,,,,,,,,,,,
call-function,713,1477107,,"",,,,,,,,,,,,,,,,
html-keyboard-response,714,1477208,null,"",null,,,,,,,,,,,,,,,
math-period,715,1480289,5574,"",,,,,,,,,,,5,,,,,
html-keyboard-response,716,1480397,null,"",null,,,,,,,,,,,,,,,
math-period,717,1481696,2225,"",,,,,,,,,,,3,,,,,
html-keyboard-response,718,1481801,null,"",null,,,,,,,,,,,,,,,
math-period,719,1485184,6392,"",,,,,,,,,,,4,,,,,
html-keyboard-response,720,1485296,null,"",null,,,,,,,,,,,,,,,
math-period,721,1486943,3035,"",,,,,,,,,,,5,,,,,
html-keyboard-response,722,1487054,null,"",null,,,,,,,,,,,,,,,
math-period,723,1489327,4200,"",,,,,,,,,,,0,,,,,
html-keyboard-response,724,1489441,null,"",null,,,,,,,,,,,,,,,
math-period,725,1491095,3176,"",,,,,,,,,,,1,,,,,
html-keyboard-response,726,1491211,null,"",null,,,,,,,,,,,,,,,
math-period,727,1492639,2669,"",,,,,,,,,,,3,,,,,
html-keyboard-response,728,1492743,null,"",null,,,,,,,,,,,,,,,
math-period,729,1493744,1838,"",,,,,,,,,,,2,,,,,
html-keyboard-response,730,1493852,null,"",null,,,,,,,,,,,,,,,
math-period,731,1495575,3170,"",,,,,,,,,,,5,,,,,
html-keyboard-response,732,1495689,null,"",null,,,,,,,,,,,,,,,
math-period,733,1498166,3886,"",,,,,,,,,,,2,,,,,
html-keyboard-response,734,1498270,null,"",null,,,,,,,,,,,,,,,
math-period,735,1499638,2581,"",,,,,,,,,,,2,,,,,
html-keyboard-response,736,1499741,null,"",null,,,,,,,,,,,,,,,
math-period,737,1501120,null,"",,,,,,,,,,,,,,,,
html-keyboard-response,738,1502133,null,"Recall Period!",null,,,,,,,,,,,,,,,
call-function,739,1502133,,"",,,,,,,,,,,,,,,,
html-keyboard-response,740,1502245,null,"",null,,,,,,,,,,,,,,,
recall-period,741,1503813,9278,"",,,,,,,,,,,aircraft,,,,,
html-keyboard-response,742,1503917,null,"",null,,,,,,,,,,,,,,,
recall-period,743,1504573,2133,"",,,,,,,,,,,robot,,,,,
html-keyboard-response,744,1504681,null,"",null,,,,,,,,,,,,,,,
recall-period,745,1505164,1277,"",,,,,,,,,,,drug,,,,,
html-keyboard-response,746,1505281,null,"",null,,,,,,,,,,,,,,,
recall-period,747,1526106,143116,"",,,,,,,,,,,pencil,,,,,
html-keyboard-response,748,1526221,null,"",null,,,,,,,,,,,,,,,
recall-period,749,1577135,null,"",,,,,,,,,,,,,,,,
html-keyboard-response,750,1577638,null,"Time's Up!",null,,,,,,,,,,,,,,,
html-keyboard-response,751,1579517,1877,"<p> Good job! You have responded correctly to 99% of the trials. </p>
                      <p>Be sure to only press the spacebar if you see a GREEN square, and please keep your accuracy above 80%.</p>
                      <p> Press any key to continue the experiment. </p>",32,,,,,,,,,,,,,,,
html-keyboard-response,752,1580804,1285,"<div style=""font-size:48px;"">Press any key to begin list 8 of 16 </div>",32,,,,,,,,,,,,,,,
html-keyboard-response,753,1583311,null,"<div style=""font-size:60px;"">+</div>",null,,,,,,,,,,,,,,,
html-keyboard-response,754,1583517,null,"<div style=""font-size:42px;"">BARREL</div><img id = ""stim"" ><div class = green_square id = bottomsquare></div>",null,encoding,word_square,,,1,bottomsquare,32,true,,,BARREL,7,,,
html-keyboard-response,755,1583833,205,"<div style=""font-size:42px;"">BARREL</div>",32,,word,BARREL,,,,,,,,,,,,
html-keyboard-response,756,1585343,null,"",null,,word,BARREL,,,,,,,,,,,,
html-keyboard-response,757,1585549,null,"<div style=""font-size:42px;"">SPOON</div><img id = ""stim"" ><div class = red_square id = topsquare></div>",null,encoding,word_square,,,0,topsquare,none,true,,,SPOON,7,,,
html-keyboard-response,758,1585852,null,"<div style=""font-size:42px;"">SPOON</div>",null,,word,SPOON,,,,,,,,,,,,
html-keyboard-response,759,1587367,null,"",null,,word,SPOON,,,,,,,,,,,,
html-keyboard-response,760,1587573,null,"<div style=""font-size:42px;"">PARTY</div><img id = ""stim"" ><div class = green_square id = topsquare></div>",null,encoding,word_square,,,1,topsquare,32,true,,,PARTY,7,,,
html-keyboard-response,761,1587875,205,"<div style=""font-size:42px;"">PARTY</div>",32,,word,PARTY,,,,,,,,,,,,
html-keyboard-response,762,1589378,null,"",null,,word,PARTY,,,,,,,,,,,,
html-keyboard-response,763,1589583,null,"<div style=""font-size:42px;"">UMPIRE</div><img id = ""stim"" ><div class = green_square id = bottomsquare></div>",null,encoding,word_square,,,1,bottomsquare,32,true,,,UMPIRE,7,,,
html-keyboard-response,764,1589886,187,"<div style=""font-size:42px;"">UMPIRE</div>",32,,word,UMPIRE,,,,,,,,,,,,
html-keyboard-response,765,1591393,null,"",null,,word,UMPIRE,,,,,,,,,,,,
html-keyboard-response,766,1591599,null,"<div style=""font-size:42px;"">FRIEND</div><img id = ""stim"" ><div class = red_square id = bottomsquare></div>",null,encoding,word_square,,,0,bottomsquare,none,true,,,FRIEND,7,,,
html-keyboard-response,767,1591900,null,"<div style=""font-size:42px;"">FRIEND</div>",null,,word,FRIEND,,,,,,,,,,,,
html-keyboard-response,768,1593406,null,"",null,,word,FRIEND,,,,,,,,,,,,
html-keyboard-response,769,1593611,null,"<div style=""font-size:42px;"">ROBIN</div><img id = ""stim"" ><div class = red_square id = topsquare></div>",null,encoding,word_square,,,0,topsquare,none,true,,,ROBIN,7,,,
html-keyboard-response,770,1593926,null,"<div style=""font-size:42px;"">ROBIN</div>",null,,word,ROBIN,,,,,,,,,,,,
html-keyboard-response,771,1595430,null,"",null,,word,ROBIN,,,,,,,,,,,,
html-keyboard-response,772,1595635,null,"<div style=""font-size:42px;"">SHEPHERD</div><img id = ""stim"" ><div class = green_square id = topsquare></div>",null,encoding,word_square,,,1,topsquare,32,true,,,SHEPHERD,7,,,
html-keyboard-response,773,1595951,150,"<div style=""font-size:42px;"">SHEPHERD</div>",32,,word,SHEPHERD,,,,,,,,,,,,
html-keyboard-response,774,1597455,null,"",null,,word,SHEPHERD,,,,,,,,,,,,
html-keyboard-response,775,1597661,null,"<div style=""font-size:42px;"">TRUCK</div><img id = ""stim"" ><div class = green_square id = bottomsquare></div>",null,encoding,word_square,,,1,bottomsquare,32,true,,,TRUCK,7,,,
html-keyboard-response,776,1597970,307,"<div style=""font-size:42px;"">TRUCK</div>",32,,word,TRUCK,,,,,,,,,,,,
html-keyboard-response,777,1599476,null,"",null,,word,TRUCK,,,,,,,,,,,,
html-keyboard-response,778,1599680,null,"<div style=""font-size:42px;"">JAPAN</div><img id = ""stim"" ><div class = red_square id = bottomsquare></div>",null,encoding,word_square,,,0,bottomsquare,none,true,,,JAPAN,7,,,
html-keyboard-response,779,1599996,null,"<div style=""font-size:42px;"">JAPAN</div>",null,,word,JAPAN,,,,,,,,,,,,
html-keyboard-response,780,1601503,null,"",null,,word,JAPAN,,,,,,,,,,,,
html-keyboard-response,781,1601708,null,"<div style=""font-size:42px;"">ASIA</div><img id = ""stim"" ><div class = red_square id = topsquare></div>",null,encoding,word_square,,,0,topsquare,none,true,,,ASIA,7,,,
html-keyboard-response,782,1602023,null,"<div style=""font-size:42px;"">ASIA</div>",null,,word,ASIA,,,,,,,,,,,,
html-keyboard-response,783,1603528,null,"",null,,word,ASIA,,,,,,,,,,,,
html-keyboard-response,784,1603731,null,"<div style=""font-size:42px;"">SCALPEL</div><img id = ""stim"" ><div class = red_square id = bottomsquare></div>",null,encoding,word_square,,,0,bottomsquare,none,true,,,SCALPEL,7,,,
html-keyboard-response,785,1604045,null,"<div style=""font-size:42px;"">SCALPEL</div>",null,,word,SCALPEL,,,,,,,,,,,,
html-keyboard-response,786,1605552,null,"",null,,word,SCALPEL,,,,,,,,,,,,
html-keyboard-response,787,1605757,null,"<div style=""font-size:42px;"">SEAGULL</div><img id = ""stim"" ><div class = green_square id = topsquare></div>",null,encoding,word_square,,,1,topsquare,32,true,,,SEAGULL,7,,,
html-keyboard-response,788,1606059,282,"<div style=""font-size:42px;"">SEAGULL</div>",32,,word,SEAGULL,,,,,,,,,,,,
html-keyboard-response,789,1607574,null,"",null,,word,SEAGULL,,,,,,,,,,,,
html-keyboard-response,790,1607779,null,"<div style=""font-size:42px;"">SCARECROW</div><img id = ""stim"" ><div class = red_square id = topsquare></div>",null,encoding,word_square,,,0,topsquare,none,true,,,SCARECROW,7,,,
html-keyboard-response,791,1608096,null,"<div style=""font-size:42px;"">SCARECROW</div>",null,,word,SCARECROW,,,,,,,,,,,,
html-keyboard-response,792,1609606,null,"",null,,word,SCARECROW,,,,,,,,,,,,
html-keyboard-response,793,1609813,null,"<div style=""font-size:42px;"">PAINTING</div><img id = ""stim"" ><div class = green_square id = bottomsquare></div>",null,encoding,word_square,,,1,bottomsquare,32,true,,,PAINTING,7,,,
html-keyboard-response,794,1610130,201,"<div style=""font-size:42px;"">PAINTING</div>",32,,word,PAINTING,,,,,,,,,,,,
html-keyboard-response,795,1611633,null,"",null,,word,PAINTING,,,,,,,,,,,,
html-keyboard-response,796,1611839,null,"<div style=""font-size:42px;"">VESSEL</div><img id = ""stim"" ><div class = green_square id = topsquare></div>",null,encoding,word_square,,,1,topsquare,32,true,,,VESSEL,7,,,
html-keyboard-response,797,1612153,null,"<div style=""font-size:42px;"">VESSEL</div>",null,,word,VESSEL,,,,,,,,,,,,
html-keyboard-response,798,1613669,53,"",32,,word,VESSEL,,,,,,,,,,,,
html-keyboard-response,799,1613876,null,"<div style=""font-size:42px;"">ANCHOR</div><img id = ""stim"" ><div class = red_square id = bottomsquare></div>",null,encoding,word_square,,,0,bottomsquare,none,true,,,ANCHOR,7,,,
html-keyboard-response,800,1614191,null,"<div style=""font-size:42px;"">ANCHOR</div>",null,,word,ANCHOR,,,,,,,,,,,,
html-keyboard-response,801,1615697,null,"",null,,word,ANCHOR,,,,,,,,,,,,
call-function,802,1615698,,"",,,,,,,,,,,,,,,,
html-keyboard-response,803,1615799,null,"",null,,,,,,,,,,,,,,,
math-period,804,1618872,4855,"",,,,,,,,,,,1,,,,,
html-keyboard-response,805,1618982,null,"",null,,,,,,,,,,,,,,,
math-period,806,1620568,2762,"",,,,,,,,,,,1,,,,,
html-keyboard-response,807,1620671,null,"",null,,,,,,,,,,,,,,,
math-period,808,1622184,2750,"",,,,,,,,,,,5,,,,,
html-keyboard-response,809,1622288,null,"",null,,,,,,,,,,,,,,,
math-period,810,1623296,1811,"",,,,,,,,,,,3,,,,,
html-keyboard-response,811,1623398,null,"",null,,,,,,,,,,,,,,,
math-period,812,1625215,3446,"",,,,,,,,,,,2,,,,,
html-keyboard-response,813,1625332,null,"",null,,,,,,,,,,,,,,,
math-period,814,1627055,3290,"",,,,,,,,,,,2,,,,,
html-keyboard-response,815,1627159,null,"",null,,,,,,,,,,,,,,,
math-period,816,1629055,3452,"",,,,,,,,,,,2,,,,,
html-keyboard-response,817,1629167,null,"",null,,,,,,,,,,,,,,,
math-period,818,1630527,2508,"",,,,,,,,,,,5,,,,,
html-keyboard-response,819,1630629,null,"",null,,,,,,,,,,,,,,,
math-period,820,1632245,3077,"",,,,,,,,,,,1,,,,,
html-keyboard-response,821,1632354,null,"",null,,,,,,,,,,,,,,,
math-period,822,1633717,2515,"",,,,,,,,,,,4,,,,,
html-keyboard-response,823,1633819,null,"",null,,,,,,,,,,,,,,,
math-period,824,1635222,2594,"",,,,,,,,,,,1,,,,,
html-keyboard-response,825,1635324,null,"",null,,,,,,,,,,,,,,,
math-period,826,1637173,3526,"",,,,,,,,,,,1,,,,,
html-keyboard-response,827,1637288,null,"",null,,,,,,,,,,,,,,,
math-period,828,1639711,2259,"",,,,,,,,,,,2,,,,,
html-keyboard-response,829,1640725,null,"Recall Period!",null,,,,,,,,,,,,,,,
call-function,830,1640725,,"",,,,,,,,,,,,,,,,
html-keyboard-response,831,1640827,null,"",null,,,,,,,,,,,,,,,
recall-period,832,1642821,10341,"",,,,,,,,,,,barrel,,,,,
html-keyboard-response,833,1642925,null,"",null,,,,,,,,,,,,,,,
recall-period,834,1643957,4160,"",,,,,,,,,,,party,,,,,
html-keyboard-response,835,1644062,null,"",null,,,,,,,,,,,,,,,
recall-period,836,1645669,6646,"",,,,,,,,,,,umpire,,,,,
html-keyboard-response,837,1645783,null,"",null,,,,,,,,,,,,,,,
recall-period,838,1646429,2254,"",,,,,,,,,,,truck,,,,,
html-keyboard-response,839,1646540,null,"",null,,,,,,,,,,,,,,,
recall-period,840,1649508,15922,"",,,,,,,,,,,vessel,,,,,
html-keyboard-response,841,1649620,null,"",null,,,,,,,,,,,,,,,
recall-period,842,1715733,null,"",,,,,,,,,,,,,,,,
html-keyboard-response,843,1716238,null,"Time's Up!",null,,,,,,,,,,,,,,,
html-keyboard-response,844,1718644,2404,"<p> Good job! You have responded correctly to 99% of the trials. </p>
                      <p>Be sure to only press the spacebar if you see a GREEN square, and please keep your accuracy above 80%.</p>
                      <p> Press any key to continue the experiment. </p>",32,,,,,,,,,,,,,,,
html-keyboard-response,845,1720763,2117,"<div style=""font-size:48px;"">Press any key to begin list 9 of 16 </div>",32,,,,,,,,,,,,,,,
html-keyboard-response,846,1723279,null,"<div style=""font-size:60px;"">+</div>",null,,,,,,,,,,,,,,,
html-keyboard-response,847,1723486,null,"<div style=""font-size:42px;"">FRIES</div><img id = ""stim"" ><div class = green_square id = topsquare></div>",null,encoding,word_square,,,1,topsquare,32,true,,,FRIES,8,,,
html-keyboard-response,848,1723802,218,"<div style=""font-size:42px;"">FRIES</div>",32,,word,FRIES,,,,,,,,,,,,
html-keyboard-response,849,1725314,null,"",null,,word,FRIES,,,,,,,,,,,,
html-keyboard-response,850,1725519,null,"<div style=""font-size:42px;"">GALLON</div><img id = ""stim"" ><div class = green_square id = bottomsquare></div>",null,encoding,word_square,,,1,bottomsquare,32,true,,,GALLON,8,,,
html-keyboard-response,851,1725821,249,"<div style=""font-size:42px;"">GALLON</div>",32,,word,GALLON,,,,,,,,,,,,
html-keyboard-response,852,1727321,null,"",null,,word,GALLON,,,,,,,,,,,,
html-keyboard-response,853,1727527,null,"<div style=""font-size:42px;"">BATHTUB</div><img id = ""stim"" ><div class = green_square id = topsquare></div>",null,encoding,word_square,,,1,topsquare,32,true,,,BATHTUB,8,,,
html-keyboard-response,854,1727829,218,"<div style=""font-size:42px;"">BATHTUB</div>",32,,word,BATHTUB,,,,,,,,,,,,
html-keyboard-response,855,1729344,null,"",null,,word,BATHTUB,,,,,,,,,,,,
html-keyboard-response,856,1729552,null,"<div style=""font-size:42px;"">DORM</div><img id = ""stim"" ><div class = red_square id = bottomsquare></div>",null,encoding,word_square,,,0,bottomsquare,none,true,,,DORM,8,,,
html-keyboard-response,857,1729867,null,"<div style=""font-size:42px;"">DORM</div>",null,,word,DORM,,,,,,,,,,,,
html-keyboard-response,858,1731380,null,"",null,,word,DORM,,,,,,,,,,,,
html-keyboard-response,859,1731584,null,"<div style=""font-size:42px;"">SPICE</div><img id = ""stim"" ><div class = red_square id = topsquare></div>",null,encoding,word_square,,,0,topsquare,none,true,,,SPICE,8,,,
html-keyboard-response,860,1731901,null,"<div style=""font-size:42px;"">SPICE</div>",null,,word,SPICE,,,,,,,,,,,,
html-keyboard-response,861,1733418,null,"",null,,word,SPICE,,,,,,,,,,,,
html-keyboard-response,862,1733622,null,"<div style=""font-size:42px;"">COUCH</div><img id = ""stim"" ><div class = green_square id = bottomsquare></div>",null,encoding,word_square,,,1,bottomsquare,32,true,,,COUCH,8,,,
html-keyboard-response,863,1733923,298,"<div style=""font-size:42px;"">COUCH</div>",32,,word,COUCH,,,,,,,,,,,,
html-keyboard-response,864,1735425,null,"",null,,word,COUCH,,,,,,,,,,,,
html-keyboard-response,865,1735628,null,"<div style=""font-size:42px;"">PADDING</div><img id = ""stim"" ><div class = red_square id = bottomsquare></div>",null,encoding,word_square,,,0,bottomsquare,none,true,,,PADDING,8,,,
html-keyboard-response,866,1735930,null,"<div style=""font-size:42px;"">PADDING</div>",null,,word,PADDING,,,,,,,,,,,,
html-keyboard-response,867,1737446,null,"",null,,word,PADDING,,,,,,,,,,,,
html-keyboard-response,868,1737651,null,"<div style=""font-size:42px;"">QUAIL</div><img id = ""stim"" ><div class = green_square id = topsquare></div>",null,encoding,word_square,,,1,topsquare,32,true,,,QUAIL,8,,,
html-keyboard-response,869,1737954,237,"<div style=""font-size:42px;"">QUAIL</div>",32,,word,QUAIL,,,,,,,,,,,,
html-keyboard-response,870,1739469,null,"",null,,word,QUAIL,,,,,,,,,,,,
html-keyboard-response,871,1739675,null,"<div style=""font-size:42px;"">PIGEON</div><img id = ""stim"" ><div class = red_square id = topsquare></div>",null,encoding,word_square,,,0,topsquare,none,true,,,PIGEON,8,,,
html-keyboard-response,872,1739977,null,"<div style=""font-size:42px;"">PIGEON</div>",null,,word,PIGEON,,,,,,,,,,,,
html-keyboard-response,873,1741481,null,"",null,,word,PIGEON,,,,,,,,,,,,
html-keyboard-response,874,1741684,null,"<div style=""font-size:42px;"">SHOULDER</div><img id = ""stim"" ><div class = red_square id = bottomsquare></div>",null,encoding,word_square,,,0,bottomsquare,none,true,,,SHOULDER,8,,,
html-keyboard-response,875,1742000,null,"<div style=""font-size:42px;"">SHOULDER</div>",null,,word,SHOULDER,,,,,,,,,,,,
html-keyboard-response,876,1743502,null,"",null,,word,SHOULDER,,,,,,,,,,,,
html-keyboard-response,877,1743706,null,"<div style=""font-size:42px;"">WRENCH</div><img id = ""stim"" ><div class = green_square id = bottomsquare></div>",null,encoding,word_square,,,1,bottomsquare,32,true,,,WRENCH,8,,,
html-keyboard-response,878,1744009,229,"<div style=""font-size:42px;"">WRENCH</div>",32,,word,WRENCH,,,,,,,,,,,,
html-keyboard-response,879,1745523,null,"",null,,word,WRENCH,,,,,,,,,,,,
html-keyboard-response,880,1745729,null,"<div style=""font-size:42px;"">PRIMATE</div><img id = ""stim"" ><div class = red_square id = topsquare></div>",null,encoding,word_square,,,0,topsquare,none,true,,,PRIMATE,8,,,
html-keyboard-response,881,1746043,null,"<div style=""font-size:42px;"">PRIMATE</div>",null,,word,PRIMATE,,,,,,,,,,,,
html-keyboard-response,882,1747548,null,"",null,,word,PRIMATE,,,,,,,,,,,,
html-keyboard-response,883,1747754,null,"<div style=""font-size:42px;"">BINDER</div><img id = ""stim"" ><div class = red_square id = bottomsquare></div>",null,encoding,word_square,,,0,bottomsquare,none,true,,,BINDER,8,,,
html-keyboard-response,884,1748070,null,"<div style=""font-size:42px;"">BINDER</div>",null,,word,BINDER,,,,,,,,,,,,
html-keyboard-response,885,1749577,null,"",null,,word,BINDER,,,,,,,,,,,,
html-keyboard-response,886,1749783,null,"<div style=""font-size:42px;"">SPIDER</div><img id = ""stim"" ><div class = green_square id = topsquare></div>",null,encoding,word_square,,,1,topsquare,32,true,,,SPIDER,8,,,
html-keyboard-response,887,1750086,247,"<div style=""font-size:42px;"">SPIDER</div>",32,,word,SPIDER,,,,,,,,,,,,
html-keyboard-response,888,1751600,null,"",null,,word,SPIDER,,,,,,,,,,,,
html-keyboard-response,889,1751805,null,"<div style=""font-size:42px;"">HEEL</div><img id = ""stim"" ><div class = red_square id = topsquare></div>",null,encoding,word_square,,,0,topsquare,none,true,,,HEEL,8,,,
html-keyboard-response,890,1752121,null,"<div style=""font-size:42px;"">HEEL</div>",null,,word,HEEL,,,,,,,,,,,,
html-keyboard-response,891,1753623,null,"",null,,word,HEEL,,,,,,,,,,,,
html-keyboard-response,892,1753830,null,"<div style=""font-size:42px;"">PITCHFORK</div><img id = ""stim"" ><div class = green_square id = bottomsquare></div>",null,encoding,word_square,,,1,bottomsquare,32,true,,,PITCHFORK,8,,,
html-keyboard-response,893,1754147,null,"<div style=""font-size:42px;"">PITCHFORK</div>",null,,word,PITCHFORK,,,,,,,,,,,,
html-keyboard-response,894,1755652,27,"",32,,word,PITCHFORK,,,,,,,,,,,,
call-function,895,1755653,,"",,,,,,,,,,,,,,,,
html-keyboard-response,896,1755762,null,"",null,,,,,,,,,,,,,,,
math-period,897,1759119,6198,"",,,,,,,,,,,5,,,,,
html-keyboard-response,898,1759223,null,"",null,,,,,,,,,,,,,,,
math-period,899,1764423,9020,"",,,,,,,,,,,3,,,,,
html-keyboard-response,900,1764530,null,"",null,,,,,,,,,,,,,,,
math-period,901,1766143,2740,"",,,,,,,,,,,4,,,,,
html-keyboard-response,902,1766246,null,"",null,,,,,,,,,,,,,,,
math-period,903,1767622,2596,"",,,,,,,,,,,1,,,,,
html-keyboard-response,904,1767725,null,"",null,,,,,,,,,,,,,,,
math-period,905,1769070,2543,"",,,,,,,,,,,1,,,,,
html-keyboard-response,906,1769179,null,"",null,,,,,,,,,,,,,,,
math-period,907,1770262,2034,"",,,,,,,,,,,2,,,,,
html-keyboard-response,908,1770364,null,"",null,,,,,,,,,,,,,,,
math-period,909,1771685,2510,"",,,,,,,,,,,2,,,,,
html-keyboard-response,910,1771791,null,"",null,,,,,,,,,,,,,,,
math-period,911,1773029,2360,"",,,,,,,,,,,1,,,,,
html-keyboard-response,912,1773136,null,"",null,,,,,,,,,,,,,,,
math-period,913,1774341,2296,"",,,,,,,,,,,2,,,,,
html-keyboard-response,914,1774442,null,"",null,,,,,,,,,,,,,,,
math-period,915,1777637,5980,"",,,,,,,,,,,3,,,,,
html-keyboard-response,916,1777741,null,"",null,,,,,,,,,,,,,,,
math-period,917,1778789,1886,"",,,,,,,,,,,3,,,,,
html-keyboard-response,918,1778892,null,"",null,,,,,,,,,,,,,,,
math-period,919,1779667,null,"",,,,,,,,,,,,,,,,
html-keyboard-response,920,1780682,null,"Recall Period!",null,,,,,,,,,,,,,,,
call-function,921,1780682,,"",,,,,,,,,,,,,,,,
html-keyboard-response,922,1780794,null,"",null,,,,,,,,,,,,,,,
recall-period,923,1782380,7862,"",,,,,,,,,,,fries,,,,,
html-keyboard-response,924,1782483,null,"",null,,,,,,,,,,,,,,,
recall-period,925,1783212,2640,"",,,,,,,,,,,gallon,,,,,
html-keyboard-response,926,1783321,null,"",null,,,,,,,,,,,,,,,
recall-period,927,1784540,4180,"",,,,,,,,,,,bathtub,,,,,
html-keyboard-response,928,1784647,null,"",null,,,,,,,,,,,,,,,
recall-period,929,1785972,3842,"",,,,,,,,,,,spider,,,,,
