trial_type,trial_index,time_elapsed,rt,stimulus,key_press,exp_phase,test_part,word,task,targ_cond,sq_pos,correctKeyCode,correct,value,response,Word,List,RecResp,serial_pos,colorChosen
pavlovia,0,2546,,"",,,,,,,,,,,,,,,,
external-html,1,132551,129813.70000004768,"",,,,,,,,,,,,,,,,
html-keyboard-response,2,134528,1970.2999999523163,"Welcome to the experiment. Press any key to begin.",32,,,,,,,,,,,,,,,
html-keyboard-response,3,149342,14812.099999904633,"<p>You will see a list of words and colored squares in the following task.<p><p>Press the spacebar whenever you see a red square.<p><p>Do not press a key if the square is green.<p><p>Press the spacebar to continue.</p>",32,,,,,,,,,,,,,,,
html-keyboard-response,4,161659,11810.799999952316,"<p>Please try to remember as many of the words as you can, and try to think about the meaning of each word as it appears.<p><p>After the detection and encoding task you will be asked to solve some math problems for 24 seconds.<p> Please solve as many problems as you can in the time given. <p><p><p>Press the spacebar to continue.</p>",32,,,,,,,,,,,,,,,
html-keyboard-response,5,170542,8378.099999904633,"After solving the math problems, you will be asked to type in as many words <p>from the previous list as you can remember for 75 seconds.<p> If you finish recalling before the 75 seconds are up,<p> just sit tight and try to think of any more words you could have missed. <p><p><p>Press the spacebar to continue.</p>",32,,,,,,,,,,,,,,,
html-keyboard-response,6,178583,7537.799999952316,"There will be 16 lists of words and recall, followed  by<p><p> a recognition phase. The experiment is expected to take up to 90 minutes.<p>We will begin with a brief practice session.<p>Press the spacebar to begin the practice.</p>",32,,,,,,,,,,,,,,,
html-keyboard-response,7,181099,null,"<div style=""font-size:60px;"">+</div>",null,,,,,,,,,,,,,,,
html-keyboard-response,8,181311,null,"<div style=""font-size:42px;"">HAPPY</div><img id = ""stim"" ><div class = green_square id = ""bottomsquare"" ></div>",null,practice,word_square,HAPPY,prac_response,0,Bottom,none,true,,,,,,,
html-keyboard-response,9,181617,null,"<div style=""font-size:42px;"">HAPPY</div>",null,,word,HAPPY,,,,,,,,,,,,
html-keyboard-response,10,183123,null,"",null,,word,HAPPY,,,,,,,,,,,,
html-keyboard-response,11,183330,null,"<div style=""font-size:42px;"">COLD</div><img id = ""stim"" ><div class = red_square id = ""bottomsquare"" ></div>",null,practice,word_square,COLD,prac_response,1,Bottom,32,true,,,,,,,
html-keyboard-response,12,183635,210.39999997615814,"<div style=""font-size:42px;"">COLD</div>",32,,word,COLD,,,,,,,,,,,,
html-keyboard-response,13,185138,null,"",null,,word,COLD,,,,,,,,,,,,
html-keyboard-response,14,185346,null,"<div style=""font-size:42px;"">HEAVY</div><img id = ""stim"" ><div class = red_square id = ""topsquare"" ></div>",null,practice,word_square,HEAVY,prac_response,1,Top,32,true,,,,,,,
html-keyboard-response,15,185655,null,"<div style=""font-size:42px;"">HEAVY</div>",null,,word,HEAVY,,,,,,,,,,,,
html-keyboard-response,16,187158,103.5,"",32,,word,HEAVY,,,,,,,,,,,,
html-keyboard-response,17,187365,null,"<div style=""font-size:42px;"">FUNNY</div><img id = ""stim"" ><div class = green_square id = ""topsquare"" ></div>",null,practice,word_square,FUNNY,prac_response,0,Top,none,true,,,,,,,
html-keyboard-response,18,187674,null,"<div style=""font-size:42px;"">FUNNY</div>",null,,word,FUNNY,,,,,,,,,,,,
html-keyboard-response,19,189179,null,"",null,,word,FUNNY,,,,,,,,,,,,
html-keyboard-response,20,189387,null,"<div style=""font-size:42px;"">SCARY</div><img id = ""stim"" ><div class = red_square id = ""bottomsquare"" ></div>",null,practice,word_square,SCARY,prac_response,1,Bottom,32,true,,,,,,,
html-keyboard-response,21,189693,152.89999997615814,"<div style=""font-size:42px;"">SCARY</div>",32,,word,SCARY,,,,,,,,,,,,
html-keyboard-response,22,191198,null,"",null,,word,SCARY,,,,,,,,,,,,
html-keyboard-response,23,191406,null,"<div style=""font-size:42px;"">PEACEFUL</div><img id = ""stim"" ><div class = red_square id = ""topsquare"" ></div>",null,practice,word_square,PEACEFUL,prac_response,1,Top,32,true,,,,,,,
html-keyboard-response,24,191713,179.5,"<div style=""font-size:42px;"">PEACEFUL</div>",32,,word,PEACEFUL,,,,,,,,,,,,
html-keyboard-response,25,193217,null,"",null,,word,PEACEFUL,,,,,,,,,,,,
html-keyboard-response,26,193426,null,"<div style=""font-size:42px;"">LITTLE</div><img id = ""stim"" ><div class = green_square id = ""bottomsquare"" ></div>",null,practice,word_square,LITTLE,prac_response,0,Bottom,none,true,,,,,,,
html-keyboard-response,27,193733,null,"<div style=""font-size:42px;"">LITTLE</div>",null,,word,LITTLE,,,,,,,,,,,,
html-keyboard-response,28,195237,null,"",null,,word,LITTLE,,,,,,,,,,,,
html-keyboard-response,29,195445,null,"<div style=""font-size:42px;"">TIRED</div><img id = ""stim"" ><div class = green_square id = ""topsquare"" ></div>",null,practice,word_square,TIRED,prac_response,0,Top,none,true,,,,,,,
html-keyboard-response,30,195754,null,"<div style=""font-size:42px;"">TIRED</div>",null,,word,TIRED,,,,,,,,,,,,
html-keyboard-response,31,197259,null,"",null,,word,TIRED,,,,,,,,,,,,
html-keyboard-response,32,197467,null,"<div style=""font-size:42px;"">ENTERTAINING</div><img id = ""stim"" ><div class = green_square id = ""bottomsquare"" ></div>",null,practice,word_square,ENTERTAINING,prac_response,0,Bottom,none,true,,,,,,,
html-keyboard-response,33,197772,null,"<div style=""font-size:42px;"">ENTERTAINING</div>",null,,word,ENTERTAINING,,,,,,,,,,,,
html-keyboard-response,34,199275,null,"",null,,word,ENTERTAINING,,,,,,,,,,,,
html-keyboard-response,35,199484,null,"<div style=""font-size:42px;"">GRATEFUL</div><img id = ""stim"" ><div class = red_square id = ""bottomsquare"" ></div>",null,practice,word_square,GRATEFUL,prac_response,1,Bottom,32,true,,,,,,,
html-keyboard-response,36,199788,286,"<div style=""font-size:42px;"">GRATEFUL</div>",32,,word,GRATEFUL,,,,,,,,,,,,
html-keyboard-response,37,201291,null,"",null,,word,GRATEFUL,,,,,,,,,,,,
html-keyboard-response,38,201500,null,"<div style=""font-size:42px;"">LOUD</div><img id = ""stim"" ><div class = green_square id = ""topsquare"" ></div>",null,practice,word_square,LOUD,prac_response,0,Top,none,true,,,,,,,
html-keyboard-response,39,201808,null,"<div style=""font-size:42px;"">LOUD</div>",null,,word,LOUD,,,,,,,,,,,,
html-keyboard-response,40,203312,null,"",null,,word,LOUD,,,,,,,,,,,,
html-keyboard-response,41,203521,null,"<div style=""font-size:42px;"">SMART</div><img id = ""stim"" ><div class = red_square id = ""topsquare"" ></div>",null,practice,word_square,SMART,prac_response,1,Top,32,true,,,,,,,
html-keyboard-response,42,203829,null,"<div style=""font-size:42px;"">SMART</div>",null,,word,SMART,,,,,,,,,,,,
html-keyboard-response,43,205333,212.29999995231628,"",32,,word,SMART,,,,,,,,,,,,
html-keyboard-response,44,205541,null,"<div style=""font-size:42px;"">SMOOTH</div><img id = ""stim"" ><div class = red_square id = ""bottomsquare"" ></div>",null,practice,word_square,SMOOTH,prac_response,1,Bottom,32,true,,,,,,,
html-keyboard-response,45,205850,233.5,"<div style=""font-size:42px;"">SMOOTH</div>",32,,word,SMOOTH,,,,,,,,,,,,
html-keyboard-response,46,207354,null,"",null,,word,SMOOTH,,,,,,,,,,,,
html-keyboard-response,47,207559,null,"<div style=""font-size:42px;"">DISHONEST</div><img id = ""stim"" ><div class = green_square id = ""bottomsquare"" ></div>",null,practice,word_square,DISHONEST,prac_response,0,Bottom,none,true,,,,,,,
html-keyboard-response,48,207864,null,"<div style=""font-size:42px;"">DISHONEST</div>",null,,word,DISHONEST,,,,,,,,,,,,
html-keyboard-response,49,209370,null,"",null,,word,DISHONEST,,,,,,,,,,,,
html-keyboard-response,50,209579,null,"<div style=""font-size:42px;"">WEALTHY</div><img id = ""stim"" ><div class = red_square id = ""topsquare"" ></div>",null,practice,word_square,WEALTHY,prac_response,1,Top,32,true,,,,,,,
html-keyboard-response,51,209884,188.80000007152557,"<div style=""font-size:42px;"">WEALTHY</div>",32,,word,WEALTHY,,,,,,,,,,,,
html-keyboard-response,52,211388,null,"",null,,word,WEALTHY,,,,,,,,,,,,
html-keyboard-response,53,211596,null,"<div style=""font-size:42px;"">BEAUTIFUL</div><img id = ""stim"" ><div class = green_square id = ""topsquare"" ></div>",null,practice,word_square,BEAUTIFUL,prac_response,0,Top,none,true,,,,,,,
html-keyboard-response,54,211904,null,"<div style=""font-size:42px;"">BEAUTIFUL</div>",null,,word,BEAUTIFUL,,,,,,,,,,,,
html-keyboard-response,55,213406,null,"",null,,word,BEAUTIFUL,,,,,,,,,,,,
html-keyboard-response,56,221970,8559.5,"<p> Good job! You responded correctly to 100% of the trials. </p>
                  <p>Be sure to only press the spacebar if you see a red square, and please keep your accuracy above 80%.</p>
                  <p>We're going to try once more to make sure you understand the task. press any key to continue. </p>",32,,,,,,,,,,,,,,,
html-keyboard-response,57,224800,2828.899999976158,"<p>You will see a list of words and colored squares in the following task.<p><p>Press the spacebar whenever you see a red square.<p><p>Do not press a key if the square is green<p><p>Press the spacebar to continue.</p>",32,,,,,,,,,,,,,,,
html-keyboard-response,58,227312,null,"<div style=""font-size:60px;"">+</div>",null,,,,,,,,,,,,,,,
html-keyboard-response,59,227522,null,"<div style=""font-size:42px;"">HAPPY</div><img id = ""stim"" ><div class = green_square id = ""bottomsquare"" ></div>",null,practice2,word_square,HAPPY,prac_response,0,Bottom,none,true,,,,,,,
html-keyboard-response,60,227827,null,"<div style=""font-size:42px;"">HAPPY</div>",null,,word,HAPPY,,,,,,,,,,,,
html-keyboard-response,61,229331,null,"",null,,word,HAPPY,,,,,,,,,,,,
html-keyboard-response,62,229540,null,"<div style=""font-size:42px;"">COLD</div><img id = ""stim"" ><div class = red_square id = ""bottomsquare"" ></div>",null,practice2,word_square,,prac_response,1,Bottom,32,true,,,,,,,
html-keyboard-response,63,229848,157,"<div style=""font-size:42px;"">COLD</div>",32,,word,COLD,,,,,,,,,,,,
html-keyboard-response,64,231353,null,"",null,,word,COLD,,,,,,,,,,,,
html-keyboard-response,65,231558,null,"<div style=""font-size:42px;"">HEAVY</div><img id = ""stim"" ><div class = red_square id = ""topsquare"" ></div>",null,practice2,word_square,,prac_response,1,Top,32,true,,,,,,,
html-keyboard-response,66,231863,170.5,"<div style=""font-size:42px;"">HEAVY</div>",32,,word,HEAVY,,,,,,,,,,,,
html-keyboard-response,67,233365,null,"",null,,word,HEAVY,,,,,,,,,,,,
html-keyboard-response,68,233574,null,"<div style=""font-size:42px;"">FUNNY</div><img id = ""stim"" ><div class = green_square id = ""topsquare"" ></div>",null,practice2,word_square,,prac_response,0,Top,none,true,,,,,,,
html-keyboard-response,69,233882,null,"<div style=""font-size:42px;"">FUNNY</div>",null,,word,FUNNY,,,,,,,,,,,,
html-keyboard-response,70,235387,null,"",null,,word,FUNNY,,,,,,,,,,,,
html-keyboard-response,71,235593,null,"<div style=""font-size:42px;"">SCARY</div><img id = ""stim"" ><div class = red_square id = ""bottomsquare"" ></div>",null,practice2,word_square,,prac_response,1,Bottom,32,true,,,,,,,
html-keyboard-response,72,235901,144.70000004768372,"<div style=""font-size:42px;"">SCARY</div>",32,,word,SCARY,,,,,,,,,,,,
html-keyboard-response,73,237404,null,"",null,,word,SCARY,,,,,,,,,,,,
html-keyboard-response,74,237613,null,"<div style=""font-size:42px;"">PEACEFUL</div><img id = ""stim"" ><div class = red_square id = ""topsquare"" ></div>",null,practice2,word_square,,prac_response,1,Top,32,true,,,,,,,
html-keyboard-response,75,237917,190.79999995231628,"<div style=""font-size:42px;"">PEACEFUL</div>",32,,word,PEACEFUL,,,,,,,,,,,,
html-keyboard-response,76,239419,null,"",null,,word,PEACEFUL,,,,,,,,,,,,
html-keyboard-response,77,239627,null,"<div style=""font-size:42px;"">LITTLE</div><img id = ""stim"" ><div class = green_square id = ""bottomsquare"" ></div>",null,practice2,word_square,LITTLE,prac_response,0,Bottom,none,true,,,,,,,
html-keyboard-response,78,239935,null,"<div style=""font-size:42px;"">LITTLE</div>",null,,word,LITTLE,,,,,,,,,,,,
html-keyboard-response,79,241440,null,"",null,,word,LITTLE,,,,,,,,,,,,
html-keyboard-response,80,241648,null,"<div style=""font-size:42px;"">TIRED</div><img id = ""stim"" ><div class = green_square id = ""topsquare"" ></div>",null,practice2,word_square,,prac_response,0,Top,none,true,,,,,,,
html-keyboard-response,81,241957,null,"<div style=""font-size:42px;"">TIRED</div>",null,,word,TIRED,,,,,,,,,,,,
html-keyboard-response,82,243460,null,"",null,,word,TIRED,,,,,,,,,,,,
html-keyboard-response,83,243667,null,"<div style=""font-size:42px;"">ENTERTAINING</div><img id = ""stim"" ><div class = green_square id = ""bottomsquare"" ></div>",null,practice2,word_square,ENTERTAINING,prac_response,0,Bottom,none,true,,,,,,,
html-keyboard-response,84,243976,null,"<div style=""font-size:42px;"">ENTERTAINING</div>",null,,word,ENTERTAINING,,,,,,,,,,,,
html-keyboard-response,85,245480,null,"",null,,word,ENTERTAINING,,,,,,,,,,,,
html-keyboard-response,86,245688,null,"<div style=""font-size:42px;"">GRATEFUL</div><img id = ""stim"" ><div class = red_square id = ""bottomsquare"" ></div>",null,practice2,word_square,,prac_response,1,Bottom,32,true,,,,,,,
html-keyboard-response,87,245996,121.30000007152557,"<div style=""font-size:42px;"">GRATEFUL</div>",32,,word,GRATEFUL,,,,,,,,,,,,
html-keyboard-response,88,247500,null,"",null,,word,GRATEFUL,,,,,,,,,,,,
html-keyboard-response,89,247709,null,"<div style=""font-size:42px;"">LOUD</div><img id = ""stim"" ><div class = green_square id = ""topsquare"" ></div>",null,practice2,word_square,,prac_response,0,Top,none,true,,,,,,,
html-keyboard-response,90,248017,null,"<div style=""font-size:42px;"">LOUD</div>",null,,word,LOUD,,,,,,,,,,,,
html-keyboard-response,91,249523,null,"",null,,word,LOUD,,,,,,,,,,,,
html-keyboard-response,92,249731,null,"<div style=""font-size:42px;"">SMART</div><img id = ""stim"" ><div class = red_square id = ""topsquare"" ></div>",null,practice2,word_square,,prac_response,1,Top,32,true,,,,,,,
html-keyboard-response,93,250038,198.89999997615814,"<div style=""font-size:42px;"">SMART</div>",32,,word,SMART,,,,,,,,,,,,
html-keyboard-response,94,251542,null,"",null,,word,SMART,,,,,,,,,,,,
html-keyboard-response,95,251746,null,"<div style=""font-size:42px;"">SMOOTH</div><img id = ""stim"" ><div class = red_square id = ""bottomsquare"" ></div>",null,practice2,word_square,,prac_response,1,Bottom,32,true,,,,,,,
html-keyboard-response,96,252053,262.10000002384186,"<div style=""font-size:42px;"">SMOOTH</div>",32,,word,SMOOTH,,,,,,,,,,,,
html-keyboard-response,97,253558,null,"",null,,word,SMOOTH,,,,,,,,,,,,
html-keyboard-response,98,253766,null,"<div style=""font-size:42px;"">DISHONEST</div><img id = ""stim"" ><div class = green_square id = ""bottomsquare"" ></div>",null,practice2,word_square,DISHONEST,prac_response,0,Bottom,none,true,,,,,,,
html-keyboard-response,99,254068,null,"<div style=""font-size:42px;"">DISHONEST</div>",null,,word,DISHONEST,,,,,,,,,,,,
html-keyboard-response,100,255572,null,"",null,,word,DISHONEST,,,,,,,,,,,,
html-keyboard-response,101,255780,null,"<div style=""font-size:42px;"">WEALTHY</div><img id = ""stim"" ><div class = red_square id = ""topsquare"" ></div>",null,practice2,word_square,,prac_response,1,Top,32,true,,,,,,,
html-keyboard-response,102,256084,194.70000004768372,"<div style=""font-size:42px;"">WEALTHY</div>",32,,word,WEALTHY,,,,,,,,,,,,
html-keyboard-response,103,257588,null,"",null,,word,WEALTHY,,,,,,,,,,,,
html-keyboard-response,104,257796,null,"<div style=""font-size:42px;"">BEAUTIFUL</div><img id = ""stim"" ><div class = green_square id = ""topsquare"" ></div>",null,practice2,word_square,,prac_response,0,Top,none,false,,,,,,,
html-keyboard-response,105,258105,null,"<div style=""font-size:42px;"">BEAUTIFUL</div>",null,,word,BEAUTIFUL,,,,,,,,,,,,
html-keyboard-response,106,259610,null,"",null,,word,BEAUTIFUL,,,,,,,,,,,,
html-keyboard-response,107,265958,6343.400000095367,"<p> Good job! You responded correctly to 100% of the trials. </p>
                    <p>Be sure to only press the spacebar if you see a red square, and please keep your accuracy above 80%.</p>
                    <p>Press any key to begin the math and recall sections. Thank you! </p>",32,,,,,,,,,,,,,,,
call-function,108,265961,,"",,,,,,,,,,,,,,,,
html-keyboard-response,109,266063,null,"",null,,,,,,,,,,,,,,,
math-period,110,271554,10319.600000023842,"",,,,,,,,,,,4,,,,,
html-keyboard-response,111,271659,null,"",null,,,,,,,,,,,,,,,
math-period,112,274386,5053.100000143051,"",,,,,,,,,,,4,,,,,
html-keyboard-response,113,274489,null,"",null,,,,,,,,,,,,,,,
math-period,114,278572,7507,"",,,,,,,,,,,2,,,,,
html-keyboard-response,115,278674,null,"",null,,,,,,,,,,,,,,,
math-period,116,281625,5626.100000143051,"",,,,,,,,,,,4,,,,,
html-keyboard-response,117,281729,null,"",null,,,,,,,,,,,,,,,
math-period,118,284481,5116,"",,,,,,,,,,,3,,,,,
html-keyboard-response,119,284585,null,"",null,,,,,,,,,,,,,,,
math-period,120,286979,4291,"",,,,,,,,,,,4,,,,,
html-keyboard-response,121,287082,null,"",null,,,,,,,,,,,,,,,
math-period,122,288789,3035.7999999523163,"",,,,,,,,,,,3,,,,,
html-keyboard-response,123,288891,null,"",null,,,,,,,,,,,,,,,
math-period,124,289967,null,"",,,,,,,,,,,,,,,,
html-keyboard-response,125,290969,null,"Recall Period!",null,,,,,,,,,,,,,,,
call-function,126,290970,,"",,,,,,,,,,,,,,,,
html-keyboard-response,127,291075,null,"",null,,,,,,,,,,,,,,,
recall-period,128,296842,24196.39999985695,"",,,,,,,,,,,happy,,,,,
html-keyboard-response,129,296946,null,"",null,,,,,,,,,,,,,,,
recall-period,130,300247,17688.70000052452,"",,,,,,,,,,,grateful,,,,,
html-keyboard-response,131,300351,null,"",null,,,,,,,,,,,,,,,
recall-period,132,303768,21083.700000047684,"",,,,,,,,,,,entertaining,,,,,
html-keyboard-response,133,303873,null,"",null,,,,,,,,,,,,,,,
recall-period,134,308246,16860.99999976158,"",,,,,,,,,,,scary,,,,,
html-keyboard-response,135,308351,null,"",null,,,,,,,,,,,,,,,
recall-period,136,320144,117030.19999933243,"",,,,,,,,,,,beautiful,,,,,
html-keyboard-response,137,320251,null,"",null,,,,,,,,,,,,,,,
recall-period,138,329058,62363.099999547005,"",,,,,,,,,,,thankful,,,,,
html-keyboard-response,139,329162,null,"",null,,,,,,,,,,,,,,,
recall-period,140,339008,93166.99999976158,"",,,,,,,,,,,pretty,,,,,
html-keyboard-response,141,339110,null,"",null,,,,,,,,,,,,,,,
recall-period,142,341446,7788.900000214577,"",,,,,,,,,,,usual,,,,,
html-keyboard-response,143,341550,null,"",null,,,,,,,,,,,,,,,
recall-period,144,349200,40631.39999961853,"",,,,,,,,,,,tired,,,,,
html-keyboard-response,145,349303,null,"",null,,,,,,,,,,,,,,,
recall-period,146,357721,98746.29999911785,"",,,,,,,,,,,restless,,,,,
html-keyboard-response,147,357825,null,"",null,,,,,,,,,,,,,,,
recall-period,148,364861,38159.89999961853,"",,,,,,,,,,,unusual,,,,,
html-keyboard-response,149,364965,null,"",null,,,,,,,,,,,,,,,
recall-period,150,365976,null,"",,,,,,,,,,,,,,,,
html-keyboard-response,151,366485,null,"Time's Up!",null,,,,,,,,,,,,,,,
html-keyboard-response,152,373544,7058.399999976158,"<p>We will now begin the experiment!<p><p>Please try to remember all words from each list.<p><p>Press the spacebar whenever you see a red square.<p><p><p><p>Press the spacebar to begin.</p>",32,,,,,,,,,,,,,,,
html-keyboard-response,153,378629,4581.5,"<div style=""font-size:48px;"">Press any key to begin list 1 of 16 </div>",32,,,,,,,,,,,,,,,
html-keyboard-response,154,381137,null,"<div style=""font-size:60px;"">+</div>",null,,,,,,,,,,,,,,,
html-keyboard-response,155,381343,null,"<div style=""font-size:42px;"">ATOM</div><img id = ""stim"" ><div class = red_square id = topsquare></div>",null,encoding,word_square,,,1,topsquare,32,true,,,ATOM,0,,,
html-keyboard-response,156,381647,null,"<div style=""font-size:42px;"">ATOM</div>",null,,word,ATOM,,,,,,,,,,,,
html-keyboard-response,157,383151,26.899999976158142,"",32,,word,ATOM,,,,,,,,,,,,
html-keyboard-response,158,383354,null,"<div style=""font-size:42px;"">TROUT</div><img id = ""stim"" ><div class = green_square id = bottomsquare></div>",null,encoding,word_square,,,0,bottomsquare,none,true,,,TROUT,0,,,
html-keyboard-response,159,383661,null,"<div style=""font-size:42px;"">TROUT</div>",null,,word,TROUT,,,,,,,,,,,,
html-keyboard-response,160,385163,null,"",null,,word,TROUT,,,,,,,,,,,,
html-keyboard-response,161,385367,null,"<div style=""font-size:42px;"">MAMMAL</div><img id = ""stim"" ><div class = green_square id = topsquare></div>",null,encoding,word_square,,,0,topsquare,none,true,,,MAMMAL,0,,,
html-keyboard-response,162,385674,null,"<div style=""font-size:42px;"">MAMMAL</div>",null,,word,MAMMAL,,,,,,,,,,,,
html-keyboard-response,163,387179,null,"",null,,word,MAMMAL,,,,,,,,,,,,
html-keyboard-response,164,387382,null,"<div style=""font-size:42px;"">EARRING</div><img id = ""stim"" ><div class = red_square id = bottomsquare></div>",null,encoding,word_square,,,1,bottomsquare,32,true,,,EARRING,0,,,
html-keyboard-response,165,387690,205.39999997615814,"<div style=""font-size:42px;"">EARRING</div>",32,,word,EARRING,,,,,,,,,,,,
html-keyboard-response,166,389193,null,"",null,,word,EARRING,,,,,,,,,,,,
html-keyboard-response,167,389400,null,"<div style=""font-size:42px;"">AUTHOR</div><img id = ""stim"" ><div class = red_square id = topsquare></div>",null,encoding,word_square,,,1,topsquare,32,true,,,AUTHOR,0,,,
html-keyboard-response,168,389706,131.89999997615814,"<div style=""font-size:42px;"">AUTHOR</div>",32,,word,AUTHOR,,,,,,,,,,,,
html-keyboard-response,169,391210,null,"",null,,word,AUTHOR,,,,,,,,,,,,
html-keyboard-response,170,391417,null,"<div style=""font-size:42px;"">PEANUT</div><img id = ""stim"" ><div class = green_square id = bottomsquare></div>",null,encoding,word_square,,,0,bottomsquare,none,true,,,PEANUT,0,,,
html-keyboard-response,171,391724,null,"<div style=""font-size:42px;"">PEANUT</div>",null,,word,PEANUT,,,,,,,,,,,,
html-keyboard-response,172,393228,null,"",null,,word,PEANUT,,,,,,,,,,,,
html-keyboard-response,173,393433,null,"<div style=""font-size:42px;"">IDOL</div><img id = ""stim"" ><div class = red_square id = bottomsquare></div>",null,encoding,word_square,,,1,bottomsquare,32,true,,,IDOL,0,,,
html-keyboard-response,174,393741,106.5,"<div style=""font-size:42px;"">IDOL</div>",32,,word,IDOL,,,,,,,,,,,,
html-keyboard-response,175,395243,null,"",null,,word,IDOL,,,,,,,,,,,,
html-keyboard-response,176,395451,null,"<div style=""font-size:42px;"">WOLF</div><img id = ""stim"" ><div class = green_square id = topsquare></div>",null,encoding,word_square,,,0,topsquare,none,true,,,WOLF,0,,,
html-keyboard-response,177,395760,null,"<div style=""font-size:42px;"">WOLF</div>",null,,word,WOLF,,,,,,,,,,,,
html-keyboard-response,178,397263,null,"",null,,word,WOLF,,,,,,,,,,,,
html-keyboard-response,179,397471,null,"<div style=""font-size:42px;"">ARTIST</div><img id = ""stim"" ><div class = red_square id = topsquare></div>",null,encoding,word_square,,,1,topsquare,32,true,,,ARTIST,0,,,
html-keyboard-response,180,397780,119.29999995231628,"<div style=""font-size:42px;"">ARTIST</div>",32,,word,ARTIST,,,,,,,,,,,,
html-keyboard-response,181,399284,null,"",null,,word,ARTIST,,,,,,,,,,,,
html-keyboard-response,182,399493,null,"<div style=""font-size:42px;"">ANKLE</div><img id = ""stim"" ><div class = red_square id = bottomsquare></div>",null,encoding,word_square,,,1,bottomsquare,32,true,,,ANKLE,0,,,
html-keyboard-response,183,399800,164.60000002384186,"<div style=""font-size:42px;"">ANKLE</div>",32,,word,ANKLE,,,,,,,,,,,,
html-keyboard-response,184,401305,null,"",null,,word,ANKLE,,,,,,,,,,,,
html-keyboard-response,185,401513,null,"<div style=""font-size:42px;"">SEAGULL</div><img id = ""stim"" ><div class = green_square id = bottomsquare></div>",null,encoding,word_square,,,0,bottomsquare,none,true,,,SEAGULL,0,,,
html-keyboard-response,186,401821,null,"<div style=""font-size:42px;"">SEAGULL</div>",null,,word,SEAGULL,,,,,,,,,,,,
html-keyboard-response,187,403326,null,"",null,,word,SEAGULL,,,,,,,,,,,,
html-keyboard-response,188,403534,null,"<div style=""font-size:42px;"">OX</div><img id = ""stim"" ><div class = green_square id = topsquare></div>",null,encoding,word_square,,,0,topsquare,none,true,,,OX,0,,,
html-keyboard-response,189,403842,null,"<div style=""font-size:42px;"">OX</div>",null,,word,OX,,,,,,,,,,,,
html-keyboard-response,190,405345,null,"",null,,word,OX,,,,,,,,,,,,
html-keyboard-response,191,405553,null,"<div style=""font-size:42px;"">CATTLE</div><img id = ""stim"" ><div class = red_square id = topsquare></div>",null,encoding,word_square,,,1,topsquare,32,true,,,CATTLE,0,,,
html-keyboard-response,192,405862,147.39999997615814,"<div style=""font-size:42px;"">CATTLE</div>",32,,word,CATTLE,,,,,,,,,,,,
html-keyboard-response,193,407367,null,"",null,,word,CATTLE,,,,,,,,,,,,
html-keyboard-response,194,407575,null,"<div style=""font-size:42px;"">CREVICE</div><img id = ""stim"" ><div class = green_square id = bottomsquare></div>",null,encoding,word_square,,,0,bottomsquare,none,true,,,CREVICE,0,,,
html-keyboard-response,195,407879,null,"<div style=""font-size:42px;"">CREVICE</div>",null,,word,CREVICE,,,,,,,,,,,,
html-keyboard-response,196,409383,null,"",null,,word,CREVICE,,,,,,,,,,,,
html-keyboard-response,197,409592,null,"<div style=""font-size:42px;"">SHERIFF</div><img id = ""stim"" ><div class = green_square id = topsquare></div>",null,encoding,word_square,,,0,topsquare,none,true,,,SHERIFF,0,,,
html-keyboard-response,198,409896,165.40000009536743,"<div style=""font-size:42px;"">SHERIFF</div>",32,,word,SHERIFF,,,,,,,,,,,,
html-keyboard-response,199,411401,null,"",null,,word,SHERIFF,,,,,,,,,,,,
html-keyboard-response,200,411609,null,"<div style=""font-size:42px;"">AGENT</div><img id = ""stim"" ><div class = red_square id = bottomsquare></div>",null,encoding,word_square,,,1,bottomsquare,32,true,,,AGENT,0,,,
html-keyboard-response,201,411916,168.70000004768372,"<div style=""font-size:42px;"">AGENT</div>",32,,word,AGENT,,,,,,,,,,,,
html-keyboard-response,202,413420,null,"",null,,word,AGENT,,,,,,,,,,,,
call-function,203,413422,,"",,,,,,,,,,,,,,,,
html-keyboard-response,204,413529,null,"",null,,,,,,,,,,,,,,,
math-period,205,416252,4842.799999952316,"",,,,,,,,,,,2,,,,,
html-keyboard-response,206,416358,null,"",null,,,,,,,,,,,,,,,
math-period,207,418334,3727.0999999046326,"",,,,,,,,,,,4,,,,,
html-keyboard-response,208,418436,null,"",null,,,,,,,,,,,,,,,
math-period,209,421541,5638.5,"",,,,,,,,,,,0,,,,,
html-keyboard-response,210,421644,null,"",null,,,,,,,,,,,,,,,
math-period,211,422969,2411.1999999284744,"",,,,,,,,,,,2,,,,,
html-keyboard-response,212,423072,null,"",null,,,,,,,,,,,,,,,
math-period,213,424210,2128.1999999284744,"",,,,,,,,,,,3,,,,,
html-keyboard-response,214,424314,null,"",null,,,,,,,,,,,,,,,
math-period,215,426190,3524.899999976158,"",,,,,,,,,,,1,,,,,
html-keyboard-response,216,426294,null,"",null,,,,,,,,,,,,,,,
math-period,217,428398,3962.8000000715256,"",,,,,,,,,,,1,,,,,
html-keyboard-response,218,428503,null,"",null,,,,,,,,,,,,,,,
math-period,219,430041,2800.3000000715256,"",,,,,,,,,,,3,,,,,
html-keyboard-response,220,430146,null,"",null,,,,,,,,,,,,,,,
math-period,221,431825,3133.5999999046326,"",,,,,,,,,,,2,,,,,
html-keyboard-response,222,431929,null,"",null,,,,,,,,,,,,,,,
math-period,223,434733,5213.700000166893,"",,,,,,,,,,,5,,,,,
html-keyboard-response,224,434836,null,"",null,,,,,,,,,,,,,,,
math-period,225,437184,4431.200000047684,"",,,,,,,,,,,4,,,,,
html-keyboard-response,226,437285,null,"",null,,,,,,,,,,,,,,,
math-period,227,437422,null,"",,,,,,,,,,,,,,,,
html-keyboard-response,228,438427,null,"Recall Period!",null,,,,,,,,,,,,,,,
call-function,229,438429,,"",,,,,,,,,,,,,,,,
html-keyboard-response,230,438536,null,"",null,,,,,,,,,,,,,,,
recall-period,231,443313,15933.399999856949,"",,,,,,,,,,,atom,,,,,
html-keyboard-response,232,443419,null,"",null,,,,,,,,,,,,,,,
recall-period,233,447731,17089.599999904633,"",,,,,,,,,,,cattle,,,,,
html-keyboard-response,234,447835,null,"",null,,,,,,,,,,,,,,,
recall-period,235,451748,19735.10000038147,"",,,,,,,,,,,mammal,,,,,
html-keyboard-response,236,451851,null,"",null,,,,,,,,,,,,,,,
recall-period,237,453902,6750.700000047684,"",,,,,,,,,,,trout,,,,,
html-keyboard-response,238,454005,null,"",null,,,,,,,,,,,,,,,
recall-period,239,466304,87818.5,"",,,,,,,,,,,reptile,,,,,
html-keyboard-response,240,466409,null,"",null,,,,,,,,,,,,,,,
recall-period,241,470843,21498.199999809265,"",,,,,,,,,,,heart,,,,,
html-keyboard-response,242,470946,null,"",null,,,,,,,,,,,,,,,
recall-period,243,478130,25815.699999928474,"",,,,,,,,,,,cat,,,,,
html-keyboard-response,244,478234,null,"",null,,,,,,,,,,,,,,,
recall-period,245,484106,24192.400000095367,"",,,,,,,,,,,bird,,,,,
html-keyboard-response,246,484209,null,"",null,,,,,,,,,,,,,,,
recall-period,247,508391,221155.09999978542,"",,,,,,,,,,,lizard,,,,,
html-keyboard-response,248,508494,null,"",null,,,,,,,,,,,,,,,
recall-period,249,513432,null,"",,,,,,,,,,,,,,,,
html-keyboard-response,250,513937,null,"Time's Up!",null,,,,,,,,,,,,,,,
html-keyboard-response,251,524909,10969,"<p> Good job! You have responded correctly to 100% of the trials. </p>
                      <p>Be sure to only press the spacebar if you see a red square, and please keep your accuracy above 80%.</p>
                      <p> Press any key to continue the experiment. </p>",32,,,,,,,,,,,,,,,
html-keyboard-response,252,526901,1988.6000000238419,"<div style=""font-size:48px;"">Press any key to begin list 2 of 16 </div>",32,,,,,,,,,,,,,,,
html-keyboard-response,253,529411,null,"<div style=""font-size:60px;"">+</div>",null,,,,,,,,,,,,,,,
html-keyboard-response,254,529620,null,"<div style=""font-size:42px;"">COURSE</div><img id = ""stim"" ><div class = red_square id = bottomsquare></div>",null,encoding,word_square,,,1,bottomsquare,32,true,,,COURSE,1,,,
html-keyboard-response,255,529927,179.09999990463257,"<div style=""font-size:42px;"">COURSE</div>",32,,word,COURSE,,,,,,,,,,,,
html-keyboard-response,256,531433,null,"",null,,word,COURSE,,,,,,,,,,,,
html-keyboard-response,257,531641,null,"<div style=""font-size:42px;"">SAUSAGE</div><img id = ""stim"" ><div class = green_square id = topsquare></div>",null,encoding,word_square,,,0,topsquare,none,true,,,SAUSAGE,1,,,
html-keyboard-response,258,531947,null,"<div style=""font-size:42px;"">SAUSAGE</div>",null,,word,SAUSAGE,,,,,,,,,,,,
html-keyboard-response,259,533451,null,"",null,,word,SAUSAGE,,,,,,,,,,,,
html-keyboard-response,260,533658,null,"<div style=""font-size:42px;"">PARTNER</div><img id = ""stim"" ><div class = green_square id = bottomsquare></div>",null,encoding,word_square,,,0,bottomsquare,none,true,,,PARTNER,1,,,
html-keyboard-response,261,533966,null,"<div style=""font-size:42px;"">PARTNER</div>",null,,word,PARTNER,,,,,,,,,,,,
html-keyboard-response,262,535469,null,"",null,,word,PARTNER,,,,,,,,,,,,
html-keyboard-response,263,535678,null,"<div style=""font-size:42px;"">BOYFRIEND</div><img id = ""stim"" ><div class = red_square id = topsquare></div>",null,encoding,word_square,,,1,topsquare,32,true,,,BOYFRIEND,1,,,
html-keyboard-response,264,535986,202.19999992847443,"<div style=""font-size:42px;"">BOYFRIEND</div>",32,,word,BOYFRIEND,,,,,,,,,,,,
html-keyboard-response,265,537491,null,"",null,,word,BOYFRIEND,,,,,,,,,,,,
html-keyboard-response,266,537700,null,"<div style=""font-size:42px;"">CREATURE</div><img id = ""stim"" ><div class = green_square id = topsquare></div>",null,encoding,word_square,,,0,topsquare,none,true,,,CREATURE,1,,,
html-keyboard-response,267,538008,null,"<div style=""font-size:42px;"">CREATURE</div>",null,,word,CREATURE,,,,,,,,,,,,
html-keyboard-response,268,539513,null,"",null,,word,CREATURE,,,,,,,,,,,,
html-keyboard-response,269,539722,null,"<div style=""font-size:42px;"">COLUMN</div><img id = ""stim"" ><div class = green_square id = bottomsquare></div>",null,encoding,word_square,,,0,bottomsquare,none,true,,,COLUMN,1,,,
html-keyboard-response,270,540030,null,"<div style=""font-size:42px;"">COLUMN</div>",null,,word,COLUMN,,,,,,,,,,,,
html-keyboard-response,271,541537,null,"",null,,word,COLUMN,,,,,,,,,,,,
html-keyboard-response,272,541746,null,"<div style=""font-size:42px;"">DRIVER</div><img id = ""stim"" ><div class = red_square id = bottomsquare></div>",null,encoding,word_square,,,1,bottomsquare,32,true,,,DRIVER,1,,,
html-keyboard-response,273,542049,null,"<div style=""font-size:42px;"">DRIVER</div>",null,,word,DRIVER,,,,,,,,,,,,
html-keyboard-response,274,543553,79.10000002384186,"",32,,word,DRIVER,,,,,,,,,,,,
html-keyboard-response,275,543762,null,"<div style=""font-size:42px;"">TRUCK</div><img id = ""stim"" ><div class = red_square id = topsquare></div>",null,encoding,word_square,,,1,topsquare,32,true,,,TRUCK,1,,,
html-keyboard-response,276,544066,139.10000002384186,"<div style=""font-size:42px;"">TRUCK</div>",32,,word,TRUCK,,,,,,,,,,,,
html-keyboard-response,277,545569,null,"",null,,word,TRUCK,,,,,,,,,,,,
html-keyboard-response,278,545777,null,"<div style=""font-size:42px;"">RUBY</div><img id = ""stim"" ><div class = green_square id = topsquare></div>",null,encoding,word_square,,,0,topsquare,none,true,,,RUBY,1,,,
html-keyboard-response,279,546085,null,"<div style=""font-size:42px;"">RUBY</div>",null,,word,RUBY,,,,,,,,,,,,
html-keyboard-response,280,547590,null,"",null,,word,RUBY,,,,,,,,,,,,
html-keyboard-response,281,547793,null,"<div style=""font-size:42px;"">WASP</div><img id = ""stim"" ><div class = red_square id = bottomsquare></div>",null,encoding,word_square,,,1,bottomsquare,32,true,,,WASP,1,,,
html-keyboard-response,282,548098,188.89999997615814,"<div style=""font-size:42px;"">WASP</div>",32,,word,WASP,,,,,,,,,,,,
html-keyboard-response,283,549603,null,"",null,,word,WASP,,,,,,,,,,,,
html-keyboard-response,284,549812,null,"<div style=""font-size:42px;"">WHISKERS</div><img id = ""stim"" ><div class = green_square id = bottomsquare></div>",null,encoding,word_square,,,0,bottomsquare,none,true,,,WHISKERS,1,,,
html-keyboard-response,285,550120,null,"<div style=""font-size:42px;"">WHISKERS</div>",null,,word,WHISKERS,,,,,,,,,,,,
html-keyboard-response,286,551625,null,"",null,,word,WHISKERS,,,,,,,,,,,,
html-keyboard-response,287,551832,null,"<div style=""font-size:42px;"">RAZOR</div><img id = ""stim"" ><div class = red_square id = topsquare></div>",null,encoding,word_square,,,1,topsquare,32,true,,,RAZOR,1,,,
html-keyboard-response,288,552137,183.69999992847443,"<div style=""font-size:42px;"">RAZOR</div>",32,,word,RAZOR,,,,,,,,,,,,
html-keyboard-response,289,553640,null,"",null,,word,RAZOR,,,,,,,,,,,,
html-keyboard-response,290,553849,null,"<div style=""font-size:42px;"">CARPET</div><img id = ""stim"" ><div class = red_square id = bottomsquare></div>",null,encoding,word_square,,,1,bottomsquare,32,true,,,CARPET,1,,,
html-keyboard-response,291,554155,176.29999995231628,"<div style=""font-size:42px;"">CARPET</div>",32,,word,CARPET,,,,,,,,,,,,
html-keyboard-response,292,555658,null,"",null,,word,CARPET,,,,,,,,,,,,
html-keyboard-response,293,555867,null,"<div style=""font-size:42px;"">TOOTHPASTE</div><img id = ""stim"" ><div class = green_square id = topsquare></div>",null,encoding,word_square,,,0,topsquare,none,true,,,TOOTHPASTE,1,,,
html-keyboard-response,294,556175,null,"<div style=""font-size:42px;"">TOOTHPASTE</div>",null,,word,TOOTHPASTE,,,,,,,,,,,,
html-keyboard-response,295,557680,null,"",null,,word,TOOTHPASTE,,,,,,,,,,,,
html-keyboard-response,296,557887,null,"<div style=""font-size:42px;"">PAVEMENT</div><img id = ""stim"" ><div class = green_square id = bottomsquare></div>",null,encoding,word_square,,,0,bottomsquare,none,true,,,PAVEMENT,1,,,
html-keyboard-response,297,558192,null,"<div style=""font-size:42px;"">PAVEMENT</div>",null,,word,PAVEMENT,,,,,,,,,,,,
html-keyboard-response,298,559695,null,"",null,,word,PAVEMENT,,,,,,,,,,,,
html-keyboard-response,299,559904,null,"<div style=""font-size:42px;"">RUG</div><img id = ""stim"" ><div class = red_square id = topsquare></div>",null,encoding,word_square,,,1,topsquare,32,true,,,RUG,1,,,
html-keyboard-response,300,560209,174.60000002384186,"<div style=""font-size:42px;"">RUG</div>",32,,word,RUG,,,,,,,,,,,,
html-keyboard-response,301,561712,null,"",null,,word,RUG,,,,,,,,,,,,
call-function,302,561714,,"",,,,,,,,,,,,,,,,
html-keyboard-response,303,561820,null,"",null,,,,,,,,,,,,,,,
math-period,304,564362,4730.200000047684,"",,,,,,,,,,,5,,,,,
html-keyboard-response,305,564465,null,"",null,,,,,,,,,,,,,,,
math-period,306,565601,2127,"",,,,,,,,,,,2,,,,,
html-keyboard-response,307,565706,null,"",null,,,,,,,,,,,,,,,
math-period,308,566906,2271.1999999284744,"",,,,,,,,,,,3,,,,,
html-keyboard-response,309,567012,null,"",null,,,,,,,,,,,,,,,
math-period,310,569588,7381.299999952316,"",,,,,,,,,,,5,,,,,
html-keyboard-response,311,569691,null,"",null,,,,,,,,,,,,,,,
math-period,312,571108,2642.5,"",,,,,,,,,,,5,,,,,
html-keyboard-response,313,571211,null,"",null,,,,,,,,,,,,,,,
math-period,314,572787,2998.799999833107,"",,,,,,,,,,,4,,,,,
html-keyboard-response,315,572892,null,"",null,,,,,,,,,,,,,,,
math-period,316,575668,5350.899999976158,"",,,,,,,,,,,4,,,,,
html-keyboard-response,317,575771,null,"",null,,,,,,,,,,,,,,,
math-period,318,577117,2541.3000000715256,"",,,,,,,,,,,6,,,,,
html-keyboard-response,319,577222,null,"",null,,,,,,,,,,,,,,,
math-period,320,579063,3543.899999976158,"",,,,,,,,,,,4,,,,,
html-keyboard-response,321,579167,null,"",null,,,,,,,,,,,,,,,
math-period,322,581500,4311.299999952316,"",,,,,,,,,,,2,,,,,
html-keyboard-response,323,581604,null,"",null,,,,,,,,,,,,,,,
math-period,324,582801,2267.8000000715256,"",,,,,,,,,,,3,,,,,
html-keyboard-response,325,582904,null,"",null,,,,,,,,,,,,,,,
math-period,326,584364,2778.7000000476837,"",,,,,,,,,,,5,,,,,
html-keyboard-response,327,584469,null,"",null,,,,,,,,,,,,,,,
math-period,328,585721,null,"",,,,,,,,,,,,,,,,
html-keyboard-response,329,586724,null,"Recall Period!",null,,,,,,,,,,,,,,,
call-function,330,586724,,"",,,,,,,,,,,,,,,,
html-keyboard-response,331,586825,null,"",null,,,,,,,,,,,,,,,
recall-period,332,590381,15452.700000166893,"",,,,,,,,,,,course,,,,,
html-keyboard-response,333,590486,null,"",null,,,,,,,,,,,,,,,
recall-period,334,594012,17718.099999904633,"",,,,,,,,,,,boyfriend,,,,,
html-keyboard-response,335,594115,null,"",null,,,,,,,,,,,,,,,
recall-period,336,597364,11202.300000429153,"",,,,,,,,,,,partner,,,,,
html-keyboard-response,337,597469,null,"",null,,,,,,,,,,,,,,,
recall-period,338,604642,59928.599999308586,"",,,,,,,,,,,sausage,,,,,
html-keyboard-response,339,604745,null,"",null,,,,,,,,,,,,,,,
recall-period,340,609514,22526.499999523163,"",,,,,,,,,,,stable,,,,,
html-keyboard-response,341,609618,null,"",null,,,,,,,,,,,,,,,
recall-period,342,627082,99485.59999966621,"",,,,,,,,,,,bring,,,,,
html-keyboard-response,343,627185,null,"",null,,,,,,,,,,,,,,,
recall-period,344,636345,48315.699999690056,"",,,,,,,,,,,green,,,,,
html-keyboard-response,345,636449,null,"",null,,,,,,,,,,,,,,,
recall-period,346,661730,null,"",,,,,,,,,,,,,,,,
html-keyboard-response,347,662238,null,"Time's Up!",null,,,,,,,,,,,,,,,
html-keyboard-response,348,664647,2407.5999999046326,"<p> Good job! You have responded correctly to 100% of the trials. </p>
                      <p>Be sure to only press the spacebar if you see a red square, and please keep your accuracy above 80%.</p>
                      <p> Press any key to continue the experiment. </p>",32,,,,,,,,,,,,,,,
html-keyboard-response,349,666706,2055.899999976158,"<div style=""font-size:48px;"">Press any key to begin list 3 of 16 </div>",32,,,,,,,,,,,,,,,
html-keyboard-response,350,669213,null,"<div style=""font-size:60px;"">+</div>",null,,,,,,,,,,,,,,,
html-keyboard-response,351,669415,null,"<div style=""font-size:42px;"">VILLAGE</div><img id = ""stim"" ><div class = green_square id = bottomsquare></div>",null,encoding,word_square,,,0,bottomsquare,none,true,,,VILLAGE,2,,,
html-keyboard-response,352,669722,null,"<div style=""font-size:42px;"">VILLAGE</div>",null,,word,VILLAGE,,,,,,,,,,,,
html-keyboard-response,353,671227,null,"",null,,word,VILLAGE,,,,,,,,,,,,
html-keyboard-response,354,671435,null,"<div style=""font-size:42px;"">LIGHTNING</div><img id = ""stim"" ><div class = red_square id = topsquare></div>",null,encoding,word_square,,,1,topsquare,32,true,,,LIGHTNING,2,,,
html-keyboard-response,355,671740,203.29999995231628,"<div style=""font-size:42px;"">LIGHTNING</div>",32,,word,LIGHTNING,,,,,,,,,,,,
html-keyboard-response,356,673244,null,"",null,,word,LIGHTNING,,,,,,,,,,,,
html-keyboard-response,357,673451,null,"<div style=""font-size:42px;"">NECKLACE</div><img id = ""stim"" ><div class = red_square id = bottomsquare></div>",null,encoding,word_square,,,1,bottomsquare,32,true,,,NECKLACE,2,,,
html-keyboard-response,358,673754,167.79999995231628,"<div style=""font-size:42px;"">NECKLACE</div>",32,,word,NECKLACE,,,,,,,,,,,,
html-keyboard-response,359,675260,null,"",null,,word,NECKLACE,,,,,,,,,,,,
html-keyboard-response,360,675463,null,"<div style=""font-size:42px;"">MISTER</div><img id = ""stim"" ><div class = green_square id = topsquare></div>",null,encoding,word_square,,,0,topsquare,none,true,,,MISTER,2,,,
html-keyboard-response,361,675768,null,"<div style=""font-size:42px;"">MISTER</div>",null,,word,MISTER,,,,,,,,,,,,
html-keyboard-response,362,677275,null,"",null,,word,MISTER,,,,,,,,,,,,
html-keyboard-response,363,677480,null,"<div style=""font-size:42px;"">NOMAD</div><img id = ""stim"" ><div class = green_square id = bottomsquare></div>",null,encoding,word_square,,,0,bottomsquare,none,true,,,NOMAD,2,,,
html-keyboard-response,364,677787,null,"<div style=""font-size:42px;"">NOMAD</div>",null,,word,NOMAD,,,,,,,,,,,,
html-keyboard-response,365,679291,null,"",null,,word,NOMAD,,,,,,,,,,,,
html-keyboard-response,366,679499,null,"<div style=""font-size:42px;"">PERSON</div><img id = ""stim"" ><div class = red_square id = topsquare></div>",null,encoding,word_square,,,1,topsquare,32,true,,,PERSON,2,,,
html-keyboard-response,367,679802,176.10000002384186,"<div style=""font-size:42px;"">PERSON</div>",32,,word,PERSON,,,,,,,,,,,,
html-keyboard-response,368,681307,null,"",null,,word,PERSON,,,,,,,,,,,,
html-keyboard-response,369,681516,null,"<div style=""font-size:42px;"">FLUTE</div><img id = ""stim"" ><div class = green_square id = topsquare></div>",null,encoding,word_square,,,0,topsquare,none,true,,,FLUTE,2,,,
html-keyboard-response,370,681824,null,"<div style=""font-size:42px;"">FLUTE</div>",null,,word,FLUTE,,,,,,,,,,,,
html-keyboard-response,371,683331,null,"",null,,word,FLUTE,,,,,,,,,,,,
html-keyboard-response,372,683540,null,"<div style=""font-size:42px;"">ICING</div><img id = ""stim"" ><div class = red_square id = bottomsquare></div>",null,encoding,word_square,,,1,bottomsquare,32,true,,,ICING,2,,,
html-keyboard-response,373,683843,164.69999992847443,"<div style=""font-size:42px;"">ICING</div>",32,,word,ICING,,,,,,,,,,,,
html-keyboard-response,374,685348,null,"",null,,word,ICING,,,,,,,,,,,,
html-keyboard-response,375,685556,null,"<div style=""font-size:42px;"">SLACKS</div><img id = ""stim"" ><div class = green_square id = bottomsquare></div>",null,encoding,word_square,,,0,bottomsquare,none,true,,,SLACKS,2,,,
html-keyboard-response,376,685865,null,"<div style=""font-size:42px;"">SLACKS</div>",null,,word,SLACKS,,,,,,,,,,,,
html-keyboard-response,377,687370,null,"",null,,word,SLACKS,,,,,,,,,,,,
html-keyboard-response,378,687579,null,"<div style=""font-size:42px;"">TABLE</div><img id = ""stim"" ><div class = green_square id = topsquare></div>",null,encoding,word_square,,,0,topsquare,none,true,,,TABLE,2,,,
html-keyboard-response,379,687887,null,"<div style=""font-size:42px;"">TABLE</div>",null,,word,TABLE,,,,,,,,,,,,
html-keyboard-response,380,689393,null,"",null,,word,TABLE,,,,,,,,,,,,
html-keyboard-response,381,689600,null,"<div style=""font-size:42px;"">COUCH</div><img id = ""stim"" ><div class = red_square id = topsquare></div>",null,encoding,word_square,,,1,topsquare,32,true,,,COUCH,2,,,
html-keyboard-response,382,689908,216.5,"<div style=""font-size:42px;"">COUCH</div>",32,,word,COUCH,,,,,,,,,,,,
html-keyboard-response,383,691412,null,"",null,,word,COUCH,,,,,,,,,,,,
html-keyboard-response,384,691620,null,"<div style=""font-size:42px;"">BULLET</div><img id = ""stim"" ><div class = red_square id = bottomsquare></div>",null,encoding,word_square,,,1,bottomsquare,32,true,,,BULLET,2,,,
html-keyboard-response,385,691928,248.89999997615814,"<div style=""font-size:42px;"">BULLET</div>",32,,word,BULLET,,,,,,,,,,,,
html-keyboard-response,386,693431,null,"",null,,word,BULLET,,,,,,,,,,,,
html-keyboard-response,387,693640,null,"<div style=""font-size:42px;"">FIDDLE</div><img id = ""stim"" ><div class = green_square id = bottomsquare></div>",null,encoding,word_square,,,0,bottomsquare,none,true,,,FIDDLE,2,,,
html-keyboard-response,388,693947,null,"<div style=""font-size:42px;"">FIDDLE</div>",null,,word,FIDDLE,,,,,,,,,,,,
html-keyboard-response,389,695450,null,"",null,,word,FIDDLE,,,,,,,,,,,,
html-keyboard-response,390,695657,null,"<div style=""font-size:42px;"">THIEF</div><img id = ""stim"" ><div class = red_square id = topsquare></div>",null,encoding,word_square,,,1,topsquare,32,true,,,THIEF,2,,,
html-keyboard-response,391,695965,153.90000009536743,"<div style=""font-size:42px;"">THIEF</div>",32,,word,THIEF,,,,,,,,,,,,
html-keyboard-response,392,697469,null,"",null,,word,THIEF,,,,,,,,,,,,
html-keyboard-response,393,697673,null,"<div style=""font-size:42px;"">VICTIM</div><img id = ""stim"" ><div class = red_square id = bottomsquare></div>",null,encoding,word_square,,,1,bottomsquare,32,true,,,VICTIM,2,,,
html-keyboard-response,394,697980,null,"<div style=""font-size:42px;"">VICTIM</div>",null,,word,VICTIM,,,,,,,,,,,,
html-keyboard-response,395,699483,81.19999992847443,"",32,,word,VICTIM,,,,,,,,,,,,
html-keyboard-response,396,699690,null,"<div style=""font-size:42px;"">BARLEY</div><img id = ""stim"" ><div class = green_square id = topsquare></div>",null,encoding,word_square,,,0,topsquare,none,true,,,BARLEY,2,,,
html-keyboard-response,397,699999,null,"<div style=""font-size:42px;"">BARLEY</div>",null,,word,BARLEY,,,,,,,,,,,,
html-keyboard-response,398,701504,null,"",null,,word,BARLEY,,,,,,,,,,,,
call-function,399,701505,,"",,,,,,,,,,,,,,,,
html-keyboard-response,400,701611,null,"",null,,,,,,,,,,,,,,,
math-period,401,705084,6606.5,"",,,,,,,,,,,2,,,,,
html-keyboard-response,402,705188,null,"",null,,,,,,,,,,,,,,,
math-period,403,707493,4053.399999976158,"",,,,,,,,,,,2,,,,,
html-keyboard-response,404,707596,null,"",null,,,,,,,,,,,,,,,
math-period,405,713686,11564.899999976158,"",,,,,,,,,,,5,,,,,
html-keyboard-response,406,713791,null,"",null,,,,,,,,,,,,,,,
math-period,407,715735,3611.9000000953674,"",,,,,,,,,,,2,,,,,
html-keyboard-response,408,715839,null,"",null,,,,,,,,,,,,,,,
math-period,409,717420,2826.9999998807907,"",,,,,,,,,,,5,,,,,
html-keyboard-response,410,717523,null,"",null,,,,,,,,,,,,,,,
math-period,411,719227,3106.5,"",,,,,,,,,,,4,,,,,
html-keyboard-response,412,719330,null,"",null,,,,,,,,,,,,,,,
math-period,413,721417,3673.600000023842,"",,,,,,,,,,,2,,,,,
html-keyboard-response,414,721519,null,"",null,,,,,,,,,,,,,,,
math-period,415,724282,5056,"",,,,,,,,,,,2,,,,,
html-keyboard-response,416,724387,null,"",null,,,,,,,,,,,,,,,
math-period,417,725507,null,"",,,,,,,,,,,,,,,,
html-keyboard-response,418,726510,null,"Recall Period!",null,,,,,,,,,,,,,,,
call-function,419,726512,,"",,,,,,,,,,,,,,,,
html-keyboard-response,420,726618,null,"",null,,,,,,,,,,,,,,,
recall-period,421,734592,82085.29999935627,"",,,,,,,,,,,table,,,,,
html-keyboard-response,422,734700,null,"",null,,,,,,,,,,,,,,,
recall-period,423,737618,10026.600000500679,"",,,,,,,,,,,couch ,,,,,
html-keyboard-response,424,737723,null,"",null,,,,,,,,,,,,,,,
recall-period,425,739799,7613.500000357628,"",,,,,,,,,,,thief,,,,,
html-keyboard-response,426,739903,null,"",null,,,,,,,,,,,,,,,
recall-period,427,743084,9173.099999904633,"",,,,,,,,,,,barley,,,,,
html-keyboard-response,428,743187,null,"",null,,,,,,,,,,,,,,,
recall-period,429,749783,44008.89999985695,"",,,,,,,,,,,burglar,,,,,
html-keyboard-response,430,749889,null,"",null,,,,,,,,,,,,,,,
recall-period,431,764677,81243.59999966621,"",,,,,,,,,,,nomad,,,,,
html-keyboard-response,432,764781,null,"",null,,,,,,,,,,,,,,,
recall-period,433,774940,54070.90000009537,"",,,,,,,,,,,truck,,,,,
html-keyboard-response,434,775041,null,"",null,,,,,,,,,,,,,,,
recall-period,435,777329,8940.099999547005,"",,,,,,,,,,,driver,,,,,
html-keyboard-response,436,777434,null,"",null,,,,,,,,,,,,,,,
recall-period,437,801517,null,"",,,,,,,,,,,,,,,,
html-keyboard-response,438,802025,null,"Time's Up!",null,,,,,,,,,,,,,,,
html-keyboard-response,439,807479,5458.200000047684,"<p> Good job! You have responded correctly to 100% of the trials. </p>
                      <p>Be sure to only press the spacebar if you see a red square, and please keep your accuracy above 80%.</p>
                      <p> Press any key to continue the experiment. </p>",32,,,,,,,,,,,,,,,
html-keyboard-response,440,809111,1629.7999999523163,"<div style=""font-size:48px;"">Press any key to begin list 4 of 16 </div>",32,,,,,,,,,,,,,,,
html-keyboard-response,441,811616,null,"<div style=""font-size:60px;"">+</div>",null,,,,,,,,,,,,,,,
html-keyboard-response,442,811821,null,"<div style=""font-size:42px;"">HAMMER</div><img id = ""stim"" ><div class = green_square id = topsquare></div>",null,encoding,word_square,,,0,topsquare,none,true,,,HAMMER,3,,,
html-keyboard-response,443,812123,null,"<div style=""font-size:42px;"">HAMMER</div>",null,,word,HAMMER,,,,,,,,,,,,
html-keyboard-response,444,813625,null,"",null,,word,HAMMER,,,,,,,,,,,,
html-keyboard-response,445,813830,null,"<div style=""font-size:42px;"">TURTLE</div><img id = ""stim"" ><div class = red_square id = bottomsquare></div>",null,encoding,word_square,,,1,bottomsquare,32,true,,,TURTLE,3,,,
html-keyboard-response,446,814134,187.29999995231628,"<div style=""font-size:42px;"">TURTLE</div>",32,,word,TURTLE,,,,,,,,,,,,
html-keyboard-response,447,815636,null,"",null,,word,TURTLE,,,,,,,,,,,,
html-keyboard-response,448,815842,null,"<div style=""font-size:42px;"">MAILMAN</div><img id = ""stim"" ><div class = red_square id = topsquare></div>",null,encoding,word_square,,,1,topsquare,32,true,,,MAILMAN,3,,,
html-keyboard-response,449,816149,null,"<div style=""font-size:42px;"">MAILMAN</div>",null,,word,MAILMAN,,,,,,,,,,,,
html-keyboard-response,450,817651,44.5,"",32,,word,MAILMAN,,,,,,,,,,,,
html-keyboard-response,451,817853,null,"<div style=""font-size:42px;"">NICKEL</div><img id = ""stim"" ><div class = green_square id = bottomsquare></div>",null,encoding,word_square,,,0,bottomsquare,none,true,,,NICKEL,3,,,
html-keyboard-response,452,818159,null,"<div style=""font-size:42px;"">NICKEL</div>",null,,word,NICKEL,,,,,,,,,,,,
html-keyboard-response,453,819662,null,"",null,,word,NICKEL,,,,,,,,,,,,
html-keyboard-response,454,819869,null,"<div style=""font-size:42px;"">MAILBOX</div><img id = ""stim"" ><div class = red_square id = bottomsquare></div>",null,encoding,word_square,,,1,bottomsquare,32,true,,,MAILBOX,3,,,
html-keyboard-response,455,820174,167.69999992847443,"<div style=""font-size:42px;"">MAILBOX</div>",32,,word,MAILBOX,,,,,,,,,,,,
html-keyboard-response,456,821678,null,"",null,,word,MAILBOX,,,,,,,,,,,,
html-keyboard-response,457,821885,null,"<div style=""font-size:42px;"">STICKER</div><img id = ""stim"" ><div class = red_square id = topsquare></div>",null,encoding,word_square,,,1,topsquare,32,true,,,STICKER,3,,,
html-keyboard-response,458,822193,180.5,"<div style=""font-size:42px;"">STICKER</div>",32,,word,STICKER,,,,,,,,,,,,
html-keyboard-response,459,823697,null,"",null,,word,STICKER,,,,,,,,,,,,
html-keyboard-response,460,823905,null,"<div style=""font-size:42px;"">SCALLOP</div><img id = ""stim"" ><div class = green_square id = topsquare></div>",null,encoding,word_square,,,0,topsquare,none,true,,,SCALLOP,3,,,
html-keyboard-response,461,824211,null,"<div style=""font-size:42px;"">SCALLOP</div>",null,,word,SCALLOP,,,,,,,,,,,,
html-keyboard-response,462,825713,null,"",null,,word,SCALLOP,,,,,,,,,,,,
html-keyboard-response,463,825921,null,"<div style=""font-size:42px;"">SALT</div><img id = ""stim"" ><div class = green_square id = bottomsquare></div>",null,encoding,word_square,,,0,bottomsquare,none,true,,,SALT,3,,,
html-keyboard-response,464,826229,null,"<div style=""font-size:42px;"">SALT</div>",null,,word,SALT,,,,,,,,,,,,
html-keyboard-response,465,827732,null,"",null,,word,SALT,,,,,,,,,,,,
html-keyboard-response,466,827940,null,"<div style=""font-size:42px;"">SHRUB</div><img id = ""stim"" ><div class = red_square id = bottomsquare></div>",null,encoding,word_square,,,1,bottomsquare,32,true,,,SHRUB,3,,,
html-keyboard-response,467,828245,null,"<div style=""font-size:42px;"">SHRUB</div>",null,,word,SHRUB,,,,,,,,,,,,
html-keyboard-response,468,829747,58.10000002384186,"",32,,word,SHRUB,,,,,,,,,,,,
html-keyboard-response,469,829953,null,"<div style=""font-size:42px;"">CREEK</div><img id = ""stim"" ><div class = green_square id = topsquare></div>",null,encoding,word_square,,,0,topsquare,none,true,,,CREEK,3,,,
html-keyboard-response,470,830261,null,"<div style=""font-size:42px;"">CREEK</div>",null,,word,CREEK,,,,,,,,,,,,
html-keyboard-response,471,831763,null,"",null,,word,CREEK,,,,,,,,,,,,
html-keyboard-response,472,831969,null,"<div style=""font-size:42px;"">MEAT</div><img id = ""stim"" ><div class = red_square id = topsquare></div>",null,encoding,word_square,,,1,topsquare,32,true,,,MEAT,3,,,
html-keyboard-response,473,832277,239.10000002384186,"<div style=""font-size:42px;"">MEAT</div>",32,,word,MEAT,,,,,,,,,,,,
html-keyboard-response,474,833780,null,"",null,,word,MEAT,,,,,,,,,,,,
html-keyboard-response,475,833981,null,"<div style=""font-size:42px;"">BRIDE</div><img id = ""stim"" ><div class = green_square id = bottomsquare></div>",null,encoding,word_square,,,0,bottomsquare,none,true,,,BRIDE,3,,,
html-keyboard-response,476,834289,null,"<div style=""font-size:42px;"">BRIDE</div>",null,,word,BRIDE,,,,,,,,,,,,
html-keyboard-response,477,835793,null,"",null,,word,BRIDE,,,,,,,,,,,,
html-keyboard-response,478,835998,null,"<div style=""font-size:42px;"">MOTOR</div><img id = ""stim"" ><div class = green_square id = topsquare></div>",null,encoding,word_square,,,0,topsquare,none,true,,,MOTOR,3,,,
html-keyboard-response,479,836304,null,"<div style=""font-size:42px;"">MOTOR</div>",null,,word,MOTOR,,,,,,,,,,,,
html-keyboard-response,480,837807,null,"",null,,word,MOTOR,,,,,,,,,,,,
html-keyboard-response,481,838014,null,"<div style=""font-size:42px;"">VALVE</div><img id = ""stim"" ><div class = red_square id = bottomsquare></div>",null,encoding,word_square,,,1,bottomsquare,32,true,,,VALVE,3,,,
html-keyboard-response,482,838319,268.5,"<div style=""font-size:42px;"">VALVE</div>",32,,word,VALVE,,,,,,,,,,,,
html-keyboard-response,483,839822,null,"",null,,word,VALVE,,,,,,,,,,,,
html-keyboard-response,484,840029,null,"<div style=""font-size:42px;"">BEEF</div><img id = ""stim"" ><div class = red_square id = topsquare></div>",null,encoding,word_square,,,1,topsquare,32,true,,,BEEF,3,,,
html-keyboard-response,485,840336,null,"<div style=""font-size:42px;"">BEEF</div>",null,,word,BEEF,,,,,,,,,,,,
html-keyboard-response,486,841839,58.299999952316284,"",32,,word,BEEF,,,,,,,,,,,,
html-keyboard-response,487,842045,null,"<div style=""font-size:42px;"">HUMAN</div><img id = ""stim"" ><div class = green_square id = bottomsquare></div>",null,encoding,word_square,,,0,bottomsquare,none,true,,,HUMAN,3,,,
html-keyboard-response,488,842352,null,"<div style=""font-size:42px;"">HUMAN</div>",null,,word,HUMAN,,,,,,,,,,,,
html-keyboard-response,489,843854,null,"",null,,word,HUMAN,,,,,,,,,,,,
call-function,490,843856,,"",,,,,,,,,,,,,,,,
html-keyboard-response,491,843962,null,"",null,,,,,,,,,,,,,,,
math-period,492,846053,3826.8000000715256,"",,,,,,,,,,,2,,,,,
html-keyboard-response,493,846155,null,"",null,,,,,,,,,,,,,,,
math-period,494,848348,3872.4000000953674,"",,,,,,,,,,,5,,,,,
html-keyboard-response,495,848452,null,"",null,,,,,,,,,,,,,,,
math-period,496,850905,4533.399999856949,"",,,,,,,,,,,1,,,,,
html-keyboard-response,497,851013,null,"",null,,,,,,,,,,,,,,,
math-period,498,852488,2685.7999999523163,"",,,,,,,,,,,6,,,,,
html-keyboard-response,499,852589,null,"",null,,,,,,,,,,,,,,,
math-period,500,854603,3787.7000000476837,"",,,,,,,,,,,4,,,,,
html-keyboard-response,501,854708,null,"",null,,,,,,,,,,,,,,,
math-period,502,856228,2890.100000143051,"",,,,,,,,,,,5,,,,,
html-keyboard-response,503,856330,null,"",null,,,,,,,,,,,,,,,
math-period,504,857782,2743.4000000953674,"",,,,,,,,,,,4,,,,,
html-keyboard-response,505,857885,null,"",null,,,,,,,,,,,,,,,
math-period,506,859566,3216.600000143051,"",,,,,,,,,,,1,,,,,
html-keyboard-response,507,859670,null,"",null,,,,,,,,,,,,,,,
math-period,508,860820,2164.9999998807907,"",,,,,,,,,,,5,,,,,
html-keyboard-response,509,860924,null,"",null,,,,,,,,,,,,,,,
math-period,510,862147,2337.8000000715256,"",,,,,,,,,,,3,,,,,
html-keyboard-response,511,862250,null,"",null,,,,,,,,,,,,,,,
math-period,512,863441,2241.0999999046326,"",,,,,,,,,,,6,,,,,
html-keyboard-response,513,863545,null,"",null,,,,,,,,,,,,,,,
math-period,514,865043,2856.9999998807907,"",,,,,,,,,,,2,,,,,
html-keyboard-response,515,865150,null,"",null,,,,,,,,,,,,,,,
math-period,516,866764,3103,"",,,,,,,,,,,5,,,,,
html-keyboard-response,517,866867,null,"",null,,,,,,,,,,,,,,,
math-period,518,867857,null,"",,,,,,,,,,,,,,,,
html-keyboard-response,519,868860,null,"Recall Period!",null,,,,,,,,,,,,,,,
call-function,520,868862,,"",,,,,,,,,,,,,,,,
html-keyboard-response,521,868968,null,"",null,,,,,,,,,,,,,,,
recall-period,522,872012,9836,"",,,,,,,,,,,beef,,,,,
html-keyboard-response,523,872116,null,"",null,,,,,,,,,,,,,,,
recall-period,524,877324,28497.399999976158,"",,,,,,,,,,,scallop,,,,,
html-keyboard-response,525,877429,null,"",null,,,,,,,,,,,,,,,
recall-period,526,881699,17523.300000190735,"",,,,,,,,,,,salt,,,,,
html-keyboard-response,527,881802,null,"",null,,,,,,,,,,,,,,,
recall-period,528,886189,21004.199999690056,"",,,,,,,,,,,human,,,,,
html-keyboard-response,529,886293,null,"",null,,,,,,,,,,,,,,,
recall-period,530,904366,146519.39999949932,"",,,,,,,,,,,burn,,,,,
html-keyboard-response,531,904469,null,"",null,,,,,,,,,,,,,,,
recall-period,532,914567,85699.400000453,"",,,,,,,,,,,water,,,,,
html-keyboard-response,533,914672,null,"",null,,,,,,,,,,,,,,,
recall-period,534,925010,52099.200000047684,"",,,,,,,,,,,blind,,,,,
html-keyboard-response,535,925115,null,"",null,,,,,,,,,,,,,,,
recall-period,536,929857,25330.700000047684,"",,,,,,,,,,,turtle,,,,,
html-keyboard-response,537,929961,null,"",null,,,,,,,,,,,,,,,
recall-period,538,943867,null,"",,,,,,,,,,,,,,,,
html-keyboard-response,539,944371,null,"Time's Up!",null,,,,,,,,,,,,,,,
html-keyboard-response,540,946322,1948.7999999523163,"<p> Good job! You have responded correctly to 100% of the trials. </p>
                      <p>Be sure to only press the spacebar if you see a red square, and please keep your accuracy above 80%.</p>
                      <p> Press any key to continue the experiment. </p>",32,,,,,,,,,,,,,,,
html-keyboard-response,541,947693,1368.8999999761581,"<div style=""font-size:48px;"">Press any key to begin list 5 of 16 </div>",32,,,,,,,,,,,,,,,
html-keyboard-response,542,950196,null,"<div style=""font-size:60px;"">+</div>",null,,,,,,,,,,,,,,,
html-keyboard-response,543,950402,null,"<div style=""font-size:42px;"">SHARK</div><img id = ""stim"" ><div class = red_square id = topsquare></div>",null,encoding,word_square,,,1,topsquare,32,true,,,SHARK,4,,,
html-keyboard-response,544,950708,272.6999999284744,"<div style=""font-size:42px;"">SHARK</div>",32,,word,SHARK,,,,,,,,,,,,
html-keyboard-response,545,952215,null,"",null,,word,SHARK,,,,,,,,,,,,
html-keyboard-response,546,952420,null,"<div style=""font-size:42px;"">HOOK</div><img id = ""stim"" ><div class = red_square id = bottomsquare></div>",null,encoding,word_square,,,1,bottomsquare,32,true,,,HOOK,4,,,
html-keyboard-response,547,952723,194,"<div style=""font-size:42px;"">HOOK</div>",32,,word,HOOK,,,,,,,,,,,,
html-keyboard-response,548,954226,null,"",null,,word,HOOK,,,,,,,,,,,,
html-keyboard-response,549,954432,null,"<div style=""font-size:42px;"">SPOON</div><img id = ""stim"" ><div class = red_square id = topsquare></div>",null,encoding,word_square,,,1,topsquare,32,true,,,SPOON,4,,,
html-keyboard-response,550,954740,139,"<div style=""font-size:42px;"">SPOON</div>",32,,word,SPOON,,,,,,,,,,,,
html-keyboard-response,551,956243,null,"",null,,word,SPOON,,,,,,,,,,,,
html-keyboard-response,552,956451,null,"<div style=""font-size:42px;"">SCALPEL</div><img id = ""stim"" ><div class = green_square id = bottomsquare></div>",null,encoding,word_square,,,0,bottomsquare,none,true,,,SCALPEL,4,,,
html-keyboard-response,553,956758,null,"<div style=""font-size:42px;"">SCALPEL</div>",null,,word,SCALPEL,,,,,,,,,,,,
html-keyboard-response,554,958262,null,"",null,,word,SCALPEL,,,,,,,,,,,,
html-keyboard-response,555,958469,null,"<div style=""font-size:42px;"">MONGOOSE</div><img id = ""stim"" ><div class = green_square id = topsquare></div>",null,encoding,word_square,,,0,topsquare,none,false,,,MONGOOSE,4,,,
html-keyboard-response,556,958777,null,"<div style=""font-size:42px;"">MONGOOSE</div>",null,,word,MONGOOSE,,,,,,,,,,,,
html-keyboard-response,557,960281,159.5,"",32,,word,MONGOOSE,,,,,,,,,,,,
html-keyboard-response,558,960487,null,"<div style=""font-size:42px;"">CAFE</div><img id = ""stim"" ><div class = red_square id = bottomsquare></div>",null,encoding,word_square,,,1,bottomsquare,32,true,,,CAFE,4,,,
html-keyboard-response,559,960794,183,"<div style=""font-size:42px;"">CAFE</div>",32,,word,CAFE,,,,,,,,,,,,
html-keyboard-response,560,962297,null,"",null,,word,CAFE,,,,,,,,,,,,
html-keyboard-response,561,962505,null,"<div style=""font-size:42px;"">PERCH</div><img id = ""stim"" ><div class = green_square id = bottomsquare></div>",null,encoding,word_square,,,0,bottomsquare,none,true,,,PERCH,4,,,
html-keyboard-response,562,962814,null,"<div style=""font-size:42px;"">PERCH</div>",null,,word,PERCH,,,,,,,,,,,,
html-keyboard-response,563,964319,null,"",null,,word,PERCH,,,,,,,,,,,,
html-keyboard-response,564,964528,null,"<div style=""font-size:42px;"">LIST</div><img id = ""stim"" ><div class = red_square id = topsquare></div>",null,encoding,word_square,,,1,topsquare,32,true,,,LIST,4,,,
html-keyboard-response,565,964834,213.79999995231628,"<div style=""font-size:42px;"">LIST</div>",32,,word,LIST,,,,,,,,,,,,
html-keyboard-response,566,966338,null,"",null,,word,LIST,,,,,,,,,,,,
html-keyboard-response,567,966546,null,"<div style=""font-size:42px;"">BLOCKADE</div><img id = ""stim"" ><div class = green_square id = topsquare></div>",null,encoding,word_square,,,0,topsquare,none,true,,,BLOCKADE,4,,,
html-keyboard-response,568,966851,null,"<div style=""font-size:42px;"">BLOCKADE</div>",null,,word,BLOCKADE,,,,,,,,,,,,
html-keyboard-response,569,968353,null,"",null,,word,BLOCKADE,,,,,,,,,,,,
html-keyboard-response,570,968561,null,"<div style=""font-size:42px;"">DESSERT</div><img id = ""stim"" ><div class = green_square id = bottomsquare></div>",null,encoding,word_square,,,0,bottomsquare,none,true,,,DESSERT,4,,,
html-keyboard-response,571,968869,null,"<div style=""font-size:42px;"">DESSERT</div>",null,,word,DESSERT,,,,,,,,,,,,
html-keyboard-response,572,970375,null,"",null,,word,DESSERT,,,,,,,,,,,,
html-keyboard-response,573,970582,null,"<div style=""font-size:42px;"">PIMPLE</div><img id = ""stim"" ><div class = red_square id = bottomsquare></div>",null,encoding,word_square,,,1,bottomsquare,32,true,,,PIMPLE,4,,,
html-keyboard-response,574,970890,210.39999997615814,"<div style=""font-size:42px;"">PIMPLE</div>",32,,word,PIMPLE,,,,,,,,,,,,
html-keyboard-response,575,972394,null,"",null,,word,PIMPLE,,,,,,,,,,,,
html-keyboard-response,576,972603,null,"<div style=""font-size:42px;"">HOSTAGE</div><img id = ""stim"" ><div class = green_square id = topsquare></div>",null,encoding,word_square,,,0,topsquare,none,true,,,HOSTAGE,4,,,
html-keyboard-response,577,972911,null,"<div style=""font-size:42px;"">HOSTAGE</div>",null,,word,HOSTAGE,,,,,,,,,,,,
html-keyboard-response,578,974417,null,"",null,,word,HOSTAGE,,,,,,,,,,,,
html-keyboard-response,579,974622,null,"<div style=""font-size:42px;"">CRITIC</div><img id = ""stim"" ><div class = red_square id = topsquare></div>",null,encoding,word_square,,,1,topsquare,32,true,,,CRITIC,4,,,
html-keyboard-response,580,974931,null,"<div style=""font-size:42px;"">CRITIC</div>",null,,word,CRITIC,,,,,,,,,,,,
html-keyboard-response,581,976436,47.10000002384186,"",32,,word,CRITIC,,,,,,,,,,,,
html-keyboard-response,582,976645,null,"<div style=""font-size:42px;"">BACKBONE</div><img id = ""stim"" ><div class = green_square id = bottomsquare></div>",null,encoding,word_square,,,0,bottomsquare,none,true,,,BACKBONE,4,,,
html-keyboard-response,583,976953,null,"<div style=""font-size:42px;"">BACKBONE</div>",null,,word,BACKBONE,,,,,,,,,,,,
html-keyboard-response,584,978458,null,"",null,,word,BACKBONE,,,,,,,,,,,,
html-keyboard-response,585,978666,null,"<div style=""font-size:42px;"">CHEST</div><img id = ""stim"" ><div class = green_square id = topsquare></div>",null,encoding,word_square,,,0,topsquare,none,true,,,CHEST,4,,,
html-keyboard-response,586,978975,null,"<div style=""font-size:42px;"">CHEST</div>",null,,word,CHEST,,,,,,,,,,,,
html-keyboard-response,587,980480,null,"",null,,word,CHEST,,,,,,,,,,,,
html-keyboard-response,588,980689,null,"<div style=""font-size:42px;"">CLIFF</div><img id = ""stim"" ><div class = red_square id = bottomsquare></div>",null,encoding,word_square,,,1,bottomsquare,32,true,,,CLIFF,4,,,
html-keyboard-response,589,980998,null,"<div style=""font-size:42px;"">CLIFF</div>",null,,word,CLIFF,,,,,,,,,,,,
html-keyboard-response,590,982502,1.5,"",32,,word,CLIFF,,,,,,,,,,,,
call-function,591,982504,,"",,,,,,,,,,,,,,,,
html-keyboard-response,592,982611,null,"",null,,,,,,,,,,,,,,,
math-period,593,985697,5231.699999928474,"",,,,,,,,,,,4,,,,,
html-keyboard-response,594,985801,null,"",null,,,,,,,,,,,,,,,
math-period,595,987060,2337.0000001192093,"",,,,,,,,,,,6,,,,,
html-keyboard-response,596,987165,null,"",null,,,,,,,,,,,,,,,
math-period,597,988209,1953.4000000953674,"",,,,,,,,,,,3,,,,,
html-keyboard-response,598,988312,null,"",null,,,,,,,,,,,,,,,
math-period,599,989749,2754.4999998807907,"",,,,,,,,,,,4,,,,,
html-keyboard-response,600,989851,null,"",null,,,,,,,,,,,,,,,
math-period,601,991879,3958.4000000953674,"",,,,,,,,,,,2,,,,,
html-keyboard-response,602,991985,null,"",null,,,,,,,,,,,,,,,
math-period,603,994277,4176.300000071526,"",,,,,,,,,,,3,,,,,
html-keyboard-response,604,994380,null,"",null,,,,,,,,,,,,,,,
math-period,605,995961,2936,"",,,,,,,,,,,4,,,,,
html-keyboard-response,606,996063,null,"",null,,,,,,,,,,,,,,,
math-period,607,997414,2511.3000000715256,"",,,,,,,,,,,4,,,,,
html-keyboard-response,608,997517,null,"",null,,,,,,,,,,,,,,,
math-period,609,998795,2416,"",,,,,,,,,,,6,,,,,
html-keyboard-response,610,998899,null,"",null,,,,,,,,,,,,,,,
math-period,611,1000083,2268.8000000715256,"",,,,,,,,,,,2,,,,,
html-keyboard-response,612,1000185,null,"",null,,,,,,,,,,,,,,,
math-period,613,1001288,2101.2000000476837,"",,,,,,,,,,,3,,,,,
html-keyboard-response,614,1001395,null,"",null,,,,,,,,,,,,,,,
math-period,615,1006511,2955.7999999523163,"",,,,,,,,,,,4,,,,,
html-keyboard-response,616,1007516,null,"Recall Period!",null,,,,,,,,,,,,,,,
call-function,617,1007517,,"",,,,,,,,,,,,,,,,
html-keyboard-response,618,1007624,null,"",null,,,,,,,,,,,,,,,
recall-period,619,1013842,33719.2999997139,"",,,,,,,,,,,pimple,,,,,
html-keyboard-response,620,1013947,null,"",null,,,,,,,,,,,,,,,
recall-period,621,1040599,154670.69999957085,"",,,,,,,,,,,grain,,,,,
html-keyboard-response,622,1040703,null,"",null,,,,,,,,,,,,,,,
recall-period,623,1047885,37310.10000002384,"",,,,,,,,,,,brain,,,,,
html-keyboard-response,624,1047991,null,"",null,,,,,,,,,,,,,,,
recall-period,625,1054351,27799.60000038147,"",,,,,,,,,,,sand,,,,,
html-keyboard-response,626,1054452,null,"",null,,,,,,,,,,,,,,,
recall-period,627,1058228,18676.89999949932,"",,,,,,,,,,,dessert,,,,,
html-keyboard-response,628,1058329,null,"",null,,,,,,,,,,,,,,,
recall-period,629,1070662,82925.40000033379,"",,,,,,,,,,,train,,,,,
html-keyboard-response,630,1070766,null,"",null,,,,,,,,,,,,,,,
recall-period,631,1075061,17606.400000095367,"",,,,,,,,,,,ruby,,,,,
html-keyboard-response,632,1075166,null,"",null,,,,,,,,,,,,,,,
recall-period,633,1082522,null,"",,,,,,,,,,,,,,,,
html-keyboard-response,634,1083031,null,"Time's Up!",null,,,,,,,,,,,,,,,
html-keyboard-response,635,1086986,3952.100000023842,"<p> Good job! You have responded correctly to 99% of the trials. </p>
                      <p>Be sure to only press the spacebar if you see a red square, and please keep your accuracy above 80%.</p>
                      <p> Press any key to continue the experiment. </p>",32,,,,,,,,,,,,,,,
html-keyboard-response,636,1089711,2722.2999999523163,"<div style=""font-size:48px;"">Press any key to begin list 6 of 16 </div>",32,,,,,,,,,,,,,,,
html-keyboard-response,637,1092216,null,"<div style=""font-size:60px;"">+</div>",null,,,,,,,,,,,,,,,
html-keyboard-response,638,1092426,null,"<div style=""font-size:42px;"">DOUGHNUT</div><img id = ""stim"" ><div class = red_square id = bottomsquare></div>",null,encoding,word_square,,,1,bottomsquare,32,true,,,DOUGHNUT,5,,,
html-keyboard-response,639,1092734,265.8000000715256,"<div style=""font-size:42px;"">DOUGHNUT</div>",32,,word,DOUGHNUT,,,,,,,,,,,,
html-keyboard-response,640,1094238,null,"",null,,word,DOUGHNUT,,,,,,,,,,,,
html-keyboard-response,641,1094446,null,"<div style=""font-size:42px;"">SCULPTURE</div><img id = ""stim"" ><div class = green_square id = topsquare></div>",null,encoding,word_square,,,0,topsquare,none,true,,,SCULPTURE,5,,,
html-keyboard-response,642,1094753,null,"<div style=""font-size:42px;"">SCULPTURE</div>",null,,word,SCULPTURE,,,,,,,,,,,,
html-keyboard-response,643,1096258,null,"",null,,word,SCULPTURE,,,,,,,,,,,,
html-keyboard-response,644,1096467,null,"<div style=""font-size:42px;"">PLASTER</div><img id = ""stim"" ><div class = green_square id = bottomsquare></div>",null,encoding,word_square,,,0,bottomsquare,none,true,,,PLASTER,5,,,
html-keyboard-response,645,1096775,null,"<div style=""font-size:42px;"">PLASTER</div>",null,,word,PLASTER,,,,,,,,,,,,
html-keyboard-response,646,1098281,null,"",null,,word,PLASTER,,,,,,,,,,,,
html-keyboard-response,647,1098490,null,"<div style=""font-size:42px;"">LETTUCE</div><img id = ""stim"" ><div class = red_square id = topsquare></div>",null,encoding,word_square,,,1,topsquare,32,true,,,LETTUCE,5,,,
html-keyboard-response,648,1098798,243,"<div style=""font-size:42px;"">LETTUCE</div>",32,,word,LETTUCE,,,,,,,,,,,,
html-keyboard-response,649,1100304,null,"",null,,word,LETTUCE,,,,,,,,,,,,
html-keyboard-response,650,1100513,null,"<div style=""font-size:42px;"">BUTLER</div><img id = ""stim"" ><div class = green_square id = topsquare></div>",null,encoding,word_square,,,0,topsquare,none,true,,,BUTLER,5,,,
html-keyboard-response,651,1100816,null,"<div style=""font-size:42px;"">BUTLER</div>",null,,word,BUTLER,,,,,,,,,,,,
html-keyboard-response,652,1102321,null,"",null,,word,BUTLER,,,,,,,,,,,,
html-keyboard-response,653,1102530,null,"<div style=""font-size:42px;"">BANKER</div><img id = ""stim"" ><div class = red_square id = bottomsquare></div>",null,encoding,word_square,,,1,bottomsquare,32,true,,,BANKER,5,,,
html-keyboard-response,654,1102838,null,"<div style=""font-size:42px;"">BANKER</div>",null,,word,BANKER,,,,,,,,,,,,
html-keyboard-response,655,1104342,53.5,"",32,,word,BANKER,,,,,,,,,,,,
html-keyboard-response,656,1104551,null,"<div style=""font-size:42px;"">WALNUT</div><img id = ""stim"" ><div class = green_square id = bottomsquare></div>",null,encoding,word_square,,,0,bottomsquare,none,true,,,WALNUT,5,,,
html-keyboard-response,657,1104859,null,"<div style=""font-size:42px;"">WALNUT</div>",null,,word,WALNUT,,,,,,,,,,,,
html-keyboard-response,658,1106365,null,"",null,,word,WALNUT,,,,,,,,,,,,
html-keyboard-response,659,1106571,null,"<div style=""font-size:42px;"">POND</div><img id = ""stim"" ><div class = green_square id = topsquare></div>",null,encoding,word_square,,,0,topsquare,none,true,,,POND,5,,,
html-keyboard-response,660,1106878,null,"<div style=""font-size:42px;"">POND</div>",null,,word,POND,,,,,,,,,,,,
html-keyboard-response,661,1108382,null,"",null,,word,POND,,,,,,,,,,,,
html-keyboard-response,662,1108591,null,"<div style=""font-size:42px;"">DANDRUFF</div><img id = ""stim"" ><div class = red_square id = topsquare></div>",null,encoding,word_square,,,1,topsquare,32,true,,,DANDRUFF,5,,,
html-keyboard-response,663,1108899,231.60000002384186,"<div style=""font-size:42px;"">DANDRUFF</div>",32,,word,DANDRUFF,,,,,,,,,,,,
html-keyboard-response,664,1110404,null,"",null,,word,DANDRUFF,,,,,,,,,,,,
html-keyboard-response,665,1110614,null,"<div style=""font-size:42px;"">ZIPPER</div><img id = ""stim"" ><div class = green_square id = bottomsquare></div>",null,encoding,word_square,,,0,bottomsquare,none,true,,,ZIPPER,5,,,
html-keyboard-response,666,1110921,null,"<div style=""font-size:42px;"">ZIPPER</div>",null,,word,ZIPPER,,,,,,,,,,,,
html-keyboard-response,667,1112426,null,"",null,,word,ZIPPER,,,,,,,,,,,,
html-keyboard-response,668,1112636,null,"<div style=""font-size:42px;"">SHORTS</div><img id = ""stim"" ><div class = red_square id = bottomsquare></div>",null,encoding,word_square,,,1,bottomsquare,32,true,,,SHORTS,5,,,
html-keyboard-response,669,1112943,284.7000000476837,"<div style=""font-size:42px;"">SHORTS</div>",32,,word,SHORTS,,,,,,,,,,,,
html-keyboard-response,670,1114448,null,"",null,,word,SHORTS,,,,,,,,,,,,
html-keyboard-response,671,1114656,null,"<div style=""font-size:42px;"">YOLK</div><img id = ""stim"" ><div class = green_square id = topsquare></div>",null,encoding,word_square,,,0,topsquare,none,true,,,YOLK,5,,,
html-keyboard-response,672,1114957,null,"<div style=""font-size:42px;"">YOLK</div>",null,,word,YOLK,,,,,,,,,,,,
html-keyboard-response,673,1116462,null,"",null,,word,YOLK,,,,,,,,,,,,
html-keyboard-response,674,1116671,null,"<div style=""font-size:42px;"">ROOSTER</div><img id = ""stim"" ><div class = green_square id = bottomsquare></div>",null,encoding,word_square,,,0,bottomsquare,none,true,,,ROOSTER,5,,,
html-keyboard-response,675,1116977,null,"<div style=""font-size:42px;"">ROOSTER</div>",null,,word,ROOSTER,,,,,,,,,,,,
html-keyboard-response,676,1118480,null,"",null,,word,ROOSTER,,,,,,,,,,,,
html-keyboard-response,677,1118688,null,"<div style=""font-size:42px;"">TRENCH</div><img id = ""stim"" ><div class = red_square id = topsquare></div>",null,encoding,word_square,,,1,topsquare,32,true,,,TRENCH,5,,,
html-keyboard-response,678,1118995,221.70000004768372,"<div style=""font-size:42px;"">TRENCH</div>",32,,word,TRENCH,,,,,,,,,,,,
html-keyboard-response,679,1120499,null,"",null,,word,TRENCH,,,,,,,,,,,,
html-keyboard-response,680,1120708,null,"<div style=""font-size:42px;"">CANDY</div><img id = ""stim"" ><div class = red_square id = bottomsquare></div>",null,encoding,word_square,,,1,bottomsquare,32,true,,,CANDY,5,,,
html-keyboard-response,681,1121014,172.10000002384186,"<div style=""font-size:42px;"">CANDY</div>",32,,word,CANDY,,,,,,,,,,,,
html-keyboard-response,682,1122517,null,"",null,,word,CANDY,,,,,,,,,,,,
html-keyboard-response,683,1122725,null,"<div style=""font-size:42px;"">TROUSERS</div><img id = ""stim"" ><div class = red_square id = topsquare></div>",null,encoding,word_square,,,1,topsquare,32,true,,,TROUSERS,5,,,
html-keyboard-response,684,1123032,240.10000002384186,"<div style=""font-size:42px;"">TROUSERS</div>",32,,word,TROUSERS,,,,,,,,,,,,
html-keyboard-response,685,1124535,null,"",null,,word,TROUSERS,,,,,,,,,,,,
call-function,686,1124537,,"",,,,,,,,,,,,,,,,
html-keyboard-response,687,1124640,null,"",null,,,,,,,,,,,,,,,
math-period,688,1126444,3141.100000143051,"",,,,,,,,,,,3,,,,,
html-keyboard-response,689,1126548,null,"",null,,,,,,,,,,,,,,,
math-period,690,1128332,3321.1999999284744,"",,,,,,,,,,,2,,,,,
html-keyboard-response,691,1128436,null,"",null,,,,,,,,,,,,,,,
math-period,692,1129783,2539.600000023842,"",,,,,,,,,,,5,,,,,
html-keyboard-response,693,1129888,null,"",null,,,,,,,,,,,,,,,
math-period,694,1130993,2070.1999999284744,"",,,,,,,,,,,5,,,,,
html-keyboard-response,695,1131098,null,"",null,,,,,,,,,,,,,,,
math-period,696,1132138,1937.7000000476837,"",,,,,,,,,,,6,,,,,
html-keyboard-response,697,1132242,null,"",null,,,,,,,,,,,,,,,
math-period,698,1132428,183.89999997615814,"",,,,,,,,,,,,,,,,
html-keyboard-response,699,1132534,null,"",null,,,,,,,,,,,,,,,
math-period,700,1134966,4738.700000166893,"",,,,,,,,,,,5,,,,,
html-keyboard-response,701,1135071,null,"",null,,,,,,,,,,,,,,,
math-period,702,1136252,2194,"",,,,,,,,,,,3,,,,,
html-keyboard-response,703,1136357,null,"",null,,,,,,,,,,,,,,,
math-period,704,1138794,4565.500000119209,"",,,,,,,,,,,1,,,,,
html-keyboard-response,705,1138897,null,"",null,,,,,,,,,,,,,,,
math-period,706,1143871,15469.10000026226,"",,,,,,,,,,,1,,,,,
html-keyboard-response,707,1143975,null,"",null,,,,,,,,,,,,,,,
math-period,708,1145186,2305.4999998807907,"",,,,,,,,,,,2,,,,,
html-keyboard-response,709,1145291,null,"",null,,,,,,,,,,,,,,,
math-period,710,1146263,1825.4000000953674,"",,,,,,,,,,,3,,,,,
html-keyboard-response,711,1146369,null,"",null,,,,,,,,,,,,,,,
math-period,712,1148540,2055.7000000476837,"",,,,,,,,,,,2,,,,,
html-keyboard-response,713,1149544,null,"Recall Period!",null,,,,,,,,,,,,,,,
call-function,714,1149545,,"",,,,,,,,,,,,,,,,
html-keyboard-response,715,1149652,null,"",null,,,,,,,,,,,,,,,
recall-period,716,1154968,27541.599999666214,"",,,,,,,,,,,trench,,,,,
html-keyboard-response,717,1155072,null,"",null,,,,,,,,,,,,,,,
recall-period,718,1158205,15218.599999904633,"",,,,,,,,,,,trousers,,,,,
html-keyboard-response,719,1158309,null,"",null,,,,,,,,,,,,,,,
recall-period,720,1177095,90331.49999988079,"",,,,,,,,,,,game,,,,,
html-keyboard-response,721,1177198,null,"",null,,,,,,,,,,,,,,,
recall-period,722,1180810,15950.700000047684,"",,,,,,,,,,,pants,,,,,
html-keyboard-response,723,1180915,null,"",null,,,,,,,,,,,,,,,
recall-period,724,1189651,68915.10000014305,"",,,,,,,,,,,jump,,,,,
html-keyboard-response,725,1189760,null,"",null,,,,,,,,,,,,,,,
recall-period,726,1208156,121417.50000011921,"",,,,,,,,,,,butler,,,,,
html-keyboard-response,727,1208257,null,"",null,,,,,,,,,,,,,,,
recall-period,728,1215178,30187.00000011921,"",,,,,,,,,,,same,,,,,
html-keyboard-response,729,1215281,null,"",null,,,,,,,,,,,,,,,
recall-period,730,1223005,34704.89999997616,"",,,,,,,,,,,rock,,,,,
html-keyboard-response,731,1223108,null,"",null,,,,,,,,,,,,,,,
recall-period,732,1224550,null,"",,,,,,,,,,,,,,,,
html-keyboard-response,733,1225058,null,"Time's Up!",null,,,,,,,,,,,,,,,
html-keyboard-response,734,1236342,11282.200000047684,"<p> Good job! You have responded correctly to 99% of the trials. </p>
                      <p>Be sure to only press the spacebar if you see a red square, and please keep your accuracy above 80%.</p>
                      <p> Press any key to continue the experiment. </p>",32,,,,,,,,,,,,,,,
html-keyboard-response,735,1237600,1256.1000000238419,"<div style=""font-size:48px;"">Press any key to begin list 7 of 16 </div>",32,,,,,,,,,,,,,,,
html-keyboard-response,736,1240108,null,"<div style=""font-size:60px;"">+</div>",null,,,,,,,,,,,,,,,
html-keyboard-response,737,1240313,null,"<div style=""font-size:42px;"">VENUS</div><img id = ""stim"" ><div class = green_square id = bottomsquare></div>",null,encoding,word_square,,,0,bottomsquare,none,true,,,VENUS,6,,,
html-keyboard-response,738,1240620,null,"<div style=""font-size:42px;"">VENUS</div>",null,,word,VENUS,,,,,,,,,,,,
html-keyboard-response,739,1242123,null,"",null,,word,VENUS,,,,,,,,,,,,
html-keyboard-response,740,1242328,null,"<div style=""font-size:42px;"">PIZZA</div><img id = ""stim"" ><div class = green_square id = topsquare></div>",null,encoding,word_square,,,0,topsquare,none,true,,,PIZZA,6,,,
html-keyboard-response,741,1242635,null,"<div style=""font-size:42px;"">PIZZA</div>",null,,word,PIZZA,,,,,,,,,,,,
html-keyboard-response,742,1244138,null,"",null,,word,PIZZA,,,,,,,,,,,,
html-keyboard-response,743,1244342,null,"<div style=""font-size:42px;"">FOLDER</div><img id = ""stim"" ><div class = green_square id = bottomsquare></div>",null,encoding,word_square,,,0,bottomsquare,none,true,,,FOLDER,6,,,
html-keyboard-response,744,1244650,null,"<div style=""font-size:42px;"">FOLDER</div>",null,,word,FOLDER,,,,,,,,,,,,
html-keyboard-response,745,1246153,null,"",null,,word,FOLDER,,,,,,,,,,,,
html-keyboard-response,746,1246360,null,"<div style=""font-size:42px;"">ORANGE</div><img id = ""stim"" ><div class = red_square id = topsquare></div>",null,encoding,word_square,,,1,topsquare,32,true,,,ORANGE,6,,,
html-keyboard-response,747,1246668,228.60000002384186,"<div style=""font-size:42px;"">ORANGE</div>",32,,word,ORANGE,,,,,,,,,,,,
html-keyboard-response,748,1248172,null,"",null,,word,ORANGE,,,,,,,,,,,,
html-keyboard-response,749,1248376,null,"<div style=""font-size:42px;"">BATHTUB</div><img id = ""stim"" ><div class = red_square id = bottomsquare></div>",null,encoding,word_square,,,1,bottomsquare,32,true,,,BATHTUB,6,,,
html-keyboard-response,750,1248682,183.5,"<div style=""font-size:42px;"">BATHTUB</div>",32,,word,BATHTUB,,,,,,,,,,,,
html-keyboard-response,751,1250187,null,"",null,,word,BATHTUB,,,,,,,,,,,,
html-keyboard-response,752,1250393,null,"<div style=""font-size:42px;"">GARLIC</div><img id = ""stim"" ><div class = green_square id = topsquare></div>",null,encoding,word_square,,,0,topsquare,none,true,,,GARLIC,6,,,
html-keyboard-response,753,1250700,null,"<div style=""font-size:42px;"">GARLIC</div>",null,,word,GARLIC,,,,,,,,,,,,
html-keyboard-response,754,1252204,null,"",null,,word,GARLIC,,,,,,,,,,,,
html-keyboard-response,755,1252411,null,"<div style=""font-size:42px;"">TOOTHBRUSH</div><img id = ""stim"" ><div class = red_square id = topsquare></div>",null,encoding,word_square,,,1,topsquare,32,true,,,TOOTHBRUSH,6,,,
html-keyboard-response,756,1252719,216.80000007152557,"<div style=""font-size:42px;"">TOOTHBRUSH</div>",32,,word,TOOTHBRUSH,,,,,,,,,,,,
html-keyboard-response,757,1254225,null,"",null,,word,TOOTHBRUSH,,,,,,,,,,,,
html-keyboard-response,758,1254435,null,"<div style=""font-size:42px;"">FROG</div><img id = ""stim"" ><div class = green_square id = bottomsquare></div>",null,encoding,word_square,,,0,bottomsquare,none,true,,,FROG,6,,,
html-keyboard-response,759,1254743,null,"<div style=""font-size:42px;"">FROG</div>",null,,word,FROG,,,,,,,,,,,,
html-keyboard-response,760,1256250,null,"",null,,word,FROG,,,,,,,,,,,,
html-keyboard-response,761,1256459,null,"<div style=""font-size:42px;"">DAISY</div><img id = ""stim"" ><div class = red_square id = bottomsquare></div>",null,encoding,word_square,,,1,bottomsquare,32,true,,,DAISY,6,,,
html-keyboard-response,762,1256763,159.29999995231628,"<div style=""font-size:42px;"">DAISY</div>",32,,word,DAISY,,,,,,,,,,,,
html-keyboard-response,763,1258267,null,"",null,,word,DAISY,,,,,,,,,,,,
html-keyboard-response,764,1258476,null,"<div style=""font-size:42px;"">PISTON</div><img id = ""stim"" ><div class = red_square id = topsquare></div>",null,encoding,word_square,,,1,topsquare,32,true,,,PISTON,6,,,
html-keyboard-response,765,1258784,226.39999997615814,"<div style=""font-size:42px;"">PISTON</div>",32,,word,PISTON,,,,,,,,,,,,
html-keyboard-response,766,1260288,null,"",null,,word,PISTON,,,,,,,,,,,,
html-keyboard-response,767,1260497,null,"<div style=""font-size:42px;"">PIGMENT</div><img id = ""stim"" ><div class = green_square id = topsquare></div>",null,encoding,word_square,,,0,topsquare,none,true,,,PIGMENT,6,,,
html-keyboard-response,768,1260806,null,"<div style=""font-size:42px;"">PIGMENT</div>",null,,word,PIGMENT,,,,,,,,,,,,
html-keyboard-response,769,1262313,null,"",null,,word,PIGMENT,,,,,,,,,,,,
html-keyboard-response,770,1262522,null,"<div style=""font-size:42px;"">MARKER</div><img id = ""stim"" ><div class = red_square id = bottomsquare></div>",null,encoding,word_square,,,1,bottomsquare,32,true,,,MARKER,6,,,
html-keyboard-response,771,1262830,230.20000004768372,"<div style=""font-size:42px;"">MARKER</div>",32,,word,MARKER,,,,,,,,,,,,
html-keyboard-response,772,1264335,null,"",null,,word,MARKER,,,,,,,,,,,,
html-keyboard-response,773,1264545,null,"<div style=""font-size:42px;"">BRANCH</div><img id = ""stim"" ><div class = green_square id = bottomsquare></div>",null,encoding,word_square,,,0,bottomsquare,none,true,,,BRANCH,6,,,
html-keyboard-response,774,1264849,null,"<div style=""font-size:42px;"">BRANCH</div>",null,,word,BRANCH,,,,,,,,,,,,
html-keyboard-response,775,1266353,null,"",null,,word,BRANCH,,,,,,,,,,,,
html-keyboard-response,776,1266558,null,"<div style=""font-size:42px;"">KEYBOARD</div><img id = ""stim"" ><div class = red_square id = topsquare></div>",null,encoding,word_square,,,1,topsquare,32,true,,,KEYBOARD,6,,,
html-keyboard-response,777,1266862,190.5,"<div style=""font-size:42px;"">KEYBOARD</div>",32,,word,KEYBOARD,,,,,,,,,,,,
html-keyboard-response,778,1268368,null,"",null,,word,KEYBOARD,,,,,,,,,,,,
html-keyboard-response,779,1268578,null,"<div style=""font-size:42px;"">GRILL</div><img id = ""stim"" ><div class = red_square id = bottomsquare></div>",null,encoding,word_square,,,1,bottomsquare,32,true,,,GRILL,6,,,
html-keyboard-response,780,1268886,211.60000002384186,"<div style=""font-size:42px;"">GRILL</div>",32,,word,GRILL,,,,,,,,,,,,
html-keyboard-response,781,1270390,null,"",null,,word,GRILL,,,,,,,,,,,,
html-keyboard-response,782,1270599,null,"<div style=""font-size:42px;"">BOXER</div><img id = ""stim"" ><div class = green_square id = topsquare></div>",null,encoding,word_square,,,0,topsquare,none,true,,,BOXER,6,,,
html-keyboard-response,783,1270907,null,"<div style=""font-size:42px;"">BOXER</div>",null,,word,BOXER,,,,,,,,,,,,
html-keyboard-response,784,1272413,null,"",null,,word,BOXER,,,,,,,,,,,,
call-function,785,1272415,,"",,,,,,,,,,,,,,,,
html-keyboard-response,786,1272522,null,"",null,,,,,,,,,,,,,,,
math-period,787,1274192,2986.4000000953674,"",,,,,,,,,,,2,,,,,
html-keyboard-response,788,1274296,null,"",null,,,,,,,,,,,,,,,
math-period,789,1276026,3232.7999999523163,"",,,,,,,,,,,4,,,,,
html-keyboard-response,790,1276128,null,"",null,,,,,,,,,,,,,,,
math-period,791,1277312,2191.100000023842,"",,,,,,,,,,,5,,,,,
html-keyboard-response,792,1277417,null,"",null,,,,,,,,,,,,,,,
math-period,793,1278591,2189.7000000476837,"",,,,,,,,,,,3,,,,,
html-keyboard-response,794,1278694,null,"",null,,,,,,,,,,,,,,,
math-period,795,1280846,3739.7000000476837,"",,,,,,,,,,,2,,,,,
html-keyboard-response,796,1280950,null,"",null,,,,,,,,,,,,,,,
math-period,797,1282350,2502.100000023842,"",,,,,,,,,,,5,,,,,
html-keyboard-response,798,1282454,null,"",null,,,,,,,,,,,,,,,
math-period,799,1284921,4659,"",,,,,,,,,,,2,,,,,
html-keyboard-response,800,1285026,null,"",null,,,,,,,,,,,,,,,
math-period,801,1289146,7877.299999952316,"",,,,,,,,,,,0,,,,,
html-keyboard-response,802,1289250,null,"",null,,,,,,,,,,,,,,,
math-period,803,1291382,3976.6999999284744,"",,,,,,,,,,,4,,,,,
html-keyboard-response,804,1291485,null,"",null,,,,,,,,,,,,,,,
math-period,805,1293421,3516.6999999284744,"",,,,,,,,,,,6,,,,,
html-keyboard-response,806,1293524,null,"",null,,,,,,,,,,,,,,,
math-period,807,1295350,3369.9000000953674,"",,,,,,,,,,,5,,,,,
html-keyboard-response,808,1295453,null,"",null,,,,,,,,,,,,,,,
math-period,809,1296417,null,"",,,,,,,,,,,,,,,,
html-keyboard-response,810,1297421,null,"Recall Period!",null,,,,,,,,,,,,,,,
call-function,811,1297423,,"",,,,,,,,,,,,,,,,
html-keyboard-response,812,1297530,null,"",null,,,,,,,,,,,,,,,
recall-period,813,1311260,74921.99999964237,"",,,,,,,,,,,daisy,,,,,
html-keyboard-response,814,1311367,null,"",null,,,,,,,,,,,,,,,
recall-period,815,1326817,119913,"",,,,,,,,,,,earn,,,,,
html-keyboard-response,816,1326921,null,"",null,,,,,,,,,,,,,,,
recall-period,817,1337751,66924.59999978542,"",,,,,,,,,,,slight,,,,,
html-keyboard-response,818,1337853,null,"",null,,,,,,,,,,,,,,,
recall-period,819,1352348,78433.10000014305,"",,,,,,,,,,,bland,,,,,
html-keyboard-response,820,1352452,null,"",null,,,,,,,,,,,,,,,
recall-period,821,1359260,30286.099999904633,"",,,,,,,,,,,rain,,,,,
html-keyboard-response,822,1359362,null,"",null,,,,,,,,,,,,,,,
recall-period,823,1372428,null,"",,,,,,,,,,,,,,,,
html-keyboard-response,824,1372935,null,"Time's Up!",null,,,,,,,,,,,,,,,
html-keyboard-response,825,1426919,53983.39999997616,"<p> Good job! You have responded correctly to 99% of the trials. </p>
                      <p>Be sure to only press the spacebar if you see a red square, and please keep your accuracy above 80%.</p>
                      <p> Press any key to continue the experiment. </p>",32,,,,,,,,,,,,,,,
html-keyboard-response,826,1430823,3900.9000000953674,"<div style=""font-size:48px;"">Press any key to begin list 8 of 16 </div>",32,,,,,,,,,,,,,,,
html-keyboard-response,827,1433333,null,"<div style=""font-size:60px;"">+</div>",null,,,,,,,,,,,,,,,
html-keyboard-response,828,1433542,null,"<div style=""font-size:42px;"">OFFICE</div><img id = ""stim"" ><div class = green_square id = topsquare></div>",null,encoding,word_square,,,0,topsquare,none,true,,,OFFICE,7,,,
html-keyboard-response,829,1433850,null,"<div style=""font-size:42px;"">OFFICE</div>",null,,word,OFFICE,,,,,,,,,,,,
html-keyboard-response,830,1435356,null,"",null,,word,OFFICE,,,,,,,,,,,,
html-keyboard-response,831,1435565,null,"<div style=""font-size:42px;"">POSTAGE</div><img id = ""stim"" ><div class = red_square id = bottomsquare></div>",null,encoding,word_square,,,1,bottomsquare,32,true,,,POSTAGE,7,,,
html-keyboard-response,832,1435874,226.20000004768372,"<div style=""font-size:42px;"">POSTAGE</div>",32,,word,POSTAGE,,,,,,,,,,,,
html-keyboard-response,833,1437379,null,"",null,,word,POSTAGE,,,,,,,,,,,,
html-keyboard-response,834,1437587,null,"<div style=""font-size:42px;"">MOP</div><img id = ""stim"" ><div class = red_square id = topsquare></div>",null,encoding,word_square,,,1,topsquare,32,true,,,MOP,7,,,
html-keyboard-response,835,1437893,208.29999995231628,"<div style=""font-size:42px;"">MOP</div>",32,,word,MOP,,,,,,,,,,,,
html-keyboard-response,836,1439396,null,"",null,,word,MOP,,,,,,,,,,,,
html-keyboard-response,837,1439604,null,"<div style=""font-size:42px;"">REINDEER</div><img id = ""stim"" ><div class = green_square id = bottomsquare></div>",null,encoding,word_square,,,0,bottomsquare,none,true,,,REINDEER,7,,,
html-keyboard-response,838,1439910,null,"<div style=""font-size:42px;"">REINDEER</div>",null,,word,REINDEER,,,,,,,,,,,,
html-keyboard-response,839,1441414,null,"",null,,word,REINDEER,,,,,,,,,,,,
html-keyboard-response,840,1441623,null,"<div style=""font-size:42px;"">SERVANT</div><img id = ""stim"" ><div class = red_square id = bottomsquare></div>",null,encoding,word_square,,,1,bottomsquare,32,true,,,SERVANT,7,,,
html-keyboard-response,841,1441931,177.29999995231628,"<div style=""font-size:42px;"">SERVANT</div>",32,,word,SERVANT,,,,,,,,,,,,
html-keyboard-response,842,1443436,null,"",null,,word,SERVANT,,,,,,,,,,,,
html-keyboard-response,843,1443645,null,"<div style=""font-size:42px;"">VIKING</div><img id = ""stim"" ><div class = green_square id = topsquare></div>",null,encoding,word_square,,,0,topsquare,none,true,,,VIKING,7,,,
html-keyboard-response,844,1443954,null,"<div style=""font-size:42px;"">VIKING</div>",null,,word,VIKING,,,,,,,,,,,,
html-keyboard-response,845,1445462,null,"",null,,word,VIKING,,,,,,,,,,,,
html-keyboard-response,846,1445671,null,"<div style=""font-size:42px;"">PARTY</div><img id = ""stim"" ><div class = red_square id = topsquare></div>",null,encoding,word_square,,,1,topsquare,32,true,,,PARTY,7,,,
html-keyboard-response,847,1445980,209.89999997615814,"<div style=""font-size:42px;"">PARTY</div>",32,,word,PARTY,,,,,,,,,,,,
html-keyboard-response,848,1447483,null,"",null,,word,PARTY,,,,,,,,,,,,
html-keyboard-response,849,1447692,null,"<div style=""font-size:42px;"">BANDIT</div><img id = ""stim"" ><div class = red_square id = bottomsquare></div>",null,encoding,word_square,,,1,bottomsquare,32,true,,,BANDIT,7,,,
html-keyboard-response,850,1447996,140.70000004768372,"<div style=""font-size:42px;"">BANDIT</div>",32,,word,BANDIT,,,,,,,,,,,,
html-keyboard-response,851,1449502,null,"",null,,word,BANDIT,,,,,,,,,,,,
html-keyboard-response,852,1449711,null,"<div style=""font-size:42px;"">BROOK</div><img id = ""stim"" ><div class = green_square id = bottomsquare></div>",null,encoding,word_square,,,0,bottomsquare,none,true,,,BROOK,7,,,
html-keyboard-response,853,1450018,null,"<div style=""font-size:42px;"">BROOK</div>",null,,word,BROOK,,,,,,,,,,,,
html-keyboard-response,854,1451523,null,"",null,,word,BROOK,,,,,,,,,,,,
html-keyboard-response,855,1451731,null,"<div style=""font-size:42px;"">MARSH</div><img id = ""stim"" ><div class = red_square id = topsquare></div>",null,encoding,word_square,,,1,topsquare,32,true,,,MARSH,7,,,
html-keyboard-response,856,1452036,187.70000004768372,"<div style=""font-size:42px;"">MARSH</div>",32,,word,MARSH,,,,,,,,,,,,
html-keyboard-response,857,1453541,null,"",null,,word,MARSH,,,,,,,,,,,,
html-keyboard-response,858,1453750,null,"<div style=""font-size:42px;"">BATHROOM</div><img id = ""stim"" ><div class = green_square id = topsquare></div>",null,encoding,word_square,,,0,topsquare,none,true,,,BATHROOM,7,,,
html-keyboard-response,859,1454056,null,"<div style=""font-size:42px;"">BATHROOM</div>",null,,word,BATHROOM,,,,,,,,,,,,
html-keyboard-response,860,1455560,null,"",null,,word,BATHROOM,,,,,,,,,,,,
html-keyboard-response,861,1455765,null,"<div style=""font-size:42px;"">BROTHER</div><img id = ""stim"" ><div class = red_square id = bottomsquare></div>",null,encoding,word_square,,,1,bottomsquare,32,true,,,BROTHER,7,,,
html-keyboard-response,862,1456070,190.60000002384186,"<div style=""font-size:42px;"">BROTHER</div>",32,,word,BROTHER,,,,,,,,,,,,
html-keyboard-response,863,1457576,null,"",null,,word,BROTHER,,,,,,,,,,,,
html-keyboard-response,864,1457785,null,"<div style=""font-size:42px;"">ZEBRA</div><img id = ""stim"" ><div class = red_square id = topsquare></div>",null,encoding,word_square,,,1,topsquare,32,true,,,ZEBRA,7,,,
html-keyboard-response,865,1458089,193.30000007152557,"<div style=""font-size:42px;"">ZEBRA</div>",32,,word,ZEBRA,,,,,,,,,,,,
html-keyboard-response,866,1459595,null,"",null,,word,ZEBRA,,,,,,,,,,,,
html-keyboard-response,867,1459804,null,"<div style=""font-size:42px;"">FINGER</div><img id = ""stim"" ><div class = green_square id = bottomsquare></div>",null,encoding,word_square,,,0,bottomsquare,none,true,,,FINGER,7,,,
html-keyboard-response,868,1460112,null,"<div style=""font-size:42px;"">FINGER</div>",null,,word,FINGER,,,,,,,,,,,,
html-keyboard-response,869,1461619,null,"",null,,word,FINGER,,,,,,,,,,,,
html-keyboard-response,870,1461828,null,"<div style=""font-size:42px;"">CELLAR</div><img id = ""stim"" ><div class = green_square id = topsquare></div>",null,encoding,word_square,,,0,topsquare,none,true,,,CELLAR,7,,,
html-keyboard-response,871,1462132,null,"<div style=""font-size:42px;"">CELLAR</div>",null,,word,CELLAR,,,,,,,,,,,,
html-keyboard-response,872,1463636,null,"",null,,word,CELLAR,,,,,,,,,,,,
html-keyboard-response,873,1463844,null,"<div style=""font-size:42px;"">BOTTLE</div><img id = ""stim"" ><div class = green_square id = bottomsquare></div>",null,encoding,word_square,,,0,bottomsquare,none,true,,,BOTTLE,7,,,
html-keyboard-response,874,1464147,null,"<div style=""font-size:42px;"">BOTTLE</div>",null,,word,BOTTLE,,,,,,,,,,,,
html-keyboard-response,875,1465652,null,"",null,,word,BOTTLE,,,,,,,,,,,,
call-function,876,1465654,,"",,,,,,,,,,,,,,,,
html-keyboard-response,877,1465760,null,"",null,,,,,,,,,,,,,,,
math-period,878,1468397,4624.899999976158,"",,,,,,,,,,,4,,,,,
html-keyboard-response,879,1468503,null,"",null,,,,,,,,,,,,,,,
math-period,880,1469616,2037,"",,,,,,,,,,,3,,,,,
html-keyboard-response,881,1469720,null,"",null,,,,,,,,,,,,,,,
math-period,882,1470775,1972.8999998569489,"",,,,,,,,,,,5,,,,,
html-keyboard-response,883,1470880,null,"",null,,,,,,,,,,,,,,,
math-period,884,1472858,3815.399999856949,"",,,,,,,,,,,2,,,,,
html-keyboard-response,885,1472965,null,"",null,,,,,,,,,,,,,,,
math-period,886,1474057,2049.600000023842,"",,,,,,,,,,,3,,,,,
html-keyboard-response,887,1474161,null,"",null,,,,,,,,,,,,,,,
math-period,888,1479006,15450.899999976158,"",,,,,,,,,,,4,,,,,
html-keyboard-response,889,1479113,null,"",null,,,,,,,,,,,,,,,
math-period,890,1480889,3388.5000001192093,"",,,,,,,,,,,1,,,,,
html-keyboard-response,891,1480992,null,"",null,,,,,,,,,,,,,,,
math-period,892,1482506,2845.5000001192093,"",,,,,,,,,,,5,,,,,
html-keyboard-response,893,1482610,null,"",null,,,,,,,,,,,,,,,
math-period,894,1483802,2231.600000023842,"",,,,,,,,,,,5,,,,,
html-keyboard-response,895,1483906,null,"",null,,,,,,,,,,,,,,,
math-period,896,1484998,2032.8999999761581,"",,,,,,,,,,,6,,,,,
html-keyboard-response,897,1485102,null,"",null,,,,,,,,,,,,,,,
math-period,898,1486560,2820.100000023842,"",,,,,,,,,,,5,,,,,
html-keyboard-response,899,1486660,null,"",null,,,,,,,,,,,,,,,
math-period,900,1487739,2000.9000000953674,"",,,,,,,,,,,6,,,,,
html-keyboard-response,901,1487841,null,"",null,,,,,,,,,,,,,,,
math-period,902,1489132,2441.7999999523163,"",,,,,,,,,,,3,,,,,
html-keyboard-response,903,1489237,null,"",null,,,,,,,,,,,,,,,
math-period,904,1489660,null,"",,,,,,,,,,,,,,,,
html-keyboard-response,905,1490664,null,"Recall Period!",null,,,,,,,,,,,,,,,
call-function,906,1490665,,"",,,,,,,,,,,,,,,,
html-keyboard-response,907,1490770,null,"",null,,,,,,,,,,,,,,,
recall-period,908,1495964,24083.800000190735,"",,,,,,,,,,,cedar,,,,,
html-keyboard-response,909,1496068,null,"",null,,,,,,,,,,,,,,,
recall-period,910,1509749,107374.10000050068,"",,,,,,,,,,,reindeer,,,,,
html-keyboard-response,911,1509856,null,"",null,,,,,,,,,,,,,,,
recall-period,912,1515040,25552.900000333786,"",,,,,,,,,,,wood,,,,,
html-keyboard-response,913,1515145,null,"",null,,,,,,,,,,,,,,,
recall-period,914,1527652,66669.29999959469,"",,,,,,,,,,,fauna,,,,,
html-keyboard-response,915,1527756,null,"",null,,,,,,,,,,,,,,,
recall-period,916,1543006,71241.59999990463,"",,,,,,,,,,,bear,,,,,
html-keyboard-response,917,1543110,null,"",null,,,,,,,,,,,,,,,
recall-period,918,1550265,39223.90000021458,"",,,,,,,,,,,float,,,,,
html-keyboard-response,919,1550370,null,"",null,,,,,,,,,,,,,,,
recall-period,920,1565671,null,"",,,,,,,,,,,,,,,,
html-keyboard-response,921,1566176,null,"Time's Up!",null,,,,,,,,,,,,,,,
html-keyboard-response,922,1570242,4062,"<p> Good job! You have responded correctly to 99% of the trials. </p>
                      <p>Be sure to only press the spacebar if you see a red square, and please keep your accuracy above 80%.</p>
                      <p> Press any key to continue the experiment. </p>",32,,,,,,,,,,,,,,,
html-keyboard-response,923,1574332,4089.100000023842,"<div style=""font-size:48px;"">Press any key to begin list 9 of 16 </div>",32,,,,,,,,,,,,,,,
html-keyboard-response,924,1576844,null,"<div style=""font-size:60px;"">+</div>",null,,,,,,,,,,,,,,,
html-keyboard-response,925,1577053,null,"<div style=""font-size:42px;"">PICTURE</div><img id = ""stim"" ><div class = red_square id = topsquare></div>",null,encoding,word_square,,,1,topsquare,32,true,,,PICTURE,8,,,
html-keyboard-response,926,1577359,290.60000002384186,"<div style=""font-size:42px;"">PICTURE</div>",32,,word,PICTURE,,,,,,,,,,,,
html-keyboard-response,927,1578865,null,"",null,,word,PICTURE,,,,,,,,,,,,
html-keyboard-response,928,1579074,null,"<div style=""font-size:42px;"">PLUTO</div><img id = ""stim"" ><div class = red_square id = bottomsquare></div>",null,encoding,word_square,,,1,bottomsquare,32,true,,,PLUTO,8,,,
html-keyboard-response,929,1579381,176.60000002384186,"<div style=""font-size:42px;"">PLUTO</div>",32,,word,PLUTO,,,,,,,,,,,,
html-keyboard-response,930,1580887,null,"",null,,word,PLUTO,,,,,,,,,,,,
