trial_type,trial_index,time_elapsed,rt,stimulus,key_press,exp_phase,test_part,word,task,targ_cond,sq_pos,correctKeyCode,correct,value,response,Word,List,RecResp,serial_pos,colorChosen
pavlovia,0,2537,,"",,,,,,,,,,,,,,,,
external-html,1,15523,12833.599999904633,"",,,,,,,,,,,,,,,,
html-keyboard-response,2,17631,2104.899999856949,"Welcome to the experiment. Press any key to begin.",13,,,,,,,,,,,,,,,
html-keyboard-response,3,24335,6702.200000047684,"<p>You will see a list of words and colored squares in the following task.<p><p>Press the spacebar whenever you see a GREEN square.<p><p>Do not press a key if the square is RED.<p><p>Press the spacebar to continue.</p>",13,,,,,,,,,,,,,,,
html-keyboard-response,4,32319,7471.899999856949,"<p>Please try to remember as many of the words as you can, and try to think about the meaning of each word as it appears.<p><p>After the detection and encoding task you will be asked to solve some math problems for 24 seconds.<p> Please solve as many problems as you can in the time given. <p><p><p>Press the spacebar to continue.</p>",32,,,,,,,,,,,,,,,
html-keyboard-response,5,37134,4308.600000143051,"After solving the math problems, you will be asked to type in as many words <p>from the previous list as you can remember for 75 seconds.<p> If you finish recalling before the 75 seconds are up,<p> just sit tight and try to think of any more words you could have missed. <p><p><p>Press the spacebar to continue.</p>",32,,,,,,,,,,,,,,,
html-keyboard-response,6,41463,3812.7999999523163,"There will be 16 lists of words and recall, followed  by<p><p> a recognition phase. The experiment is expected to take up to 90 minutes.<p>We will begin with a brief practice session.<p>Press the spacebar to begin the practice.</p>",32,,,,,,,,,,,,,,,
html-keyboard-response,7,43972,null,"<div style=""font-size:60px;"">+</div>",null,,,,,,,,,,,,,,,
html-keyboard-response,8,44188,null,"<div style=""font-size:42px;"">HAPPY</div><img id = ""stim"" ><div class = red_square id = ""bottomsquare"" ></div>",null,practice,word_square,HAPPY,prac_response,0,Bottom,none,true,,,,,,,
html-keyboard-response,9,44504,null,"<div style=""font-size:42px;"">HAPPY</div>",null,,word,HAPPY,,,,,,,,,,,,
html-keyboard-response,10,46016,null,"",null,,word,HAPPY,,,,,,,,,,,,
html-keyboard-response,11,46219,null,"<div style=""font-size:42px;"">COLD</div><img id = ""stim"" ><div class = green_square id = ""bottomsquare"" ></div>",null,practice,word_square,COLD,prac_response,1,Bottom,32,true,,,,,,,
html-keyboard-response,12,46521,257.19999980926514,"<div style=""font-size:42px;"">COLD</div>",32,,word,COLD,,,,,,,,,,,,
html-keyboard-response,13,48024,null,"",null,,word,COLD,,,,,,,,,,,,
html-keyboard-response,14,48228,null,"<div style=""font-size:42px;"">HEAVY</div><img id = ""stim"" ><div class = green_square id = ""topsquare"" ></div>",null,practice,word_square,HEAVY,prac_response,1,Top,32,true,,,,,,,
html-keyboard-response,15,48552,null,"<div style=""font-size:42px;"">HEAVY</div>",null,,word,HEAVY,,,,,,,,,,,,
html-keyboard-response,16,50056,16.399999856948853,"",32,,word,HEAVY,,,,,,,,,,,,
html-keyboard-response,17,50272,null,"<div style=""font-size:42px;"">FUNNY</div><img id = ""stim"" ><div class = red_square id = ""topsquare"" ></div>",null,practice,word_square,FUNNY,prac_response,0,Top,none,true,,,,,,,
html-keyboard-response,18,50581,null,"<div style=""font-size:42px;"">FUNNY</div>",null,,word,FUNNY,,,,,,,,,,,,
html-keyboard-response,19,52091,null,"",null,,word,FUNNY,,,,,,,,,,,,
html-keyboard-response,20,52300,null,"<div style=""font-size:42px;"">SCARY</div><img id = ""stim"" ><div class = green_square id = ""bottomsquare"" ></div>",null,practice,word_square,SCARY,prac_response,1,Bottom,32,true,,,,,,,
html-keyboard-response,21,52604,177.39999985694885,"<div style=""font-size:42px;"">SCARY</div>",32,,word,SCARY,,,,,,,,,,,,
html-keyboard-response,22,54114,null,"",null,,word,SCARY,,,,,,,,,,,,
html-keyboard-response,23,54320,null,"<div style=""font-size:42px;"">PEACEFUL</div><img id = ""stim"" ><div class = green_square id = ""topsquare"" ></div>",null,practice,word_square,PEACEFUL,prac_response,1,Top,32,true,,,,,,,
html-keyboard-response,24,54636,196.19999980926514,"<div style=""font-size:42px;"">PEACEFUL</div>",32,,word,PEACEFUL,,,,,,,,,,,,
html-keyboard-response,25,56150,null,"",null,,word,PEACEFUL,,,,,,,,,,,,
html-keyboard-response,26,56354,null,"<div style=""font-size:42px;"">LITTLE</div><img id = ""stim"" ><div class = red_square id = ""bottomsquare"" ></div>",null,practice,word_square,LITTLE,prac_response,0,Bottom,none,true,,,,,,,
html-keyboard-response,27,56670,null,"<div style=""font-size:42px;"">LITTLE</div>",null,,word,LITTLE,,,,,,,,,,,,
html-keyboard-response,28,58183,null,"",null,,word,LITTLE,,,,,,,,,,,,
html-keyboard-response,29,58392,null,"<div style=""font-size:42px;"">TIRED</div><img id = ""stim"" ><div class = red_square id = ""topsquare"" ></div>",null,practice,word_square,TIRED,prac_response,0,Top,none,true,,,,,,,
html-keyboard-response,30,58695,null,"<div style=""font-size:42px;"">TIRED</div>",null,,word,TIRED,,,,,,,,,,,,
html-keyboard-response,31,60210,null,"",null,,word,TIRED,,,,,,,,,,,,
html-keyboard-response,32,60425,null,"<div style=""font-size:42px;"">ENTERTAINING</div><img id = ""stim"" ><div class = red_square id = ""bottomsquare"" ></div>",null,practice,word_square,ENTERTAINING,prac_response,0,Bottom,none,true,,,,,,,
html-keyboard-response,33,60747,null,"<div style=""font-size:42px;"">ENTERTAINING</div>",null,,word,ENTERTAINING,,,,,,,,,,,,
html-keyboard-response,34,62262,null,"",null,,word,ENTERTAINING,,,,,,,,,,,,
html-keyboard-response,35,62470,null,"<div style=""font-size:42px;"">GRATEFUL</div><img id = ""stim"" ><div class = green_square id = ""bottomsquare"" ></div>",null,practice,word_square,GRATEFUL,prac_response,1,Bottom,32,true,,,,,,,
html-keyboard-response,36,62787,214.59999990463257,"<div style=""font-size:42px;"">GRATEFUL</div>",32,,word,GRATEFUL,,,,,,,,,,,,
html-keyboard-response,37,64290,null,"",null,,word,GRATEFUL,,,,,,,,,,,,
html-keyboard-response,38,64502,null,"<div style=""font-size:42px;"">LOUD</div><img id = ""stim"" ><div class = red_square id = ""topsquare"" ></div>",null,practice,word_square,LOUD,prac_response,0,Top,none,true,,,,,,,
html-keyboard-response,39,64824,null,"<div style=""font-size:42px;"">LOUD</div>",null,,word,LOUD,,,,,,,,,,,,
html-keyboard-response,40,66333,null,"",null,,word,LOUD,,,,,,,,,,,,
html-keyboard-response,41,66549,null,"<div style=""font-size:42px;"">SMART</div><img id = ""stim"" ><div class = green_square id = ""topsquare"" ></div>",null,practice,word_square,SMART,prac_response,1,Top,32,true,,,,,,,
html-keyboard-response,42,66866,177.79999995231628,"<div style=""font-size:42px;"">SMART</div>",32,,word,SMART,,,,,,,,,,,,
html-keyboard-response,43,68376,null,"",null,,word,SMART,,,,,,,,,,,,
html-keyboard-response,44,68587,null,"<div style=""font-size:42px;"">SMOOTH</div><img id = ""stim"" ><div class = green_square id = ""bottomsquare"" ></div>",null,practice,word_square,SMOOTH,prac_response,1,Bottom,32,true,,,,,,,
html-keyboard-response,45,68900,213.20000004768372,"<div style=""font-size:42px;"">SMOOTH</div>",32,,word,SMOOTH,,,,,,,,,,,,
html-keyboard-response,46,70402,null,"",null,,word,SMOOTH,,,,,,,,,,,,
html-keyboard-response,47,70617,null,"<div style=""font-size:42px;"">DISHONEST</div><img id = ""stim"" ><div class = red_square id = ""bottomsquare"" ></div>",null,practice,word_square,DISHONEST,prac_response,0,Bottom,none,true,,,,,,,
html-keyboard-response,48,70935,null,"<div style=""font-size:42px;"">DISHONEST</div>",null,,word,DISHONEST,,,,,,,,,,,,
html-keyboard-response,49,72452,null,"",null,,word,DISHONEST,,,,,,,,,,,,
html-keyboard-response,50,72668,null,"<div style=""font-size:42px;"">WEALTHY</div><img id = ""stim"" ><div class = green_square id = ""topsquare"" ></div>",null,practice,word_square,WEALTHY,prac_response,1,Top,32,true,,,,,,,
html-keyboard-response,51,72983,151.5,"<div style=""font-size:42px;"">WEALTHY</div>",32,,word,WEALTHY,,,,,,,,,,,,
html-keyboard-response,52,74492,null,"",null,,word,WEALTHY,,,,,,,,,,,,
html-keyboard-response,53,74708,null,"<div style=""font-size:42px;"">BEAUTIFUL</div><img id = ""stim"" ><div class = red_square id = ""topsquare"" ></div>",null,practice,word_square,BEAUTIFUL,prac_response,0,Top,none,true,,,,,,,
html-keyboard-response,54,75018,null,"<div style=""font-size:42px;"">BEAUTIFUL</div>",null,,word,BEAUTIFUL,,,,,,,,,,,,
html-keyboard-response,55,76527,null,"",null,,word,BEAUTIFUL,,,,,,,,,,,,
html-keyboard-response,56,99498,22969,"<p> Good job! You responded correctly to 100% of the trials. </p>
                  <p>Be sure to only press the spacebar if you see a GREEN square, and please keep your accuracy above 80%.</p>
                  <p>We're going to try once more to make sure you understand the task. press any key to continue. </p>",32,,,,,,,,,,,,,,,
html-keyboard-response,57,101043,1543.8999998569489,"<p>You will see a list of words and colored squares in the following task.<p><p>Press the spacebar whenever you see a GREEN square.<p><p>Do not press a key if the square is RED<p><p>Press the spacebar to continue.</p>",32,,,,,,,,,,,,,,,
html-keyboard-response,58,103576,null,"<div style=""font-size:60px;"">+</div>",null,,,,,,,,,,,,,,,
html-keyboard-response,59,103792,null,"<div style=""font-size:42px;"">HAPPY</div><img id = ""stim"" ><div class = red_square id = ""bottomsquare"" ></div>",null,practice2,word_square,HAPPY,prac_response,0,Bottom,none,true,,,,,,,
html-keyboard-response,60,104115,null,"<div style=""font-size:42px;"">HAPPY</div>",null,,word,HAPPY,,,,,,,,,,,,
html-keyboard-response,61,105631,null,"",null,,word,HAPPY,,,,,,,,,,,,
html-keyboard-response,62,105843,null,"<div style=""font-size:42px;"">COLD</div><img id = ""stim"" ><div class = green_square id = ""bottomsquare"" ></div>",null,practice2,word_square,,prac_response,1,Bottom,32,true,,,,,,,
html-keyboard-response,63,106160,238.29999995231628,"<div style=""font-size:42px;"">COLD</div>",32,,word,COLD,,,,,,,,,,,,
html-keyboard-response,64,107673,null,"",null,,word,COLD,,,,,,,,,,,,
html-keyboard-response,65,107883,null,"<div style=""font-size:42px;"">HEAVY</div><img id = ""stim"" ><div class = green_square id = ""topsquare"" ></div>",null,practice2,word_square,,prac_response,1,Top,32,true,,,,,,,
html-keyboard-response,66,108199,171.79999995231628,"<div style=""font-size:42px;"">HEAVY</div>",32,,word,HEAVY,,,,,,,,,,,,
html-keyboard-response,67,109703,null,"",null,,word,HEAVY,,,,,,,,,,,,
html-keyboard-response,68,109918,null,"<div style=""font-size:42px;"">FUNNY</div><img id = ""stim"" ><div class = red_square id = ""topsquare"" ></div>",null,practice2,word_square,,prac_response,0,Top,none,true,,,,,,,
html-keyboard-response,69,110234,null,"<div style=""font-size:42px;"">FUNNY</div>",null,,word,FUNNY,,,,,,,,,,,,
html-keyboard-response,70,111749,null,"",null,,word,FUNNY,,,,,,,,,,,,
html-keyboard-response,71,111960,null,"<div style=""font-size:42px;"">SCARY</div><img id = ""stim"" ><div class = green_square id = ""bottomsquare"" ></div>",null,practice2,word_square,,prac_response,1,Bottom,32,true,,,,,,,
html-keyboard-response,72,112264,238.09999990463257,"<div style=""font-size:42px;"">SCARY</div>",32,,word,SCARY,,,,,,,,,,,,
html-keyboard-response,73,113765,null,"",null,,word,SCARY,,,,,,,,,,,,
html-keyboard-response,74,113984,null,"<div style=""font-size:42px;"">PEACEFUL</div><img id = ""stim"" ><div class = green_square id = ""topsquare"" ></div>",null,practice2,word_square,,prac_response,1,Top,32,true,,,,,,,
html-keyboard-response,75,114301,247.09999990463257,"<div style=""font-size:42px;"">PEACEFUL</div>",32,,word,PEACEFUL,,,,,,,,,,,,
html-keyboard-response,76,115804,null,"",null,,word,PEACEFUL,,,,,,,,,,,,
html-keyboard-response,77,116006,null,"<div style=""font-size:42px;"">LITTLE</div><img id = ""stim"" ><div class = red_square id = ""bottomsquare"" ></div>",null,practice2,word_square,LITTLE,prac_response,0,Bottom,none,true,,,,,,,
html-keyboard-response,78,116308,null,"<div style=""font-size:42px;"">LITTLE</div>",null,,word,LITTLE,,,,,,,,,,,,
html-keyboard-response,79,117814,null,"",null,,word,LITTLE,,,,,,,,,,,,
html-keyboard-response,80,118016,null,"<div style=""font-size:42px;"">TIRED</div><img id = ""stim"" ><div class = red_square id = ""topsquare"" ></div>",null,practice2,word_square,,prac_response,0,Top,none,true,,,,,,,
html-keyboard-response,81,118326,null,"<div style=""font-size:42px;"">TIRED</div>",null,,word,TIRED,,,,,,,,,,,,
html-keyboard-response,82,119837,null,"",null,,word,TIRED,,,,,,,,,,,,
html-keyboard-response,83,120048,null,"<div style=""font-size:42px;"">ENTERTAINING</div><img id = ""stim"" ><div class = red_square id = ""bottomsquare"" ></div>",null,practice2,word_square,ENTERTAINING,prac_response,0,Bottom,none,true,,,,,,,
html-keyboard-response,84,120353,null,"<div style=""font-size:42px;"">ENTERTAINING</div>",null,,word,ENTERTAINING,,,,,,,,,,,,
html-keyboard-response,85,121857,null,"",null,,word,ENTERTAINING,,,,,,,,,,,,
html-keyboard-response,86,122061,null,"<div style=""font-size:42px;"">GRATEFUL</div><img id = ""stim"" ><div class = green_square id = ""bottomsquare"" ></div>",null,practice2,word_square,,prac_response,1,Bottom,32,true,,,,,,,
html-keyboard-response,87,122375,154.29999995231628,"<div style=""font-size:42px;"">GRATEFUL</div>",32,,word,GRATEFUL,,,,,,,,,,,,
html-keyboard-response,88,123893,null,"",null,,word,GRATEFUL,,,,,,,,,,,,
html-keyboard-response,89,124114,null,"<div style=""font-size:42px;"">LOUD</div><img id = ""stim"" ><div class = red_square id = ""topsquare"" ></div>",null,practice2,word_square,,prac_response,0,Top,none,true,,,,,,,
html-keyboard-response,90,124425,null,"<div style=""font-size:42px;"">LOUD</div>",null,,word,LOUD,,,,,,,,,,,,
html-keyboard-response,91,125930,null,"",null,,word,LOUD,,,,,,,,,,,,
html-keyboard-response,92,126142,null,"<div style=""font-size:42px;"">SMART</div><img id = ""stim"" ><div class = green_square id = ""topsquare"" ></div>",null,practice2,word_square,,prac_response,1,Top,32,true,,,,,,,
html-keyboard-response,93,126463,148.5,"<div style=""font-size:42px;"">SMART</div>",32,,word,SMART,,,,,,,,,,,,
html-keyboard-response,94,127974,null,"",null,,word,SMART,,,,,,,,,,,,
html-keyboard-response,95,128191,null,"<div style=""font-size:42px;"">SMOOTH</div><img id = ""stim"" ><div class = green_square id = ""bottomsquare"" ></div>",null,practice2,word_square,,prac_response,1,Bottom,32,true,,,,,,,
html-keyboard-response,96,128507,241.80000019073486,"<div style=""font-size:42px;"">SMOOTH</div>",32,,word,SMOOTH,,,,,,,,,,,,
html-keyboard-response,97,130014,null,"",null,,word,SMOOTH,,,,,,,,,,,,
html-keyboard-response,98,130226,null,"<div style=""font-size:42px;"">DISHONEST</div><img id = ""stim"" ><div class = red_square id = ""bottomsquare"" ></div>",null,practice2,word_square,DISHONEST,prac_response,0,Bottom,none,true,,,,,,,
html-keyboard-response,99,130534,null,"<div style=""font-size:42px;"">DISHONEST</div>",null,,word,DISHONEST,,,,,,,,,,,,
html-keyboard-response,100,132039,null,"",null,,word,DISHONEST,,,,,,,,,,,,
html-keyboard-response,101,132253,null,"<div style=""font-size:42px;"">WEALTHY</div><img id = ""stim"" ><div class = green_square id = ""topsquare"" ></div>",null,practice2,word_square,,prac_response,1,Top,32,true,,,,,,,
html-keyboard-response,102,132576,253.40000009536743,"<div style=""font-size:42px;"">WEALTHY</div>",32,,word,WEALTHY,,,,,,,,,,,,
html-keyboard-response,103,134078,null,"",null,,word,WEALTHY,,,,,,,,,,,,
html-keyboard-response,104,134295,null,"<div style=""font-size:42px;"">BEAUTIFUL</div><img id = ""stim"" ><div class = red_square id = ""topsquare"" ></div>",null,practice2,word_square,,prac_response,0,Top,none,true,,,,,,,
html-keyboard-response,105,134610,null,"<div style=""font-size:42px;"">BEAUTIFUL</div>",null,,word,BEAUTIFUL,,,,,,,,,,,,
html-keyboard-response,106,136119,null,"",null,,word,BEAUTIFUL,,,,,,,,,,,,
html-keyboard-response,107,139716,3595.0999999046326,"<p> Good job! You responded correctly to 100% of the trials. </p>
                    <p>Be sure to only press the spacebar if you see a GREEN square, and please keep your accuracy above 80%.</p>
                    <p>Press any key to begin the math and recall sections. Thank you! </p>",32,,,,,,,,,,,,,,,
call-function,108,139717,,"",,,,,,,,,,,,,,,,
html-keyboard-response,109,139831,null,"",null,,,,,,,,,,,,,,,
math-period,110,147742,14428.899999856949,"",,,,,,,,,,,0,,,,,
html-keyboard-response,111,147858,null,"",null,,,,,,,,,,,,,,,
math-period,112,151616,6807.099999904633,"",,,,,,,,,,,5,,,,,
html-keyboard-response,113,151723,null,"",null,,,,,,,,,,,,,,,
math-period,114,157584,10957.5,"",,,,,,,,,,,2,,,,,
html-keyboard-response,115,157688,null,"",null,,,,,,,,,,,,,,,
math-period,116,161718,7305.700000047684,"",,,,,,,,,,,5,,,,,
html-keyboard-response,117,161829,null,"",null,,,,,,,,,,,,,,,
math-period,118,163719,null,"",,,,,,,,,,,,,,,,
html-keyboard-response,119,164729,null,"Recall Period!",null,,,,,,,,,,,,,,,
call-function,120,164730,,"",,,,,,,,,,,,,,,,
html-keyboard-response,121,164845,null,"",null,,,,,,,,,,,,,,,
recall-period,122,183791,136978.6000006199,"",,,,,,,,,,,clock,,,,,
html-keyboard-response,123,183900,null,"",null,,,,,,,,,,,,,,,
recall-period,124,195673,54480.099999427795,"",,,,,,,,,,,bake,,,,,
html-keyboard-response,125,195784,null,"",null,,,,,,,,,,,,,,,
recall-period,126,239733,null,"",,,,,,,,,,,,,,,,
html-keyboard-response,127,240250,null,"Time's Up!",null,,,,,,,,,,,,,,,
html-keyboard-response,128,245102,4851.099999904633,"<p>We will now begin the experiment!<p><p>Please try to remember all words from each list.<p><p>Press the spacebar whenever you see a GREEN square.<p><p><p><p>Press the spacebar to begin.</p>",32,,,,,,,,,,,,,,,
html-keyboard-response,129,247986,2377.5,"<div style=""font-size:48px;"">Press any key to begin list 1 of 16 </div>",32,,,,,,,,,,,,,,,
html-keyboard-response,130,250497,null,"<div style=""font-size:60px;"">+</div>",null,,,,,,,,,,,,,,,
html-keyboard-response,131,250701,null,"<div style=""font-size:42px;"">BISCUIT</div><img id = ""stim"" ><div class = green_square id = topsquare></div>",null,encoding,word_square,,,1,topsquare,32,true,,,BISCUIT,0,,,
html-keyboard-response,132,251010,307.39999985694885,"<div style=""font-size:42px;"">BISCUIT</div>",32,,word,BISCUIT,,,,,,,,,,,,
html-keyboard-response,133,252520,null,"",null,,word,BISCUIT,,,,,,,,,,,,
html-keyboard-response,134,252722,null,"<div style=""font-size:42px;"">PORCH</div><img id = ""stim"" ><div class = red_square id = bottomsquare></div>",null,encoding,word_square,,,0,bottomsquare,none,true,,,PORCH,0,,,
html-keyboard-response,135,253039,null,"<div style=""font-size:42px;"">PORCH</div>",null,,word,PORCH,,,,,,,,,,,,
html-keyboard-response,136,254562,null,"",null,,word,PORCH,,,,,,,,,,,,
html-keyboard-response,137,254777,null,"<div style=""font-size:42px;"">COD</div><img id = ""stim"" ><div class = red_square id = topsquare></div>",null,encoding,word_square,,,0,topsquare,none,true,,,COD,0,,,
html-keyboard-response,138,255094,null,"<div style=""font-size:42px;"">COD</div>",null,,word,COD,,,,,,,,,,,,
html-keyboard-response,139,256605,null,"",null,,word,COD,,,,,,,,,,,,
html-keyboard-response,140,256819,null,"<div style=""font-size:42px;"">BANJO</div><img id = ""stim"" ><div class = green_square id = bottomsquare></div>",null,encoding,word_square,,,1,bottomsquare,32,true,,,BANJO,0,,,
html-keyboard-response,141,257124,241.5,"<div style=""font-size:42px;"">BANJO</div>",32,,word,BANJO,,,,,,,,,,,,
html-keyboard-response,142,258632,null,"",null,,word,BANJO,,,,,,,,,,,,
html-keyboard-response,143,258850,null,"<div style=""font-size:42px;"">FIREPLACE</div><img id = ""stim"" ><div class = green_square id = topsquare></div>",null,encoding,word_square,,,1,topsquare,32,true,,,FIREPLACE,0,,,
html-keyboard-response,144,259154,null,"<div style=""font-size:42px;"">FIREPLACE</div>",null,,word,FIREPLACE,,,,,,,,,,,,
html-keyboard-response,145,260667,74.40000009536743,"",32,,word,FIREPLACE,,,,,,,,,,,,
html-keyboard-response,146,260882,null,"<div style=""font-size:42px;"">DOG</div><img id = ""stim"" ><div class = red_square id = bottomsquare></div>",null,encoding,word_square,,,0,bottomsquare,none,true,,,DOG,0,,,
html-keyboard-response,147,261188,null,"<div style=""font-size:42px;"">DOG</div>",null,,word,DOG,,,,,,,,,,,,
html-keyboard-response,148,262696,null,"",null,,word,DOG,,,,,,,,,,,,
html-keyboard-response,149,262900,null,"<div style=""font-size:42px;"">BURGLAR</div><img id = ""stim"" ><div class = green_square id = bottomsquare></div>",null,encoding,word_square,,,1,bottomsquare,32,true,,,BURGLAR,0,,,
html-keyboard-response,150,263214,null,"<div style=""font-size:42px;"">BURGLAR</div>",null,,word,BURGLAR,,,,,,,,,,,,
html-keyboard-response,151,264729,14.900000095367432,"",32,,word,BURGLAR,,,,,,,,,,,,
html-keyboard-response,152,264938,null,"<div style=""font-size:42px;"">SUSPECT</div><img id = ""stim"" ><div class = green_square id = topsquare></div>",null,encoding,word_square,,,1,topsquare,32,true,,,SUSPECT,0,,,
html-keyboard-response,153,265254,null,"<div style=""font-size:42px;"">SUSPECT</div>",null,,word,SUSPECT,,,,,,,,,,,,
html-keyboard-response,154,266771,434.2000000476837,"",32,,word,SUSPECT,,,,,,,,,,,,
html-keyboard-response,155,266988,null,"<div style=""font-size:42px;"">SCULPTURE</div><img id = ""stim"" ><div class = red_square id = topsquare></div>",null,encoding,word_square,,,0,topsquare,none,true,,,SCULPTURE,0,,,
html-keyboard-response,156,267304,null,"<div style=""font-size:42px;"">SCULPTURE</div>",null,,word,SCULPTURE,,,,,,,,,,,,
html-keyboard-response,157,268811,null,"",null,,word,SCULPTURE,,,,,,,,,,,,
html-keyboard-response,158,269026,null,"<div style=""font-size:42px;"">IDOL</div><img id = ""stim"" ><div class = green_square id = bottomsquare></div>",null,encoding,word_square,,,1,bottomsquare,32,true,,,IDOL,0,,,
html-keyboard-response,159,269342,284,"<div style=""font-size:42px;"">IDOL</div>",32,,word,IDOL,,,,,,,,,,,,
html-keyboard-response,160,270848,null,"",null,,word,IDOL,,,,,,,,,,,,
html-keyboard-response,161,271069,null,"<div style=""font-size:42px;"">SCALLOP</div><img id = ""stim"" ><div class = red_square id = bottomsquare></div>",null,encoding,word_square,,,0,bottomsquare,none,true,,,SCALLOP,0,,,
html-keyboard-response,162,271390,null,"<div style=""font-size:42px;"">SCALLOP</div>",null,,word,SCALLOP,,,,,,,,,,,,
html-keyboard-response,163,272907,null,"",null,,word,SCALLOP,,,,,,,,,,,,
html-keyboard-response,164,273128,null,"<div style=""font-size:42px;"">COWBOY</div><img id = ""stim"" ><div class = red_square id = topsquare></div>",null,encoding,word_square,,,0,topsquare,none,true,,,COWBOY,0,,,
html-keyboard-response,165,273441,null,"<div style=""font-size:42px;"">COWBOY</div>",null,,word,COWBOY,,,,,,,,,,,,
html-keyboard-response,166,274953,null,"",null,,word,COWBOY,,,,,,,,,,,,
html-keyboard-response,167,275164,null,"<div style=""font-size:42px;"">FIDDLE</div><img id = ""stim"" ><div class = green_square id = topsquare></div>",null,encoding,word_square,,,1,topsquare,32,true,,,FIDDLE,0,,,
html-keyboard-response,168,275475,279.19999980926514,"<div style=""font-size:42px;"">FIDDLE</div>",32,,word,FIDDLE,,,,,,,,,,,,
html-keyboard-response,169,276986,null,"",null,,word,FIDDLE,,,,,,,,,,,,
html-keyboard-response,170,277192,null,"<div style=""font-size:42px;"">ROBOT</div><img id = ""stim"" ><div class = red_square id = bottomsquare></div>",null,encoding,word_square,,,0,bottomsquare,none,true,,,ROBOT,0,,,
html-keyboard-response,171,277514,null,"<div style=""font-size:42px;"">ROBOT</div>",null,,word,ROBOT,,,,,,,,,,,,
html-keyboard-response,172,279022,null,"",null,,word,ROBOT,,,,,,,,,,,,
html-keyboard-response,173,279233,null,"<div style=""font-size:42px;"">ATTIRE</div><img id = ""stim"" ><div class = red_square id = topsquare></div>",null,encoding,word_square,,,0,topsquare,none,true,,,ATTIRE,0,,,
html-keyboard-response,174,279535,null,"<div style=""font-size:42px;"">ATTIRE</div>",null,,word,ATTIRE,,,,,,,,,,,,
html-keyboard-response,175,281045,null,"",null,,word,ATTIRE,,,,,,,,,,,,
html-keyboard-response,176,281261,null,"<div style=""font-size:42px;"">SHELTER</div><img id = ""stim"" ><div class = green_square id = bottomsquare></div>",null,encoding,word_square,,,1,bottomsquare,32,true,,,SHELTER,0,,,
html-keyboard-response,177,281576,299.09999990463257,"<div style=""font-size:42px;"">SHELTER</div>",32,,word,SHELTER,,,,,,,,,,,,
html-keyboard-response,178,283080,null,"",null,,word,SHELTER,,,,,,,,,,,,
call-function,179,283081,,"",,,,,,,,,,,,,,,,
html-keyboard-response,180,283196,null,"",null,,,,,,,,,,,,,,,
math-period,181,287640,7439.299999952316,"",,,,,,,,,,,1,,,,,
html-keyboard-response,182,287745,null,"",null,,,,,,,,,,,,,,,
math-period,183,290579,5304.599999666214,"",,,,,,,,,,,4,,,,,
html-keyboard-response,184,290684,null,"",null,,,,,,,,,,,,,,,
math-period,185,293521,5154.199999809265,"",,,,,,,,,,,5,,,,,
html-keyboard-response,186,293629,null,"",null,,,,,,,,,,,,,,,
math-period,187,299365,11104.900000095367,"",,,,,,,,,,,2,,,,,
html-keyboard-response,188,299481,null,"",null,,,,,,,,,,,,,,,
math-period,189,307092,7071.5,"",,,,,,,,,,,3,,,,,
html-keyboard-response,190,308103,null,"Recall Period!",null,,,,,,,,,,,,,,,
call-function,191,308103,,"",,,,,,,,,,,,,,,,
html-keyboard-response,192,308208,null,"",null,,,,,,,,,,,,,,,
recall-period,193,317786,97955.60000038147,"",,,,,,,,,,,scallop ,,,,,
html-keyboard-response,194,317895,null,"",null,,,,,,,,,,,,,,,
recall-period,195,319550,5272.000000715256,"",,,,,,,,,,,idol,,,,,
html-keyboard-response,196,319660,null,"",null,,,,,,,,,,,,,,,
recall-period,197,320980,2624.100000143051,"",,,,,,,,,,,dog,,,,,
html-keyboard-response,198,321096,null,"",null,,,,,,,,,,,,,,,
recall-period,199,327550,21063.900000095367,"",,,,,,,,,,,cod,,,,,
html-keyboard-response,200,327661,null,"",null,,,,,,,,,,,,,,,
recall-period,201,329458,6375.699999809265,"",,,,,,,,,,,table,,,,,
html-keyboard-response,202,329573,null,"",null,,,,,,,,,,,,,,,
recall-period,203,340825,77622.90000009537,"",,,,,,,,,,,suspect,,,,,
html-keyboard-response,204,340930,null,"",null,,,,,,,,,,,,,,,
recall-period,205,349861,49557.400000572205,"",,,,,,,,,,,banjo,,,,,
html-keyboard-response,206,349970,null,"",null,,,,,,,,,,,,,,,
recall-period,207,366001,63029.90000009537,"",,,,,,,,,,,dog,,,,,
html-keyboard-response,208,366103,null,"",null,,,,,,,,,,,,,,,
recall-period,209,383110,null,"",,,,,,,,,,,,,,,,
html-keyboard-response,210,383626,null,"Time's Up!",null,,,,,,,,,,,,,,,
html-keyboard-response,211,387441,3813.100000143051,"<p> Good job! You have responded correctly to 100% of the trials. </p>
                      <p>Be sure to only press the spacebar if you see a GREEN square, and please keep your accuracy above 80%.</p>
                      <p> Press any key to continue the experiment. </p>",32,,,,,,,,,,,,,,,
html-keyboard-response,212,389014,1571.7999999523163,"<div style=""font-size:48px;"">Press any key to begin list 2 of 16 </div>",32,,,,,,,,,,,,,,,
html-keyboard-response,213,391520,null,"<div style=""font-size:60px;"">+</div>",null,,,,,,,,,,,,,,,
html-keyboard-response,214,391737,null,"<div style=""font-size:42px;"">BLUEPRINT</div><img id = ""stim"" ><div class = green_square id = bottomsquare></div>",null,encoding,word_square,,,1,bottomsquare,32,true,,,BLUEPRINT,1,,,
html-keyboard-response,215,392053,239.69999980926514,"<div style=""font-size:42px;"">BLUEPRINT</div>",32,,word,BLUEPRINT,,,,,,,,,,,,
html-keyboard-response,216,393556,null,"",null,,word,BLUEPRINT,,,,,,,,,,,,
html-keyboard-response,217,393773,null,"<div style=""font-size:42px;"">PICTURE</div><img id = ""stim"" ><div class = red_square id = topsquare></div>",null,encoding,word_square,,,0,topsquare,none,true,,,PICTURE,1,,,
html-keyboard-response,218,394076,null,"<div style=""font-size:42px;"">PICTURE</div>",null,,word,PICTURE,,,,,,,,,,,,
html-keyboard-response,219,395578,null,"",null,,word,PICTURE,,,,,,,,,,,,
html-keyboard-response,220,395784,null,"<div style=""font-size:42px;"">SURVEY</div><img id = ""stim"" ><div class = red_square id = bottomsquare></div>",null,encoding,word_square,,,0,bottomsquare,none,true,,,SURVEY,1,,,
html-keyboard-response,221,396085,null,"<div style=""font-size:42px;"">SURVEY</div>",null,,word,SURVEY,,,,,,,,,,,,
html-keyboard-response,222,397598,null,"",null,,word,SURVEY,,,,,,,,,,,,
html-keyboard-response,223,397809,null,"<div style=""font-size:42px;"">PAPER</div><img id = ""stim"" ><div class = green_square id = topsquare></div>",null,encoding,word_square,,,1,topsquare,32,true,,,PAPER,1,,,
html-keyboard-response,224,398130,null,"<div style=""font-size:42px;"">PAPER</div>",null,,word,PAPER,,,,,,,,,,,,
html-keyboard-response,225,399644,78.79999995231628,"",32,,word,PAPER,,,,,,,,,,,,
html-keyboard-response,226,399865,null,"<div style=""font-size:42px;"">SUPPER</div><img id = ""stim"" ><div class = red_square id = topsquare></div>",null,encoding,word_square,,,0,topsquare,none,true,,,SUPPER,1,,,
html-keyboard-response,227,400178,null,"<div style=""font-size:42px;"">SUPPER</div>",null,,word,SUPPER,,,,,,,,,,,,
html-keyboard-response,228,401695,null,"",null,,word,SUPPER,,,,,,,,,,,,
html-keyboard-response,229,401917,null,"<div style=""font-size:42px;"">BANQUET</div><img id = ""stim"" ><div class = red_square id = bottomsquare></div>",null,encoding,word_square,,,0,bottomsquare,none,true,,,BANQUET,1,,,
html-keyboard-response,230,402228,null,"<div style=""font-size:42px;"">BANQUET</div>",null,,word,BANQUET,,,,,,,,,,,,
html-keyboard-response,231,403732,null,"",null,,word,BANQUET,,,,,,,,,,,,
html-keyboard-response,232,403947,null,"<div style=""font-size:42px;"">BINDER</div><img id = ""stim"" ><div class = green_square id = bottomsquare></div>",null,encoding,word_square,,,1,bottomsquare,32,true,,,BINDER,1,,,
html-keyboard-response,233,404258,null,"<div style=""font-size:42px;"">BINDER</div>",null,,word,BINDER,,,,,,,,,,,,
html-keyboard-response,234,405761,58.299999952316284,"",32,,word,BINDER,,,,,,,,,,,,
html-keyboard-response,235,405977,null,"<div style=""font-size:42px;"">NEPHEW</div><img id = ""stim"" ><div class = red_square id = topsquare></div>",null,encoding,word_square,,,0,topsquare,none,true,,,NEPHEW,1,,,
html-keyboard-response,236,406287,null,"<div style=""font-size:42px;"">NEPHEW</div>",null,,word,NEPHEW,,,,,,,,,,,,
html-keyboard-response,237,407793,null,"",null,,word,NEPHEW,,,,,,,,,,,,
html-keyboard-response,238,408004,null,"<div style=""font-size:42px;"">DOCTOR</div><img id = ""stim"" ><div class = green_square id = topsquare></div>",null,encoding,word_square,,,1,topsquare,32,true,,,DOCTOR,1,,,
html-keyboard-response,239,408311,null,"<div style=""font-size:42px;"">DOCTOR</div>",null,,word,DOCTOR,,,,,,,,,,,,
html-keyboard-response,240,409825,10.100000143051147,"",32,,word,DOCTOR,,,,,,,,,,,,
html-keyboard-response,241,410040,null,"<div style=""font-size:42px;"">PIZZA</div><img id = ""stim"" ><div class = green_square id = bottomsquare></div>",null,encoding,word_square,,,1,bottomsquare,32,true,,,PIZZA,1,,,
html-keyboard-response,242,410349,null,"<div style=""font-size:42px;"">PIZZA</div>",null,,word,PIZZA,,,,,,,,,,,,
html-keyboard-response,243,411852,68.80000019073486,"",32,,word,PIZZA,,,,,,,,,,,,
html-keyboard-response,244,412068,null,"<div style=""font-size:42px;"">SAUSAGE</div><img id = ""stim"" ><div class = red_square id = bottomsquare></div>",null,encoding,word_square,,,0,bottomsquare,none,true,,,SAUSAGE,1,,,
html-keyboard-response,245,412391,null,"<div style=""font-size:42px;"">SAUSAGE</div>",null,,word,SAUSAGE,,,,,,,,,,,,
html-keyboard-response,246,413895,null,"",null,,word,SAUSAGE,,,,,,,,,,,,
html-keyboard-response,247,414111,null,"<div style=""font-size:42px;"">COMPASS</div><img id = ""stim"" ><div class = green_square id = topsquare></div>",null,encoding,word_square,,,1,topsquare,32,true,,,COMPASS,1,,,
html-keyboard-response,248,414427,null,"<div style=""font-size:42px;"">COMPASS</div>",null,,word,COMPASS,,,,,,,,,,,,
html-keyboard-response,249,415931,110.30000019073486,"",32,,word,COMPASS,,,,,,,,,,,,
html-keyboard-response,250,416147,null,"<div style=""font-size:42px;"">DRILL</div><img id = ""stim"" ><div class = green_square id = bottomsquare></div>",null,encoding,word_square,,,1,bottomsquare,32,true,,,DRILL,1,,,
html-keyboard-response,251,416463,null,"<div style=""font-size:42px;"">DRILL</div>",null,,word,DRILL,,,,,,,,,,,,
html-keyboard-response,252,417974,813.9000000953674,"",32,,word,DRILL,,,,,,,,,,,,
html-keyboard-response,253,418187,null,"<div style=""font-size:42px;"">MATCH</div><img id = ""stim"" ><div class = red_square id = topsquare></div>",null,encoding,word_square,,,0,topsquare,none,true,,,MATCH,1,,,
html-keyboard-response,254,418497,null,"<div style=""font-size:42px;"">MATCH</div>",null,,word,MATCH,,,,,,,,,,,,
html-keyboard-response,255,420008,null,"",null,,word,MATCH,,,,,,,,,,,,
html-keyboard-response,256,420225,null,"<div style=""font-size:42px;"">DOLPHIN</div><img id = ""stim"" ><div class = red_square id = bottomsquare></div>",null,encoding,word_square,,,0,bottomsquare,none,true,,,DOLPHIN,1,,,
html-keyboard-response,257,420542,null,"<div style=""font-size:42px;"">DOLPHIN</div>",null,,word,DOLPHIN,,,,,,,,,,,,
html-keyboard-response,258,422045,null,"",null,,word,DOLPHIN,,,,,,,,,,,,
html-keyboard-response,259,422267,null,"<div style=""font-size:42px;"">BELT</div><img id = ""stim"" ><div class = green_square id = topsquare></div>",null,encoding,word_square,,,1,topsquare,32,true,,,BELT,1,,,
html-keyboard-response,260,422576,195.79999995231628,"<div style=""font-size:42px;"">BELT</div>",32,,word,BELT,,,,,,,,,,,,
html-keyboard-response,261,424082,null,"",null,,word,BELT,,,,,,,,,,,,
call-function,262,424083,,"",,,,,,,,,,,,,,,,
html-keyboard-response,263,424193,null,"",null,,,,,,,,,,,,,,,
math-period,264,427575,6006.900000095367,"",,,,,,,,,,,3,,,,,
html-keyboard-response,265,427679,null,"",null,,,,,,,,,,,,,,,
math-period,266,431376,6767.300000190735,"",,,,,,,,,,,4,,,,,
html-keyboard-response,267,431492,null,"",null,,,,,,,,,,,,,,,
math-period,268,434230,4780.599999904633,"",,,,,,,,,,,4,,,,,
html-keyboard-response,269,434336,null,"",null,,,,,,,,,,,,,,,
math-period,270,439590,9906.700000047684,"",,,,,,,,,,,5,,,,,
html-keyboard-response,271,439698,null,"",null,,,,,,,,,,,,,,,
math-period,272,441897,3784.5999999046326,"",,,,,,,,,,,3,,,,,
html-keyboard-response,273,442003,null,"",null,,,,,,,,,,,,,,,
math-period,274,445358,6149.400000095367,"",,,,,,,,,,,5,,,,,
html-keyboard-response,275,445474,null,"",null,,,,,,,,,,,,,,,
math-period,276,447954,4344.400000095367,"",,,,,,,,,,,2,,,,,
html-keyboard-response,277,448059,null,"",null,,,,,,,,,,,,,,,
math-period,278,448085,null,"",,,,,,,,,,,,,,,,
html-keyboard-response,279,449099,null,"Recall Period!",null,,,,,,,,,,,,,,,
call-function,280,449100,,"",,,,,,,,,,,,,,,,
html-keyboard-response,281,449215,null,"",null,,,,,,,,,,,,,,,
recall-period,282,454918,33227.09999918938,"",,,,,,,,,,,dolphin,,,,,
html-keyboard-response,283,455020,null,"",null,,,,,,,,,,,,,,,
recall-period,284,456975,7145.299999952316,"",,,,,,,,,,,ball,,,,,
html-keyboard-response,285,457087,null,"",null,,,,,,,,,,,,,,,
recall-period,286,494432,396125.59999990463,"",,,,,,,,,,,belt,,,,,
html-keyboard-response,287,494540,null,"",null,,,,,,,,,,,,,,,
recall-period,288,524121,93567.09999895096,"",,,,,,,,,,,,,,,,
html-keyboard-response,289,524634,null,"Time's Up!",null,,,,,,,,,,,,,,,
html-keyboard-response,290,529036,4400.799999952316,"<p> Good job! You have responded correctly to 100% of the trials. </p>
                      <p>Be sure to only press the spacebar if you see a GREEN square, and please keep your accuracy above 80%.</p>
                      <p> Press any key to continue the experiment. </p>",32,,,,,,,,,,,,,,,
html-keyboard-response,291,530541,1502.9000000953674,"<div style=""font-size:48px;"">Press any key to begin list 3 of 16 </div>",32,,,,,,,,,,,,,,,
html-keyboard-response,292,533051,null,"<div style=""font-size:60px;"">+</div>",null,,,,,,,,,,,,,,,
html-keyboard-response,293,533267,null,"<div style=""font-size:42px;"">ROCKET</div><img id = ""stim"" ><div class = red_square id = bottomsquare></div>",null,encoding,word_square,,,0,bottomsquare,none,false,,,ROCKET,2,,,
html-keyboard-response,294,533583,null,"<div style=""font-size:42px;"">ROCKET</div>",null,,word,ROCKET,,,,,,,,,,,,
html-keyboard-response,295,535094,103.79999995231628,"",32,,word,ROCKET,,,,,,,,,,,,
html-keyboard-response,296,535309,null,"<div style=""font-size:42px;"">MISSILE</div><img id = ""stim"" ><div class = green_square id = topsquare></div>",null,encoding,word_square,,,1,topsquare,32,true,,,MISSILE,2,,,
html-keyboard-response,297,535613,275.7000000476837,"<div style=""font-size:42px;"">MISSILE</div>",32,,word,MISSILE,,,,,,,,,,,,
html-keyboard-response,298,537124,null,"",null,,word,MISSILE,,,,,,,,,,,,
html-keyboard-response,299,537335,null,"<div style=""font-size:42px;"">WIDOW</div><img id = ""stim"" ><div class = green_square id = bottomsquare></div>",null,encoding,word_square,,,1,bottomsquare,32,true,,,WIDOW,2,,,
html-keyboard-response,300,537656,null,"<div style=""font-size:42px;"">WIDOW</div>",null,,word,WIDOW,,,,,,,,,,,,
html-keyboard-response,301,539161,96.60000014305115,"",32,,word,WIDOW,,,,,,,,,,,,
html-keyboard-response,302,539382,null,"<div style=""font-size:42px;"">MILDEW</div><img id = ""stim"" ><div class = red_square id = topsquare></div>",null,encoding,word_square,,,0,topsquare,none,true,,,MILDEW,2,,,
html-keyboard-response,303,539694,null,"<div style=""font-size:42px;"">MILDEW</div>",null,,word,MILDEW,,,,,,,,,,,,
html-keyboard-response,304,541214,null,"",null,,word,MILDEW,,,,,,,,,,,,
html-keyboard-response,305,541430,null,"<div style=""font-size:42px;"">SPHINX</div><img id = ""stim"" ><div class = red_square id = bottomsquare></div>",null,encoding,word_square,,,0,bottomsquare,none,true,,,SPHINX,2,,,
html-keyboard-response,306,541734,null,"<div style=""font-size:42px;"">SPHINX</div>",null,,word,SPHINX,,,,,,,,,,,,
html-keyboard-response,307,543250,null,"",null,,word,SPHINX,,,,,,,,,,,,
html-keyboard-response,308,543465,null,"<div style=""font-size:42px;"">MARINE</div><img id = ""stim"" ><div class = green_square id = topsquare></div>",null,encoding,word_square,,,1,topsquare,32,true,,,MARINE,2,,,
html-keyboard-response,309,543781,null,"<div style=""font-size:42px;"">MARINE</div>",null,,word,MARINE,,,,,,,,,,,,
html-keyboard-response,310,545286,197.5,"",32,,word,MARINE,,,,,,,,,,,,
html-keyboard-response,311,545508,null,"<div style=""font-size:42px;"">STONE</div><img id = ""stim"" ><div class = red_square id = topsquare></div>",null,encoding,word_square,,,0,topsquare,none,true,,,STONE,2,,,
html-keyboard-response,312,545824,null,"<div style=""font-size:42px;"">STONE</div>",null,,word,STONE,,,,,,,,,,,,
html-keyboard-response,313,547336,null,"",null,,word,STONE,,,,,,,,,,,,
html-keyboard-response,314,547539,null,"<div style=""font-size:42px;"">ALMOND</div><img id = ""stim"" ><div class = red_square id = bottomsquare></div>",null,encoding,word_square,,,0,bottomsquare,none,true,,,ALMOND,2,,,
html-keyboard-response,315,547849,null,"<div style=""font-size:42px;"">ALMOND</div>",null,,word,ALMOND,,,,,,,,,,,,
html-keyboard-response,316,549365,null,"",null,,word,ALMOND,,,,,,,,,,,,
html-keyboard-response,317,549578,null,"<div style=""font-size:42px;"">CRYSTAL</div><img id = ""stim"" ><div class = green_square id = bottomsquare></div>",null,encoding,word_square,,,1,bottomsquare,32,true,,,CRYSTAL,2,,,
html-keyboard-response,318,549881,288.2999999523163,"<div style=""font-size:42px;"">CRYSTAL</div>",32,,word,CRYSTAL,,,,,,,,,,,,
html-keyboard-response,319,551383,null,"",null,,word,CRYSTAL,,,,,,,,,,,,
html-keyboard-response,320,551593,null,"<div style=""font-size:42px;"">LOVER</div><img id = ""stim"" ><div class = red_square id = topsquare></div>",null,encoding,word_square,,,0,topsquare,none,true,,,LOVER,2,,,
html-keyboard-response,321,551900,null,"<div style=""font-size:42px;"">LOVER</div>",null,,word,LOVER,,,,,,,,,,,,
html-keyboard-response,322,553403,null,"",null,,word,LOVER,,,,,,,,,,,,
html-keyboard-response,323,553606,null,"<div style=""font-size:42px;"">STOCKING</div><img id = ""stim"" ><div class = green_square id = topsquare></div>",null,encoding,word_square,,,1,topsquare,32,true,,,STOCKING,2,,,
html-keyboard-response,324,553911,null,"<div style=""font-size:42px;"">STOCKING</div>",null,,word,STOCKING,,,,,,,,,,,,
html-keyboard-response,325,555425,239.79999995231628,"",32,,word,STOCKING,,,,,,,,,,,,
html-keyboard-response,326,555640,null,"<div style=""font-size:42px;"">TAXI</div><img id = ""stim"" ><div class = green_square id = bottomsquare></div>",null,encoding,word_square,,,1,bottomsquare,32,true,,,TAXI,2,,,
html-keyboard-response,327,555942,null,"<div style=""font-size:42px;"">TAXI</div>",null,,word,TAXI,,,,,,,,,,,,
html-keyboard-response,328,557444,753.8999998569489,"",32,,word,TAXI,,,,,,,,,,,,
html-keyboard-response,329,557665,null,"<div style=""font-size:42px;"">HIKER</div><img id = ""stim"" ><div class = red_square id = bottomsquare></div>",null,encoding,word_square,,,0,bottomsquare,none,true,,,HIKER,2,,,
html-keyboard-response,330,557978,null,"<div style=""font-size:42px;"">HIKER</div>",null,,word,HIKER,,,,,,,,,,,,
html-keyboard-response,331,559493,null,"",null,,word,HIKER,,,,,,,,,,,,
html-keyboard-response,332,559702,null,"<div style=""font-size:42px;"">SATURN</div><img id = ""stim"" ><div class = green_square id = topsquare></div>",null,encoding,word_square,,,1,topsquare,32,true,,,SATURN,2,,,
html-keyboard-response,333,560011,null,"<div style=""font-size:42px;"">SATURN</div>",null,,word,SATURN,,,,,,,,,,,,
html-keyboard-response,334,561513,462,"",32,,word,SATURN,,,,,,,,,,,,
html-keyboard-response,335,561718,null,"<div style=""font-size:42px;"">SERPENT</div><img id = ""stim"" ><div class = green_square id = bottomsquare></div>",null,encoding,word_square,,,1,bottomsquare,32,true,,,SERPENT,2,,,
html-keyboard-response,336,562032,null,"<div style=""font-size:42px;"">SERPENT</div>",null,,word,SERPENT,,,,,,,,,,,,
html-keyboard-response,337,563550,207.90000009536743,"",32,,word,SERPENT,,,,,,,,,,,,
html-keyboard-response,338,563770,null,"<div style=""font-size:42px;"">EGYPT</div><img id = ""stim"" ><div class = red_square id = topsquare></div>",null,encoding,word_square,,,0,topsquare,none,true,,,EGYPT,2,,,
html-keyboard-response,339,564082,null,"<div style=""font-size:42px;"">EGYPT</div>",null,,word,EGYPT,,,,,,,,,,,,
html-keyboard-response,340,565588,null,"",null,,word,EGYPT,,,,,,,,,,,,
call-function,341,565590,,"",,,,,,,,,,,,,,,,
html-keyboard-response,342,565710,null,"",null,,,,,,,,,,,,,,,
math-period,343,577410,21906.5,"",,,,,,,,,,,2,,,,,
html-keyboard-response,344,577531,null,"",null,,,,,,,,,,,,,,,
math-period,345,580230,4586,"",,,,,,,,,,,3,,,,,
html-keyboard-response,346,580344,null,"",null,,,,,,,,,,,,,,,
math-period,347,583548,5707.400000095367,"",,,,,,,,,,,3,,,,,
html-keyboard-response,348,583667,null,"",null,,,,,,,,,,,,,,,
math-period,349,587283,6470.700000286102,"",,,,,,,,,,,3,,,,,
html-keyboard-response,350,587385,null,"",null,,,,,,,,,,,,,,,
math-period,351,589595,null,"",,,,,,,,,,,,,,,,
html-keyboard-response,352,590615,null,"Recall Period!",null,,,,,,,,,,,,,,,
call-function,353,590616,,"",,,,,,,,,,,,,,,,
html-keyboard-response,354,590731,null,"",null,,,,,,,,,,,,,,,
recall-period,355,593848,15919.900000333786,"",,,,,,,,,,,saturn,,,,,
html-keyboard-response,356,593950,null,"",null,,,,,,,,,,,,,,,
recall-period,357,595835,7900.499999761581,"",,,,,,,,,,,lover,,,,,
html-keyboard-response,358,595944,null,"",null,,,,,,,,,,,,,,,
recall-period,359,612627,322405.5999984741,"",,,,,,,,,,,egypt,,,,,
html-keyboard-response,360,612738,null,"",null,,,,,,,,,,,,,,,
recall-period,361,636872,159987.1000006199,"",,,,,,,,,,,rocket,,,,,
html-keyboard-response,362,636983,null,"",null,,,,,,,,,,,,,,,
recall-period,363,665624,28180.299999952316,"",,,,,,,,,,,s,,,,,
html-keyboard-response,364,666127,null,"Time's Up!",null,,,,,,,,,,,,,,,
html-keyboard-response,365,672613,6483.700000047684,"<p> Good job! You have responded correctly to 98% of the trials. </p>
                      <p>Be sure to only press the spacebar if you see a GREEN square, and please keep your accuracy above 80%.</p>
                      <p> Press any key to continue the experiment. </p>",32,,,,,,,,,,,,,,,
html-keyboard-response,366,673802,1188.2999999523163,"<div style=""font-size:48px;"">Press any key to begin list 4 of 16 </div>",32,,,,,,,,,,,,,,,
html-keyboard-response,367,676320,null,"<div style=""font-size:60px;"">+</div>",null,,,,,,,,,,,,,,,
html-keyboard-response,368,676541,null,"<div style=""font-size:42px;"">CYCLONE</div><img id = ""stim"" ><div class = red_square id = topsquare></div>",null,encoding,word_square,,,0,topsquare,none,true,,,CYCLONE,3,,,
html-keyboard-response,369,676858,null,"<div style=""font-size:42px;"">CYCLONE</div>",null,,word,CYCLONE,,,,,,,,,,,,
html-keyboard-response,370,678380,null,"",null,,word,CYCLONE,,,,,,,,,,,,
html-keyboard-response,371,678593,null,"<div style=""font-size:42px;"">CRITIC</div><img id = ""stim"" ><div class = green_square id = bottomsquare></div>",null,encoding,word_square,,,1,bottomsquare,32,true,,,CRITIC,3,,,
html-keyboard-response,372,678906,234.29999995231628,"<div style=""font-size:42px;"">CRITIC</div>",32,,word,CRITIC,,,,,,,,,,,,
html-keyboard-response,373,680430,464.10000014305115,"",66,,word,CRITIC,,,,,,,,,,,,
html-keyboard-response,374,680639,null,"<div style=""font-size:42px;"">SHELF</div><img id = ""stim"" ><div class = green_square id = topsquare></div>",null,encoding,word_square,,,1,topsquare,32,true,,,SHELF,3,,,
html-keyboard-response,375,680947,null,"<div style=""font-size:42px;"">SHELF</div>",null,,word,SHELF,,,,,,,,,,,,
html-keyboard-response,376,682450,67.29999995231628,"",32,,word,SHELF,,,,,,,,,,,,
html-keyboard-response,377,682666,null,"<div style=""font-size:42px;"">SUMMIT</div><img id = ""stim"" ><div class = red_square id = bottomsquare></div>",null,encoding,word_square,,,0,bottomsquare,none,true,,,SUMMIT,3,,,
html-keyboard-response,378,682967,null,"<div style=""font-size:42px;"">SUMMIT</div>",null,,word,SUMMIT,,,,,,,,,,,,
html-keyboard-response,379,684477,null,"",null,,word,SUMMIT,,,,,,,,,,,,
html-keyboard-response,380,684683,null,"<div style=""font-size:42px;"">BRAKE</div><img id = ""stim"" ><div class = green_square id = bottomsquare></div>",null,encoding,word_square,,,1,bottomsquare,32,true,,,BRAKE,3,,,
html-keyboard-response,381,684989,null,"<div style=""font-size:42px;"">BRAKE</div>",null,,word,BRAKE,,,,,,,,,,,,
html-keyboard-response,382,686493,4.799999952316284,"",32,,word,BRAKE,,,,,,,,,,,,
html-keyboard-response,383,686708,null,"<div style=""font-size:42px;"">COUSIN</div><img id = ""stim"" ><div class = green_square id = topsquare></div>",null,encoding,word_square,,,1,topsquare,32,true,,,COUSIN,3,,,
html-keyboard-response,384,687026,null,"<div style=""font-size:42px;"">COUSIN</div>",null,,word,COUSIN,,,,,,,,,,,,
html-keyboard-response,385,688529,100.5,"",32,,word,COUSIN,,,,,,,,,,,,
html-keyboard-response,386,688732,null,"<div style=""font-size:42px;"">POND</div><img id = ""stim"" ><div class = red_square id = topsquare></div>",null,encoding,word_square,,,0,topsquare,none,true,,,POND,3,,,
html-keyboard-response,387,689034,null,"<div style=""font-size:42px;"">POND</div>",null,,word,POND,,,,,,,,,,,,
html-keyboard-response,388,690538,null,"",null,,word,POND,,,,,,,,,,,,
html-keyboard-response,389,690746,null,"<div style=""font-size:42px;"">TIGER</div><img id = ""stim"" ><div class = green_square id = bottomsquare></div>",null,encoding,word_square,,,1,bottomsquare,32,true,,,TIGER,3,,,
html-keyboard-response,390,691055,150.90000009536743,"<div style=""font-size:42px;"">TIGER</div>",32,,word,TIGER,,,,,,,,,,,,
html-keyboard-response,391,692564,null,"",null,,word,TIGER,,,,,,,,,,,,
html-keyboard-response,392,692777,null,"<div style=""font-size:42px;"">JOKER</div><img id = ""stim"" ><div class = red_square id = bottomsquare></div>",null,encoding,word_square,,,0,bottomsquare,none,true,,,JOKER,3,,,
html-keyboard-response,393,693083,null,"<div style=""font-size:42px;"">JOKER</div>",null,,word,JOKER,,,,,,,,,,,,
html-keyboard-response,394,694585,null,"",null,,word,JOKER,,,,,,,,,,,,
html-keyboard-response,395,694794,null,"<div style=""font-size:42px;"">REINDEER</div><img id = ""stim"" ><div class = red_square id = topsquare></div>",null,encoding,word_square,,,0,topsquare,none,true,,,REINDEER,3,,,
html-keyboard-response,396,695102,null,"<div style=""font-size:42px;"">REINDEER</div>",null,,word,REINDEER,,,,,,,,,,,,
html-keyboard-response,397,696614,null,"",null,,word,REINDEER,,,,,,,,,,,,
html-keyboard-response,398,696825,null,"<div style=""font-size:42px;"">BUG</div><img id = ""stim"" ><div class = green_square id = topsquare></div>",null,encoding,word_square,,,1,topsquare,32,true,,,BUG,3,,,
html-keyboard-response,399,697127,268.60000014305115,"<div style=""font-size:42px;"">BUG</div>",32,,word,BUG,,,,,,,,,,,,
html-keyboard-response,400,698635,null,"",null,,word,BUG,,,,,,,,,,,,
html-keyboard-response,401,698857,null,"<div style=""font-size:42px;"">SPIDER</div><img id = ""stim"" ><div class = red_square id = bottomsquare></div>",null,encoding,word_square,,,0,bottomsquare,none,true,,,SPIDER,3,,,
html-keyboard-response,402,699166,null,"<div style=""font-size:42px;"">SPIDER</div>",null,,word,SPIDER,,,,,,,,,,,,
html-keyboard-response,403,700682,null,"",null,,word,SPIDER,,,,,,,,,,,,
html-keyboard-response,404,700898,null,"<div style=""font-size:42px;"">BROTHER</div><img id = ""stim"" ><div class = red_square id = topsquare></div>",null,encoding,word_square,,,0,topsquare,none,true,,,BROTHER,3,,,
html-keyboard-response,405,701213,null,"<div style=""font-size:42px;"">BROTHER</div>",null,,word,BROTHER,,,,,,,,,,,,
html-keyboard-response,406,702719,null,"",null,,word,BROTHER,,,,,,,,,,,,
html-keyboard-response,407,702932,null,"<div style=""font-size:42px;"">YARD</div><img id = ""stim"" ><div class = green_square id = bottomsquare></div>",null,encoding,word_square,,,1,bottomsquare,32,true,,,YARD,3,,,
html-keyboard-response,408,703248,null,"<div style=""font-size:42px;"">YARD</div>",null,,word,YARD,,,,,,,,,,,,
html-keyboard-response,409,704751,61.200000047683716,"",32,,word,YARD,,,,,,,,,,,,
html-keyboard-response,410,704967,null,"<div style=""font-size:42px;"">LONDON</div><img id = ""stim"" ><div class = green_square id = topsquare></div>",null,encoding,word_square,,,1,topsquare,32,true,,,LONDON,3,,,
html-keyboard-response,411,705283,null,"<div style=""font-size:42px;"">LONDON</div>",null,,word,LONDON,,,,,,,,,,,,
html-keyboard-response,412,706803,337.7000000476837,"",32,,word,LONDON,,,,,,,,,,,,
html-keyboard-response,413,707025,null,"<div style=""font-size:42px;"">SCISSORS</div><img id = ""stim"" ><div class = red_square id = bottomsquare></div>",null,encoding,word_square,,,0,bottomsquare,none,true,,,SCISSORS,3,,,
html-keyboard-response,414,707347,null,"<div style=""font-size:42px;"">SCISSORS</div>",null,,word,SCISSORS,,,,,,,,,,,,
html-keyboard-response,415,708855,null,"",null,,word,SCISSORS,,,,,,,,,,,,
call-function,416,708856,,"",,,,,,,,,,,,,,,,
html-keyboard-response,417,708971,null,"",null,,,,,,,,,,,,,,,
math-period,418,713735,8596.900000095367,"",,,,,,,,,,,3,,,,,
html-keyboard-response,419,713839,null,"",null,,,,,,,,,,,,,,,
math-period,420,723628,18507.10000014305,"",,,,,,,,,,,1,,,,,
html-keyboard-response,421,723739,null,"",null,,,,,,,,,,,,,,,
math-period,422,732861,null,"",,,,,,,,,,,,,,,,
html-keyboard-response,423,733877,null,"Recall Period!",null,,,,,,,,,,,,,,,
call-function,424,733878,,"",,,,,,,,,,,,,,,,
html-keyboard-response,425,733981,null,"",null,,,,,,,,,,,,,,,
recall-period,426,737585,17812.50000023842,"",,,,,,,,,,,tiger,,,,,
html-keyboard-response,427,737697,null,"",null,,,,,,,,,,,,,,,
recall-period,428,740265,9405.999999523163,"",,,,,,,,,,,spit,,,,,
html-keyboard-response,429,740376,null,"",null,,,,,,,,,,,,,,,
recall-period,430,741586,2638.2000000476837,"",,,,,,,,,,,boy,,,,,
html-keyboard-response,431,741695,null,"",null,,,,,,,,,,,,,,,
recall-period,432,743280,7523.399999856949,"",,,,,,,,,,,brother,,,,,
html-keyboard-response,433,743385,null,"",null,,,,,,,,,,,,,,,
recall-period,434,744434,2352.7000000476837,"",,,,,,,,,,,bug,,,,,
html-keyboard-response,435,744538,null,"",null,,,,,,,,,,,,,,,
recall-period,436,746118,5601.300000190735,"",,,,,,,,,,,yard,,,,,
html-keyboard-response,437,746222,null,"",null,,,,,,,,,,,,,,,
recall-period,438,749405,13984.900000810623,"",,,,,,,,,,,london,,,,,
html-keyboard-response,439,749519,null,"",null,,,,,,,,,,,,,,,
recall-period,440,756424,37840.79999947548,"",,,,,,,,,,,tiger,,,,,
html-keyboard-response,441,756535,null,"",null,,,,,,,,,,,,,,,
recall-period,442,783004,371735.80000019073,"",,,,,,,,,,,ball,,,,,
html-keyboard-response,443,783112,null,"",null,,,,,,,,,,,,,,,
recall-period,444,808890,null,"",,,,,,,,,,,,,,,,
html-keyboard-response,445,809394,null,"Time's Up!",null,,,,,,,,,,,,,,,
html-keyboard-response,446,814971,5575.200000047684,"<p> Good job! You have responded correctly to 98% of the trials. </p>
                      <p>Be sure to only press the spacebar if you see a GREEN square, and please keep your accuracy above 80%.</p>
                      <p> Press any key to continue the experiment. </p>",32,,,,,,,,,,,,,,,
html-keyboard-response,447,816107,1134.2999999523163,"<div style=""font-size:48px;"">Press any key to begin list 5 of 16 </div>",32,,,,,,,,,,,,,,,
html-keyboard-response,448,818625,null,"<div style=""font-size:60px;"">+</div>",null,,,,,,,,,,,,,,,
html-keyboard-response,449,818831,null,"<div style=""font-size:42px;"">MOTHER</div><img id = ""stim"" ><div class = green_square id = topsquare></div>",null,encoding,word_square,,,1,topsquare,32,true,,,MOTHER,4,,,
html-keyboard-response,450,819149,null,"<div style=""font-size:42px;"">MOTHER</div>",null,,word,MOTHER,,,,,,,,,,,,
html-keyboard-response,451,820654,84.20000004768372,"",32,,word,MOTHER,,,,,,,,,,,,
html-keyboard-response,452,820867,null,"<div style=""font-size:42px;"">POWDER</div><img id = ""stim"" ><div class = green_square id = bottomsquare></div>",null,encoding,word_square,,,1,bottomsquare,32,true,,,POWDER,4,,,
html-keyboard-response,453,821182,null,"<div style=""font-size:42px;"">POWDER</div>",null,,word,POWDER,,,,,,,,,,,,
html-keyboard-response,454,822699,122.89999985694885,"",32,,word,POWDER,,,,,,,,,,,,
html-keyboard-response,455,822920,null,"<div style=""font-size:42px;"">QUARTER</div><img id = ""stim"" ><div class = red_square id = bottomsquare></div>",null,encoding,word_square,,,0,bottomsquare,none,true,,,QUARTER,4,,,
html-keyboard-response,456,823232,null,"<div style=""font-size:42px;"">QUARTER</div>",null,,word,QUARTER,,,,,,,,,,,,
html-keyboard-response,457,824739,null,"",null,,word,QUARTER,,,,,,,,,,,,
html-keyboard-response,458,824955,null,"<div style=""font-size:42px;"">COIN</div><img id = ""stim"" ><div class = green_square id = topsquare></div>",null,encoding,word_square,,,1,topsquare,32,true,,,COIN,4,,,
html-keyboard-response,459,825268,235.5,"<div style=""font-size:42px;"">COIN</div>",32,,word,COIN,,,,,,,,,,,,
html-keyboard-response,460,826774,null,"",null,,word,COIN,,,,,,,,,,,,
html-keyboard-response,461,826996,null,"<div style=""font-size:42px;"">REPORT</div><img id = ""stim"" ><div class = green_square id = bottomsquare></div>",null,encoding,word_square,,,1,bottomsquare,32,true,,,REPORT,4,,,
html-keyboard-response,462,827308,null,"<div style=""font-size:42px;"">REPORT</div>",null,,word,REPORT,,,,,,,,,,,,
html-keyboard-response,463,828812,64.29999995231628,"",32,,word,REPORT,,,,,,,,,,,,
html-keyboard-response,464,829023,null,"<div style=""font-size:42px;"">MEAT</div><img id = ""stim"" ><div class = red_square id = topsquare></div>",null,encoding,word_square,,,0,topsquare,none,true,,,MEAT,4,,,
html-keyboard-response,465,829330,null,"<div style=""font-size:42px;"">MEAT</div>",null,,word,MEAT,,,,,,,,,,,,
html-keyboard-response,466,830848,null,"",null,,word,MEAT,,,,,,,,,,,,
html-keyboard-response,467,831054,null,"<div style=""font-size:42px;"">LIVER</div><img id = ""stim"" ><div class = red_square id = bottomsquare></div>",null,encoding,word_square,,,0,bottomsquare,none,true,,,LIVER,4,,,
html-keyboard-response,468,831362,null,"<div style=""font-size:42px;"">LIVER</div>",null,,word,LIVER,,,,,,,,,,,,
html-keyboard-response,469,832879,null,"",null,,word,LIVER,,,,,,,,,,,,
html-keyboard-response,470,833095,null,"<div style=""font-size:42px;"">FINGER</div><img id = ""stim"" ><div class = green_square id = topsquare></div>",null,encoding,word_square,,,1,topsquare,32,true,,,FINGER,4,,,
html-keyboard-response,471,833402,255.39999985694885,"<div style=""font-size:42px;"">FINGER</div>",32,,word,FINGER,,,,,,,,,,,,
html-keyboard-response,472,834906,null,"",null,,word,FINGER,,,,,,,,,,,,
html-keyboard-response,473,835111,null,"<div style=""font-size:42px;"">MESSAGE</div><img id = ""stim"" ><div class = red_square id = topsquare></div>",null,encoding,word_square,,,0,topsquare,none,true,,,MESSAGE,4,,,
html-keyboard-response,474,835421,null,"<div style=""font-size:42px;"">MESSAGE</div>",null,,word,MESSAGE,,,,,,,,,,,,
html-keyboard-response,475,836935,null,"",null,,word,MESSAGE,,,,,,,,,,,,
html-keyboard-response,476,837138,null,"<div style=""font-size:42px;"">SNOB</div><img id = ""stim"" ><div class = green_square id = bottomsquare></div>",null,encoding,word_square,,,1,bottomsquare,32,true,,,SNOB,4,,,
html-keyboard-response,477,837448,null,"<div style=""font-size:42px;"">SNOB</div>",null,,word,SNOB,,,,,,,,,,,,
html-keyboard-response,478,838955,17.899999856948853,"",32,,word,SNOB,,,,,,,,,,,,
html-keyboard-response,479,839158,null,"<div style=""font-size:42px;"">CIGAR</div><img id = ""stim"" ><div class = green_square id = topsquare></div>",null,encoding,word_square,,,1,topsquare,32,true,,,CIGAR,4,,,
html-keyboard-response,480,839471,null,"<div style=""font-size:42px;"">CIGAR</div>",null,,word,CIGAR,,,,,,,,,,,,
html-keyboard-response,481,840979,197.79999995231628,"",32,,word,CIGAR,,,,,,,,,,,,
html-keyboard-response,482,841191,null,"<div style=""font-size:42px;"">LIPSTICK</div><img id = ""stim"" ><div class = red_square id = bottomsquare></div>",null,encoding,word_square,,,0,bottomsquare,none,true,,,LIPSTICK,4,,,
html-keyboard-response,483,841502,null,"<div style=""font-size:42px;"">LIPSTICK</div>",null,,word,LIPSTICK,,,,,,,,,,,,
html-keyboard-response,484,843004,null,"",null,,word,LIPSTICK,,,,,,,,,,,,
html-keyboard-response,485,843216,null,"<div style=""font-size:42px;"">RODENT</div><img id = ""stim"" ><div class = red_square id = topsquare></div>",null,encoding,word_square,,,0,topsquare,none,true,,,RODENT,4,,,
html-keyboard-response,486,843521,null,"<div style=""font-size:42px;"">RODENT</div>",null,,word,RODENT,,,,,,,,,,,,
html-keyboard-response,487,845024,null,"",null,,word,RODENT,,,,,,,,,,,,
html-keyboard-response,488,845235,null,"<div style=""font-size:42px;"">NOTEBOOK</div><img id = ""stim"" ><div class = green_square id = bottomsquare></div>",null,encoding,word_square,,,1,bottomsquare,32,true,,,NOTEBOOK,4,,,
html-keyboard-response,489,845550,null,"<div style=""font-size:42px;"">NOTEBOOK</div>",null,,word,NOTEBOOK,,,,,,,,,,,,
html-keyboard-response,490,847062,15.800000190734863,"",32,,word,NOTEBOOK,,,,,,,,,,,,
html-keyboard-response,491,847265,null,"<div style=""font-size:42px;"">GUARD</div><img id = ""stim"" ><div class = red_square id = bottomsquare></div>",null,encoding,word_square,,,0,bottomsquare,none,true,,,GUARD,4,,,
html-keyboard-response,492,847579,null,"<div style=""font-size:42px;"">GUARD</div>",null,,word,GUARD,,,,,,,,,,,,
html-keyboard-response,493,849096,null,"",null,,word,GUARD,,,,,,,,,,,,
html-keyboard-response,494,849306,null,"<div style=""font-size:42px;"">ARMY</div><img id = ""stim"" ><div class = red_square id = topsquare></div>",null,encoding,word_square,,,0,topsquare,none,true,,,ARMY,4,,,
html-keyboard-response,495,849610,null,"<div style=""font-size:42px;"">ARMY</div>",null,,word,ARMY,,,,,,,,,,,,
html-keyboard-response,496,851129,null,"",null,,word,ARMY,,,,,,,,,,,,
call-function,497,851130,,"",,,,,,,,,,,,,,,,
html-keyboard-response,498,851244,null,"",null,,,,,,,,,,,,,,,
math-period,499,855737,8325.5,"",,,,,,,,,,,1,,,,,
html-keyboard-response,500,855855,null,"",null,,,,,,,,,,,,,,,
math-period,501,863055,13682.699999809265,"",,,,,,,,,,,4,,,,,
html-keyboard-response,502,863158,null,"",null,,,,,,,,,,,,,,,
math-period,503,866168,5245.800000190735,"",,,,,,,,,,,2,,,,,
html-keyboard-response,504,866280,null,"",null,,,,,,,,,,,,,,,
math-period,505,869277,5382.299999713898,"",,,,,,,,,,,5,,,,,
html-keyboard-response,506,869392,null,"",null,,,,,,,,,,,,,,,
math-period,507,871852,4307.700000047684,"",,,,,,,,,,,3,,,,,
html-keyboard-response,508,871963,null,"",null,,,,,,,,,,,,,,,
math-period,509,875143,2875.5999999046326,"",,,,,,,,,,,1,,,,,
html-keyboard-response,510,876147,null,"Recall Period!",null,,,,,,,,,,,,,,,
call-function,511,876148,,"",,,,,,,,,,,,,,,,
html-keyboard-response,512,876258,null,"",null,,,,,,,,,,,,,,,
recall-period,513,883450,45671.20000076294,"",,,,,,,,,,,letter,,,,,
html-keyboard-response,514,883558,null,"",null,,,,,,,,,,,,,,,
recall-period,515,884885,4035.100000143051,"",,,,,,,,,,,snob,,,,,
html-keyboard-response,516,884987,null,"",null,,,,,,,,,,,,,,,
recall-period,517,886946,5768.099999427795,"",,,,,,,,,,,cigar,,,,,
html-keyboard-response,518,887048,null,"",null,,,,,,,,,,,,,,,
recall-period,519,891120,28234.299999952316,"",,,,,,,,,,,lipstick,,,,,
html-keyboard-response,520,891226,null,"",null,,,,,,,,,,,,,,,
recall-period,521,901333,64134.000000715256,"",,,,,,,,,,,mother,,,,,
html-keyboard-response,522,901447,null,"",null,,,,,,,,,,,,,,,
recall-period,523,907982,29490.79999947548,"",,,,,,,,,,,meat,,,,,
html-keyboard-response,524,908093,null,"",null,,,,,,,,,,,,,,,
recall-period,525,909303,3503.5,"",,,,,,,,,,,live,,,,,
html-keyboard-response,526,909412,null,"",null,,,,,,,,,,,,,,,
recall-period,527,911568,10331.200000286102,"",,,,,,,,,,,liver,,,,,
html-keyboard-response,528,911679,null,"",null,,,,,,,,,,,,,,,
recall-period,529,951163,null,"",,,,,,,,,,,,,,,,
html-keyboard-response,530,951679,null,"Time's Up!",null,,,,,,,,,,,,,,,
html-keyboard-response,531,974312,22631.299999952316,"<p> Good job! You have responded correctly to 99% of the trials. </p>
                      <p>Be sure to only press the spacebar if you see a GREEN square, and please keep your accuracy above 80%.</p>
                      <p> Press any key to continue the experiment. </p>",32,,,,,,,,,,,,,,,
html-keyboard-response,532,976852,2538.9000000953674,"<div style=""font-size:48px;"">Press any key to begin list 6 of 16 </div>",32,,,,,,,,,,,,,,,
html-keyboard-response,533,979363,null,"<div style=""font-size:60px;"">+</div>",null,,,,,,,,,,,,,,,
html-keyboard-response,534,979578,null,"<div style=""font-size:42px;"">OX</div><img id = ""stim"" ><div class = red_square id = topsquare></div>",null,encoding,word_square,,,0,topsquare,none,true,,,OX,5,,,
html-keyboard-response,535,979900,null,"<div style=""font-size:42px;"">OX</div>",null,,word,OX,,,,,,,,,,,,
html-keyboard-response,536,981420,null,"",null,,word,OX,,,,,,,,,,,,
html-keyboard-response,537,981631,null,"<div style=""font-size:42px;"">CREATURE</div><img id = ""stim"" ><div class = red_square id = bottomsquare></div>",null,encoding,word_square,,,0,bottomsquare,none,true,,,CREATURE,5,,,
html-keyboard-response,538,981942,null,"<div style=""font-size:42px;"">CREATURE</div>",null,,word,CREATURE,,,,,,,,,,,,
html-keyboard-response,539,983445,null,"",null,,word,CREATURE,,,,,,,,,,,,
html-keyboard-response,540,983656,null,"<div style=""font-size:42px;"">SUITCASE</div><img id = ""stim"" ><div class = green_square id = bottomsquare></div>",null,encoding,word_square,,,1,bottomsquare,32,true,,,SUITCASE,5,,,
html-keyboard-response,541,983962,252.29999995231628,"<div style=""font-size:42px;"">SUITCASE</div>",32,,word,SUITCASE,,,,,,,,,,,,
html-keyboard-response,542,985465,null,"",null,,word,SUITCASE,,,,,,,,,,,,
html-keyboard-response,543,985671,null,"<div style=""font-size:42px;"">PUPPY</div><img id = ""stim"" ><div class = red_square id = topsquare></div>",null,encoding,word_square,,,0,topsquare,none,true,,,PUPPY,5,,,
html-keyboard-response,544,985987,null,"<div style=""font-size:42px;"">PUPPY</div>",null,,word,PUPPY,,,,,,,,,,,,
html-keyboard-response,545,987490,null,"",null,,word,PUPPY,,,,,,,,,,,,
html-keyboard-response,546,987706,null,"<div style=""font-size:42px;"">PERSON</div><img id = ""stim"" ><div class = red_square id = bottomsquare></div>",null,encoding,word_square,,,0,bottomsquare,none,true,,,PERSON,5,,,
html-keyboard-response,547,988022,null,"<div style=""font-size:42px;"">PERSON</div>",null,,word,PERSON,,,,,,,,,,,,
html-keyboard-response,548,989532,null,"",null,,word,PERSON,,,,,,,,,,,,
html-keyboard-response,549,989750,null,"<div style=""font-size:42px;"">STRANGER</div><img id = ""stim"" ><div class = green_square id = topsquare></div>",null,encoding,word_square,,,1,topsquare,32,true,,,STRANGER,5,,,
html-keyboard-response,550,990066,null,"<div style=""font-size:42px;"">STRANGER</div>",null,,word,STRANGER,,,,,,,,,,,,
html-keyboard-response,551,991576,38.89999985694885,"",32,,word,STRANGER,,,,,,,,,,,,
html-keyboard-response,552,991792,null,"<div style=""font-size:42px;"">ATLAS</div><img id = ""stim"" ><div class = green_square id = bottomsquare></div>",null,encoding,word_square,,,1,bottomsquare,32,true,,,ATLAS,5,,,
html-keyboard-response,553,992108,null,"<div style=""font-size:42px;"">ATLAS</div>",null,,word,ATLAS,,,,,,,,,,,,
html-keyboard-response,554,993625,43.200000047683716,"",32,,word,ATLAS,,,,,,,,,,,,
html-keyboard-response,555,993849,null,"<div style=""font-size:42px;"">HIGHWAY</div><img id = ""stim"" ><div class = red_square id = topsquare></div>",null,encoding,word_square,,,0,topsquare,none,true,,,HIGHWAY,5,,,
html-keyboard-response,556,994165,null,"<div style=""font-size:42px;"">HIGHWAY</div>",null,,word,HIGHWAY,,,,,,,,,,,,
html-keyboard-response,557,995669,null,"",null,,word,HIGHWAY,,,,,,,,,,,,
html-keyboard-response,558,995886,null,"<div style=""font-size:42px;"">MUFFIN</div><img id = ""stim"" ><div class = green_square id = topsquare></div>",null,encoding,word_square,,,1,topsquare,32,true,,,MUFFIN,5,,,
html-keyboard-response,559,996200,null,"<div style=""font-size:42px;"">MUFFIN</div>",null,,word,MUFFIN,,,,,,,,,,,,
html-keyboard-response,560,997707,101.5,"",32,,word,MUFFIN,,,,,,,,,,,,
html-keyboard-response,561,997918,null,"<div style=""font-size:42px;"">DRAWER</div><img id = ""stim"" ><div class = red_square id = bottomsquare></div>",null,encoding,word_square,,,0,bottomsquare,none,true,,,DRAWER,5,,,
html-keyboard-response,562,998225,null,"<div style=""font-size:42px;"">DRAWER</div>",null,,word,DRAWER,,,,,,,,,,,,
html-keyboard-response,563,999733,null,"",null,,word,DRAWER,,,,,,,,,,,,
html-keyboard-response,564,999947,null,"<div style=""font-size:42px;"">PEACH</div><img id = ""stim"" ><div class = red_square id = topsquare></div>",null,encoding,word_square,,,0,topsquare,none,true,,,PEACH,5,,,
html-keyboard-response,565,1000254,null,"<div style=""font-size:42px;"">PEACH</div>",null,,word,PEACH,,,,,,,,,,,,
html-keyboard-response,566,1001774,null,"",null,,word,PEACH,,,,,,,,,,,,
html-keyboard-response,567,1001989,null,"<div style=""font-size:42px;"">CHECKERS</div><img id = ""stim"" ><div class = green_square id = bottomsquare></div>",null,encoding,word_square,,,1,bottomsquare,32,true,,,CHECKERS,5,,,
html-keyboard-response,568,1002305,null,"<div style=""font-size:42px;"">CHECKERS</div>",null,,word,CHECKERS,,,,,,,,,,,,
html-keyboard-response,569,1003821,2.8999998569488525,"",32,,word,CHECKERS,,,,,,,,,,,,
html-keyboard-response,570,1004045,null,"<div style=""font-size:42px;"">STOMACH</div><img id = ""stim"" ><div class = green_square id = topsquare></div>",null,encoding,word_square,,,1,topsquare,32,true,,,STOMACH,5,,,
html-keyboard-response,571,1004362,null,"<div style=""font-size:42px;"">STOMACH</div>",null,,word,STOMACH,,,,,,,,,,,,
html-keyboard-response,572,1005864,323.59999990463257,"",32,,word,STOMACH,,,,,,,,,,,,
html-keyboard-response,573,1006075,null,"<div style=""font-size:42px;"">BELLY</div><img id = ""stim"" ><div class = red_square id = bottomsquare></div>",null,encoding,word_square,,,0,bottomsquare,none,true,,,BELLY,5,,,
html-keyboard-response,574,1006378,null,"<div style=""font-size:42px;"">BELLY</div>",null,,word,BELLY,,,,,,,,,,,,
html-keyboard-response,575,1007894,null,"",null,,word,BELLY,,,,,,,,,,,,
html-keyboard-response,576,1008115,null,"<div style=""font-size:42px;"">CURTAIN</div><img id = ""stim"" ><div class = green_square id = bottomsquare></div>",null,encoding,word_square,,,1,bottomsquare,32,true,,,CURTAIN,5,,,
html-keyboard-response,577,1008437,null,"<div style=""font-size:42px;"">CURTAIN</div>",null,,word,CURTAIN,,,,,,,,,,,,
html-keyboard-response,578,1009950,107.90000009536743,"",32,,word,CURTAIN,,,,,,,,,,,,
html-keyboard-response,579,1010166,null,"<div style=""font-size:42px;"">SURGEON</div><img id = ""stim"" ><div class = green_square id = topsquare></div>",null,encoding,word_square,,,1,topsquare,32,true,,,SURGEON,5,,,
html-keyboard-response,580,1010483,null,"<div style=""font-size:42px;"">SURGEON</div>",null,,word,SURGEON,,,,,,,,,,,,
html-keyboard-response,581,1011986,194.70000004768372,"",32,,word,SURGEON,,,,,,,,,,,,
call-function,582,1011988,,"",,,,,,,,,,,,,,,,
html-keyboard-response,583,1012099,null,"",null,,,,,,,,,,,,,,,
math-period,584,1016412,7895.5,"",,,,,,,,,,,4,,,,,
html-keyboard-response,585,1016525,null,"",null,,,,,,,,,,,,,,,
math-period,586,1022469,11290.799999952316,"",,,,,,,,,,,5,,,,,
html-keyboard-response,587,1022584,null,"",null,,,,,,,,,,,,,,,
math-period,588,1026469,6973.700000047684,"",,,,,,,,,,,1,,,,,
html-keyboard-response,589,1026584,null,"",null,,,,,,,,,,,,,,,
math-period,590,1031007,8135,"",,,,,,,,,,,1,,,,,
html-keyboard-response,591,1031115,null,"",null,,,,,,,,,,,,,,,
math-period,592,1035347,7575.299999713898,"",,,,,,,,,,,1,,,,,
html-keyboard-response,593,1035453,null,"",null,,,,,,,,,,,,,,,
math-period,594,1035994,null,"",,,,,,,,,,,,,,,,
html-keyboard-response,595,1036997,null,"Recall Period!",null,,,,,,,,,,,,,,,
call-function,596,1036998,,"",,,,,,,,,,,,,,,,
html-keyboard-response,597,1037100,null,"",null,,,,,,,,,,,,,,,
recall-period,598,1042710,14237.699999809265,"",,,,,,,,,,,ox,,,,,
html-keyboard-response,599,1042824,null,"",null,,,,,,,,,,,,,,,
recall-period,600,1045244,12698.999999523163,"",,,,,,,,,,,creature,,,,,
html-keyboard-response,601,1045360,null,"",null,,,,,,,,,,,,,,,
recall-period,602,1047267,4869.099999666214,"",,,,,,,,,,,man,,,,,
html-keyboard-response,603,1047371,null,"",null,,,,,,,,,,,,,,,
recall-period,604,1049558,11343.699999332428,"",,,,,,,,,,,highway,,,,,
html-keyboard-response,605,1049673,null,"",null,,,,,,,,,,,,,,,
recall-period,606,1051953,10603.900000333786,"",,,,,,,,,,,checkers,,,,,
html-keyboard-response,607,1052056,null,"",null,,,,,,,,,,,,,,,
recall-period,608,1056087,15139.900000333786,"",,,,,,,,,,,belly,,,,,
html-keyboard-response,609,1056207,null,"",null,,,,,,,,,,,,,,,
recall-period,610,1072191,77127.5,"",,,,,,,,,,,lion,,,,,
html-keyboard-response,611,1072303,null,"",null,,,,,,,,,,,,,,,
recall-period,612,1081906,72295.6000008583,"",,,,,,,,,,,suitcase,,,,,
html-keyboard-response,613,1082008,null,"",null,,,,,,,,,,,,,,,
recall-period,614,1112008,null,"",,,,,,,,,,,,,,,,
html-keyboard-response,615,1112515,null,"Time's Up!",null,,,,,,,,,,,,,,,
html-keyboard-response,616,1133013,20496,"<p> Good job! You have responded correctly to 99% of the trials. </p>
                      <p>Be sure to only press the spacebar if you see a GREEN square, and please keep your accuracy above 80%.</p>
                      <p> Press any key to continue the experiment. </p>",32,,,,,,,,,,,,,,,
html-keyboard-response,617,1133806,791.1000001430511,"<div style=""font-size:48px;"">Press any key to begin list 7 of 16 </div>",32,,,,,,,,,,,,,,,
html-keyboard-response,618,1136329,null,"<div style=""font-size:60px;"">+</div>",null,,,,,,,,,,,,,,,
html-keyboard-response,619,1136550,null,"<div style=""font-size:42px;"">COOK</div><img id = ""stim"" ><div class = red_square id = bottomsquare></div>",null,encoding,word_square,,,0,bottomsquare,none,true,,,COOK,6,,,
html-keyboard-response,620,1136866,null,"<div style=""font-size:42px;"">COOK</div>",null,,word,COOK,,,,,,,,,,,,
html-keyboard-response,621,1138370,null,"",null,,word,COOK,,,,,,,,,,,,
html-keyboard-response,622,1138586,null,"<div style=""font-size:42px;"">BACKBONE</div><img id = ""stim"" ><div class = red_square id = topsquare></div>",null,encoding,word_square,,,0,topsquare,none,true,,,BACKBONE,6,,,
html-keyboard-response,623,1138902,null,"<div style=""font-size:42px;"">BACKBONE</div>",null,,word,BACKBONE,,,,,,,,,,,,
html-keyboard-response,624,1140417,null,"",null,,word,BACKBONE,,,,,,,,,,,,
html-keyboard-response,625,1140638,null,"<div style=""font-size:42px;"">STAKE</div><img id = ""stim"" ><div class = green_square id = topsquare></div>",null,encoding,word_square,,,1,topsquare,32,true,,,STAKE,6,,,
html-keyboard-response,626,1140959,258.7000000476837,"<div style=""font-size:42px;"">STAKE</div>",32,,word,STAKE,,,,,,,,,,,,
html-keyboard-response,627,1142469,null,"",null,,word,STAKE,,,,,,,,,,,,
html-keyboard-response,628,1142683,null,"<div style=""font-size:42px;"">SENATE</div><img id = ""stim"" ><div class = red_square id = bottomsquare></div>",null,encoding,word_square,,,0,bottomsquare,none,true,,,SENATE,6,,,
html-keyboard-response,629,1143000,null,"<div style=""font-size:42px;"">SENATE</div>",null,,word,SENATE,,,,,,,,,,,,
html-keyboard-response,630,1144503,null,"",null,,word,SENATE,,,,,,,,,,,,
html-keyboard-response,631,1144719,null,"<div style=""font-size:42px;"">KNUCKLE</div><img id = ""stim"" ><div class = red_square id = topsquare></div>",null,encoding,word_square,,,0,topsquare,none,true,,,KNUCKLE,6,,,
html-keyboard-response,632,1145036,null,"<div style=""font-size:42px;"">KNUCKLE</div>",null,,word,KNUCKLE,,,,,,,,,,,,
html-keyboard-response,633,1146539,null,"",null,,word,KNUCKLE,,,,,,,,,,,,
html-keyboard-response,634,1146755,null,"<div style=""font-size:42px;"">TURTLE</div><img id = ""stim"" ><div class = green_square id = bottomsquare></div>",null,encoding,word_square,,,1,bottomsquare,32,true,,,TURTLE,6,,,
html-keyboard-response,635,1147072,null,"<div style=""font-size:42px;"">TURTLE</div>",null,,word,TURTLE,,,,,,,,,,,,
html-keyboard-response,636,1148583,190.79999995231628,"",32,,word,TURTLE,,,,,,,,,,,,
html-keyboard-response,637,1148795,null,"<div style=""font-size:42px;"">FLUTE</div><img id = ""stim"" ><div class = green_square id = topsquare></div>",null,encoding,word_square,,,1,topsquare,32,true,,,FLUTE,6,,,
html-keyboard-response,638,1149115,null,"<div style=""font-size:42px;"">FLUTE</div>",null,,word,FLUTE,,,,,,,,,,,,
html-keyboard-response,639,1150620,942.1000001430511,"",32,,word,FLUTE,,,,,,,,,,,,
html-keyboard-response,640,1150831,null,"<div style=""font-size:42px;"">WHISTLE</div><img id = ""stim"" ><div class = red_square id = bottomsquare></div>",null,encoding,word_square,,,0,bottomsquare,none,true,,,WHISTLE,6,,,
html-keyboard-response,641,1151153,null,"<div style=""font-size:42px;"">WHISTLE</div>",null,,word,WHISTLE,,,,,,,,,,,,
html-keyboard-response,642,1152669,null,"",null,,word,WHISTLE,,,,,,,,,,,,
html-keyboard-response,643,1152885,null,"<div style=""font-size:42px;"">SCAPEGOAT</div><img id = ""stim"" ><div class = green_square id = bottomsquare></div>",null,encoding,word_square,,,1,bottomsquare,32,true,,,SCAPEGOAT,6,,,
html-keyboard-response,644,1153200,null,"<div style=""font-size:42px;"">SCAPEGOAT</div>",null,,word,SCAPEGOAT,,,,,,,,,,,,
html-keyboard-response,645,1154713,104.5,"",32,,word,SCAPEGOAT,,,,,,,,,,,,
html-keyboard-response,646,1154921,null,"<div style=""font-size:42px;"">TURKEY</div><img id = ""stim"" ><div class = red_square id = topsquare></div>",null,encoding,word_square,,,0,topsquare,none,true,,,TURKEY,6,,,
html-keyboard-response,647,1155243,null,"<div style=""font-size:42px;"">TURKEY</div>",null,,word,TURKEY,,,,,,,,,,,,
html-keyboard-response,648,1156760,null,"",null,,word,TURKEY,,,,,,,,,,,,
html-keyboard-response,649,1156965,null,"<div style=""font-size:42px;"">NURSE</div><img id = ""stim"" ><div class = red_square id = bottomsquare></div>",null,encoding,word_square,,,0,bottomsquare,none,true,,,NURSE,6,,,
html-keyboard-response,650,1157277,null,"<div style=""font-size:42px;"">NURSE</div>",null,,word,NURSE,,,,,,,,,,,,
html-keyboard-response,651,1158790,null,"",null,,word,NURSE,,,,,,,,,,,,
html-keyboard-response,652,1159006,null,"<div style=""font-size:42px;"">MONKEY</div><img id = ""stim"" ><div class = green_square id = topsquare></div>",null,encoding,word_square,,,1,topsquare,32,true,,,MONKEY,6,,,
html-keyboard-response,653,1159322,238,"<div style=""font-size:42px;"">MONKEY</div>",32,,word,MONKEY,,,,,,,,,,,,
html-keyboard-response,654,1160830,null,"",null,,word,MONKEY,,,,,,,,,,,,
html-keyboard-response,655,1161051,null,"<div style=""font-size:42px;"">KITCHEN</div><img id = ""stim"" ><div class = green_square id = bottomsquare></div>",null,encoding,word_square,,,1,bottomsquare,32,true,,,KITCHEN,6,,,
html-keyboard-response,656,1161364,null,"<div style=""font-size:42px;"">KITCHEN</div>",null,,word,KITCHEN,,,,,,,,,,,,
html-keyboard-response,657,1162868,51.200000047683716,"",32,,word,KITCHEN,,,,,,,,,,,,
html-keyboard-response,658,1163089,null,"<div style=""font-size:42px;"">PEOPLE</div><img id = ""stim"" ><div class = red_square id = topsquare></div>",null,encoding,word_square,,,0,topsquare,none,true,,,PEOPLE,6,,,
html-keyboard-response,659,1163401,null,"<div style=""font-size:42px;"">PEOPLE</div>",null,,word,PEOPLE,,,,,,,,,,,,
html-keyboard-response,660,1164917,null,"",null,,word,PEOPLE,,,,,,,,,,,,
html-keyboard-response,661,1165138,null,"<div style=""font-size:42px;"">STAMP</div><img id = ""stim"" ><div class = green_square id = topsquare></div>",null,encoding,word_square,,,1,topsquare,32,true,,,STAMP,6,,,
html-keyboard-response,662,1165459,null,"<div style=""font-size:42px;"">STAMP</div>",null,,word,STAMP,,,,,,,,,,,,
html-keyboard-response,663,1166976,46.59999990463257,"",32,,word,STAMP,,,,,,,,,,,,
html-keyboard-response,664,1167198,null,"<div style=""font-size:42px;"">NIGHTGOWN</div><img id = ""stim"" ><div class = green_square id = bottomsquare></div>",null,encoding,word_square,,,1,bottomsquare,32,true,,,NIGHTGOWN,6,,,
html-keyboard-response,665,1167514,null,"<div style=""font-size:42px;"">NIGHTGOWN</div>",null,,word,NIGHTGOWN,,,,,,,,,,,,
html-keyboard-response,666,1169030,76.40000009536743,"",32,,word,NIGHTGOWN,,,,,,,,,,,,
call-function,667,1169031,,"",,,,,,,,,,,,,,,,
html-keyboard-response,668,1169152,null,"",null,,,,,,,,,,,,,,,
math-period,669,1173356,7514.100000143051,"",,,,,,,,,,,1,,,,,
html-keyboard-response,670,1173466,null,"",null,,,,,,,,,,,,,,,
math-period,671,1176028,4312.200000047684,"",,,,,,,,,,,4,,,,,
html-keyboard-response,672,1176144,null,"",null,,,,,,,,,,,,,,,
math-period,673,1182826,12547.100000143051,"",,,,,,,,,,,1,,,,,
html-keyboard-response,674,1182937,null,"",null,,,,,,,,,,,,,,,
math-period,675,1185312,4008,"",,,,,,,,,,,3,,,,,
html-keyboard-response,676,1185428,null,"",null,,,,,,,,,,,,,,,
math-period,677,1187558,3574.2999999523163,"",,,,,,,,,,,4,,,,,
html-keyboard-response,678,1187659,null,"",null,,,,,,,,,,,,,,,
math-period,679,1190980,5882,"",,,,,,,,,,,3,,,,,
html-keyboard-response,680,1191091,null,"",null,,,,,,,,,,,,,,,
math-period,681,1193036,1456.3000001907349,"",,,,,,,,,,,3,,,,,
html-keyboard-response,682,1194045,null,"Recall Period!",null,,,,,,,,,,,,,,,
call-function,683,1194045,,"",,,,,,,,,,,,,,,,
html-keyboard-response,684,1194162,null,"",null,,,,,,,,,,,,,,,
recall-period,685,1196927,12601.400000333786,"",,,,,,,,,,,money,,,,,
html-keyboard-response,686,1197035,null,"",null,,,,,,,,,,,,,,,
recall-period,687,1199510,13527.600000619888,"",,,,,,,,,,,senate,,,,,
html-keyboard-response,688,1199616,null,"",null,,,,,,,,,,,,,,,
recall-period,689,1200889,3016.800000190735,"",,,,,,,,,,,man,,,,,
html-keyboard-response,690,1200991,null,"",null,,,,,,,,,,,,,,,
recall-period,691,1203374,13029.699999332428,"",,,,,,,,,,,backbone,,,,,
html-keyboard-response,692,1203491,null,"",null,,,,,,,,,,,,,,,
recall-period,693,1206408,13053.799999713898,"",,,,,,,,,,,turkey,,,,,
html-keyboard-response,694,1206516,null,"",null,,,,,,,,,,,,,,,
recall-period,695,1269054,null,"",,,,,,,,,,,,,,,,
html-keyboard-response,696,1269570,null,"Time's Up!",null,,,,,,,,,,,,,,,
html-keyboard-response,697,1329008,59435.90000009537,"<p> Good job! You have responded correctly to 99% of the trials. </p>
                      <p>Be sure to only press the spacebar if you see a GREEN square, and please keep your accuracy above 80%.</p>
                      <p> Press any key to continue the experiment. </p>",32,,,,,,,,,,,,,,,
html-keyboard-response,698,1330214,1204.4000000953674,"<div style=""font-size:48px;"">Press any key to begin list 8 of 16 </div>",32,,,,,,,,,,,,,,,
html-keyboard-response,699,1332729,null,"<div style=""font-size:60px;"">+</div>",null,,,,,,,,,,,,,,,
html-keyboard-response,700,1332943,null,"<div style=""font-size:42px;"">FRUIT</div><img id = ""stim"" ><div class = green_square id = bottomsquare></div>",null,encoding,word_square,,,1,bottomsquare,32,true,,,FRUIT,7,,,
html-keyboard-response,701,1333248,null,"<div style=""font-size:42px;"">FRUIT</div>",null,,word,FRUIT,,,,,,,,,,,,
html-keyboard-response,702,1334754,334.5,"",32,,word,FRUIT,,,,,,,,,,,,
html-keyboard-response,703,1334964,null,"<div style=""font-size:42px;"">HAWK</div><img id = ""stim"" ><div class = green_square id = topsquare></div>",null,encoding,word_square,,,1,topsquare,32,true,,,HAWK,7,,,
html-keyboard-response,704,1335280,288,"<div style=""font-size:42px;"">HAWK</div>",32,,word,HAWK,,,,,,,,,,,,
html-keyboard-response,705,1336787,null,"",null,,word,HAWK,,,,,,,,,,,,
html-keyboard-response,706,1336999,null,"<div style=""font-size:42px;"">PIGEON</div><img id = ""stim"" ><div class = red_square id = topsquare></div>",null,encoding,word_square,,,0,topsquare,none,true,,,PIGEON,7,,,
html-keyboard-response,707,1337316,null,"<div style=""font-size:42px;"">PIGEON</div>",null,,word,PIGEON,,,,,,,,,,,,
html-keyboard-response,708,1338830,null,"",null,,word,PIGEON,,,,,,,,,,,,
html-keyboard-response,709,1339033,null,"<div style=""font-size:42px;"">SAILOR</div><img id = ""stim"" ><div class = green_square id = bottomsquare></div>",null,encoding,word_square,,,1,bottomsquare,32,true,,,SAILOR,7,,,
html-keyboard-response,710,1339345,218.90000009536743,"<div style=""font-size:42px;"">SAILOR</div>",32,,word,SAILOR,,,,,,,,,,,,
html-keyboard-response,711,1340852,null,"",null,,word,SAILOR,,,,,,,,,,,,
html-keyboard-response,712,1341067,null,"<div style=""font-size:42px;"">CASHIER</div><img id = ""stim"" ><div class = green_square id = topsquare></div>",null,encoding,word_square,,,1,topsquare,32,true,,,CASHIER,7,,,
html-keyboard-response,713,1341384,261.30000019073486,"<div style=""font-size:42px;"">CASHIER</div>",32,,word,CASHIER,,,,,,,,,,,,
html-keyboard-response,714,1342887,null,"",null,,word,CASHIER,,,,,,,,,,,,
html-keyboard-response,715,1343091,null,"<div style=""font-size:42px;"">BOYFRIEND</div><img id = ""stim"" ><div class = red_square id = bottomsquare></div>",null,encoding,word_square,,,0,bottomsquare,none,true,,,BOYFRIEND,7,,,
html-keyboard-response,716,1343405,null,"<div style=""font-size:42px;"">BOYFRIEND</div>",null,,word,BOYFRIEND,,,,,,,,,,,,
html-keyboard-response,717,1344909,null,"",null,,word,BOYFRIEND,,,,,,,,,,,,
html-keyboard-response,718,1345121,null,"<div style=""font-size:42px;"">ROOSTER</div><img id = ""stim"" ><div class = red_square id = topsquare></div>",null,encoding,word_square,,,0,topsquare,none,true,,,ROOSTER,7,,,
html-keyboard-response,719,1345426,null,"<div style=""font-size:42px;"">ROOSTER</div>",null,,word,ROOSTER,,,,,,,,,,,,
html-keyboard-response,720,1346941,null,"",null,,word,ROOSTER,,,,,,,,,,,,
html-keyboard-response,721,1347152,null,"<div style=""font-size:42px;"">COLUMN</div><img id = ""stim"" ><div class = green_square id = bottomsquare></div>",null,encoding,word_square,,,1,bottomsquare,32,true,,,COLUMN,7,,,
html-keyboard-response,722,1347461,null,"<div style=""font-size:42px;"">COLUMN</div>",null,,word,COLUMN,,,,,,,,,,,,
html-keyboard-response,723,1348974,2.6000001430511475,"",32,,word,COLUMN,,,,,,,,,,,,
html-keyboard-response,724,1349190,null,"<div style=""font-size:42px;"">SLUG</div><img id = ""stim"" ><div class = red_square id = bottomsquare></div>",null,encoding,word_square,,,0,bottomsquare,none,true,,,SLUG,7,,,
html-keyboard-response,725,1349507,null,"<div style=""font-size:42px;"">SLUG</div>",null,,word,SLUG,,,,,,,,,,,,
html-keyboard-response,726,1351010,null,"",null,,word,SLUG,,,,,,,,,,,,
html-keyboard-response,727,1351227,null,"<div style=""font-size:42px;"">PLIERS</div><img id = ""stim"" ><div class = green_square id = topsquare></div>",null,encoding,word_square,,,1,topsquare,32,true,,,PLIERS,7,,,
html-keyboard-response,728,1351528,192.20000004768372,"<div style=""font-size:42px;"">PLIERS</div>",32,,word,PLIERS,,,,,,,,,,,,
html-keyboard-response,729,1353031,null,"",null,,word,PLIERS,,,,,,,,,,,,
html-keyboard-response,730,1353246,null,"<div style=""font-size:42px;"">TWEEZERS</div><img id = ""stim"" ><div class = green_square id = bottomsquare></div>",null,encoding,word_square,,,1,bottomsquare,32,true,,,TWEEZERS,7,,,
html-keyboard-response,731,1353558,200.09999990463257,"<div style=""font-size:42px;"">TWEEZERS</div>",32,,word,TWEEZERS,,,,,,,,,,,,
html-keyboard-response,732,1355071,null,"",null,,word,TWEEZERS,,,,,,,,,,,,
html-keyboard-response,733,1355287,null,"<div style=""font-size:42px;"">BANK</div><img id = ""stim"" ><div class = red_square id = topsquare></div>",null,encoding,word_square,,,0,topsquare,none,true,,,BANK,7,,,
html-keyboard-response,734,1355604,null,"<div style=""font-size:42px;"">BANK</div>",null,,word,BANK,,,,,,,,,,,,
html-keyboard-response,735,1357121,null,"",null,,word,BANK,,,,,,,,,,,,
html-keyboard-response,736,1357343,null,"<div style=""font-size:42px;"">BOXER</div><img id = ""stim"" ><div class = red_square id = bottomsquare></div>",null,encoding,word_square,,,0,bottomsquare,none,true,,,BOXER,7,,,
html-keyboard-response,737,1357654,null,"<div style=""font-size:42px;"">BOXER</div>",null,,word,BOXER,,,,,,,,,,,,
html-keyboard-response,738,1359163,null,"",null,,word,BOXER,,,,,,,,,,,,
html-keyboard-response,739,1359381,null,"<div style=""font-size:42px;"">OFFICE</div><img id = ""stim"" ><div class = green_square id = topsquare></div>",null,encoding,word_square,,,1,topsquare,32,true,,,OFFICE,7,,,
html-keyboard-response,740,1359691,146.29999995231628,"<div style=""font-size:42px;"">OFFICE</div>",32,,word,OFFICE,,,,,,,,,,,,
html-keyboard-response,741,1361199,null,"",null,,word,OFFICE,,,,,,,,,,,,
html-keyboard-response,742,1361415,null,"<div style=""font-size:42px;"">TERMITE</div><img id = ""stim"" ><div class = red_square id = topsquare></div>",null,encoding,word_square,,,0,topsquare,none,true,,,TERMITE,7,,,
html-keyboard-response,743,1361726,null,"<div style=""font-size:42px;"">TERMITE</div>",null,,word,TERMITE,,,,,,,,,,,,
html-keyboard-response,744,1363234,null,"",null,,word,TERMITE,,,,,,,,,,,,
html-keyboard-response,745,1363450,null,"<div style=""font-size:42px;"">MUMMY</div><img id = ""stim"" ><div class = red_square id = bottomsquare></div>",null,encoding,word_square,,,0,bottomsquare,none,true,,,MUMMY,7,,,
html-keyboard-response,746,1363768,null,"<div style=""font-size:42px;"">MUMMY</div>",null,,word,MUMMY,,,,,,,,,,,,
html-keyboard-response,747,1365293,null,"",null,,word,MUMMY,,,,,,,,,,,,
call-function,748,1365294,,"",,,,,,,,,,,,,,,,
html-keyboard-response,749,1365409,null,"",null,,,,,,,,,,,,,,,
math-period,750,1369779,7537.900000095367,"",,,,,,,,,,,1,,,,,
html-keyboard-response,751,1369897,null,"",null,,,,,,,,,,,,,,,
math-period,752,1373604,6380.599999904633,"",,,,,,,,,,,4,,,,,
html-keyboard-response,753,1373706,null,"",null,,,,,,,,,,,,,,,
math-period,754,1376534,4774.60000038147,"",,,,,,,,,,,2,,,,,
html-keyboard-response,755,1376641,null,"",null,,,,,,,,,,,,,,,
math-period,756,1381687,9073.400000095367,"",,,,,,,,,,,2,,,,,
html-keyboard-response,757,1381797,null,"",null,,,,,,,,,,,,,,,
math-period,758,1384382,4368.599999666214,"",,,,,,,,,,,4,,,,,
html-keyboard-response,759,1384498,null,"",null,,,,,,,,,,,,,,,
math-period,760,1387101,4342.700000047684,"",,,,,,,,,,,4,,,,,
html-keyboard-response,761,1387204,null,"",null,,,,,,,,,,,,,,,
math-period,762,1389306,null,"",,,,,,,,,,,,,,,,
html-keyboard-response,763,1390320,null,"Recall Period!",null,,,,,,,,,,,,,,,
call-function,764,1390320,,"",,,,,,,,,,,,,,,,
html-keyboard-response,765,1390435,null,"",null,,,,,,,,,,,,,,,
recall-period,766,1465331,472067.199999094,"",,,,,,,,,,,,,,,,
html-keyboard-response,767,1465836,null,"Time's Up!",null,,,,,,,,,,,,,,,
html-keyboard-response,768,1470746,4908.099999904633,"<p> Good job! You have responded correctly to 99% of the trials. </p>
                      <p>Be sure to only press the spacebar if you see a GREEN square, and please keep your accuracy above 80%.</p>
                      <p> Press any key to continue the experiment. </p>",32,,,,,,,,,,,,,,,
html-keyboard-response,769,1472505,1757.2999999523163,"<div style=""font-size:48px;"">Press any key to begin list 9 of 16 </div>",32,,,,,,,,,,,,,,,
html-keyboard-response,770,1475024,null,"<div style=""font-size:60px;"">+</div>",null,,,,,,,,,,,,,,,
html-keyboard-response,771,1475240,null,"<div style=""font-size:42px;"">COFFEE</div><img id = ""stim"" ><div class = green_square id = topsquare></div>",null,encoding,word_square,,,1,topsquare,32,true,,,COFFEE,8,,,
html-keyboard-response,772,1475553,271.7999999523163,"<div style=""font-size:42px;"">COFFEE</div>",32,,word,COFFEE,,,,,,,,,,,,
html-keyboard-response,773,1477069,null,"",null,,word,COFFEE,,,,,,,,,,,,
html-keyboard-response,774,1477282,null,"<div style=""font-size:42px;"">DWARF</div><img id = ""stim"" ><div class = red_square id = bottomsquare></div>",null,encoding,word_square,,,0,bottomsquare,none,true,,,DWARF,8,,,
html-keyboard-response,775,1477607,null,"<div style=""font-size:42px;"">DWARF</div>",null,,word,DWARF,,,,,,,,,,,,
html-keyboard-response,776,1479126,null,"",null,,word,DWARF,,,,,,,,,,,,
html-keyboard-response,777,1479332,null,"<div style=""font-size:42px;"">BADGE</div><img id = ""stim"" ><div class = green_square id = bottomsquare></div>",null,encoding,word_square,,,1,bottomsquare,32,true,,,BADGE,8,,,
html-keyboard-response,778,1479638,null,"<div style=""font-size:42px;"">BADGE</div>",null,,word,BADGE,,,,,,,,,,,,
html-keyboard-response,779,1481151,73.10000014305115,"",32,,word,BADGE,,,,,,,,,,,,
html-keyboard-response,780,1481362,null,"<div style=""font-size:42px;"">AGENT</div><img id = ""stim"" ><div class = red_square id = topsquare></div>",null,encoding,word_square,,,0,topsquare,none,true,,,AGENT,8,,,
html-keyboard-response,781,1481676,null,"<div style=""font-size:42px;"">AGENT</div>",null,,word,AGENT,,,,,,,,,,,,
html-keyboard-response,782,1483193,null,"",null,,word,AGENT,,,,,,,,,,,,
html-keyboard-response,783,1483414,null,"<div style=""font-size:42px;"">EMPIRE</div><img id = ""stim"" ><div class = red_square id = bottomsquare></div>",null,encoding,word_square,,,0,bottomsquare,none,true,,,EMPIRE,8,,,
html-keyboard-response,784,1483735,null,"<div style=""font-size:42px;"">EMPIRE</div>",null,,word,EMPIRE,,,,,,,,,,,,
html-keyboard-response,785,1485244,null,"",null,,word,EMPIRE,,,,,,,,,,,,
html-keyboard-response,786,1485466,null,"<div style=""font-size:42px;"">SALT</div><img id = ""stim"" ><div class = green_square id = topsquare></div>",null,encoding,word_square,,,1,topsquare,32,true,,,SALT,8,,,
html-keyboard-response,787,1485782,null,"<div style=""font-size:42px;"">SALT</div>",null,,word,SALT,,,,,,,,,,,,
html-keyboard-response,788,1487291,17.299999952316284,"",32,,word,SALT,,,,,,,,,,,,
html-keyboard-response,789,1487502,null,"<div style=""font-size:42px;"">SUNRISE</div><img id = ""stim"" ><div class = green_square id = bottomsquare></div>",null,encoding,word_square,,,1,bottomsquare,32,true,,,SUNRISE,8,,,
html-keyboard-response,790,1487817,null,"<div style=""font-size:42px;"">SUNRISE</div>",null,,word,SUNRISE,,,,,,,,,,,,
html-keyboard-response,791,1489322,242.59999990463257,"",32,,word,SUNRISE,,,,,,,,,,,,
html-keyboard-response,792,1489538,null,"<div style=""font-size:42px;"">SUNSET</div><img id = ""stim"" ><div class = red_square id = topsquare></div>",null,encoding,word_square,,,0,topsquare,none,true,,,SUNSET,8,,,
html-keyboard-response,793,1489851,null,"<div style=""font-size:42px;"">SUNSET</div>",null,,word,SUNSET,,,,,,,,,,,,
html-keyboard-response,794,1491363,null,"",null,,word,SUNSET,,,,,,,,,,,,
html-keyboard-response,795,1491579,null,"<div style=""font-size:42px;"">BUGGY</div><img id = ""stim"" ><div class = green_square id = topsquare></div>",null,encoding,word_square,,,1,topsquare,32,true,,,BUGGY,8,,,
html-keyboard-response,796,1491895,null,"<div style=""font-size:42px;"">BUGGY</div>",null,,word,BUGGY,,,,,,,,,,,,
html-keyboard-response,797,1493400,85.20000004768372,"",32,,word,BUGGY,,,,,,,,,,,,
html-keyboard-response,798,1493610,null,"<div style=""font-size:42px;"">ASIA</div><img id = ""stim"" ><div class = red_square id = bottomsquare></div>",null,encoding,word_square,,,0,bottomsquare,none,true,,,ASIA,8,,,
html-keyboard-response,799,1493926,null,"<div style=""font-size:42px;"">ASIA</div>",null,,word,ASIA,,,,,,,,,,,,
html-keyboard-response,800,1495434,null,"",null,,word,ASIA,,,,,,,,,,,,
html-keyboard-response,801,1495641,null,"<div style=""font-size:42px;"">DART</div><img id = ""stim"" ><div class = red_square id = topsquare></div>",null,encoding,word_square,,,0,topsquare,none,true,,,DART,8,,,
html-keyboard-response,802,1495958,null,"<div style=""font-size:42px;"">DART</div>",null,,word,DART,,,,,,,,,,,,
html-keyboard-response,803,1497463,null,"",null,,word,DART,,,,,,,,,,,,
html-keyboard-response,804,1497667,null,"<div style=""font-size:42px;"">SPINACH</div><img id = ""stim"" ><div class = green_square id = bottomsquare></div>",null,encoding,word_square,,,1,bottomsquare,32,true,,,SPINACH,8,,,
html-keyboard-response,805,1497978,211.09999990463257,"<div style=""font-size:42px;"">SPINACH</div>",32,,word,SPINACH,,,,,,,,,,,,
html-keyboard-response,806,1499500,null,"",null,,word,SPINACH,,,,,,,,,,,,
html-keyboard-response,807,1499719,null,"<div style=""font-size:42px;"">FRIES</div><img id = ""stim"" ><div class = red_square id = bottomsquare></div>",null,encoding,word_square,,,0,bottomsquare,none,true,,,FRIES,8,,,
html-keyboard-response,808,1500035,null,"<div style=""font-size:42px;"">FRIES</div>",null,,word,FRIES,,,,,,,,,,,,
html-keyboard-response,809,1501538,null,"",null,,word,FRIES,,,,,,,,,,,,
html-keyboard-response,810,1501754,null,"<div style=""font-size:42px;"">TAVERN</div><img id = ""stim"" ><div class = red_square id = topsquare></div>",null,encoding,word_square,,,0,topsquare,none,true,,,TAVERN,8,,,
html-keyboard-response,811,1502070,null,"<div style=""font-size:42px;"">TAVERN</div>",null,,word,TAVERN,,,,,,,,,,,,
html-keyboard-response,812,1503575,null,"",null,,word,TAVERN,,,,,,,,,,,,
html-keyboard-response,813,1503787,null,"<div style=""font-size:42px;"">BRANCH</div><img id = ""stim"" ><div class = green_square id = topsquare></div>",null,encoding,word_square,,,1,topsquare,32,true,,,BRANCH,8,,,
html-keyboard-response,814,1504090,278.10000014305115,"<div style=""font-size:42px;"">BRANCH</div>",32,,word,BRANCH,,,,,,,,,,,,
html-keyboard-response,815,1505593,null,"",null,,word,BRANCH,,,,,,,,,,,,
html-keyboard-response,816,1505805,null,"<div style=""font-size:42px;"">CLIMBER</div><img id = ""stim"" ><div class = green_square id = bottomsquare></div>",null,encoding,word_square,,,1,bottomsquare,32,true,,,CLIMBER,8,,,
html-keyboard-response,817,1506125,null,"<div style=""font-size:42px;"">CLIMBER</div>",null,,word,CLIMBER,,,,,,,,,,,,
html-keyboard-response,818,1507631,261.09999990463257,"",32,,word,CLIMBER,,,,,,,,,,,,
call-function,819,1507632,,"",,,,,,,,,,,,,,,,
html-keyboard-response,820,1507759,null,"",null,,,,,,,,,,,,,,,
math-period,821,1518781,20798.099999904633,"",,,,,,,,,,,1,,,,,
html-keyboard-response,822,1518888,null,"",null,,,,,,,,,,,,,,,
math-period,823,1522259,6276.699999809265,"",,,,,,,,,,,2,,,,,
html-keyboard-response,824,1522376,null,"",null,,,,,,,,,,,,,,,
math-period,825,1524989,4738.600000143051,"",,,,,,,,,,,1,,,,,
html-keyboard-response,826,1525096,null,"",null,,,,,,,,,,,,,,,
math-period,827,1528466,6432.599999904633,"",,,,,,,,,,,5,,,,,
html-keyboard-response,828,1528587,null,"",null,,,,,,,,,,,,,,,
math-period,829,1531639,null,"",,,,,,,,,,,,,,,,
html-keyboard-response,830,1532641,null,"Recall Period!",null,,,,,,,,,,,,,,,
call-function,831,1532642,,"",,,,,,,,,,,,,,,,
html-keyboard-response,832,1532752,null,"",null,,,,,,,,,,,,,,,
recall-period,833,1535628,10833.300000429153,"",,,,,,,,,,,dwarf,,,,,
html-keyboard-response,834,1535742,null,"",null,,,,,,,,,,,,,,,
recall-period,835,1537985,7489.300000667572,"",,,,,,,,,,,badge,,,,,
html-keyboard-response,836,1538108,null,"",null,,,,,,,,,,,,,,,
recall-period,837,1540300,8139.499999761581,"",,,,,,,,,,,salt,,,,,
html-keyboard-response,838,1540411,null,"",null,,,,,,,,,,,,,,,
recall-period,839,1542960,9006.300000429153,"",,,,,,,,,,,coffee,,,,,
html-keyboard-response,840,1543069,null,"",null,,,,,,,,,,,,,,,
recall-period,841,1546367,13461.099999666214,"",,,,,,,,,,,tavern,,,,,
html-keyboard-response,842,1546480,null,"",null,,,,,,,,,,,,,,,
recall-period,843,1607651,null,"",,,,,,,,,,,,,,,,
html-keyboard-response,844,1608164,null,"Time's Up!",null,,,,,,,,,,,,,,,
html-keyboard-response,845,1644247,36081,"<p> Good job! You have responded correctly to 99% of the trials. </p>
                      <p>Be sure to only press the spacebar if you see a GREEN square, and please keep your accuracy above 80%.</p>
                      <p> Press any key to continue the experiment. </p>",32,,,,,,,,,,,,,,,
html-keyboard-response,846,1647513,3264.2999999523163,"<div style=""font-size:48px;"">Press any key to begin list 10 of 16 </div>",32,,,,,,,,,,,,,,,
html-keyboard-response,847,1650021,null,"<div style=""font-size:60px;"">+</div>",null,,,,,,,,,,,,,,,
html-keyboard-response,848,1650227,null,"<div style=""font-size:42px;"">SWORD</div><img id = ""stim"" ><div class = green_square id = bottomsquare></div>",null,encoding,word_square,,,1,bottomsquare,32,true,,,SWORD,9,,,
html-keyboard-response,849,1650534,null,"<div style=""font-size:42px;"">SWORD</div>",null,,word,SWORD,,,,,,,,,,,,
html-keyboard-response,850,1652044,150.20000004768372,"",32,,word,SWORD,,,,,,,,,,,,
html-keyboard-response,851,1652257,null,"<div style=""font-size:42px;"">PLANET</div><img id = ""stim"" ><div class = green_square id = topsquare></div>",null,encoding,word_square,,,1,topsquare,32,true,,,PLANET,9,,,
html-keyboard-response,852,1652562,null,"<div style=""font-size:42px;"">PLANET</div>",null,,word,PLANET,,,,,,,,,,,,
html-keyboard-response,853,1654070,64,"",32,,word,PLANET,,,,,,,,,,,,
html-keyboard-response,854,1654287,null,"<div style=""font-size:42px;"">RACCOON</div><img id = ""stim"" ><div class = red_square id = topsquare></div>",null,encoding,word_square,,,0,topsquare,none,true,,,RACCOON,9,,,
html-keyboard-response,855,1654603,null,"<div style=""font-size:42px;"">RACCOON</div>",null,,word,RACCOON,,,,,,,,,,,,
html-keyboard-response,856,1656119,null,"",null,,word,RACCOON,,,,,,,,,,,,
html-keyboard-response,857,1656326,null,"<div style=""font-size:42px;"">LITTER</div><img id = ""stim"" ><div class = red_square id = bottomsquare></div>",null,encoding,word_square,,,0,bottomsquare,none,true,,,LITTER,9,,,
html-keyboard-response,858,1656641,null,"<div style=""font-size:42px;"">LITTER</div>",null,,word,LITTER,,,,,,,,,,,,
html-keyboard-response,859,1658151,null,"",null,,word,LITTER,,,,,,,,,,,,
