trial_type,trial_index,time_elapsed,rt,stimulus,key_press,exp_phase,test_part,word,task,targ_cond,sq_pos,correctKeyCode,correct,value,response,Word,List,RecResp,serial_pos,colorChosen
pavlovia,0,2573,,"",,,,,,,,,,,,,,,,
external-html,1,32807,30051.19999998808,"",,,,,,,,,,,,,,,,
html-keyboard-response,2,35560,2750.100000023842,"Welcome to the experiment. Press any key to begin.",32,,,,,,,,,,,,,,,
html-keyboard-response,3,47215,11652.199999988079,"<p>You will see a list of words and colored squares in the following task.<p><p>Press the spacebar whenever you see a GREEN square.<p><p>Do not press a key if the square is RED.<p><p>Press the spacebar to continue.</p>",32,,,,,,,,,,,,,,,
html-keyboard-response,4,56054,8336.900000035763,"<p>Please try to remember as many of the words as you can, and try to think about the meaning of each word as it appears.<p><p>After the detection and encoding task you will be asked to solve some math problems for 24 seconds.<p> Please solve as many problems as you can in the time given. <p><p><p>Press the spacebar to continue.</p>",32,,,,,,,,,,,,,,,
html-keyboard-response,5,63593,7033.399999976158,"After solving the math problems, you will be asked to type in as many words <p>from the previous list as you can remember for 75 seconds.<p> If you finish recalling before the 75 seconds are up,<p> just sit tight and try to think of any more words you could have missed. <p><p><p>Press the spacebar to continue.</p>",32,,,,,,,,,,,,,,,
html-keyboard-response,6,70550,6445,"There will be 16 lists of words and recall, followed  by<p><p> a recognition phase. The experiment is expected to take up to 90 minutes.<p>We will begin with a brief practice session.<p>Press the spacebar to begin the practice.</p>",32,,,,,,,,,,,,,,,
html-keyboard-response,7,73063,null,"<div style=""font-size:60px;"">+</div>",null,,,,,,,,,,,,,,,
html-keyboard-response,8,73272,null,"<div style=""font-size:42px;"">HAPPY</div><img id = ""stim"" ><div class = red_square id = ""bottomsquare"" ></div>",null,practice,word_square,HAPPY,prac_response,0,Bottom,none,true,,,,,,,
html-keyboard-response,9,73581,null,"<div style=""font-size:42px;"">HAPPY</div>",null,,word,HAPPY,,,,,,,,,,,,
html-keyboard-response,10,75089,null,"",null,,word,HAPPY,,,,,,,,,,,,
html-keyboard-response,11,75298,null,"<div style=""font-size:42px;"">COLD</div><img id = ""stim"" ><div class = green_square id = ""bottomsquare"" ></div>",null,practice,word_square,COLD,prac_response,1,Bottom,32,true,,,,,,,
html-keyboard-response,12,75605,null,"<div style=""font-size:42px;"">COLD</div>",null,,word,COLD,,,,,,,,,,,,
html-keyboard-response,13,77111,169.80000001192093,"",32,,word,COLD,,,,,,,,,,,,
html-keyboard-response,14,77319,null,"<div style=""font-size:42px;"">HEAVY</div><img id = ""stim"" ><div class = green_square id = ""topsquare"" ></div>",null,practice,word_square,HEAVY,prac_response,1,Top,32,true,,,,,,,
html-keyboard-response,15,77621,164.89999997615814,"<div style=""font-size:42px;"">HEAVY</div>",32,,word,HEAVY,,,,,,,,,,,,
html-keyboard-response,16,79127,null,"",null,,word,HEAVY,,,,,,,,,,,,
html-keyboard-response,17,79330,null,"<div style=""font-size:42px;"">FUNNY</div><img id = ""stim"" ><div class = red_square id = ""topsquare"" ></div>",null,practice,word_square,FUNNY,prac_response,0,Top,none,true,,,,,,,
html-keyboard-response,18,79637,null,"<div style=""font-size:42px;"">FUNNY</div>",null,,word,FUNNY,,,,,,,,,,,,
html-keyboard-response,19,81140,null,"",null,,word,FUNNY,,,,,,,,,,,,
html-keyboard-response,20,81348,null,"<div style=""font-size:42px;"">SCARY</div><img id = ""stim"" ><div class = green_square id = ""bottomsquare"" ></div>",null,practice,word_square,SCARY,prac_response,1,Bottom,32,true,,,,,,,
html-keyboard-response,21,81651,143.60000002384186,"<div style=""font-size:42px;"">SCARY</div>",32,,word,SCARY,,,,,,,,,,,,
html-keyboard-response,22,83154,null,"",null,,word,SCARY,,,,,,,,,,,,
html-keyboard-response,23,83361,null,"<div style=""font-size:42px;"">PEACEFUL</div><img id = ""stim"" ><div class = green_square id = ""topsquare"" ></div>",null,practice,word_square,PEACEFUL,prac_response,1,Top,32,true,,,,,,,
html-keyboard-response,24,83664,156.60000002384186,"<div style=""font-size:42px;"">PEACEFUL</div>",32,,word,PEACEFUL,,,,,,,,,,,,
html-keyboard-response,25,85171,null,"",null,,word,PEACEFUL,,,,,,,,,,,,
html-keyboard-response,26,85378,null,"<div style=""font-size:42px;"">LITTLE</div><img id = ""stim"" ><div class = red_square id = ""bottomsquare"" ></div>",null,practice,word_square,LITTLE,prac_response,0,Bottom,none,true,,,,,,,
html-keyboard-response,27,85686,null,"<div style=""font-size:42px;"">LITTLE</div>",null,,word,LITTLE,,,,,,,,,,,,
html-keyboard-response,28,87189,null,"",null,,word,LITTLE,,,,,,,,,,,,
html-keyboard-response,29,87393,null,"<div style=""font-size:42px;"">TIRED</div><img id = ""stim"" ><div class = red_square id = ""topsquare"" ></div>",null,practice,word_square,TIRED,prac_response,0,Top,none,true,,,,,,,
html-keyboard-response,30,87700,null,"<div style=""font-size:42px;"">TIRED</div>",null,,word,TIRED,,,,,,,,,,,,
html-keyboard-response,31,89205,null,"",null,,word,TIRED,,,,,,,,,,,,
html-keyboard-response,32,89412,null,"<div style=""font-size:42px;"">ENTERTAINING</div><img id = ""stim"" ><div class = red_square id = ""bottomsquare"" ></div>",null,practice,word_square,ENTERTAINING,prac_response,0,Bottom,none,true,,,,,,,
html-keyboard-response,33,89719,null,"<div style=""font-size:42px;"">ENTERTAINING</div>",null,,word,ENTERTAINING,,,,,,,,,,,,
html-keyboard-response,34,91224,null,"",null,,word,ENTERTAINING,,,,,,,,,,,,
html-keyboard-response,35,91431,null,"<div style=""font-size:42px;"">GRATEFUL</div><img id = ""stim"" ><div class = green_square id = ""bottomsquare"" ></div>",null,practice,word_square,GRATEFUL,prac_response,1,Bottom,32,true,,,,,,,
html-keyboard-response,36,91734,214.19999998807907,"<div style=""font-size:42px;"">GRATEFUL</div>",32,,word,GRATEFUL,,,,,,,,,,,,
html-keyboard-response,37,93241,null,"",null,,word,GRATEFUL,,,,,,,,,,,,
html-keyboard-response,38,93449,null,"<div style=""font-size:42px;"">LOUD</div><img id = ""stim"" ><div class = red_square id = ""topsquare"" ></div>",null,practice,word_square,LOUD,prac_response,0,Top,none,true,,,,,,,
html-keyboard-response,39,93756,null,"<div style=""font-size:42px;"">LOUD</div>",null,,word,LOUD,,,,,,,,,,,,
html-keyboard-response,40,95259,null,"",null,,word,LOUD,,,,,,,,,,,,
html-keyboard-response,41,95464,null,"<div style=""font-size:42px;"">SMART</div><img id = ""stim"" ><div class = green_square id = ""topsquare"" ></div>",null,practice,word_square,SMART,prac_response,1,Top,32,true,,,,,,,
html-keyboard-response,42,95767,162.69999998807907,"<div style=""font-size:42px;"">SMART</div>",32,,word,SMART,,,,,,,,,,,,
html-keyboard-response,43,97272,null,"",null,,word,SMART,,,,,,,,,,,,
html-keyboard-response,44,97476,null,"<div style=""font-size:42px;"">SMOOTH</div><img id = ""stim"" ><div class = green_square id = ""bottomsquare"" ></div>",null,practice,word_square,SMOOTH,prac_response,1,Bottom,32,true,,,,,,,
html-keyboard-response,45,97783,243.5,"<div style=""font-size:42px;"">SMOOTH</div>",32,,word,SMOOTH,,,,,,,,,,,,
html-keyboard-response,46,99288,null,"",null,,word,SMOOTH,,,,,,,,,,,,
html-keyboard-response,47,99495,null,"<div style=""font-size:42px;"">DISHONEST</div><img id = ""stim"" ><div class = red_square id = ""bottomsquare"" ></div>",null,practice,word_square,DISHONEST,prac_response,0,Bottom,none,true,,,,,,,
html-keyboard-response,48,99803,null,"<div style=""font-size:42px;"">DISHONEST</div>",null,,word,DISHONEST,,,,,,,,,,,,
html-keyboard-response,49,101306,null,"",null,,word,DISHONEST,,,,,,,,,,,,
html-keyboard-response,50,101509,null,"<div style=""font-size:42px;"">WEALTHY</div><img id = ""stim"" ><div class = green_square id = ""topsquare"" ></div>",null,practice,word_square,WEALTHY,prac_response,1,Top,32,true,,,,,,,
html-keyboard-response,51,101812,196.30000001192093,"<div style=""font-size:42px;"">WEALTHY</div>",32,,word,WEALTHY,,,,,,,,,,,,
html-keyboard-response,52,103320,null,"",null,,word,WEALTHY,,,,,,,,,,,,
html-keyboard-response,53,103527,null,"<div style=""font-size:42px;"">BEAUTIFUL</div><img id = ""stim"" ><div class = red_square id = ""topsquare"" ></div>",null,practice,word_square,BEAUTIFUL,prac_response,0,Top,none,true,,,,,,,
html-keyboard-response,54,103835,null,"<div style=""font-size:42px;"">BEAUTIFUL</div>",null,,word,BEAUTIFUL,,,,,,,,,,,,
html-keyboard-response,55,105341,null,"",null,,word,BEAUTIFUL,,,,,,,,,,,,
html-keyboard-response,56,111561,6216.200000047684,"<p> Good job! You responded correctly to 100% of the trials. </p>
                  <p>Be sure to only press the spacebar if you see a GREEN square, and please keep your accuracy above 80%.</p>
                  <p>We're going to try once more to make sure you understand the task. press any key to continue. </p>",32,,,,,,,,,,,,,,,
html-keyboard-response,57,115276,3713.100000023842,"<p>You will see a list of words and colored squares in the following task.<p><p>Press the spacebar whenever you see a GREEN square.<p><p>Do not press a key if the square is RED<p><p>Press the spacebar to continue.</p>",32,,,,,,,,,,,,,,,
html-keyboard-response,58,117784,null,"<div style=""font-size:60px;"">+</div>",null,,,,,,,,,,,,,,,
html-keyboard-response,59,117988,null,"<div style=""font-size:42px;"">HAPPY</div><img id = ""stim"" ><div class = red_square id = ""bottomsquare"" ></div>",null,practice2,word_square,HAPPY,prac_response,0,Bottom,none,true,,,,,,,
html-keyboard-response,60,118292,null,"<div style=""font-size:42px;"">HAPPY</div>",null,,word,HAPPY,,,,,,,,,,,,
html-keyboard-response,61,119795,null,"",null,,word,HAPPY,,,,,,,,,,,,
html-keyboard-response,62,119998,null,"<div style=""font-size:42px;"">COLD</div><img id = ""stim"" ><div class = green_square id = ""bottomsquare"" ></div>",null,practice2,word_square,,prac_response,1,Bottom,32,true,,,,,,,
html-keyboard-response,63,120303,133.30000001192093,"<div style=""font-size:42px;"">COLD</div>",32,,word,COLD,,,,,,,,,,,,
html-keyboard-response,64,121807,null,"",null,,word,COLD,,,,,,,,,,,,
html-keyboard-response,65,122014,null,"<div style=""font-size:42px;"">HEAVY</div><img id = ""stim"" ><div class = green_square id = ""topsquare"" ></div>",null,practice2,word_square,,prac_response,1,Top,32,true,,,,,,,
html-keyboard-response,66,122321,166.19999998807907,"<div style=""font-size:42px;"">HEAVY</div>",32,,word,HEAVY,,,,,,,,,,,,
html-keyboard-response,67,123828,null,"",null,,word,HEAVY,,,,,,,,,,,,
html-keyboard-response,68,124035,null,"<div style=""font-size:42px;"">FUNNY</div><img id = ""stim"" ><div class = red_square id = ""topsquare"" ></div>",null,practice2,word_square,,prac_response,0,Top,none,true,,,,,,,
html-keyboard-response,69,124338,null,"<div style=""font-size:42px;"">FUNNY</div>",null,,word,FUNNY,,,,,,,,,,,,
html-keyboard-response,70,125844,null,"",null,,word,FUNNY,,,,,,,,,,,,
html-keyboard-response,71,126048,null,"<div style=""font-size:42px;"">SCARY</div><img id = ""stim"" ><div class = green_square id = ""bottomsquare"" ></div>",null,practice2,word_square,,prac_response,1,Bottom,32,true,,,,,,,
html-keyboard-response,72,126356,164.19999998807907,"<div style=""font-size:42px;"">SCARY</div>",32,,word,SCARY,,,,,,,,,,,,
html-keyboard-response,73,127858,null,"",null,,word,SCARY,,,,,,,,,,,,
html-keyboard-response,74,128065,null,"<div style=""font-size:42px;"">PEACEFUL</div><img id = ""stim"" ><div class = green_square id = ""topsquare"" ></div>",null,practice2,word_square,,prac_response,1,Top,32,true,,,,,,,
html-keyboard-response,75,128367,147.10000002384186,"<div style=""font-size:42px;"">PEACEFUL</div>",32,,word,PEACEFUL,,,,,,,,,,,,
html-keyboard-response,76,129873,null,"",null,,word,PEACEFUL,,,,,,,,,,,,
html-keyboard-response,77,130077,null,"<div style=""font-size:42px;"">LITTLE</div><img id = ""stim"" ><div class = red_square id = ""bottomsquare"" ></div>",null,practice2,word_square,LITTLE,prac_response,0,Bottom,none,true,,,,,,,
html-keyboard-response,78,130381,null,"<div style=""font-size:42px;"">LITTLE</div>",null,,word,LITTLE,,,,,,,,,,,,
html-keyboard-response,79,131885,null,"",null,,word,LITTLE,,,,,,,,,,,,
html-keyboard-response,80,132090,null,"<div style=""font-size:42px;"">TIRED</div><img id = ""stim"" ><div class = red_square id = ""topsquare"" ></div>",null,practice2,word_square,,prac_response,0,Top,none,true,,,,,,,
html-keyboard-response,81,132397,null,"<div style=""font-size:42px;"">TIRED</div>",null,,word,TIRED,,,,,,,,,,,,
html-keyboard-response,82,133902,null,"",null,,word,TIRED,,,,,,,,,,,,
html-keyboard-response,83,134110,null,"<div style=""font-size:42px;"">ENTERTAINING</div><img id = ""stim"" ><div class = red_square id = ""bottomsquare"" ></div>",null,practice2,word_square,ENTERTAINING,prac_response,0,Bottom,none,true,,,,,,,
html-keyboard-response,84,134415,null,"<div style=""font-size:42px;"">ENTERTAINING</div>",null,,word,ENTERTAINING,,,,,,,,,,,,
html-keyboard-response,85,135922,null,"",null,,word,ENTERTAINING,,,,,,,,,,,,
html-keyboard-response,86,136127,null,"<div style=""font-size:42px;"">GRATEFUL</div><img id = ""stim"" ><div class = green_square id = ""bottomsquare"" ></div>",null,practice2,word_square,,prac_response,1,Bottom,32,true,,,,,,,
html-keyboard-response,87,136436,155.0999999642372,"<div style=""font-size:42px;"">GRATEFUL</div>",32,,word,GRATEFUL,,,,,,,,,,,,
html-keyboard-response,88,137943,null,"",null,,word,GRATEFUL,,,,,,,,,,,,
html-keyboard-response,89,138150,null,"<div style=""font-size:42px;"">LOUD</div><img id = ""stim"" ><div class = red_square id = ""topsquare"" ></div>",null,practice2,word_square,,prac_response,0,Top,none,true,,,,,,,
html-keyboard-response,90,138457,null,"<div style=""font-size:42px;"">LOUD</div>",null,,word,LOUD,,,,,,,,,,,,
html-keyboard-response,91,139965,null,"",null,,word,LOUD,,,,,,,,,,,,
html-keyboard-response,92,140170,null,"<div style=""font-size:42px;"">SMART</div><img id = ""stim"" ><div class = green_square id = ""topsquare"" ></div>",null,practice2,word_square,,prac_response,1,Top,32,true,,,,,,,
html-keyboard-response,93,140477,146,"<div style=""font-size:42px;"">SMART</div>",32,,word,SMART,,,,,,,,,,,,
html-keyboard-response,94,141982,null,"",null,,word,SMART,,,,,,,,,,,,
html-keyboard-response,95,142189,null,"<div style=""font-size:42px;"">SMOOTH</div><img id = ""stim"" ><div class = green_square id = ""bottomsquare"" ></div>",null,practice2,word_square,,prac_response,1,Bottom,32,true,,,,,,,
html-keyboard-response,96,142495,150.39999997615814,"<div style=""font-size:42px;"">SMOOTH</div>",32,,word,SMOOTH,,,,,,,,,,,,
html-keyboard-response,97,144002,null,"",null,,word,SMOOTH,,,,,,,,,,,,
html-keyboard-response,98,144206,null,"<div style=""font-size:42px;"">DISHONEST</div><img id = ""stim"" ><div class = red_square id = ""bottomsquare"" ></div>",null,practice2,word_square,DISHONEST,prac_response,0,Bottom,none,true,,,,,,,
html-keyboard-response,99,144512,null,"<div style=""font-size:42px;"">DISHONEST</div>",null,,word,DISHONEST,,,,,,,,,,,,
html-keyboard-response,100,146019,null,"",null,,word,DISHONEST,,,,,,,,,,,,
html-keyboard-response,101,146222,null,"<div style=""font-size:42px;"">WEALTHY</div><img id = ""stim"" ><div class = green_square id = ""topsquare"" ></div>",null,practice2,word_square,,prac_response,1,Top,32,true,,,,,,,
html-keyboard-response,102,146525,170.30000001192093,"<div style=""font-size:42px;"">WEALTHY</div>",32,,word,WEALTHY,,,,,,,,,,,,
html-keyboard-response,103,148032,null,"",null,,word,WEALTHY,,,,,,,,,,,,
html-keyboard-response,104,148234,null,"<div style=""font-size:42px;"">BEAUTIFUL</div><img id = ""stim"" ><div class = red_square id = ""topsquare"" ></div>",null,practice2,word_square,,prac_response,0,Top,none,false,,,,,,,
html-keyboard-response,105,148538,null,"<div style=""font-size:42px;"">BEAUTIFUL</div>",null,,word,BEAUTIFUL,,,,,,,,,,,,
html-keyboard-response,106,150046,null,"",null,,word,BEAUTIFUL,,,,,,,,,,,,
html-keyboard-response,107,153523,3475.5,"<p> Good job! You responded correctly to 100% of the trials. </p>
                    <p>Be sure to only press the spacebar if you see a GREEN square, and please keep your accuracy above 80%.</p>
                    <p>Press any key to begin the math and recall sections. Thank you! </p>",32,,,,,,,,,,,,,,,
call-function,108,153524,,"",,,,,,,,,,,,,,,,
html-keyboard-response,109,153629,null,"",null,,,,,,,,,,,,,,,
math-period,110,158137,8361.399999976158,"",,,,,,,,,,,5,,,,,
html-keyboard-response,111,158240,null,"",null,,,,,,,,,,,,,,,
math-period,112,161445,6132.700000047684,"",,,,,,,,,,,1,,,,,
html-keyboard-response,113,161549,null,"",null,,,,,,,,,,,,,,,
math-period,114,163424,3559.899999976158,"",,,,,,,,,,,2,,,,,
html-keyboard-response,115,163530,null,"",null,,,,,,,,,,,,,,,
math-period,116,164954,2482.1000000834465,"",,,,,,,,,,,2,,,,,
html-keyboard-response,117,165059,null,"",null,,,,,,,,,,,,,,,
math-period,118,166394,2395.699999988079,"",,,,,,,,,,,5,,,,,
html-keyboard-response,119,166497,null,"",null,,,,,,,,,,,,,,,
math-period,120,167969,2625.800000011921,"",,,,,,,,,,,3,,,,,
html-keyboard-response,121,168073,null,"",null,,,,,,,,,,,,,,,
math-period,122,169746,3071.899999976158,"",,,,,,,,,,,2,,,,,
html-keyboard-response,123,169854,null,"",null,,,,,,,,,,,,,,,
math-period,124,172539,5116.699999928474,"",,,,,,,,,,,1,,,,,
html-keyboard-response,125,172647,null,"",null,,,,,,,,,,,,,,,
math-period,126,174313,2923.9999999403954,"",,,,,,,,,,,5,,,,,
html-keyboard-response,127,174416,null,"",null,,,,,,,,,,,,,,,
math-period,128,175597,2151.600000023842,"",,,,,,,,,,,5,,,,,
html-keyboard-response,129,175699,null,"",null,,,,,,,,,,,,,,,
math-period,130,176834,2020.6999999284744,"",,,,,,,,,,,5,,,,,
html-keyboard-response,131,176941,null,"",null,,,,,,,,,,,,,,,
math-period,132,177531,null,"",,,,,,,,,,,,,,,,
html-keyboard-response,133,178536,null,"Recall Period!",null,,,,,,,,,,,,,,,
call-function,134,178538,,"",,,,,,,,,,,,,,,,
html-keyboard-response,135,178640,null,"",null,,,,,,,,,,,,,,,
recall-period,136,181989,3346.7000000476837,"",,,,,,,,,,,,,,,,
html-keyboard-response,137,182094,null,"",null,,,,,,,,,,,,,,,
recall-period,138,185766,35632.60000002384,"",,,,,,,,,,,beautiful,,,,,
html-keyboard-response,139,185871,null,"",null,,,,,,,,,,,,,,,
recall-period,140,187860,14300.80000013113,"",,,,,,,,,,,grateful,,,,,
html-keyboard-response,141,187964,null,"",null,,,,,,,,,,,,,,,
recall-period,142,189142,4618.200000107288,"",,,,,,,,,,,cold,,,,,
html-keyboard-response,143,189244,null,"",null,,,,,,,,,,,,,,,
recall-period,144,190131,3566.19999986887,"",,,,,,,,,,,smooth,,,,,
html-keyboard-response,145,190236,null,"",null,,,,,,,,,,,,,,,
recall-period,146,191796,7325.900000154972,"",,,,,,,,,,,happy,,,,,
html-keyboard-response,147,191899,null,"",null,,,,,,,,,,,,,,,
recall-period,148,193911,12801.600000023842,"",,,,,,,,,,,wealthy,,,,,
html-keyboard-response,149,194013,null,"",null,,,,,,,,,,,,,,,
recall-period,150,197534,27127.499999821186,"",,,,,,,,,,,peaceful,,,,,
html-keyboard-response,151,197638,null,"",null,,,,,,,,,,,,,,,
recall-period,152,209211,67276.09999996424,"",,,,,,,,,,,scary,,,,,
html-keyboard-response,153,209314,null,"",null,,,,,,,,,,,,,,,
recall-period,154,224780,87586.39999997616,"",,,,,,,,,,,funny,,,,,
html-keyboard-response,155,224885,null,"",null,,,,,,,,,,,,,,,
recall-period,156,235017,54074.09999984503,"",,,,,,,,,,,angry,,,,,
html-keyboard-response,157,235120,null,"",null,,,,,,,,,,,,,,,
recall-period,158,253543,null,"",,,,,,,,,,,,,,,,
html-keyboard-response,159,254047,null,"Time's Up!",null,,,,,,,,,,,,,,,
html-keyboard-response,160,264339,10289.400000035763,"<p>We will now begin the experiment!<p><p>Please try to remember all words from each list.<p><p>Press the spacebar whenever you see a GREEN square.<p><p><p><p>Press the spacebar to begin.</p>",32,,,,,,,,,,,,,,,
html-keyboard-response,161,267553,2712.300000011921,"<div style=""font-size:48px;"">Press any key to begin list 1 of 16 </div>",32,,,,,,,,,,,,,,,
html-keyboard-response,162,270060,null,"<div style=""font-size:60px;"">+</div>",null,,,,,,,,,,,,,,,
html-keyboard-response,163,270267,null,"<div style=""font-size:42px;"">PIRATE</div><img id = ""stim"" ><div class = green_square id = topsquare></div>",null,encoding,word_square,,,1,topsquare,32,true,,,PIRATE,0,,,
html-keyboard-response,164,270569,186.5,"<div style=""font-size:42px;"">PIRATE</div>",32,,word,PIRATE,,,,,,,,,,,,
html-keyboard-response,165,272073,null,"",null,,word,PIRATE,,,,,,,,,,,,
html-keyboard-response,166,272281,null,"<div style=""font-size:42px;"">SHELTER</div><img id = ""stim"" ><div class = green_square id = bottomsquare></div>",null,encoding,word_square,,,1,bottomsquare,32,true,,,SHELTER,0,,,
html-keyboard-response,167,272583,197.89999997615814,"<div style=""font-size:42px;"">SHELTER</div>",32,,word,SHELTER,,,,,,,,,,,,
html-keyboard-response,168,274090,null,"",null,,word,SHELTER,,,,,,,,,,,,
html-keyboard-response,169,274293,null,"<div style=""font-size:42px;"">WOLF</div><img id = ""stim"" ><div class = red_square id = bottomsquare></div>",null,encoding,word_square,,,0,bottomsquare,none,false,,,WOLF,0,,,
html-keyboard-response,170,274598,null,"<div style=""font-size:42px;"">WOLF</div>",null,,word,WOLF,,,,,,,,,,,,
html-keyboard-response,171,276105,221.60000002384186,"",32,,word,WOLF,,,,,,,,,,,,
html-keyboard-response,172,276313,null,"<div style=""font-size:42px;"">CLOUD</div><img id = ""stim"" ><div class = green_square id = topsquare></div>",null,encoding,word_square,,,1,topsquare,32,true,,,CLOUD,0,,,
html-keyboard-response,173,276615,170.89999997615814,"<div style=""font-size:42px;"">CLOUD</div>",32,,word,CLOUD,,,,,,,,,,,,
html-keyboard-response,174,278121,null,"",null,,word,CLOUD,,,,,,,,,,,,
html-keyboard-response,175,278328,null,"<div style=""font-size:42px;"">COMET</div><img id = ""stim"" ><div class = red_square id = topsquare></div>",null,encoding,word_square,,,0,topsquare,none,true,,,COMET,0,,,
html-keyboard-response,176,278633,null,"<div style=""font-size:42px;"">COMET</div>",null,,word,COMET,,,,,,,,,,,,
html-keyboard-response,177,280140,null,"",null,,word,COMET,,,,,,,,,,,,
html-keyboard-response,178,280347,null,"<div style=""font-size:42px;"">JAR</div><img id = ""stim"" ><div class = green_square id = bottomsquare></div>",null,encoding,word_square,,,1,bottomsquare,32,true,,,JAR,0,,,
html-keyboard-response,179,280651,231.30000001192093,"<div style=""font-size:42px;"">JAR</div>",32,,word,JAR,,,,,,,,,,,,
html-keyboard-response,180,282153,null,"",null,,word,JAR,,,,,,,,,,,,
html-keyboard-response,181,282361,null,"<div style=""font-size:42px;"">BEAVER</div><img id = ""stim"" ><div class = green_square id = topsquare></div>",null,encoding,word_square,,,1,topsquare,32,true,,,BEAVER,0,,,
html-keyboard-response,182,282668,175.30000001192093,"<div style=""font-size:42px;"">BEAVER</div>",32,,word,BEAVER,,,,,,,,,,,,
html-keyboard-response,183,284170,null,"",null,,word,BEAVER,,,,,,,,,,,,
html-keyboard-response,184,284377,null,"<div style=""font-size:42px;"">WASHER</div><img id = ""stim"" ><div class = red_square id = bottomsquare></div>",null,encoding,word_square,,,0,bottomsquare,none,true,,,WASHER,0,,,
html-keyboard-response,185,284681,null,"<div style=""font-size:42px;"">WASHER</div>",null,,word,WASHER,,,,,,,,,,,,
html-keyboard-response,186,286184,null,"",null,,word,WASHER,,,,,,,,,,,,
html-keyboard-response,187,286391,null,"<div style=""font-size:42px;"">SWAMP</div><img id = ""stim"" ><div class = red_square id = topsquare></div>",null,encoding,word_square,,,0,topsquare,none,true,,,SWAMP,0,,,
html-keyboard-response,188,286699,null,"<div style=""font-size:42px;"">SWAMP</div>",null,,word,SWAMP,,,,,,,,,,,,
html-keyboard-response,189,288201,null,"",null,,word,SWAMP,,,,,,,,,,,,
html-keyboard-response,190,288404,null,"<div style=""font-size:42px;"">COOKBOOK</div><img id = ""stim"" ><div class = green_square id = bottomsquare></div>",null,encoding,word_square,,,1,bottomsquare,32,true,,,COOKBOOK,0,,,
html-keyboard-response,191,288708,277.39999997615814,"<div style=""font-size:42px;"">COOKBOOK</div>",32,,word,COOKBOOK,,,,,,,,,,,,
html-keyboard-response,192,290213,null,"",null,,word,COOKBOOK,,,,,,,,,,,,
html-keyboard-response,193,290415,null,"<div style=""font-size:42px;"">TURTLE</div><img id = ""stim"" ><div class = red_square id = bottomsquare></div>",null,encoding,word_square,,,0,bottomsquare,none,true,,,TURTLE,0,,,
html-keyboard-response,194,290719,null,"<div style=""font-size:42px;"">TURTLE</div>",null,,word,TURTLE,,,,,,,,,,,,
html-keyboard-response,195,292226,null,"",null,,word,TURTLE,,,,,,,,,,,,
html-keyboard-response,196,292435,null,"<div style=""font-size:42px;"">SLUG</div><img id = ""stim"" ><div class = red_square id = topsquare></div>",null,encoding,word_square,,,0,topsquare,none,true,,,SLUG,0,,,
html-keyboard-response,197,292740,null,"<div style=""font-size:42px;"">SLUG</div>",null,,word,SLUG,,,,,,,,,,,,
html-keyboard-response,198,294248,null,"",null,,word,SLUG,,,,,,,,,,,,
html-keyboard-response,199,294455,null,"<div style=""font-size:42px;"">CURTAIN</div><img id = ""stim"" ><div class = green_square id = topsquare></div>",null,encoding,word_square,,,1,topsquare,32,true,,,CURTAIN,0,,,
html-keyboard-response,200,294759,208.39999997615814,"<div style=""font-size:42px;"">CURTAIN</div>",32,,word,CURTAIN,,,,,,,,,,,,
html-keyboard-response,201,296263,null,"",null,,word,CURTAIN,,,,,,,,,,,,
html-keyboard-response,202,296470,null,"<div style=""font-size:42px;"">IDOL</div><img id = ""stim"" ><div class = red_square id = bottomsquare></div>",null,encoding,word_square,,,0,bottomsquare,none,true,,,IDOL,0,,,
html-keyboard-response,203,296777,null,"<div style=""font-size:42px;"">IDOL</div>",null,,word,IDOL,,,,,,,,,,,,
html-keyboard-response,204,298285,null,"",null,,word,IDOL,,,,,,,,,,,,
html-keyboard-response,205,298492,null,"<div style=""font-size:42px;"">HANDCUFFS</div><img id = ""stim"" ><div class = red_square id = topsquare></div>",null,encoding,word_square,,,0,topsquare,none,true,,,HANDCUFFS,0,,,
html-keyboard-response,206,298797,null,"<div style=""font-size:42px;"">HANDCUFFS</div>",null,,word,HANDCUFFS,,,,,,,,,,,,
html-keyboard-response,207,300304,null,"",null,,word,HANDCUFFS,,,,,,,,,,,,
html-keyboard-response,208,300510,null,"<div style=""font-size:42px;"">ZIPPER</div><img id = ""stim"" ><div class = green_square id = bottomsquare></div>",null,encoding,word_square,,,1,bottomsquare,32,true,,,ZIPPER,0,,,
html-keyboard-response,209,300813,163.69999998807907,"<div style=""font-size:42px;"">ZIPPER</div>",32,,word,ZIPPER,,,,,,,,,,,,
html-keyboard-response,210,302320,null,"",null,,word,ZIPPER,,,,,,,,,,,,
call-function,211,302322,,"",,,,,,,,,,,,,,,,
html-keyboard-response,212,302428,null,"",null,,,,,,,,,,,,,,,
math-period,213,304565,3933.7999999523163,"",,,,,,,,,,,5,,,,,
html-keyboard-response,214,304670,null,"",null,,,,,,,,,,,,,,,
math-period,215,306568,3543.5000000596046,"",,,,,,,,,,,4,,,,,
html-keyboard-response,216,306675,null,"",null,,,,,,,,,,,,,,,
math-period,217,307738,1896.6000000238419,"",,,,,,,,,,,3,,,,,
html-keyboard-response,218,307841,null,"",null,,,,,,,,,,,,,,,
math-period,219,310303,4697.700000047684,"",,,,,,,,,,,0,,,,,
html-keyboard-response,220,310408,null,"",null,,,,,,,,,,,,,,,
math-period,221,311675,2328.800000011921,"",,,,,,,,,,,4,,,,,
html-keyboard-response,222,311781,null,"",null,,,,,,,,,,,,,,,
math-period,223,312778,1787.699999988079,"",,,,,,,,,,,5,,,,,
html-keyboard-response,224,312885,null,"",null,,,,,,,,,,,,,,,
math-period,225,315478,7909.3999999165535,"",,,,,,,,,,,4,,,,,
html-keyboard-response,226,315585,null,"",null,,,,,,,,,,,,,,,
math-period,227,316490,1626.300000011921,"",,,,,,,,,,,4,,,,,
html-keyboard-response,228,316597,null,"",null,,,,,,,,,,,,,,,
math-period,229,318249,3069.100000023842,"",,,,,,,,,,,0,,,,,
html-keyboard-response,230,318352,null,"",null,,,,,,,,,,,,,,,
math-period,231,320158,3405.2000000476837,"",,,,,,,,,,,2,,,,,
html-keyboard-response,232,320261,null,"",null,,,,,,,,,,,,,,,
math-period,233,321463,2241,"",,,,,,,,,,,4,,,,,
html-keyboard-response,234,321570,null,"",null,,,,,,,,,,,,,,,
math-period,235,322520,1717.7000000476837,"",,,,,,,,,,,5,,,,,
html-keyboard-response,236,322627,null,"",null,,,,,,,,,,,,,,,
math-period,237,323623,1805.9000000357628,"",,,,,,,,,,,4,,,,,
html-keyboard-response,238,323730,null,"",null,,,,,,,,,,,,,,,
math-period,239,325895,4147.100000023842,"",,,,,,,,,,,1,,,,,
html-keyboard-response,240,325998,null,"",null,,,,,,,,,,,,,,,
math-period,241,326328,null,"",,,,,,,,,,,,,,,,
html-keyboard-response,242,327333,null,"Recall Period!",null,,,,,,,,,,,,,,,
call-function,243,327334,,"",,,,,,,,,,,,,,,,
html-keyboard-response,244,327440,null,"",null,,,,,,,,,,,,,,,
recall-period,245,334895,115773.60000044107,"",,,,,,,,,,,pirate,,,,,
html-keyboard-response,246,335000,null,"",null,,,,,,,,,,,,,,,
recall-period,247,336515,8352.700000047684,"",,,,,,,,,,,shelter,,,,,
html-keyboard-response,248,336621,null,"",null,,,,,,,,,,,,,,,
recall-period,249,338045,6417.099999964237,"",,,,,,,,,,,cloud,,,,,
html-keyboard-response,250,338151,null,"",null,,,,,,,,,,,,,,,
recall-period,251,339845,10791.90000039339,"",,,,,,,,,,,handcuffs,,,,,
html-keyboard-response,252,339949,null,"",null,,,,,,,,,,,,,,,
recall-period,253,341960,7505.6000000834465,"",,,,,,,,,,,idol,,,,,
html-keyboard-response,254,342063,null,"",null,,,,,,,,,,,,,,,
recall-period,255,344170,10111.899999856949,"",,,,,,,,,,,swamp,,,,,
html-keyboard-response,256,344272,null,"",null,,,,,,,,,,,,,,,
recall-period,257,346168,11595.700000107288,"",,,,,,,,,,,cookbook,,,,,
html-keyboard-response,258,346271,null,"",null,,,,,,,,,,,,,,,
recall-period,259,384327,337850.5999997854,"",,,,,,,,,,,homework,,,,,
html-keyboard-response,260,384433,null,"",null,,,,,,,,,,,,,,,
recall-period,261,395982,87185.80000025034,"",,,,,,,,,,,washer,,,,,
html-keyboard-response,262,396087,null,"",null,,,,,,,,,,,,,,,
recall-period,263,402340,null,"",,,,,,,,,,,,,,,,
html-keyboard-response,264,402845,null,"Time's Up!",null,,,,,,,,,,,,,,,
html-keyboard-response,265,431626,28778.599999964237,"<p> Good job! You have responded correctly to 94% of the trials. </p>
                      <p>Be sure to only press the spacebar if you see a GREEN square, and please keep your accuracy above 80%.</p>
                      <p> Press any key to continue the experiment. </p>",32,,,,,,,,,,,,,,,
html-keyboard-response,266,432387,758.6000000238419,"<div style=""font-size:48px;"">Press any key to begin list 2 of 16 </div>",32,,,,,,,,,,,,,,,
html-keyboard-response,267,434897,null,"<div style=""font-size:60px;"">+</div>",null,,,,,,,,,,,,,,,
html-keyboard-response,268,435104,null,"<div style=""font-size:42px;"">SALMON</div><img id = ""stim"" ><div class = green_square id = bottomsquare></div>",null,encoding,word_square,,,1,bottomsquare,32,true,,,SALMON,1,,,
html-keyboard-response,269,435406,252,"<div style=""font-size:42px;"">SALMON</div>",32,,word,SALMON,,,,,,,,,,,,
html-keyboard-response,270,436910,null,"",null,,word,SALMON,,,,,,,,,,,,
html-keyboard-response,271,437117,null,"<div style=""font-size:42px;"">TAXI</div><img id = ""stim"" ><div class = red_square id = topsquare></div>",null,encoding,word_square,,,0,topsquare,none,true,,,TAXI,1,,,
html-keyboard-response,272,437422,null,"<div style=""font-size:42px;"">TAXI</div>",null,,word,TAXI,,,,,,,,,,,,
html-keyboard-response,273,438928,null,"",null,,word,TAXI,,,,,,,,,,,,
html-keyboard-response,274,439135,null,"<div style=""font-size:42px;"">RUST</div><img id = ""stim"" ><div class = red_square id = bottomsquare></div>",null,encoding,word_square,,,0,bottomsquare,none,true,,,RUST,1,,,
html-keyboard-response,275,439439,null,"<div style=""font-size:42px;"">RUST</div>",null,,word,RUST,,,,,,,,,,,,
html-keyboard-response,276,440946,null,"",null,,word,RUST,,,,,,,,,,,,
html-keyboard-response,277,441154,null,"<div style=""font-size:42px;"">BRICK</div><img id = ""stim"" ><div class = green_square id = topsquare></div>",null,encoding,word_square,,,1,topsquare,32,true,,,BRICK,1,,,
html-keyboard-response,278,441458,186,"<div style=""font-size:42px;"">BRICK</div>",32,,word,BRICK,,,,,,,,,,,,
html-keyboard-response,279,442965,null,"",null,,word,BRICK,,,,,,,,,,,,
html-keyboard-response,280,443173,null,"<div style=""font-size:42px;"">CORAL</div><img id = ""stim"" ><div class = red_square id = topsquare></div>",null,encoding,word_square,,,0,topsquare,none,true,,,CORAL,1,,,
html-keyboard-response,281,443476,null,"<div style=""font-size:42px;"">CORAL</div>",null,,word,CORAL,,,,,,,,,,,,
html-keyboard-response,282,444984,null,"",null,,word,CORAL,,,,,,,,,,,,
html-keyboard-response,283,445186,null,"<div style=""font-size:42px;"">ATTIRE</div><img id = ""stim"" ><div class = red_square id = bottomsquare></div>",null,encoding,word_square,,,0,bottomsquare,none,true,,,ATTIRE,1,,,
html-keyboard-response,284,445490,null,"<div style=""font-size:42px;"">ATTIRE</div>",null,,word,ATTIRE,,,,,,,,,,,,
html-keyboard-response,285,446999,null,"",null,,word,ATTIRE,,,,,,,,,,,,
html-keyboard-response,286,447204,null,"<div style=""font-size:42px;"">CRACKER</div><img id = ""stim"" ><div class = green_square id = bottomsquare></div>",null,encoding,word_square,,,1,bottomsquare,32,true,,,CRACKER,1,,,
html-keyboard-response,287,447507,280.39999997615814,"<div style=""font-size:42px;"">CRACKER</div>",32,,word,CRACKER,,,,,,,,,,,,
html-keyboard-response,288,449010,null,"",null,,word,CRACKER,,,,,,,,,,,,
html-keyboard-response,289,449216,null,"<div style=""font-size:42px;"">LETTER</div><img id = ""stim"" ><div class = red_square id = topsquare></div>",null,encoding,word_square,,,0,topsquare,none,true,,,LETTER,1,,,
html-keyboard-response,290,449522,null,"<div style=""font-size:42px;"">LETTER</div>",null,,word,LETTER,,,,,,,,,,,,
html-keyboard-response,291,451026,null,"",null,,word,LETTER,,,,,,,,,,,,
html-keyboard-response,292,451228,null,"<div style=""font-size:42px;"">BOYFRIEND</div><img id = ""stim"" ><div class = red_square id = bottomsquare></div>",null,encoding,word_square,,,0,bottomsquare,none,true,,,BOYFRIEND,1,,,
html-keyboard-response,293,451536,null,"<div style=""font-size:42px;"">BOYFRIEND</div>",null,,word,BOYFRIEND,,,,,,,,,,,,
html-keyboard-response,294,453045,null,"",null,,word,BOYFRIEND,,,,,,,,,,,,
html-keyboard-response,295,453253,null,"<div style=""font-size:42px;"">FLUTE</div><img id = ""stim"" ><div class = green_square id = topsquare></div>",null,encoding,word_square,,,1,topsquare,32,true,,,FLUTE,1,,,
html-keyboard-response,296,453556,146.60000002384186,"<div style=""font-size:42px;"">FLUTE</div>",32,,word,FLUTE,,,,,,,,,,,,
html-keyboard-response,297,455064,null,"",null,,word,FLUTE,,,,,,,,,,,,
html-keyboard-response,298,455271,null,"<div style=""font-size:42px;"">BANJO</div><img id = ""stim"" ><div class = green_square id = bottomsquare></div>",null,encoding,word_square,,,1,bottomsquare,32,true,,,BANJO,1,,,
html-keyboard-response,299,455578,153.69999998807907,"<div style=""font-size:42px;"">BANJO</div>",32,,word,BANJO,,,,,,,,,,,,
html-keyboard-response,300,457086,null,"",null,,word,BANJO,,,,,,,,,,,,
html-keyboard-response,301,457290,null,"<div style=""font-size:42px;"">RIVER</div><img id = ""stim"" ><div class = red_square id = topsquare></div>",null,encoding,word_square,,,0,topsquare,none,true,,,RIVER,1,,,
html-keyboard-response,302,457598,null,"<div style=""font-size:42px;"">RIVER</div>",null,,word,RIVER,,,,,,,,,,,,
html-keyboard-response,303,459105,null,"",null,,word,RIVER,,,,,,,,,,,,
html-keyboard-response,304,459309,null,"<div style=""font-size:42px;"">FOSSIL</div><img id = ""stim"" ><div class = green_square id = topsquare></div>",null,encoding,word_square,,,1,topsquare,32,true,,,FOSSIL,1,,,
html-keyboard-response,305,459611,258.30000001192093,"<div style=""font-size:42px;"">FOSSIL</div>",32,,word,FOSSIL,,,,,,,,,,,,
html-keyboard-response,306,461119,null,"",null,,word,FOSSIL,,,,,,,,,,,,
html-keyboard-response,307,461326,null,"<div style=""font-size:42px;"">FRAGRANCE</div><img id = ""stim"" ><div class = red_square id = bottomsquare></div>",null,encoding,word_square,,,0,bottomsquare,none,true,,,FRAGRANCE,1,,,
html-keyboard-response,308,461629,null,"<div style=""font-size:42px;"">FRAGRANCE</div>",null,,word,FRAGRANCE,,,,,,,,,,,,
html-keyboard-response,309,463135,null,"",null,,word,FRAGRANCE,,,,,,,,,,,,
html-keyboard-response,310,463342,null,"<div style=""font-size:42px;"">CABIN</div><img id = ""stim"" ><div class = green_square id = bottomsquare></div>",null,encoding,word_square,,,1,bottomsquare,32,true,,,CABIN,1,,,
html-keyboard-response,311,463646,293.7000000476837,"<div style=""font-size:42px;"">CABIN</div>",32,,word,CABIN,,,,,,,,,,,,
html-keyboard-response,312,465148,null,"",null,,word,CABIN,,,,,,,,,,,,
html-keyboard-response,313,465355,null,"<div style=""font-size:42px;"">BOXER</div><img id = ""stim"" ><div class = green_square id = topsquare></div>",null,encoding,word_square,,,1,topsquare,32,true,,,BOXER,1,,,
html-keyboard-response,314,465657,151.4000000357628,"<div style=""font-size:42px;"">BOXER</div>",32,,word,BOXER,,,,,,,,,,,,
html-keyboard-response,315,467161,null,"",null,,word,BOXER,,,,,,,,,,,,
call-function,316,467163,,"",,,,,,,,,,,,,,,,
html-keyboard-response,317,467269,null,"",null,,,,,,,,,,,,,,,
math-period,318,469604,4370.899999976158,"",,,,,,,,,,,2,,,,,
html-keyboard-response,319,469708,null,"",null,,,,,,,,,,,,,,,
math-period,320,471244,2798.100000023842,"",,,,,,,,,,,0,,,,,
html-keyboard-response,321,471351,null,"",null,,,,,,,,,,,,,,,
math-period,322,472818,2570.7999999523163,"",,,,,,,,,,,6,,,,,
html-keyboard-response,323,472926,null,"",null,,,,,,,,,,,,,,,
math-period,324,474304,2524.5999999046326,"",,,,,,,,,,,5,,,,,
html-keyboard-response,325,474411,null,"",null,,,,,,,,,,,,,,,
math-period,326,475362,1718,"",,,,,,,,,,,4,,,,,
html-keyboard-response,327,475465,null,"",null,,,,,,,,,,,,,,,
math-period,328,476580,2020.0999999642372,"",,,,,,,,,,,5,,,,,
html-keyboard-response,329,476685,null,"",null,,,,,,,,,,,,,,,
math-period,330,477544,1532.9999999403954,"",,,,,,,,,,,5,,,,,
html-keyboard-response,331,477647,null,"",null,,,,,,,,,,,,,,,
math-period,332,478422,1364.8000000715256,"",,,,,,,,,,,5,,,,,
html-keyboard-response,333,478526,null,"",null,,,,,,,,,,,,,,,
math-period,334,479524,1788.5000000596046,"",,,,,,,,,,,4,,,,,
html-keyboard-response,335,479631,null,"",null,,,,,,,,,,,,,,,
math-period,336,480628,1809.9999999403954,"",,,,,,,,,,,2,,,,,
html-keyboard-response,337,480730,null,"",null,,,,,,,,,,,,,,,
math-period,338,483034,4423.299999952316,"",,,,,,,,,,,1,,,,,
html-keyboard-response,339,483141,null,"",null,,,,,,,,,,,,,,,
math-period,340,484182,1878.300000011921,"",,,,,,,,,,,4,,,,,
html-keyboard-response,341,484285,null,"",null,,,,,,,,,,,,,,,
math-period,342,485960,3141.099999964237,"",,,,,,,,,,,1,,,,,
html-keyboard-response,343,486063,null,"",null,,,,,,,,,,,,,,,
math-period,344,487219,2127.899999976158,"",,,,,,,,,,,4,,,,,
html-keyboard-response,345,487323,null,"",null,,,,,,,,,,,,,,,
math-period,346,488299,1767.5,"",,,,,,,,,,,4,,,,,
html-keyboard-response,347,488406,null,"",null,,,,,,,,,,,,,,,
math-period,348,489155,1339.3000000715256,"",,,,,,,,,,,4,,,,,
html-keyboard-response,349,489257,null,"",null,,,,,,,,,,,,,,,
math-period,350,491047,3349.599999964237,"",,,,,,,,,,,2,,,,,
html-keyboard-response,351,491151,null,"",null,,,,,,,,,,,,,,,
math-period,352,491165,null,"",,,,,,,,,,,,,,,,
html-keyboard-response,353,492171,null,"Recall Period!",null,,,,,,,,,,,,,,,
call-function,354,492172,,"",,,,,,,,,,,,,,,,
html-keyboard-response,355,492278,null,"",null,,,,,,,,,,,,,,,
recall-period,356,495386,15648.399999856949,"",,,,,,,,,,,salmon,,,,,
html-keyboard-response,357,495489,null,"",null,,,,,,,,,,,,,,,
recall-period,358,498086,11742.100000083447,"",,,,,,,,,,,coral,,,,,
html-keyboard-response,359,498188,null,"",null,,,,,,,,,,,,,,,
recall-period,360,500157,9797.50000011921,"",,,,,,,,,,,river,,,,,
html-keyboard-response,361,500259,null,"",null,,,,,,,,,,,,,,,
recall-period,362,501260,3761.3000000715256,"",,,,,,,,,,,boxer,,,,,
html-keyboard-response,363,501362,null,"",null,,,,,,,,,,,,,,,
recall-period,364,504476,25520.400000095367,"",,,,,,,,,,,boyfriend,,,,,
html-keyboard-response,365,504583,null,"",null,,,,,,,,,,,,,,,
recall-period,366,532961,166904.69999986887,"",,,,,,,,,,,flute,,,,,
html-keyboard-response,367,533064,null,"",null,,,,,,,,,,,,,,,
recall-period,368,533951,2928.0000001192093,"",,,,,,,,,,,banjo,,,,,
html-keyboard-response,369,534055,null,"",null,,,,,,,,,,,,,,,
recall-period,370,563968,293878.60000008345,"",,,,,,,,,,,fragrance,,,,,
html-keyboard-response,371,564074,null,"",null,,,,,,,,,,,,,,,
recall-period,372,567179,null,"",,,,,,,,,,,,,,,,
html-keyboard-response,373,567683,null,"Time's Up!",null,,,,,,,,,,,,,,,
html-keyboard-response,374,590094,22408.400000035763,"<p> Good job! You have responded correctly to 97% of the trials. </p>
                      <p>Be sure to only press the spacebar if you see a GREEN square, and please keep your accuracy above 80%.</p>
                      <p> Press any key to continue the experiment. </p>",32,,,,,,,,,,,,,,,
html-keyboard-response,375,590763,667.7000000476837,"<div style=""font-size:48px;"">Press any key to begin list 3 of 16 </div>",32,,,,,,,,,,,,,,,
html-keyboard-response,376,593269,null,"<div style=""font-size:60px;"">+</div>",null,,,,,,,,,,,,,,,
html-keyboard-response,377,593473,null,"<div style=""font-size:42px;"">DAD</div><img id = ""stim"" ><div class = red_square id = bottomsquare></div>",null,encoding,word_square,,,0,bottomsquare,none,true,,,DAD,2,,,
html-keyboard-response,378,593781,null,"<div style=""font-size:42px;"">DAD</div>",null,,word,DAD,,,,,,,,,,,,
html-keyboard-response,379,595285,null,"",null,,word,DAD,,,,,,,,,,,,
html-keyboard-response,380,595489,null,"<div style=""font-size:42px;"">FLESH</div><img id = ""stim"" ><div class = red_square id = topsquare></div>",null,encoding,word_square,,,0,topsquare,none,true,,,FLESH,2,,,
html-keyboard-response,381,595797,null,"<div style=""font-size:42px;"">FLESH</div>",null,,word,FLESH,,,,,,,,,,,,
html-keyboard-response,382,597302,null,"",null,,word,FLESH,,,,,,,,,,,,
html-keyboard-response,383,597507,null,"<div style=""font-size:42px;"">LANDSCAPE</div><img id = ""stim"" ><div class = green_square id = topsquare></div>",null,encoding,word_square,,,1,topsquare,32,true,,,LANDSCAPE,2,,,
html-keyboard-response,384,597815,273.7999999523163,"<div style=""font-size:42px;"">LANDSCAPE</div>",32,,word,LANDSCAPE,,,,,,,,,,,,
html-keyboard-response,385,599320,null,"",null,,word,LANDSCAPE,,,,,,,,,,,,
html-keyboard-response,386,599524,null,"<div style=""font-size:42px;"">TOURIST</div><img id = ""stim"" ><div class = red_square id = bottomsquare></div>",null,encoding,word_square,,,0,bottomsquare,none,true,,,TOURIST,2,,,
html-keyboard-response,387,599831,null,"<div style=""font-size:42px;"">TOURIST</div>",null,,word,TOURIST,,,,,,,,,,,,
html-keyboard-response,388,601336,null,"",null,,word,TOURIST,,,,,,,,,,,,
html-keyboard-response,389,601540,null,"<div style=""font-size:42px;"">CHICKEN</div><img id = ""stim"" ><div class = green_square id = bottomsquare></div>",null,encoding,word_square,,,1,bottomsquare,32,true,,,CHICKEN,2,,,
html-keyboard-response,390,601848,248.30000001192093,"<div style=""font-size:42px;"">CHICKEN</div>",32,,word,CHICKEN,,,,,,,,,,,,
html-keyboard-response,391,603353,null,"",null,,word,CHICKEN,,,,,,,,,,,,
html-keyboard-response,392,603558,null,"<div style=""font-size:42px;"">COBWEB</div><img id = ""stim"" ><div class = red_square id = topsquare></div>",null,encoding,word_square,,,0,topsquare,none,true,,,COBWEB,2,,,
html-keyboard-response,393,603865,null,"<div style=""font-size:42px;"">COBWEB</div>",null,,word,COBWEB,,,,,,,,,,,,
html-keyboard-response,394,605371,null,"",null,,word,COBWEB,,,,,,,,,,,,
html-keyboard-response,395,605578,null,"<div style=""font-size:42px;"">KETCHUP</div><img id = ""stim"" ><div class = red_square id = bottomsquare></div>",null,encoding,word_square,,,0,bottomsquare,none,true,,,KETCHUP,2,,,
html-keyboard-response,396,605882,null,"<div style=""font-size:42px;"">KETCHUP</div>",null,,word,KETCHUP,,,,,,,,,,,,
html-keyboard-response,397,607390,null,"",null,,word,KETCHUP,,,,,,,,,,,,
html-keyboard-response,398,607592,null,"<div style=""font-size:42px;"">RELISH</div><img id = ""stim"" ><div class = green_square id = topsquare></div>",null,encoding,word_square,,,1,topsquare,32,true,,,RELISH,2,,,
html-keyboard-response,399,607900,null,"<div style=""font-size:42px;"">RELISH</div>",null,,word,RELISH,,,,,,,,,,,,
html-keyboard-response,400,609404,6.399999976158142,"",32,,word,RELISH,,,,,,,,,,,,
html-keyboard-response,401,609609,null,"<div style=""font-size:42px;"">CABBAGE</div><img id = ""stim"" ><div class = green_square id = bottomsquare></div>",null,encoding,word_square,,,1,bottomsquare,32,true,,,CABBAGE,2,,,
html-keyboard-response,402,609916,null,"<div style=""font-size:42px;"">CABBAGE</div>",null,,word,CABBAGE,,,,,,,,,,,,
html-keyboard-response,403,611421,126.80000001192093,"",32,,word,CABBAGE,,,,,,,,,,,,
html-keyboard-response,404,611629,null,"<div style=""font-size:42px;"">SCALLOP</div><img id = ""stim"" ><div class = red_square id = topsquare></div>",null,encoding,word_square,,,0,topsquare,none,true,,,SCALLOP,2,,,
html-keyboard-response,405,611937,null,"<div style=""font-size:42px;"">SCALLOP</div>",null,,word,SCALLOP,,,,,,,,,,,,
html-keyboard-response,406,613444,null,"",null,,word,SCALLOP,,,,,,,,,,,,
html-keyboard-response,407,613650,null,"<div style=""font-size:42px;"">SUITCASE</div><img id = ""stim"" ><div class = green_square id = topsquare></div>",null,encoding,word_square,,,1,topsquare,32,true,,,SUITCASE,2,,,
html-keyboard-response,408,613959,242.89999997615814,"<div style=""font-size:42px;"">SUITCASE</div>",32,,word,SUITCASE,,,,,,,,,,,,
html-keyboard-response,409,615465,null,"",null,,word,SUITCASE,,,,,,,,,,,,
html-keyboard-response,410,615671,null,"<div style=""font-size:42px;"">DASHBOARD</div><img id = ""stim"" ><div class = green_square id = bottomsquare></div>",null,encoding,word_square,,,1,bottomsquare,32,true,,,DASHBOARD,2,,,
html-keyboard-response,411,615975,200.30000001192093,"<div style=""font-size:42px;"">DASHBOARD</div>",32,,word,DASHBOARD,,,,,,,,,,,,
html-keyboard-response,412,617480,null,"",null,,word,DASHBOARD,,,,,,,,,,,,
html-keyboard-response,413,617687,null,"<div style=""font-size:42px;"">EYELASH</div><img id = ""stim"" ><div class = red_square id = bottomsquare></div>",null,encoding,word_square,,,0,bottomsquare,none,true,,,EYELASH,2,,,
html-keyboard-response,414,617993,null,"<div style=""font-size:42px;"">EYELASH</div>",null,,word,EYELASH,,,,,,,,,,,,
html-keyboard-response,415,619500,null,"",null,,word,EYELASH,,,,,,,,,,,,
html-keyboard-response,416,619706,null,"<div style=""font-size:42px;"">FRECKLE</div><img id = ""stim"" ><div class = green_square id = topsquare></div>",null,encoding,word_square,,,1,topsquare,32,true,,,FRECKLE,2,,,
html-keyboard-response,417,620014,169.10000002384186,"<div style=""font-size:42px;"">FRECKLE</div>",32,,word,FRECKLE,,,,,,,,,,,,
html-keyboard-response,418,621522,null,"",null,,word,FRECKLE,,,,,,,,,,,,
html-keyboard-response,419,621725,null,"<div style=""font-size:42px;"">INFANT</div><img id = ""stim"" ><div class = green_square id = bottomsquare></div>",null,encoding,word_square,,,1,bottomsquare,32,true,,,INFANT,2,,,
html-keyboard-response,420,622030,288,"<div style=""font-size:42px;"">INFANT</div>",32,,word,INFANT,,,,,,,,,,,,
html-keyboard-response,421,623538,null,"",null,,word,INFANT,,,,,,,,,,,,
html-keyboard-response,422,623741,null,"<div style=""font-size:42px;"">HAMPER</div><img id = ""stim"" ><div class = red_square id = topsquare></div>",null,encoding,word_square,,,0,topsquare,none,true,,,HAMPER,2,,,
html-keyboard-response,423,624045,null,"<div style=""font-size:42px;"">HAMPER</div>",null,,word,HAMPER,,,,,,,,,,,,
html-keyboard-response,424,625553,null,"",null,,word,HAMPER,,,,,,,,,,,,
call-function,425,625555,,"",,,,,,,,,,,,,,,,
html-keyboard-response,426,625659,null,"",null,,,,,,,,,,,,,,,
math-period,427,627326,2968.6000000834465,"",,,,,,,,,,,5,,,,,
html-keyboard-response,428,627430,null,"",null,,,,,,,,,,,,,,,
math-period,429,628476,1904.7999999523163,"",,,,,,,,,,,2,,,,,
html-keyboard-response,430,628580,null,"",null,,,,,,,,,,,,,,,
math-period,431,629687,1987.300000011921,"",,,,,,,,,,,3,,,,,
html-keyboard-response,432,629790,null,"",null,,,,,,,,,,,,,,,
math-period,433,630700,1594.5,"",,,,,,,,,,,5,,,,,
html-keyboard-response,434,630808,null,"",null,,,,,,,,,,,,,,,
math-period,435,632410,2999.199999988079,"",,,,,,,,,,,2,,,,,
html-keyboard-response,436,632514,null,"",null,,,,,,,,,,,,,,,
math-period,437,633828,2196.7999999523163,"",,,,,,,,,,,2,,,,,
html-keyboard-response,438,633933,null,"",null,,,,,,,,,,,,,,,
math-period,439,634841,1585.4000000357628,"",,,,,,,,,,,4,,,,,
html-keyboard-response,440,634945,null,"",null,,,,,,,,,,,,,,,
math-period,441,635944,1815.7000000476837,"",,,,,,,,,,,5,,,,,
html-keyboard-response,442,636048,null,"",null,,,,,,,,,,,,,,,
math-period,443,636844,1406.8999999761581,"",,,,,,,,,,,5,,,,,
html-keyboard-response,444,636946,null,"",null,,,,,,,,,,,,,,,
math-period,445,638936,3757.5,"",,,,,,,,,,,0,,,,,
html-keyboard-response,446,639043,null,"",null,,,,,,,,,,,,,,,
math-period,447,640490,2707.400000035763,"",,,,,,,,,,,2,,,,,
html-keyboard-response,448,640594,null,"",null,,,,,,,,,,,,,,,
math-period,449,641681,1987.699999988079,"",,,,,,,,,,,5,,,,,
html-keyboard-response,450,641784,null,"",null,,,,,,,,,,,,,,,
math-period,451,644110,7122.30000013113,"",,,,,,,,,,,1,,,,,
html-keyboard-response,452,644213,null,"",null,,,,,,,,,,,,,,,
math-period,453,645641,2625.6999999284744,"",,,,,,,,,,,3,,,,,
html-keyboard-response,454,645744,null,"",null,,,,,,,,,,,,,,,
math-period,455,646932,2185.9999999403954,"",,,,,,,,,,,1,,,,,
html-keyboard-response,456,647038,null,"",null,,,,,,,,,,,,,,,
math-period,457,648548,2806.899999976158,"",,,,,,,,,,,1,,,,,
html-keyboard-response,458,648655,null,"",null,,,,,,,,,,,,,,,
math-period,459,649558,null,"",,,,,,,,,,,,,,,,
html-keyboard-response,460,650561,null,"Recall Period!",null,,,,,,,,,,,,,,,
call-function,461,650564,,"",,,,,,,,,,,,,,,,
html-keyboard-response,462,650668,null,"",null,,,,,,,,,,,,,,,
recall-period,463,654123,18705.099999964237,"",,,,,,,,,,,hamper,,,,,
html-keyboard-response,464,654228,null,"",null,,,,,,,,,,,,,,,
recall-period,465,655968,7067.400000154972,"",,,,,,,,,,,freckle,,,,,
html-keyboard-response,466,656073,null,"",null,,,,,,,,,,,,,,,
recall-period,467,657611,7294.299999892712,"",,,,,,,,,,,infant,,,,,
html-keyboard-response,468,657713,null,"",null,,,,,,,,,,,,,,,
recall-period,469,658599,2729.7000001072884,"",,,,,,,,,,,dad,,,,,
html-keyboard-response,470,658701,null,"",null,,,,,,,,,,,,,,,
recall-period,471,659839,3705.3000000715256,"",,,,,,,,,,,flesh,,,,,
html-keyboard-response,472,659942,null,"",null,,,,,,,,,,,,,,,
recall-period,473,675023,71199.69999998808,"",,,,,,,,,,,rust,,,,,
html-keyboard-response,474,675126,null,"",null,,,,,,,,,,,,,,,
recall-period,475,675951,2743.600000143051,"",,,,,,,,,,,brick,,,,,
html-keyboard-response,476,676053,null,"",null,,,,,,,,,,,,,,,
recall-period,477,685488,62249,"",,,,,,,,,,,relish,,,,,
html-keyboard-response,478,685590,null,"",null,,,,,,,,,,,,,,,
recall-period,479,686837,5347.500000119209,"",,,,,,,,,,,ketchup,,,,,
html-keyboard-response,480,686939,null,"",null,,,,,,,,,,,,,,,
recall-period,481,688165,5410.200000166893,"",,,,,,,,,,,cabbage,,,,,
html-keyboard-response,482,688270,null,"",null,,,,,,,,,,,,,,,
recall-period,483,694962,48757.90000009537,"",,,,,,,,,,,scallop,,,,,
html-keyboard-response,484,695065,null,"",null,,,,,,,,,,,,,,,
recall-period,485,702004,45623.199999928474,"",,,,,,,,,,,turtle,,,,,
html-keyboard-response,486,702111,null,"",null,,,,,,,,,,,,,,,
recall-period,487,725570,138366.19999980927,"",,,,,,,,,,,touris,,,,,
html-keyboard-response,488,726078,null,"Time's Up!",null,,,,,,,,,,,,,,,
html-keyboard-response,489,733705,7624.099999964237,"<p> Good job! You have responded correctly to 98% of the trials. </p>
                      <p>Be sure to only press the spacebar if you see a GREEN square, and please keep your accuracy above 80%.</p>
                      <p> Press any key to continue the experiment. </p>",32,,,,,,,,,,,,,,,
html-keyboard-response,490,735125,1418.6000000238419,"<div style=""font-size:48px;"">Press any key to begin list 4 of 16 </div>",32,,,,,,,,,,,,,,,
html-keyboard-response,491,737636,null,"<div style=""font-size:60px;"">+</div>",null,,,,,,,,,,,,,,,
html-keyboard-response,492,737840,null,"<div style=""font-size:42px;"">FLIPPER</div><img id = ""stim"" ><div class = red_square id = topsquare></div>",null,encoding,word_square,,,0,topsquare,none,true,,,FLIPPER,3,,,
html-keyboard-response,493,738147,null,"<div style=""font-size:42px;"">FLIPPER</div>",null,,word,FLIPPER,,,,,,,,,,,,
html-keyboard-response,494,739653,null,"",null,,word,FLIPPER,,,,,,,,,,,,
html-keyboard-response,495,739859,null,"<div style=""font-size:42px;"">YARD</div><img id = ""stim"" ><div class = green_square id = bottomsquare></div>",null,encoding,word_square,,,1,bottomsquare,32,true,,,YARD,3,,,
html-keyboard-response,496,740165,212.4000000357628,"<div style=""font-size:42px;"">YARD</div>",32,,word,YARD,,,,,,,,,,,,
html-keyboard-response,497,741673,null,"",null,,word,YARD,,,,,,,,,,,,
html-keyboard-response,498,741879,null,"<div style=""font-size:42px;"">CLAMP</div><img id = ""stim"" ><div class = green_square id = topsquare></div>",null,encoding,word_square,,,1,topsquare,32,true,,,CLAMP,3,,,
html-keyboard-response,499,742182,149.0999999642372,"<div style=""font-size:42px;"">CLAMP</div>",32,,word,CLAMP,,,,,,,,,,,,
html-keyboard-response,500,743691,null,"",null,,word,CLAMP,,,,,,,,,,,,
html-keyboard-response,501,743894,null,"<div style=""font-size:42px;"">PEPPER</div><img id = ""stim"" ><div class = red_square id = bottomsquare></div>",null,encoding,word_square,,,0,bottomsquare,none,true,,,PEPPER,3,,,
html-keyboard-response,502,744199,null,"<div style=""font-size:42px;"">PEPPER</div>",null,,word,PEPPER,,,,,,,,,,,,
html-keyboard-response,503,745703,null,"",null,,word,PEPPER,,,,,,,,,,,,
html-keyboard-response,504,745906,null,"<div style=""font-size:42px;"">PARCEL</div><img id = ""stim"" ><div class = green_square id = bottomsquare></div>",null,encoding,word_square,,,1,bottomsquare,32,true,,,PARCEL,3,,,
html-keyboard-response,505,746212,243.10000002384186,"<div style=""font-size:42px;"">PARCEL</div>",32,,word,PARCEL,,,,,,,,,,,,
html-keyboard-response,506,747714,null,"",null,,word,PARCEL,,,,,,,,,,,,
html-keyboard-response,507,747917,null,"<div style=""font-size:42px;"">CLIFF</div><img id = ""stim"" ><div class = green_square id = topsquare></div>",null,encoding,word_square,,,1,topsquare,32,true,,,CLIFF,3,,,
html-keyboard-response,508,748221,162.80000001192093,"<div style=""font-size:42px;"">CLIFF</div>",32,,word,CLIFF,,,,,,,,,,,,
html-keyboard-response,509,749724,null,"",null,,word,CLIFF,,,,,,,,,,,,
html-keyboard-response,510,749928,null,"<div style=""font-size:42px;"">SKUNK</div><img id = ""stim"" ><div class = red_square id = topsquare></div>",null,encoding,word_square,,,0,topsquare,none,true,,,SKUNK,3,,,
html-keyboard-response,511,750236,null,"<div style=""font-size:42px;"">SKUNK</div>",null,,word,SKUNK,,,,,,,,,,,,
html-keyboard-response,512,751740,null,"",null,,word,SKUNK,,,,,,,,,,,,
html-keyboard-response,513,751948,null,"<div style=""font-size:42px;"">POSSUM</div><img id = ""stim"" ><div class = green_square id = bottomsquare></div>",null,encoding,word_square,,,1,bottomsquare,32,true,,,POSSUM,3,,,
html-keyboard-response,514,752250,207.19999998807907,"<div style=""font-size:42px;"">POSSUM</div>",32,,word,POSSUM,,,,,,,,,,,,
html-keyboard-response,515,753753,null,"",null,,word,POSSUM,,,,,,,,,,,,
html-keyboard-response,516,753960,null,"<div style=""font-size:42px;"">SUGAR</div><img id = ""stim"" ><div class = green_square id = topsquare></div>",null,encoding,word_square,,,1,topsquare,32,true,,,SUGAR,3,,,
html-keyboard-response,517,754267,176.60000002384186,"<div style=""font-size:42px;"">SUGAR</div>",32,,word,SUGAR,,,,,,,,,,,,
html-keyboard-response,518,755775,null,"",null,,word,SUGAR,,,,,,,,,,,,
html-keyboard-response,519,755978,null,"<div style=""font-size:42px;"">SKATE</div><img id = ""stim"" ><div class = red_square id = bottomsquare></div>",null,encoding,word_square,,,0,bottomsquare,none,true,,,SKATE,3,,,
html-keyboard-response,520,756284,null,"<div style=""font-size:42px;"">SKATE</div>",null,,word,SKATE,,,,,,,,,,,,
html-keyboard-response,521,757787,null,"",null,,word,SKATE,,,,,,,,,,,,
html-keyboard-response,522,757992,null,"<div style=""font-size:42px;"">TRUCK</div><img id = ""stim"" ><div class = red_square id = topsquare></div>",null,encoding,word_square,,,0,topsquare,none,true,,,TRUCK,3,,,
html-keyboard-response,523,758300,null,"<div style=""font-size:42px;"">TRUCK</div>",null,,word,TRUCK,,,,,,,,,,,,
html-keyboard-response,524,759805,null,"",null,,word,TRUCK,,,,,,,,,,,,
html-keyboard-response,525,760012,null,"<div style=""font-size:42px;"">HOOD</div><img id = ""stim"" ><div class = green_square id = bottomsquare></div>",null,encoding,word_square,,,1,bottomsquare,32,true,,,HOOD,3,,,
html-keyboard-response,526,760317,197.30000001192093,"<div style=""font-size:42px;"">HOOD</div>",32,,word,HOOD,,,,,,,,,,,,
html-keyboard-response,527,761820,null,"",null,,word,HOOD,,,,,,,,,,,,
html-keyboard-response,528,762024,null,"<div style=""font-size:42px;"">EUROPE</div><img id = ""stim"" ><div class = red_square id = bottomsquare></div>",null,encoding,word_square,,,0,bottomsquare,none,true,,,EUROPE,3,,,
html-keyboard-response,529,762330,null,"<div style=""font-size:42px;"">EUROPE</div>",null,,word,EUROPE,,,,,,,,,,,,
html-keyboard-response,530,763837,null,"",null,,word,EUROPE,,,,,,,,,,,,
html-keyboard-response,531,764043,null,"<div style=""font-size:42px;"">ASIA</div><img id = ""stim"" ><div class = green_square id = topsquare></div>",null,encoding,word_square,,,1,topsquare,32,true,,,ASIA,3,,,
html-keyboard-response,532,764346,147.39999997615814,"<div style=""font-size:42px;"">ASIA</div>",32,,word,ASIA,,,,,,,,,,,,
html-keyboard-response,533,765855,null,"",null,,word,ASIA,,,,,,,,,,,,
html-keyboard-response,534,766059,null,"<div style=""font-size:42px;"">BEAST</div><img id = ""stim"" ><div class = red_square id = topsquare></div>",null,encoding,word_square,,,0,topsquare,none,true,,,BEAST,3,,,
html-keyboard-response,535,766361,null,"<div style=""font-size:42px;"">BEAST</div>",null,,word,BEAST,,,,,,,,,,,,
html-keyboard-response,536,767868,null,"",null,,word,BEAST,,,,,,,,,,,,
html-keyboard-response,537,768072,null,"<div style=""font-size:42px;"">SHARK</div><img id = ""stim"" ><div class = red_square id = bottomsquare></div>",null,encoding,word_square,,,0,bottomsquare,none,true,,,SHARK,3,,,
html-keyboard-response,538,768379,null,"<div style=""font-size:42px;"">SHARK</div>",null,,word,SHARK,,,,,,,,,,,,
html-keyboard-response,539,769887,null,"",null,,word,SHARK,,,,,,,,,,,,
call-function,540,769889,,"",,,,,,,,,,,,,,,,
html-keyboard-response,541,769991,null,"",null,,,,,,,,,,,,,,,
math-period,542,771617,2979.8000000715256,"",,,,,,,,,,,3,,,,,
html-keyboard-response,543,771723,null,"",null,,,,,,,,,,,,,,,
math-period,544,773552,3428.399999976158,"",,,,,,,,,,,1,,,,,
html-keyboard-response,545,773656,null,"",null,,,,,,,,,,,,,,,
math-period,546,775150,2780.9999999403954,"",,,,,,,,,,,4,,,,,
html-keyboard-response,547,775255,null,"",null,,,,,,,,,,,,,,,
math-period,548,776949,3135.600000023842,"",,,,,,,,,,,2,,,,,
html-keyboard-response,549,777057,null,"",null,,,,,,,,,,,,,,,
math-period,550,778165,1986.2000000476837,"",,,,,,,,,,,3,,,,,
html-keyboard-response,551,778269,null,"",null,,,,,,,,,,,,,,,
math-period,552,779852,2958.800000011921,"",,,,,,,,,,,0,,,,,
html-keyboard-response,553,779958,null,"",null,,,,,,,,,,,,,,,
math-period,554,781067,2010.800000011921,"",,,,,,,,,,,4,,,,,
html-keyboard-response,555,781174,null,"",null,,,,,,,,,,,,,,,
math-period,556,782282,2011.7000000476837,"",,,,,,,,,,,4,,,,,
html-keyboard-response,557,782386,null,"",null,,,,,,,,,,,,,,,
math-period,558,783678,2376.099999964237,"",,,,,,,,,,,2,,,,,
html-keyboard-response,559,783781,null,"",null,,,,,,,,,,,,,,,
math-period,560,785072,2284.8999999165535,"",,,,,,,,,,,6,,,,,
html-keyboard-response,561,785176,null,"",null,,,,,,,,,,,,,,,
math-period,562,788560,10620.399999916553,"",,,,,,,,,,,2,,,,,
html-keyboard-response,563,788667,null,"",null,,,,,,,,,,,,,,,
math-period,564,790097,2600.400000035763,"",,,,,,,,,,,4,,,,,
html-keyboard-response,565,790202,null,"",null,,,,,,,,,,,,,,,
math-period,566,791529,2469.100000023842,"",,,,,,,,,,,2,,,,,
html-keyboard-response,567,791633,null,"",null,,,,,,,,,,,,,,,
math-period,568,793491,3482.8999999165535,"",,,,,,,,,,,5,,,,,
html-keyboard-response,569,793594,null,"",null,,,,,,,,,,,,,,,
math-period,570,793895,null,"",,,,,,,,,,,,,,,,
html-keyboard-response,571,794898,null,"Recall Period!",null,,,,,,,,,,,,,,,
call-function,572,794900,,"",,,,,,,,,,,,,,,,
html-keyboard-response,573,795006,null,"",null,,,,,,,,,,,,,,,
recall-period,574,796908,8600.799999952316,"",,,,,,,,,,,beast,,,,,
html-keyboard-response,575,797010,null,"",null,,,,,,,,,,,,,,,
recall-period,576,797987,3015.899999856949,"",,,,,,,,,,,shark,,,,,
html-keyboard-response,577,798091,null,"",null,,,,,,,,,,,,,,,
recall-period,578,802284,26615.800000190735,"",,,,,,,,,,,europe,,,,,
html-keyboard-response,579,802388,null,"",null,,,,,,,,,,,,,,,
recall-period,580,802982,1447.2000000476837,"",,,,,,,,,,,asia,,,,,
html-keyboard-response,581,803088,null,"",null,,,,,,,,,,,,,,,
recall-period,582,812070,43136.20000010729,"",,,,,,,,,,,yard,,,,,
html-keyboard-response,583,812176,null,"",null,,,,,,,,,,,,,,,
recall-period,584,821319,64997.999999821186,"",,,,,,,,,,,clamp,,,,,
html-keyboard-response,585,821423,null,"",null,,,,,,,,,,,,,,,
recall-period,586,860585,233569.30000001192,"",,,,,,,,,,,sugar,,,,,
html-keyboard-response,587,860690,null,"",null,,,,,,,,,,,,,,,
recall-period,588,869902,null,"",,,,,,,,,,,,,,,,
html-keyboard-response,589,870409,null,"Time's Up!",null,,,,,,,,,,,,,,,
html-keyboard-response,590,871901,1489.6000000238419,"<p> Good job! You have responded correctly to 98% of the trials. </p>
                      <p>Be sure to only press the spacebar if you see a GREEN square, and please keep your accuracy above 80%.</p>
                      <p> Press any key to continue the experiment. </p>",32,,,,,,,,,,,,,,,
html-keyboard-response,591,872753,850.3000000119209,"<div style=""font-size:48px;"">Press any key to begin list 5 of 16 </div>",32,,,,,,,,,,,,,,,
html-keyboard-response,592,875256,null,"<div style=""font-size:60px;"">+</div>",null,,,,,,,,,,,,,,,
html-keyboard-response,593,875461,null,"<div style=""font-size:42px;"">SOFTBALL</div><img id = ""stim"" ><div class = green_square id = topsquare></div>",null,encoding,word_square,,,1,topsquare,32,true,,,SOFTBALL,4,,,
html-keyboard-response,594,875765,null,"<div style=""font-size:42px;"">SOFTBALL</div>",null,,word,SOFTBALL,,,,,,,,,,,,
html-keyboard-response,595,877273,22.700000047683716,"",32,,word,SOFTBALL,,,,,,,,,,,,
html-keyboard-response,596,877481,null,"<div style=""font-size:42px;"">HEADBAND</div><img id = ""stim"" ><div class = red_square id = bottomsquare></div>",null,encoding,word_square,,,0,bottomsquare,none,true,,,HEADBAND,4,,,
html-keyboard-response,597,877783,null,"<div style=""font-size:42px;"">HEADBAND</div>",null,,word,HEADBAND,,,,,,,,,,,,
html-keyboard-response,598,879286,null,"",null,,word,HEADBAND,,,,,,,,,,,,
html-keyboard-response,599,879494,null,"<div style=""font-size:42px;"">KIDNEY</div><img id = ""stim"" ><div class = red_square id = topsquare></div>",null,encoding,word_square,,,0,topsquare,none,true,,,KIDNEY,4,,,
html-keyboard-response,600,879799,null,"<div style=""font-size:42px;"">KIDNEY</div>",null,,word,KIDNEY,,,,,,,,,,,,
html-keyboard-response,601,881305,null,"",null,,word,KIDNEY,,,,,,,,,,,,
html-keyboard-response,602,881512,null,"<div style=""font-size:42px;"">DUNGEON</div><img id = ""stim"" ><div class = green_square id = bottomsquare></div>",null,encoding,word_square,,,1,bottomsquare,32,true,,,DUNGEON,4,,,
html-keyboard-response,603,881815,194,"<div style=""font-size:42px;"">DUNGEON</div>",32,,word,DUNGEON,,,,,,,,,,,,
html-keyboard-response,604,883324,null,"",null,,word,DUNGEON,,,,,,,,,,,,
html-keyboard-response,605,883531,null,"<div style=""font-size:42px;"">SERPENT</div><img id = ""stim"" ><div class = red_square id = bottomsquare></div>",null,encoding,word_square,,,0,bottomsquare,none,true,,,SERPENT,4,,,
html-keyboard-response,606,883834,null,"<div style=""font-size:42px;"">SERPENT</div>",null,,word,SERPENT,,,,,,,,,,,,
html-keyboard-response,607,885339,null,"",null,,word,SERPENT,,,,,,,,,,,,
html-keyboard-response,608,885545,null,"<div style=""font-size:42px;"">SUNSET</div><img id = ""stim"" ><div class = green_square id = topsquare></div>",null,encoding,word_square,,,1,topsquare,32,true,,,SUNSET,4,,,
html-keyboard-response,609,885849,171.19999998807907,"<div style=""font-size:42px;"">SUNSET</div>",32,,word,SUNSET,,,,,,,,,,,,
html-keyboard-response,610,887357,null,"",null,,word,SUNSET,,,,,,,,,,,,
html-keyboard-response,611,887565,null,"<div style=""font-size:42px;"">BEAKER</div><img id = ""stim"" ><div class = green_square id = bottomsquare></div>",null,encoding,word_square,,,1,bottomsquare,32,true,,,BEAKER,4,,,
html-keyboard-response,612,887869,218.69999998807907,"<div style=""font-size:42px;"">BEAKER</div>",32,,word,BEAKER,,,,,,,,,,,,
html-keyboard-response,613,889372,null,"",null,,word,BEAKER,,,,,,,,,,,,
html-keyboard-response,614,889579,null,"<div style=""font-size:42px;"">LAMP</div><img id = ""stim"" ><div class = green_square id = topsquare></div>",null,encoding,word_square,,,1,topsquare,32,true,,,LAMP,4,,,
html-keyboard-response,615,889883,159.69999998807907,"<div style=""font-size:42px;"">LAMP</div>",32,,word,LAMP,,,,,,,,,,,,
html-keyboard-response,616,891389,null,"",null,,word,LAMP,,,,,,,,,,,,
html-keyboard-response,617,891597,null,"<div style=""font-size:42px;"">WIDOW</div><img id = ""stim"" ><div class = red_square id = topsquare></div>",null,encoding,word_square,,,0,topsquare,none,true,,,WIDOW,4,,,
html-keyboard-response,618,891901,null,"<div style=""font-size:42px;"">WIDOW</div>",null,,word,WIDOW,,,,,,,,,,,,
html-keyboard-response,619,893405,null,"",null,,word,WIDOW,,,,,,,,,,,,
html-keyboard-response,620,893613,null,"<div style=""font-size:42px;"">PEOPLE</div><img id = ""stim"" ><div class = green_square id = bottomsquare></div>",null,encoding,word_square,,,1,bottomsquare,32,true,,,PEOPLE,4,,,
html-keyboard-response,621,893917,221.89999997615814,"<div style=""font-size:42px;"">PEOPLE</div>",32,,word,PEOPLE,,,,,,,,,,,,
html-keyboard-response,622,895423,null,"",null,,word,PEOPLE,,,,,,,,,,,,
html-keyboard-response,623,895631,null,"<div style=""font-size:42px;"">CRICKET</div><img id = ""stim"" ><div class = red_square id = bottomsquare></div>",null,encoding,word_square,,,0,bottomsquare,none,true,,,CRICKET,4,,,
html-keyboard-response,624,895939,null,"<div style=""font-size:42px;"">CRICKET</div>",null,,word,CRICKET,,,,,,,,,,,,
html-keyboard-response,625,897446,null,"",null,,word,CRICKET,,,,,,,,,,,,
html-keyboard-response,626,897654,null,"<div style=""font-size:42px;"">BANDIT</div><img id = ""stim"" ><div class = red_square id = topsquare></div>",null,encoding,word_square,,,0,topsquare,none,true,,,BANDIT,4,,,
html-keyboard-response,627,897960,null,"<div style=""font-size:42px;"">BANDIT</div>",null,,word,BANDIT,,,,,,,,,,,,
html-keyboard-response,628,899468,null,"",null,,word,BANDIT,,,,,,,,,,,,
html-keyboard-response,629,899673,null,"<div style=""font-size:42px;"">SPHINX</div><img id = ""stim"" ><div class = green_square id = topsquare></div>",null,encoding,word_square,,,1,topsquare,32,true,,,SPHINX,4,,,
html-keyboard-response,630,899982,null,"<div style=""font-size:42px;"">SPHINX</div>",null,,word,SPHINX,,,,,,,,,,,,
html-keyboard-response,631,901487,0.3999999761581421,"",32,,word,SPHINX,,,,,,,,,,,,
html-keyboard-response,632,901690,null,"<div style=""font-size:42px;"">PANTHER</div><img id = ""stim"" ><div class = green_square id = bottomsquare></div>",null,encoding,word_square,,,1,bottomsquare,32,true,,,PANTHER,4,,,
html-keyboard-response,633,901997,265.69999998807907,"<div style=""font-size:42px;"">PANTHER</div>",32,,word,PANTHER,,,,,,,,,,,,
html-keyboard-response,634,903505,null,"",null,,word,PANTHER,,,,,,,,,,,,
html-keyboard-response,635,903708,null,"<div style=""font-size:42px;"">BATHTUB</div><img id = ""stim"" ><div class = red_square id = bottomsquare></div>",null,encoding,word_square,,,0,bottomsquare,none,true,,,BATHTUB,4,,,
html-keyboard-response,636,904014,null,"<div style=""font-size:42px;"">BATHTUB</div>",null,,word,BATHTUB,,,,,,,,,,,,
html-keyboard-response,637,905519,null,"",null,,word,BATHTUB,,,,,,,,,,,,
html-keyboard-response,638,905727,null,"<div style=""font-size:42px;"">CANAL</div><img id = ""stim"" ><div class = red_square id = topsquare></div>",null,encoding,word_square,,,0,topsquare,none,true,,,CANAL,4,,,
html-keyboard-response,639,906031,null,"<div style=""font-size:42px;"">CANAL</div>",null,,word,CANAL,,,,,,,,,,,,
html-keyboard-response,640,907540,null,"",null,,word,CANAL,,,,,,,,,,,,
call-function,641,907542,,"",,,,,,,,,,,,,,,,
html-keyboard-response,642,907645,null,"",null,,,,,,,,,,,,,,,
math-period,643,909316,3202.5999999046326,"",,,,,,,,,,,1,,,,,
html-keyboard-response,644,909423,null,"",null,,,,,,,,,,,,,,,
math-period,645,910577,2170.300000011921,"",,,,,,,,,,,2,,,,,
html-keyboard-response,646,910680,null,"",null,,,,,,,,,,,,,,,
math-period,647,911926,2305.399999976158,"",,,,,,,,,,,4,,,,,
html-keyboard-response,648,912033,null,"",null,,,,,,,,,,,,,,,
math-period,649,912852,1473.5999999642372,"",,,,,,,,,,,4,,,,,
html-keyboard-response,650,912955,null,"",null,,,,,,,,,,,,,,,
math-period,651,914200,2326,"",,,,,,,,,,,2,,,,,
html-keyboard-response,652,914304,null,"",null,,,,,,,,,,,,,,,
math-period,653,915368,1989,"",,,,,,,,,,,4,,,,,
html-keyboard-response,654,915473,null,"",null,,,,,,,,,,,,,,,
math-period,655,916450,1699.4000000357628,"",,,,,,,,,,,3,,,,,
html-keyboard-response,656,916553,null,"",null,,,,,,,,,,,,,,,
math-period,657,918136,3002.800000011921,"",,,,,,,,,,,1,,,,,
html-keyboard-response,658,918239,null,"",null,,,,,,,,,,,,,,,
math-period,659,920011,5232.900000035763,"",,,,,,,,,,,4,,,,,
html-keyboard-response,660,920113,null,"",null,,,,,,,,,,,,,,,
math-period,661,922839,5224.700000047684,"",,,,,,,,,,,3,,,,,
html-keyboard-response,662,922942,null,"",null,,,,,,,,,,,,,,,
math-period,663,923828,1586.9999999403954,"",,,,,,,,,,,2,,,,,
html-keyboard-response,664,923932,null,"",null,,,,,,,,,,,,,,,
math-period,665,924935,1771.7999999523163,"",,,,,,,,,,,3,,,,,
html-keyboard-response,666,925037,null,"",null,,,,,,,,,,,,,,,
math-period,667,926618,2842.899999976158,"",,,,,,,,,,,1,,,,,
html-keyboard-response,668,926725,null,"",null,,,,,,,,,,,,,,,
math-period,669,928940,6813.399999976158,"",,,,,,,,,,,5,,,,,
html-keyboard-response,670,929042,null,"",null,,,,,,,,,,,,,,,
math-period,671,930713,3111.699999988079,"",,,,,,,,,,,0,,,,,
html-keyboard-response,672,930815,null,"",null,,,,,,,,,,,,,,,
math-period,673,931549,null,"",,,,,,,,,,,,,,,,
html-keyboard-response,674,932557,null,"Recall Period!",null,,,,,,,,,,,,,,,
call-function,675,932559,,"",,,,,,,,,,,,,,,,
html-keyboard-response,676,932665,null,"",null,,,,,,,,,,,,,,,
recall-period,677,935528,14109.5,"",,,,,,,,,,,canal,,,,,
html-keyboard-response,678,935632,null,"",null,,,,,,,,,,,,,,,
recall-period,679,936565,4514.999999880791,"",,,,,,,,,,,panther,,,,,
html-keyboard-response,680,936668,null,"",null,,,,,,,,,,,,,,,
recall-period,681,939759,13916.900000095367,"",,,,,,,,,,,skunk,,,,,
html-keyboard-response,682,939861,null,"",null,,,,,,,,,,,,,,,
recall-period,683,941221,5834.799999952316,"",,,,,,,,,,,possum,,,,,
html-keyboard-response,684,941328,null,"",null,,,,,,,,,,,,,,,
recall-period,685,966623,196473.90000021458,"",,,,,,,,,,,serpent,,,,,
html-keyboard-response,686,966727,null,"",null,,,,,,,,,,,,,,,
recall-period,687,998303,427518.4999996424,"",,,,,,,,,,,baseball,,,,,
html-keyboard-response,688,998405,null,"",null,,,,,,,,,,,,,,,
recall-period,689,999293,4004.2999997735023,"",,,,,,,,,,,pitcher,,,,,
html-keyboard-response,690,999397,null,"",null,,,,,,,,,,,,,,,
recall-period,691,1005463,28946.799999952316,"",,,,,,,,,,,lamp,,,,,
html-keyboard-response,692,1005567,null,"",null,,,,,,,,,,,,,,,
recall-period,693,1007566,null,"",,,,,,,,,,,,,,,,
html-keyboard-response,694,1008070,null,"Time's Up!",null,,,,,,,,,,,,,,,
html-keyboard-response,695,1015362,7289.199999988079,"<p> Good job! You have responded correctly to 99% of the trials. </p>
                      <p>Be sure to only press the spacebar if you see a GREEN square, and please keep your accuracy above 80%.</p>
                      <p> Press any key to continue the experiment. </p>",32,,,,,,,,,,,,,,,
html-keyboard-response,696,1017337,1973.3999999761581,"<div style=""font-size:48px;"">Press any key to begin list 6 of 16 </div>",32,,,,,,,,,,,,,,,
html-keyboard-response,697,1019846,null,"<div style=""font-size:60px;"">+</div>",null,,,,,,,,,,,,,,,
html-keyboard-response,698,1020054,null,"<div style=""font-size:42px;"">GREASE</div><img id = ""stim"" ><div class = red_square id = topsquare></div>",null,encoding,word_square,,,0,topsquare,none,true,,,GREASE,5,,,
html-keyboard-response,699,1020357,null,"<div style=""font-size:42px;"">GREASE</div>",null,,word,GREASE,,,,,,,,,,,,
html-keyboard-response,700,1021863,null,"",null,,word,GREASE,,,,,,,,,,,,
html-keyboard-response,701,1022071,null,"<div style=""font-size:42px;"">VALVE</div><img id = ""stim"" ><div class = red_square id = bottomsquare></div>",null,encoding,word_square,,,0,bottomsquare,none,true,,,VALVE,5,,,
html-keyboard-response,702,1022376,null,"<div style=""font-size:42px;"">VALVE</div>",null,,word,VALVE,,,,,,,,,,,,
html-keyboard-response,703,1023885,null,"",null,,word,VALVE,,,,,,,,,,,,
html-keyboard-response,704,1024093,null,"<div style=""font-size:42px;"">SCOTCH</div><img id = ""stim"" ><div class = green_square id = bottomsquare></div>",null,encoding,word_square,,,1,bottomsquare,32,true,,,SCOTCH,5,,,
html-keyboard-response,705,1024395,null,"<div style=""font-size:42px;"">SCOTCH</div>",null,,word,SCOTCH,,,,,,,,,,,,
html-keyboard-response,706,1025902,31.400000035762787,"",32,,word,SCOTCH,,,,,,,,,,,,
html-keyboard-response,707,1026110,null,"<div style=""font-size:42px;"">MONARCH</div><img id = ""stim"" ><div class = green_square id = topsquare></div>",null,encoding,word_square,,,1,topsquare,32,true,,,MONARCH,5,,,
html-keyboard-response,708,1026413,254.39999997615814,"<div style=""font-size:42px;"">MONARCH</div>",32,,word,MONARCH,,,,,,,,,,,,
html-keyboard-response,709,1027916,null,"",null,,word,MONARCH,,,,,,,,,,,,
html-keyboard-response,710,1028125,null,"<div style=""font-size:42px;"">SCAPEGOAT</div><img id = ""stim"" ><div class = red_square id = topsquare></div>",null,encoding,word_square,,,0,topsquare,none,true,,,SCAPEGOAT,5,,,
html-keyboard-response,711,1028432,null,"<div style=""font-size:42px;"">SCAPEGOAT</div>",null,,word,SCAPEGOAT,,,,,,,,,,,,
html-keyboard-response,712,1029934,null,"",null,,word,SCAPEGOAT,,,,,,,,,,,,
html-keyboard-response,713,1030142,null,"<div style=""font-size:42px;"">VIKING</div><img id = ""stim"" ><div class = red_square id = bottomsquare></div>",null,encoding,word_square,,,0,bottomsquare,none,true,,,VIKING,5,,,
html-keyboard-response,714,1030446,null,"<div style=""font-size:42px;"">VIKING</div>",null,,word,VIKING,,,,,,,,,,,,
html-keyboard-response,715,1031954,null,"",null,,word,VIKING,,,,,,,,,,,,
html-keyboard-response,716,1032158,null,"<div style=""font-size:42px;"">DRINK</div><img id = ""stim"" ><div class = green_square id = bottomsquare></div>",null,encoding,word_square,,,1,bottomsquare,32,true,,,DRINK,5,,,
html-keyboard-response,717,1032463,null,"<div style=""font-size:42px;"">DRINK</div>",null,,word,DRINK,,,,,,,,,,,,
html-keyboard-response,718,1033971,16.100000023841858,"",32,,word,DRINK,,,,,,,,,,,,
html-keyboard-response,719,1034181,null,"<div style=""font-size:42px;"">PEACH</div><img id = ""stim"" ><div class = red_square id = topsquare></div>",null,encoding,word_square,,,0,topsquare,none,true,,,PEACH,5,,,
html-keyboard-response,720,1034487,null,"<div style=""font-size:42px;"">PEACH</div>",null,,word,PEACH,,,,,,,,,,,,
html-keyboard-response,721,1035994,null,"",null,,word,PEACH,,,,,,,,,,,,
html-keyboard-response,722,1036202,null,"<div style=""font-size:42px;"">NAPKIN</div><img id = ""stim"" ><div class = green_square id = topsquare></div>",null,encoding,word_square,,,1,topsquare,32,true,,,NAPKIN,5,,,
html-keyboard-response,723,1036509,null,"<div style=""font-size:42px;"">NAPKIN</div>",null,,word,NAPKIN,,,,,,,,,,,,
html-keyboard-response,724,1038015,42.90000003576279,"",32,,word,NAPKIN,,,,,,,,,,,,
html-keyboard-response,725,1038218,null,"<div style=""font-size:42px;"">AUTHOR</div><img id = ""stim"" ><div class = green_square id = bottomsquare></div>",null,encoding,word_square,,,1,bottomsquare,32,true,,,AUTHOR,5,,,
html-keyboard-response,726,1038525,178.60000002384186,"<div style=""font-size:42px;"">AUTHOR</div>",32,,word,AUTHOR,,,,,,,,,,,,
html-keyboard-response,727,1040029,null,"",null,,word,AUTHOR,,,,,,,,,,,,
html-keyboard-response,728,1040237,null,"<div style=""font-size:42px;"">NOVEL</div><img id = ""stim"" ><div class = green_square id = topsquare></div>",null,encoding,word_square,,,1,topsquare,32,true,,,NOVEL,5,,,
html-keyboard-response,729,1040543,183.20000004768372,"<div style=""font-size:42px;"">NOVEL</div>",32,,word,NOVEL,,,,,,,,,,,,
html-keyboard-response,730,1042052,null,"",null,,word,NOVEL,,,,,,,,,,,,
html-keyboard-response,731,1042260,null,"<div style=""font-size:42px;"">HOUSE</div><img id = ""stim"" ><div class = red_square id = bottomsquare></div>",null,encoding,word_square,,,0,bottomsquare,none,true,,,HOUSE,5,,,
html-keyboard-response,732,1042563,null,"<div style=""font-size:42px;"">HOUSE</div>",null,,word,HOUSE,,,,,,,,,,,,
html-keyboard-response,733,1044071,null,"",null,,word,HOUSE,,,,,,,,,,,,
html-keyboard-response,734,1044277,null,"<div style=""font-size:42px;"">RECORD</div><img id = ""stim"" ><div class = green_square id = bottomsquare></div>",null,encoding,word_square,,,1,bottomsquare,32,true,,,RECORD,5,,,
html-keyboard-response,735,1044580,239,"<div style=""font-size:42px;"">RECORD</div>",32,,word,RECORD,,,,,,,,,,,,
html-keyboard-response,736,1046088,null,"",null,,word,RECORD,,,,,,,,,,,,
html-keyboard-response,737,1046296,null,"<div style=""font-size:42px;"">BUG</div><img id = ""stim"" ><div class = red_square id = topsquare></div>",null,encoding,word_square,,,0,topsquare,none,true,,,BUG,5,,,
html-keyboard-response,738,1046603,null,"<div style=""font-size:42px;"">BUG</div>",null,,word,BUG,,,,,,,,,,,,
html-keyboard-response,739,1048106,null,"",null,,word,BUG,,,,,,,,,,,,
html-keyboard-response,740,1048313,null,"<div style=""font-size:42px;"">WASP</div><img id = ""stim"" ><div class = red_square id = bottomsquare></div>",null,encoding,word_square,,,0,bottomsquare,none,true,,,WASP,5,,,
html-keyboard-response,741,1048616,276.80000001192093,"<div style=""font-size:42px;"">WASP</div>",32,,word,WASP,,,,,,,,,,,,
html-keyboard-response,742,1050124,null,"",null,,word,WASP,,,,,,,,,,,,
html-keyboard-response,743,1050332,null,"<div style=""font-size:42px;"">LODGE</div><img id = ""stim"" ><div class = green_square id = topsquare></div>",null,encoding,word_square,,,1,topsquare,32,true,,,LODGE,5,,,
html-keyboard-response,744,1050637,189.30000001192093,"<div style=""font-size:42px;"">LODGE</div>",32,,word,LODGE,,,,,,,,,,,,
html-keyboard-response,745,1052143,null,"",null,,word,LODGE,,,,,,,,,,,,
call-function,746,1052146,,"",,,,,,,,,,,,,,,,
html-keyboard-response,747,1052248,null,"",null,,,,,,,,,,,,,,,
math-period,748,1053923,3140.300000011921,"",,,,,,,,,,,1,,,,,
html-keyboard-response,749,1054030,null,"",null,,,,,,,,,,,,,,,
math-period,750,1055046,1833.9000000357628,"",,,,,,,,,,,4,,,,,
html-keyboard-response,751,1055149,null,"",null,,,,,,,,,,,,,,,
math-period,752,1056105,1727.5,"",,,,,,,,,,,2,,,,,
html-keyboard-response,753,1056207,null,"",null,,,,,,,,,,,,,,,
math-period,754,1057881,3186.199999988079,"",,,,,,,,,,,2,,,,,
html-keyboard-response,755,1057984,null,"",null,,,,,,,,,,,,,,,
math-period,756,1059411,2672.599999964237,"",,,,,,,,,,,5,,,,,
html-keyboard-response,757,1059514,null,"",null,,,,,,,,,,,,,,,
math-period,758,1060897,2557.6999999284744,"",,,,,,,,,,,1,,,,,
html-keyboard-response,759,1061002,null,"",null,,,,,,,,,,,,,,,
math-period,760,1062133,2033.7000000476837,"",,,,,,,,,,,5,,,,,
html-keyboard-response,761,1062239,null,"",null,,,,,,,,,,,,,,,
math-period,762,1064453,4153.999999940395,"",,,,,,,,,,,1,,,,,
html-keyboard-response,763,1064556,null,"",null,,,,,,,,,,,,,,,
math-period,764,1065600,1835.699999988079,"",,,,,,,,,,,3,,,,,
html-keyboard-response,765,1065702,null,"",null,,,,,,,,,,,,,,,
math-period,766,1068098,4561.099999964237,"",,,,,,,,,,,2,,,,,
html-keyboard-response,767,1068201,null,"",null,,,,,,,,,,,,,,,
math-period,768,1070505,4468.800000011921,"",,,,,,,,,,,2,,,,,
html-keyboard-response,769,1070607,null,"",null,,,,,,,,,,,,,,,
math-period,770,1071878,2288.400000035763,"",,,,,,,,,,,4,,,,,
html-keyboard-response,771,1071980,null,"",null,,,,,,,,,,,,,,,
math-period,772,1073721,3297.600000023842,"",,,,,,,,,,,3,,,,,
html-keyboard-response,773,1073823,null,"",null,,,,,,,,,,,,,,,
math-period,774,1074916,2021.6000000238419,"",,,,,,,,,,,2,,,,,
html-keyboard-response,775,1075023,null,"",null,,,,,,,,,,,,,,,
math-period,776,1076148,null,"",,,,,,,,,,,,,,,,
html-keyboard-response,777,1077154,null,"Recall Period!",null,,,,,,,,,,,,,,,
call-function,778,1077156,,"",,,,,,,,,,,,,,,,
html-keyboard-response,779,1077257,null,"",null,,,,,,,,,,,,,,,
recall-period,780,1079819,11084.300000071526,"",,,,,,,,,,,lodge,,,,,
html-keyboard-response,781,1079923,null,"",null,,,,,,,,,,,,,,,
recall-period,782,1082429,10491.899999976158,"",,,,,,,,,,,wasp,,,,,
html-keyboard-response,783,1082533,null,"",null,,,,,,,,,,,,,,,
recall-period,784,1085015,8597.900000095367,"",,,,,,,,,,,bug,,,,,
html-keyboard-response,785,1085117,null,"",null,,,,,,,,,,,,,,,
recall-period,786,1087221,9887.5,"",,,,,,,,,,,drink,,,,,
html-keyboard-response,787,1087327,null,"",null,,,,,,,,,,,,,,,
recall-period,788,1088278,2734.2999999523163,"",,,,,,,,,,,peach,,,,,
html-keyboard-response,789,1088380,null,"",null,,,,,,,,,,,,,,,
recall-period,790,1111050,134596.60000008345,"",,,,,,,,,,,house,,,,,
html-keyboard-response,791,1111152,null,"",null,,,,,,,,,,,,,,,
recall-period,792,1116861,37591.499999940395,"",,,,,,,,,,,grease,,,,,
html-keyboard-response,793,1116966,null,"",null,,,,,,,,,,,,,,,
recall-period,794,1117845,2527.69999986887,"",,,,,,,,,,,valve,,,,,
html-keyboard-response,795,1117949,null,"",null,,,,,,,,,,,,,,,
recall-period,796,1147994,236201.69999992847,"",,,,,,,,,,,chicken,,,,,
html-keyboard-response,797,1148097,null,"",null,,,,,,,,,,,,,,,
recall-period,798,1152157,null,"",,,,,,,,,,,,,,,,
html-keyboard-response,799,1152664,null,"Time's Up!",null,,,,,,,,,,,,,,,
html-keyboard-response,800,1154564,1897,"<p> Good job! You have responded correctly to 99% of the trials. </p>
                      <p>Be sure to only press the spacebar if you see a GREEN square, and please keep your accuracy above 80%.</p>
                      <p> Press any key to continue the experiment. </p>",32,,,,,,,,,,,,,,,
html-keyboard-response,801,1155284,718.3000000119209,"<div style=""font-size:48px;"">Press any key to begin list 7 of 16 </div>",32,,,,,,,,,,,,,,,
html-keyboard-response,802,1157791,null,"<div style=""font-size:60px;"">+</div>",null,,,,,,,,,,,,,,,
html-keyboard-response,803,1157994,null,"<div style=""font-size:42px;"">PENCIL</div><img id = ""stim"" ><div class = red_square id = bottomsquare></div>",null,encoding,word_square,,,0,bottomsquare,none,true,,,PENCIL,6,,,
html-keyboard-response,804,1158297,null,"<div style=""font-size:42px;"">PENCIL</div>",null,,word,PENCIL,,,,,,,,,,,,
html-keyboard-response,805,1159805,null,"",null,,word,PENCIL,,,,,,,,,,,,
html-keyboard-response,806,1160008,null,"<div style=""font-size:42px;"">TREAT</div><img id = ""stim"" ><div class = green_square id = topsquare></div>",null,encoding,word_square,,,1,topsquare,32,true,,,TREAT,6,,,
html-keyboard-response,807,1160316,null,"<div style=""font-size:42px;"">TREAT</div>",null,,word,TREAT,,,,,,,,,,,,
html-keyboard-response,808,1161823,53.39999997615814,"",32,,word,TREAT,,,,,,,,,,,,
html-keyboard-response,809,1162031,null,"<div style=""font-size:42px;"">FOX</div><img id = ""stim"" ><div class = green_square id = bottomsquare></div>",null,encoding,word_square,,,1,bottomsquare,32,true,,,FOX,6,,,
html-keyboard-response,810,1162339,160.69999998807907,"<div style=""font-size:42px;"">FOX</div>",32,,word,FOX,,,,,,,,,,,,
html-keyboard-response,811,1163847,null,"",null,,word,FOX,,,,,,,,,,,,
html-keyboard-response,812,1164054,null,"<div style=""font-size:42px;"">BRANDY</div><img id = ""stim"" ><div class = red_square id = topsquare></div>",null,encoding,word_square,,,0,topsquare,none,true,,,BRANDY,6,,,
html-keyboard-response,813,1164357,null,"<div style=""font-size:42px;"">BRANDY</div>",null,,word,BRANDY,,,,,,,,,,,,
html-keyboard-response,814,1165863,null,"",null,,word,BRANDY,,,,,,,,,,,,
html-keyboard-response,815,1166070,null,"<div style=""font-size:42px;"">BOARD</div><img id = ""stim"" ><div class = green_square id = topsquare></div>",null,encoding,word_square,,,1,topsquare,32,true,,,BOARD,6,,,
html-keyboard-response,816,1166378,null,"<div style=""font-size:42px;"">BOARD</div>",null,,word,BOARD,,,,,,,,,,,,
html-keyboard-response,817,1167881,108.30000001192093,"",32,,word,BOARD,,,,,,,,,,,,
html-keyboard-response,818,1168089,null,"<div style=""font-size:42px;"">BUTLER</div><img id = ""stim"" ><div class = red_square id = bottomsquare></div>",null,encoding,word_square,,,0,bottomsquare,none,true,,,BUTLER,6,,,
html-keyboard-response,819,1168396,null,"<div style=""font-size:42px;"">BUTLER</div>",null,,word,BUTLER,,,,,,,,,,,,
html-keyboard-response,820,1169903,null,"",null,,word,BUTLER,,,,,,,,,,,,
html-keyboard-response,821,1170108,null,"<div style=""font-size:42px;"">MOP</div><img id = ""stim"" ><div class = red_square id = topsquare></div>",null,encoding,word_square,,,0,topsquare,none,true,,,MOP,6,,,
html-keyboard-response,822,1170414,null,"<div style=""font-size:42px;"">MOP</div>",null,,word,MOP,,,,,,,,,,,,
html-keyboard-response,823,1171922,null,"",null,,word,MOP,,,,,,,,,,,,
html-keyboard-response,824,1172126,null,"<div style=""font-size:42px;"">RUG</div><img id = ""stim"" ><div class = red_square id = bottomsquare></div>",null,encoding,word_square,,,0,bottomsquare,none,true,,,RUG,6,,,
html-keyboard-response,825,1172429,null,"<div style=""font-size:42px;"">RUG</div>",null,,word,RUG,,,,,,,,,,,,
html-keyboard-response,826,1173933,null,"",null,,word,RUG,,,,,,,,,,,,
html-keyboard-response,827,1174137,null,"<div style=""font-size:42px;"">LITTER</div><img id = ""stim"" ><div class = green_square id = bottomsquare></div>",null,encoding,word_square,,,1,bottomsquare,32,true,,,LITTER,6,,,
html-keyboard-response,828,1174439,181.39999997615814,"<div style=""font-size:42px;"">LITTER</div>",32,,word,LITTER,,,,,,,,,,,,
html-keyboard-response,829,1175944,null,"",null,,word,LITTER,,,,,,,,,,,,
html-keyboard-response,830,1176149,null,"<div style=""font-size:42px;"">WRENCH</div><img id = ""stim"" ><div class = red_square id = topsquare></div>",null,encoding,word_square,,,0,topsquare,none,true,,,WRENCH,6,,,
html-keyboard-response,831,1176455,null,"<div style=""font-size:42px;"">WRENCH</div>",null,,word,WRENCH,,,,,,,,,,,,
html-keyboard-response,832,1177960,null,"",null,,word,WRENCH,,,,,,,,,,,,
html-keyboard-response,833,1178162,null,"<div style=""font-size:42px;"">COUNTRY</div><img id = ""stim"" ><div class = green_square id = topsquare></div>",null,encoding,word_square,,,1,topsquare,32,true,,,COUNTRY,6,,,
html-keyboard-response,834,1178469,null,"<div style=""font-size:42px;"">COUNTRY</div>",null,,word,COUNTRY,,,,,,,,,,,,
html-keyboard-response,835,1179976,98.90000003576279,"",32,,word,COUNTRY,,,,,,,,,,,,
html-keyboard-response,836,1180184,null,"<div style=""font-size:42px;"">JAPAN</div><img id = ""stim"" ><div class = green_square id = bottomsquare></div>",null,encoding,word_square,,,1,bottomsquare,32,true,,,JAPAN,6,,,
html-keyboard-response,837,1180489,184.80000001192093,"<div style=""font-size:42px;"">JAPAN</div>",32,,word,JAPAN,,,,,,,,,,,,
html-keyboard-response,838,1181995,null,"",null,,word,JAPAN,,,,,,,,,,,,
html-keyboard-response,839,1182199,null,"<div style=""font-size:42px;"">GAVEL</div><img id = ""stim"" ><div class = red_square id = bottomsquare></div>",null,encoding,word_square,,,0,bottomsquare,none,true,,,GAVEL,6,,,
html-keyboard-response,840,1182502,null,"<div style=""font-size:42px;"">GAVEL</div>",null,,word,GAVEL,,,,,,,,,,,,
html-keyboard-response,841,1184008,null,"",null,,word,GAVEL,,,,,,,,,,,,
html-keyboard-response,842,1184212,null,"<div style=""font-size:42px;"">CHAMPAGNE</div><img id = ""stim"" ><div class = red_square id = topsquare></div>",null,encoding,word_square,,,0,topsquare,none,true,,,CHAMPAGNE,6,,,
html-keyboard-response,843,1184519,null,"<div style=""font-size:42px;"">CHAMPAGNE</div>",null,,word,CHAMPAGNE,,,,,,,,,,,,
html-keyboard-response,844,1186027,null,"",null,,word,CHAMPAGNE,,,,,,,,,,,,
html-keyboard-response,845,1186233,null,"<div style=""font-size:42px;"">MILDEW</div><img id = ""stim"" ><div class = green_square id = topsquare></div>",null,encoding,word_square,,,1,topsquare,32,true,,,MILDEW,6,,,
html-keyboard-response,846,1186536,null,"<div style=""font-size:42px;"">MILDEW</div>",null,,word,MILDEW,,,,,,,,,,,,
html-keyboard-response,847,1188042,0.9000000357627869,"",32,,word,MILDEW,,,,,,,,,,,,
html-keyboard-response,848,1188244,null,"<div style=""font-size:42px;"">VAGRANT</div><img id = ""stim"" ><div class = green_square id = bottomsquare></div>",null,encoding,word_square,,,1,bottomsquare,32,true,,,VAGRANT,6,,,
html-keyboard-response,849,1188550,null,"<div style=""font-size:42px;"">VAGRANT</div>",null,,word,VAGRANT,,,,,,,,,,,,
html-keyboard-response,850,1190056,98.70000004768372,"",32,,word,VAGRANT,,,,,,,,,,,,
call-function,851,1190060,,"",,,,,,,,,,,,,,,,
html-keyboard-response,852,1190163,null,"",null,,,,,,,,,,,,,,,
math-period,853,1191599,2687.600000023842,"",,,,,,,,,,,4,,,,,
html-keyboard-response,854,1191701,null,"",null,,,,,,,,,,,,,,,
math-period,855,1193313,3012.7000000476837,"",,,,,,,,,,,2,,,,,
html-keyboard-response,856,1193420,null,"",null,,,,,,,,,,,,,,,
math-period,857,1194704,2427.9999999403954,"",,,,,,,,,,,2,,,,,
html-keyboard-response,858,1194810,null,"",null,,,,,,,,,,,,,,,
math-period,859,1195716,1582.4000000953674,"",,,,,,,,,,,3,,,,,
html-keyboard-response,860,1195824,null,"",null,,,,,,,,,,,,,,,
math-period,861,1197114,2420.7000000476837,"",,,,,,,,,,,3,,,,,
html-keyboard-response,862,1197219,null,"",null,,,,,,,,,,,,,,,
math-period,863,1199164,3701.400000035763,"",,,,,,,,,,,2,,,,,
html-keyboard-response,864,1199267,null,"",null,,,,,,,,,,,,,,,
math-period,865,1200351,1984.2999999523163,"",,,,,,,,,,,2,,,,,
html-keyboard-response,866,1200459,null,"",null,,,,,,,,,,,,,,,
math-period,867,1201521,1944.199999988079,"",,,,,,,,,,,3,,,,,
html-keyboard-response,868,1201627,null,"",null,,,,,,,,,,,,,,,
math-period,869,1202467,1470.699999988079,"",,,,,,,,,,,3,,,,,
html-keyboard-response,870,1202572,null,"",null,,,,,,,,,,,,,,,
math-period,871,1204874,4261.599999964237,"",,,,,,,,,,,2,,,,,
html-keyboard-response,872,1204977,null,"",null,,,,,,,,,,,,,,,
math-period,873,1206115,2065.5,"",,,,,,,,,,,1,,,,,
html-keyboard-response,874,1206221,null,"",null,,,,,,,,,,,,,,,
math-period,875,1209959,7269.599999964237,"",,,,,,,,,,,3,,,,,
html-keyboard-response,876,1210065,null,"",null,,,,,,,,,,,,,,,
math-period,877,1211759,3200.300000011921,"",,,,,,,,,,,1,,,,,
html-keyboard-response,878,1211864,null,"",null,,,,,,,,,,,,,,,
math-period,879,1213536,2914.5,"",,,,,,,,,,,6,,,,,
html-keyboard-response,880,1213641,null,"",null,,,,,,,,,,,,,,,
math-period,881,1214062,null,"",,,,,,,,,,,,,,,,
html-keyboard-response,882,1215065,null,"Recall Period!",null,,,,,,,,,,,,,,,
call-function,883,1215067,,"",,,,,,,,,,,,,,,,
html-keyboard-response,884,1215172,null,"",null,,,,,,,,,,,,,,,
recall-period,885,1218465,18349.900000214577,"",,,,,,,,,,,mildew,,,,,
html-keyboard-response,886,1218569,null,"",null,,,,,,,,,,,,,,,
recall-period,887,1219904,6613.500000119209,"",,,,,,,,,,,vagrant,,,,,
html-keyboard-response,888,1220006,null,"",null,,,,,,,,,,,,,,,
recall-period,889,1222219,7077.099999904633,"",,,,,,,,,,,scotch,,,,,
html-keyboard-response,890,1222322,null,"",null,,,,,,,,,,,,,,,
recall-period,891,1223256,3083.899999976158,"",,,,,,,,,,,brandy,,,,,
html-keyboard-response,892,1223359,null,"",null,,,,,,,,,,,,,,,
recall-period,893,1224763,8509.399999976158,"",,,,,,,,,,,champagne,,,,,
html-keyboard-response,894,1224868,null,"",null,,,,,,,,,,,,,,,
recall-period,895,1236239,73234.79999989271,"",,,,,,,,,,,sphinx,,,,,
html-keyboard-response,896,1236343,null,"",null,,,,,,,,,,,,,,,
recall-period,897,1254467,137975.7999997735,"",,,,,,,,,,,mop,,,,,
html-keyboard-response,898,1254570,null,"",null,,,,,,,,,,,,,,,
recall-period,899,1254982,833.1999999880791,"",,,,,,,,,,,rug,,,,,
html-keyboard-response,900,1255085,null,"",null,,,,,,,,,,,,,,,
recall-period,901,1269116,120764.7999997735,"",,,,,,,,,,,wrench,,,,,
html-keyboard-response,902,1269220,null,"",null,,,,,,,,,,,,,,,
recall-period,903,1290078,null,"",,,,,,,,,,,,,,,,
html-keyboard-response,904,1290585,null,"Time's Up!",null,,,,,,,,,,,,,,,
html-keyboard-response,905,1323526,32937.19999998808,"<p> Good job! You have responded correctly to 99% of the trials. </p>
                      <p>Be sure to only press the spacebar if you see a GREEN square, and please keep your accuracy above 80%.</p>
                      <p> Press any key to continue the experiment. </p>",32,,,,,,,,,,,,,,,
html-keyboard-response,906,1325551,2022.699999988079,"<div style=""font-size:48px;"">Press any key to begin list 8 of 16 </div>",32,,,,,,,,,,,,,,,
html-keyboard-response,907,1328061,null,"<div style=""font-size:60px;"">+</div>",null,,,,,,,,,,,,,,,
html-keyboard-response,908,1328269,null,"<div style=""font-size:42px;"">VAMPIRE</div><img id = ""stim"" ><div class = green_square id = bottomsquare></div>",null,encoding,word_square,,,1,bottomsquare,32,true,,,VAMPIRE,7,,,
html-keyboard-response,909,1328572,295.39999997615814,"<div style=""font-size:42px;"">VAMPIRE</div>",32,,word,VAMPIRE,,,,,,,,,,,,
html-keyboard-response,910,1330076,null,"",null,,word,VAMPIRE,,,,,,,,,,,,
html-keyboard-response,911,1330286,null,"<div style=""font-size:42px;"">INSECT</div><img id = ""stim"" ><div class = green_square id = topsquare></div>",null,encoding,word_square,,,1,topsquare,32,true,,,INSECT,7,,,
html-keyboard-response,912,1330593,281.80000001192093,"<div style=""font-size:42px;"">INSECT</div>",32,,word,INSECT,,,,,,,,,,,,
html-keyboard-response,913,1332096,null,"",null,,word,INSECT,,,,,,,,,,,,
html-keyboard-response,914,1332299,null,"<div style=""font-size:42px;"">TWIG</div><img id = ""stim"" ><div class = red_square id = topsquare></div>",null,encoding,word_square,,,0,topsquare,none,true,,,TWIG,7,,,
html-keyboard-response,915,1332603,null,"<div style=""font-size:42px;"">TWIG</div>",null,,word,TWIG,,,,,,,,,,,,
html-keyboard-response,916,1334105,null,"",null,,word,TWIG,,,,,,,,,,,,
html-keyboard-response,917,1334313,null,"<div style=""font-size:42px;"">SHRUB</div><img id = ""stim"" ><div class = red_square id = bottomsquare></div>",null,encoding,word_square,,,0,bottomsquare,none,true,,,SHRUB,7,,,
html-keyboard-response,918,1334619,null,"<div style=""font-size:42px;"">SHRUB</div>",null,,word,SHRUB,,,,,,,,,,,,
html-keyboard-response,919,1336127,null,"",null,,word,SHRUB,,,,,,,,,,,,
html-keyboard-response,920,1336336,null,"<div style=""font-size:42px;"">DRILL</div><img id = ""stim"" ><div class = green_square id = bottomsquare></div>",null,encoding,word_square,,,1,bottomsquare,32,true,,,DRILL,7,,,
html-keyboard-response,921,1336643,218,"<div style=""font-size:42px;"">DRILL</div>",32,,word,DRILL,,,,,,,,,,,,
html-keyboard-response,922,1338147,null,"",null,,word,DRILL,,,,,,,,,,,,
html-keyboard-response,923,1338355,null,"<div style=""font-size:42px;"">DIVER</div><img id = ""stim"" ><div class = green_square id = topsquare></div>",null,encoding,word_square,,,1,topsquare,32,true,,,DIVER,7,,,
html-keyboard-response,924,1338662,154,"<div style=""font-size:42px;"">DIVER</div>",32,,word,DIVER,,,,,,,,,,,,
html-keyboard-response,925,1340171,null,"",null,,word,DIVER,,,,,,,,,,,,
html-keyboard-response,926,1340379,null,"<div style=""font-size:42px;"">BUBBLE</div><img id = ""stim"" ><div class = red_square id = topsquare></div>",null,encoding,word_square,,,0,topsquare,none,true,,,BUBBLE,7,,,
html-keyboard-response,927,1340683,null,"<div style=""font-size:42px;"">BUBBLE</div>",null,,word,BUBBLE,,,,,,,,,,,,
html-keyboard-response,928,1342191,null,"",null,,word,BUBBLE,,,,,,,,,,,,
html-keyboard-response,929,1342400,null,"<div style=""font-size:42px;"">BREAST</div><img id = ""stim"" ><div class = green_square id = bottomsquare></div>",null,encoding,word_square,,,1,bottomsquare,32,true,,,BREAST,7,,,
html-keyboard-response,930,1342703,158.5999999642372,"<div style=""font-size:42px;"">BREAST</div>",32,,word,BREAST,,,,,,,,,,,,
html-keyboard-response,931,1344210,null,"",null,,word,BREAST,,,,,,,,,,,,
html-keyboard-response,932,1344418,null,"<div style=""font-size:42px;"">CREVICE</div><img id = ""stim"" ><div class = red_square id = bottomsquare></div>",null,encoding,word_square,,,0,bottomsquare,none,true,,,CREVICE,7,,,
html-keyboard-response,933,1344724,null,"<div style=""font-size:42px;"">CREVICE</div>",null,,word,CREVICE,,,,,,,,,,,,
html-keyboard-response,934,1346228,null,"",null,,word,CREVICE,,,,,,,,,,,,
html-keyboard-response,935,1346436,null,"<div style=""font-size:42px;"">DRUG</div><img id = ""stim"" ><div class = red_square id = topsquare></div>",null,encoding,word_square,,,0,topsquare,none,true,,,DRUG,7,,,
html-keyboard-response,936,1346740,null,"<div style=""font-size:42px;"">DRUG</div>",null,,word,DRUG,,,,,,,,,,,,
html-keyboard-response,937,1348248,null,"",null,,word,DRUG,,,,,,,,,,,,
html-keyboard-response,938,1348452,null,"<div style=""font-size:42px;"">FIGHTER</div><img id = ""stim"" ><div class = red_square id = bottomsquare></div>",null,encoding,word_square,,,0,bottomsquare,none,true,,,FIGHTER,7,,,
html-keyboard-response,939,1348755,null,"<div style=""font-size:42px;"">FIGHTER</div>",null,,word,FIGHTER,,,,,,,,,,,,
html-keyboard-response,940,1350263,null,"",null,,word,FIGHTER,,,,,,,,,,,,
html-keyboard-response,941,1350469,null,"<div style=""font-size:42px;"">GRILL</div><img id = ""stim"" ><div class = green_square id = topsquare></div>",null,encoding,word_square,,,1,topsquare,32,true,,,GRILL,7,,,
html-keyboard-response,942,1350772,null,"<div style=""font-size:42px;"">GRILL</div>",null,,word,GRILL,,,,,,,,,,,,
html-keyboard-response,943,1352275,21.400000035762787,"",32,,word,GRILL,,,,,,,,,,,,
html-keyboard-response,944,1352483,null,"<div style=""font-size:42px;"">SHAMPOO</div><img id = ""stim"" ><div class = red_square id = topsquare></div>",null,encoding,word_square,,,0,topsquare,none,true,,,SHAMPOO,7,,,
html-keyboard-response,945,1352789,null,"<div style=""font-size:42px;"">SHAMPOO</div>",null,,word,SHAMPOO,,,,,,,,,,,,
html-keyboard-response,946,1354297,null,"",null,,word,SHAMPOO,,,,,,,,,,,,
html-keyboard-response,947,1354506,null,"<div style=""font-size:42px;"">SKILLET</div><img id = ""stim"" ><div class = green_square id = bottomsquare></div>",null,encoding,word_square,,,1,bottomsquare,32,true,,,SKILLET,7,,,
html-keyboard-response,948,1354808,294,"<div style=""font-size:42px;"">SKILLET</div>",32,,word,SKILLET,,,,,,,,,,,,
html-keyboard-response,949,1356315,null,"",null,,word,SKILLET,,,,,,,,,,,,
