trial_type,trial_index,time_elapsed,rt,stimulus,key_press,exp_phase,test_part,word,task,targ_cond,sq_pos,correctKeyCode,correct,value,response,Word,List,RecResp,serial_pos,colorChosen
pavlovia,0,2653,,"",,,,,,,,,,,,,,,,
external-html,1,10190,7317.199999988079,"",,,,,,,,,,,,,,,,
html-keyboard-response,2,12476,2283.600000023842,"Welcome to the experiment. Press any key to begin.",190,,,,,,,,,,,,,,,
html-keyboard-response,3,60438,47958.30000001192,"<p>You will see a list of words and colored squares in the following task.<p><p>Press the spacebar whenever you see a GREEN square.<p><p>Do not press a key if the square is RED.<p><p>Press the spacebar to continue.</p>",32,,,,,,,,,,,,,,,
html-keyboard-response,4,214357,153412.79999995232,"<p>Please try to remember as many of the words as you can, and try to think about the meaning of each word as it appears.<p><p>After the detection and encoding task you will be asked to solve some math problems for 24 seconds.<p> Please solve as many problems as you can in the time given. <p><p><p>Press the spacebar to continue.</p>",32,,,,,,,,,,,,,,,
html-keyboard-response,5,221121,6257.800000011921,"After solving the math problems, you will be asked to type in as many words <p>from the previous list as you can remember for 75 seconds.<p> If you finish recalling before the 75 seconds are up,<p> just sit tight and try to think of any more words you could have missed. <p><p><p>Press the spacebar to continue.</p>",32,,,,,,,,,,,,,,,
html-keyboard-response,6,225445,3820.400000035763,"There will be 16 lists of words and recall, followed  by<p><p> a recognition phase. The experiment is expected to take up to 90 minutes.<p>We will begin with a brief practice session.<p>Press the spacebar to begin the practice.</p>",32,,,,,,,,,,,,,,,
html-keyboard-response,7,227951,null,"<div style=""font-size:60px;"">+</div>",null,,,,,,,,,,,,,,,
html-keyboard-response,8,228158,null,"<div style=""font-size:42px;"">HAPPY</div><img id = ""stim"" ><div class = red_square id = ""bottomsquare"" ></div>",null,practice,word_square,HAPPY,prac_response,0,Bottom,none,true,,,,,,,
html-keyboard-response,9,228462,null,"<div style=""font-size:42px;"">HAPPY</div>",null,,word,HAPPY,,,,,,,,,,,,
html-keyboard-response,10,229967,null,"",null,,word,HAPPY,,,,,,,,,,,,
html-keyboard-response,11,230175,null,"<div style=""font-size:42px;"">COLD</div><img id = ""stim"" ><div class = green_square id = ""bottomsquare"" ></div>",null,practice,word_square,COLD,prac_response,1,Bottom,32,true,,,,,,,
html-keyboard-response,12,230479,258.5,"<div style=""font-size:42px;"">COLD</div>",32,,word,COLD,,,,,,,,,,,,
html-keyboard-response,13,231983,null,"",null,,word,COLD,,,,,,,,,,,,
html-keyboard-response,14,232187,null,"<div style=""font-size:42px;"">HEAVY</div><img id = ""stim"" ><div class = green_square id = ""topsquare"" ></div>",null,practice,word_square,HEAVY,prac_response,1,Top,32,true,,,,,,,
html-keyboard-response,15,232491,null,"<div style=""font-size:42px;"">HEAVY</div>",null,,word,HEAVY,,,,,,,,,,,,
html-keyboard-response,16,233995,172,"",32,,word,HEAVY,,,,,,,,,,,,
html-keyboard-response,17,234199,null,"<div style=""font-size:42px;"">FUNNY</div><img id = ""stim"" ><div class = red_square id = ""topsquare"" ></div>",null,practice,word_square,FUNNY,prac_response,0,Top,none,true,,,,,,,
html-keyboard-response,18,234504,null,"<div style=""font-size:42px;"">FUNNY</div>",null,,word,FUNNY,,,,,,,,,,,,
html-keyboard-response,19,236007,null,"",null,,word,FUNNY,,,,,,,,,,,,
html-keyboard-response,20,236210,null,"<div style=""font-size:42px;"">SCARY</div><img id = ""stim"" ><div class = green_square id = ""bottomsquare"" ></div>",null,practice,word_square,SCARY,prac_response,1,Bottom,32,true,,,,,,,
html-keyboard-response,21,236513,162.80000001192093,"<div style=""font-size:42px;"">SCARY</div>",32,,word,SCARY,,,,,,,,,,,,
html-keyboard-response,22,238016,null,"",null,,word,SCARY,,,,,,,,,,,,
html-keyboard-response,23,238219,null,"<div style=""font-size:42px;"">PEACEFUL</div><img id = ""stim"" ><div class = green_square id = ""topsquare"" ></div>",null,practice,word_square,PEACEFUL,prac_response,1,Top,32,true,,,,,,,
html-keyboard-response,24,238523,273.19999998807907,"<div style=""font-size:42px;"">PEACEFUL</div>",32,,word,PEACEFUL,,,,,,,,,,,,
html-keyboard-response,25,240026,null,"",null,,word,PEACEFUL,,,,,,,,,,,,
html-keyboard-response,26,240229,null,"<div style=""font-size:42px;"">LITTLE</div><img id = ""stim"" ><div class = red_square id = ""bottomsquare"" ></div>",null,practice,word_square,LITTLE,prac_response,0,Bottom,none,true,,,,,,,
html-keyboard-response,27,240532,null,"<div style=""font-size:42px;"">LITTLE</div>",null,,word,LITTLE,,,,,,,,,,,,
html-keyboard-response,28,242036,null,"",null,,word,LITTLE,,,,,,,,,,,,
html-keyboard-response,29,242238,75.80000001192093,"<div style=""font-size:42px;"">TIRED</div><img id = ""stim"" ><div class = red_square id = ""topsquare"" ></div>",32,practice,word_square,TIRED,prac_response,0,Top,none,false,,,,,,,
html-keyboard-response,30,242542,null,"<div style=""font-size:42px;"">TIRED</div>",null,,word,TIRED,,,,,,,,,,,,
html-keyboard-response,31,244045,null,"",null,,word,TIRED,,,,,,,,,,,,
html-keyboard-response,32,244248,null,"<div style=""font-size:42px;"">ENTERTAINING</div><img id = ""stim"" ><div class = red_square id = ""bottomsquare"" ></div>",null,practice,word_square,ENTERTAINING,prac_response,0,Bottom,none,true,,,,,,,
html-keyboard-response,33,244551,null,"<div style=""font-size:42px;"">ENTERTAINING</div>",null,,word,ENTERTAINING,,,,,,,,,,,,
html-keyboard-response,34,246055,null,"",null,,word,ENTERTAINING,,,,,,,,,,,,
html-keyboard-response,35,246260,null,"<div style=""font-size:42px;"">GRATEFUL</div><img id = ""stim"" ><div class = green_square id = ""bottomsquare"" ></div>",null,practice,word_square,GRATEFUL,prac_response,1,Bottom,32,true,,,,,,,
html-keyboard-response,36,246564,289.5,"<div style=""font-size:42px;"">GRATEFUL</div>",32,,word,GRATEFUL,,,,,,,,,,,,
html-keyboard-response,37,248067,null,"",null,,word,GRATEFUL,,,,,,,,,,,,
html-keyboard-response,38,248269,null,"<div style=""font-size:42px;"">LOUD</div><img id = ""stim"" ><div class = red_square id = ""topsquare"" ></div>",null,practice,word_square,LOUD,prac_response,0,Top,none,true,,,,,,,
html-keyboard-response,39,248573,null,"<div style=""font-size:42px;"">LOUD</div>",null,,word,LOUD,,,,,,,,,,,,
html-keyboard-response,40,250078,null,"",null,,word,LOUD,,,,,,,,,,,,
html-keyboard-response,41,250282,null,"<div style=""font-size:42px;"">SMART</div><img id = ""stim"" ><div class = green_square id = ""topsquare"" ></div>",null,practice,word_square,SMART,prac_response,1,Top,32,true,,,,,,,
html-keyboard-response,42,250586,249.29999995231628,"<div style=""font-size:42px;"">SMART</div>",32,,word,SMART,,,,,,,,,,,,
html-keyboard-response,43,252089,null,"",null,,word,SMART,,,,,,,,,,,,
html-keyboard-response,44,252292,null,"<div style=""font-size:42px;"">SMOOTH</div><img id = ""stim"" ><div class = green_square id = ""bottomsquare"" ></div>",null,practice,word_square,SMOOTH,prac_response,1,Bottom,32,true,,,,,,,
html-keyboard-response,45,252594,null,"<div style=""font-size:42px;"">SMOOTH</div>",null,,word,SMOOTH,,,,,,,,,,,,
html-keyboard-response,46,254096,84.89999997615814,"",32,,word,SMOOTH,,,,,,,,,,,,
html-keyboard-response,47,254301,null,"<div style=""font-size:42px;"">DISHONEST</div><img id = ""stim"" ><div class = red_square id = ""bottomsquare"" ></div>",null,practice,word_square,DISHONEST,prac_response,0,Bottom,none,true,,,,,,,
html-keyboard-response,48,254605,null,"<div style=""font-size:42px;"">DISHONEST</div>",null,,word,DISHONEST,,,,,,,,,,,,
html-keyboard-response,49,256108,null,"",null,,word,DISHONEST,,,,,,,,,,,,
html-keyboard-response,50,256312,null,"<div style=""font-size:42px;"">WEALTHY</div><img id = ""stim"" ><div class = green_square id = ""topsquare"" ></div>",null,practice,word_square,WEALTHY,prac_response,1,Top,32,true,,,,,,,
html-keyboard-response,51,256615,215.80000001192093,"<div style=""font-size:42px;"">WEALTHY</div>",32,,word,WEALTHY,,,,,,,,,,,,
html-keyboard-response,52,258118,null,"",null,,word,WEALTHY,,,,,,,,,,,,
html-keyboard-response,53,258322,null,"<div style=""font-size:42px;"">BEAUTIFUL</div><img id = ""stim"" ><div class = red_square id = ""topsquare"" ></div>",null,practice,word_square,BEAUTIFUL,prac_response,0,Top,none,true,,,,,,,
html-keyboard-response,54,258625,null,"<div style=""font-size:42px;"">BEAUTIFUL</div>",null,,word,BEAUTIFUL,,,,,,,,,,,,
html-keyboard-response,55,260129,null,"",null,,word,BEAUTIFUL,,,,,,,,,,,,
html-keyboard-response,56,264642,4507.400000035763,"<p> Good job! You responded correctly to 94% of the trials. </p>
                  <p>Be sure to only press the spacebar if you see a GREEN square, and please keep your accuracy above 80%.</p>
                  <p>We're going to try once more to make sure you understand the task. press any key to continue. </p>",32,,,,,,,,,,,,,,,
html-keyboard-response,57,266794,2148.099999964237,"<p>You will see a list of words and colored squares in the following task.<p><p>Press the spacebar whenever you see a GREEN square.<p><p>Do not press a key if the square is RED<p><p>Press the spacebar to continue.</p>",32,,,,,,,,,,,,,,,
html-keyboard-response,58,269297,null,"<div style=""font-size:60px;"">+</div>",null,,,,,,,,,,,,,,,
html-keyboard-response,59,269500,null,"<div style=""font-size:42px;"">HAPPY</div><img id = ""stim"" ><div class = red_square id = ""bottomsquare"" ></div>",null,practice2,word_square,HAPPY,prac_response,0,Bottom,none,true,,,,,,,
html-keyboard-response,60,269804,null,"<div style=""font-size:42px;"">HAPPY</div>",null,,word,HAPPY,,,,,,,,,,,,
html-keyboard-response,61,271309,null,"",null,,word,HAPPY,,,,,,,,,,,,
html-keyboard-response,62,271513,null,"<div style=""font-size:42px;"">COLD</div><img id = ""stim"" ><div class = green_square id = ""bottomsquare"" ></div>",null,practice2,word_square,,prac_response,1,Bottom,32,true,,,,,,,
html-keyboard-response,63,271816,273.89999997615814,"<div style=""font-size:42px;"">COLD</div>",32,,word,COLD,,,,,,,,,,,,
html-keyboard-response,64,273319,null,"",null,,word,COLD,,,,,,,,,,,,
html-keyboard-response,65,273523,null,"<div style=""font-size:42px;"">HEAVY</div><img id = ""stim"" ><div class = green_square id = ""topsquare"" ></div>",null,practice2,word_square,,prac_response,1,Top,32,true,,,,,,,
html-keyboard-response,66,273826,283.69999998807907,"<div style=""font-size:42px;"">HEAVY</div>",32,,word,HEAVY,,,,,,,,,,,,
html-keyboard-response,67,275328,null,"",null,,word,HEAVY,,,,,,,,,,,,
html-keyboard-response,68,275532,null,"<div style=""font-size:42px;"">FUNNY</div><img id = ""stim"" ><div class = red_square id = ""topsquare"" ></div>",null,practice2,word_square,,prac_response,0,Top,none,true,,,,,,,
html-keyboard-response,69,275836,null,"<div style=""font-size:42px;"">FUNNY</div>",null,,word,FUNNY,,,,,,,,,,,,
html-keyboard-response,70,277340,null,"",null,,word,FUNNY,,,,,,,,,,,,
html-keyboard-response,71,277542,null,"<div style=""font-size:42px;"">SCARY</div><img id = ""stim"" ><div class = green_square id = ""bottomsquare"" ></div>",null,practice2,word_square,,prac_response,1,Bottom,32,true,,,,,,,
html-keyboard-response,72,277846,230.19999998807907,"<div style=""font-size:42px;"">SCARY</div>",32,,word,SCARY,,,,,,,,,,,,
html-keyboard-response,73,279350,null,"",null,,word,SCARY,,,,,,,,,,,,
html-keyboard-response,74,279554,null,"<div style=""font-size:42px;"">PEACEFUL</div><img id = ""stim"" ><div class = green_square id = ""topsquare"" ></div>",null,practice2,word_square,,prac_response,1,Top,32,true,,,,,,,
html-keyboard-response,75,279857,277.89999997615814,"<div style=""font-size:42px;"">PEACEFUL</div>",32,,word,PEACEFUL,,,,,,,,,,,,
html-keyboard-response,76,281360,null,"",null,,word,PEACEFUL,,,,,,,,,,,,
html-keyboard-response,77,281565,null,"<div style=""font-size:42px;"">LITTLE</div><img id = ""stim"" ><div class = red_square id = ""bottomsquare"" ></div>",null,practice2,word_square,LITTLE,prac_response,0,Bottom,none,true,,,,,,,
html-keyboard-response,78,281869,null,"<div style=""font-size:42px;"">LITTLE</div>",null,,word,LITTLE,,,,,,,,,,,,
html-keyboard-response,79,283372,null,"",null,,word,LITTLE,,,,,,,,,,,,
html-keyboard-response,80,283575,null,"<div style=""font-size:42px;"">TIRED</div><img id = ""stim"" ><div class = red_square id = ""topsquare"" ></div>",null,practice2,word_square,,prac_response,0,Top,none,true,,,,,,,
html-keyboard-response,81,283881,null,"<div style=""font-size:42px;"">TIRED</div>",null,,word,TIRED,,,,,,,,,,,,
html-keyboard-response,82,285385,null,"",null,,word,TIRED,,,,,,,,,,,,
html-keyboard-response,83,285588,null,"<div style=""font-size:42px;"">ENTERTAINING</div><img id = ""stim"" ><div class = red_square id = ""bottomsquare"" ></div>",null,practice2,word_square,ENTERTAINING,prac_response,0,Bottom,none,true,,,,,,,
html-keyboard-response,84,285891,null,"<div style=""font-size:42px;"">ENTERTAINING</div>",null,,word,ENTERTAINING,,,,,,,,,,,,
html-keyboard-response,85,287394,null,"",null,,word,ENTERTAINING,,,,,,,,,,,,
html-keyboard-response,86,287597,null,"<div style=""font-size:42px;"">GRATEFUL</div><img id = ""stim"" ><div class = green_square id = ""bottomsquare"" ></div>",null,practice2,word_square,,prac_response,1,Bottom,32,true,,,,,,,
html-keyboard-response,87,287900,186,"<div style=""font-size:42px;"">GRATEFUL</div>",32,,word,GRATEFUL,,,,,,,,,,,,
html-keyboard-response,88,289405,null,"",null,,word,GRATEFUL,,,,,,,,,,,,
html-keyboard-response,89,289610,null,"<div style=""font-size:42px;"">LOUD</div><img id = ""stim"" ><div class = red_square id = ""topsquare"" ></div>",null,practice2,word_square,,prac_response,0,Top,none,true,,,,,,,
html-keyboard-response,90,289912,null,"<div style=""font-size:42px;"">LOUD</div>",null,,word,LOUD,,,,,,,,,,,,
html-keyboard-response,91,291414,null,"",null,,word,LOUD,,,,,,,,,,,,
html-keyboard-response,92,291618,null,"<div style=""font-size:42px;"">SMART</div><img id = ""stim"" ><div class = green_square id = ""topsquare"" ></div>",null,practice2,word_square,,prac_response,1,Top,32,true,,,,,,,
html-keyboard-response,93,291921,249.69999998807907,"<div style=""font-size:42px;"">SMART</div>",32,,word,SMART,,,,,,,,,,,,
html-keyboard-response,94,293424,null,"",null,,word,SMART,,,,,,,,,,,,
html-keyboard-response,95,293629,null,"<div style=""font-size:42px;"">SMOOTH</div><img id = ""stim"" ><div class = green_square id = ""bottomsquare"" ></div>",null,practice2,word_square,,prac_response,1,Bottom,32,false,,,,,,,
html-keyboard-response,96,293932,null,"<div style=""font-size:42px;"">SMOOTH</div>",null,,word,SMOOTH,,,,,,,,,,,,
html-keyboard-response,97,295437,null,"",null,,word,SMOOTH,,,,,,,,,,,,
html-keyboard-response,98,295642,null,"<div style=""font-size:42px;"">DISHONEST</div><img id = ""stim"" ><div class = red_square id = ""bottomsquare"" ></div>",null,practice2,word_square,DISHONEST,prac_response,0,Bottom,none,true,,,,,,,
html-keyboard-response,99,295946,null,"<div style=""font-size:42px;"">DISHONEST</div>",null,,word,DISHONEST,,,,,,,,,,,,
html-keyboard-response,100,297449,null,"",null,,word,DISHONEST,,,,,,,,,,,,
html-keyboard-response,101,297654,null,"<div style=""font-size:42px;"">WEALTHY</div><img id = ""stim"" ><div class = green_square id = ""topsquare"" ></div>",null,practice2,word_square,,prac_response,1,Top,32,true,,,,,,,
html-keyboard-response,102,297960,130.69999998807907,"<div style=""font-size:42px;"">WEALTHY</div>",32,,word,WEALTHY,,,,,,,,,,,,
html-keyboard-response,103,299463,null,"",null,,word,WEALTHY,,,,,,,,,,,,
html-keyboard-response,104,299667,null,"<div style=""font-size:42px;"">BEAUTIFUL</div><img id = ""stim"" ><div class = red_square id = ""topsquare"" ></div>",null,practice2,word_square,,prac_response,0,Top,none,false,,,,,,,
html-keyboard-response,105,299971,null,"<div style=""font-size:42px;"">BEAUTIFUL</div>",null,,word,BEAUTIFUL,,,,,,,,,,,,
html-keyboard-response,106,301474,null,"",null,,word,BEAUTIFUL,,,,,,,,,,,,
html-keyboard-response,107,305315,3836.099999964237,"<p> Good job! You responded correctly to 94% of the trials. </p>
                    <p>Be sure to only press the spacebar if you see a GREEN square, and please keep your accuracy above 80%.</p>
                    <p>Press any key to begin the math and recall sections. Thank you! </p>",32,,,,,,,,,,,,,,,
call-function,108,305317,,"",,,,,,,,,,,,,,,,
html-keyboard-response,109,305419,null,"",null,,,,,,,,,,,,,,,
math-period,110,311706,11546.300000011921,"",,,,,,,,,,,1numpad,,,,,
html-keyboard-response,111,311809,null,"",null,,,,,,,,,,,,,,,
math-period,112,316084,7599,"",,,,,,,,,,,5,,,,,
html-keyboard-response,113,316186,null,"",null,,,,,,,,,,,,,,,
math-period,114,317790,2832.699999988079,"",,,,,,,,,,,3,,,,,
html-keyboard-response,115,317892,null,"",null,,,,,,,,,,,,,,,
math-period,116,319548,2929.900000035763,"",,,,,,,,,,,3,,,,,
html-keyboard-response,117,319650,null,"",null,,,,,,,,,,,,,,,
math-period,118,322666,5641.699999988079,"",,,,,,,,,,,1,,,,,
html-keyboard-response,119,322769,null,"",null,,,,,,,,,,,,,,,
math-period,120,324728,3724.699999988079,"",,,,,,,,,,,4,,,,,
html-keyboard-response,121,324831,null,"",null,,,,,,,,,,,,,,,
math-period,122,326848,3807.1999999284744,"",,,,,,,,,,,2,,,,,
html-keyboard-response,123,326951,null,"",null,,,,,,,,,,,,,,,
math-period,124,328429,2771.2999999523163,"",,,,,,,,,,,3,,,,,
html-keyboard-response,125,328531,null,"",null,,,,,,,,,,,,,,,
math-period,126,329323,null,"",,,,,,,,,,,,,,,,
html-keyboard-response,127,330329,null,"Recall Period!",null,,,,,,,,,,,,,,,
call-function,128,330331,,"",,,,,,,,,,,,,,,,
html-keyboard-response,129,330434,null,"",null,,,,,,,,,,,,,,,
recall-period,130,339223,74125.10000014305,"",,,,,,,,,,,wealthy,,,,,
html-keyboard-response,131,339325,null,"",null,,,,,,,,,,,,,,,
recall-period,132,341431,8753.800000011921,"",,,,,,,,,,,gift,,,,,
html-keyboard-response,133,341534,null,"",null,,,,,,,,,,,,,,,
recall-period,134,342458,922.5,"",,,,,,,,,,,,,,,,
html-keyboard-response,135,342562,null,"",null,,,,,,,,,,,,,,,
recall-period,136,343334,768,"",,,,,,,,,,,,,,,,
html-keyboard-response,137,343436,null,"",null,,,,,,,,,,,,,,,
recall-period,138,343475,35,"",,,,,,,,,,,,,,,,
html-keyboard-response,139,343577,null,"",null,,,,,,,,,,,,,,,
recall-period,140,343714,134.19999998807907,"",,,,,,,,,,,,,,,,
html-keyboard-response,141,343815,null,"",null,,,,,,,,,,,,,,,
recall-period,142,357961,221128.19999998808,"",,,,,,,,,,,guilt,,,,,
html-keyboard-response,143,358063,null,"",null,,,,,,,,,,,,,,,
recall-period,144,405338,null,"",,,,,,,,,,,,,,,,
html-keyboard-response,145,405842,null,"Time's Up!",null,,,,,,,,,,,,,,,
html-keyboard-response,146,410257,4412.200000047684,"<p>We will now begin the experiment!<p><p>Please try to remember all words from each list.<p><p>Press the spacebar whenever you see a GREEN square.<p><p><p><p>Press the spacebar to begin.</p>",32,,,,,,,,,,,,,,,
html-keyboard-response,147,412446,1685.6000000238419,"<div style=""font-size:48px;"">Press any key to begin list 1 of 16 </div>",32,,,,,,,,,,,,,,,
html-keyboard-response,148,414952,null,"<div style=""font-size:60px;"">+</div>",null,,,,,,,,,,,,,,,
html-keyboard-response,149,415157,null,"<div style=""font-size:42px;"">MUSHROOM</div><img id = ""stim"" ><div class = green_square id = topsquare></div>",null,encoding,word_square,,,1,topsquare,32,true,,,MUSHROOM,0,,,
html-keyboard-response,150,415462,284.5999999642372,"<div style=""font-size:42px;"">MUSHROOM</div>",32,,word,MUSHROOM,,,,,,,,,,,,
html-keyboard-response,151,416967,null,"",null,,word,MUSHROOM,,,,,,,,,,,,
html-keyboard-response,152,417172,null,"<div style=""font-size:42px;"">BEAKER</div><img id = ""stim"" ><div class = red_square id = bottomsquare></div>",null,encoding,word_square,,,0,bottomsquare,none,true,,,BEAKER,0,,,
html-keyboard-response,153,417477,null,"<div style=""font-size:42px;"">BEAKER</div>",null,,word,BEAKER,,,,,,,,,,,,
html-keyboard-response,154,418981,null,"",null,,word,BEAKER,,,,,,,,,,,,
html-keyboard-response,155,419185,null,"<div style=""font-size:42px;"">COBWEB</div><img id = ""stim"" ><div class = red_square id = topsquare></div>",null,encoding,word_square,,,0,topsquare,none,true,,,COBWEB,0,,,
html-keyboard-response,156,419488,null,"<div style=""font-size:42px;"">COBWEB</div>",null,,word,COBWEB,,,,,,,,,,,,
html-keyboard-response,157,420994,null,"",null,,word,COBWEB,,,,,,,,,,,,
html-keyboard-response,158,421198,null,"<div style=""font-size:42px;"">CREATURE</div><img id = ""stim"" ><div class = green_square id = bottomsquare></div>",null,encoding,word_square,,,1,bottomsquare,32,true,,,CREATURE,0,,,
html-keyboard-response,159,421502,212.5999999642372,"<div style=""font-size:42px;"">CREATURE</div>",32,,word,CREATURE,,,,,,,,,,,,
html-keyboard-response,160,423005,null,"",null,,word,CREATURE,,,,,,,,,,,,
html-keyboard-response,161,423210,null,"<div style=""font-size:42px;"">MARINE</div><img id = ""stim"" ><div class = green_square id = topsquare></div>",null,encoding,word_square,,,1,topsquare,32,true,,,MARINE,0,,,
html-keyboard-response,162,423513,219.5999999642372,"<div style=""font-size:42px;"">MARINE</div>",32,,word,MARINE,,,,,,,,,,,,
html-keyboard-response,163,425015,null,"",null,,word,MARINE,,,,,,,,,,,,
html-keyboard-response,164,425218,null,"<div style=""font-size:42px;"">RAFT</div><img id = ""stim"" ><div class = red_square id = bottomsquare></div>",null,encoding,word_square,,,0,bottomsquare,none,false,,,RAFT,0,,,
html-keyboard-response,165,425527,null,"<div style=""font-size:42px;"">RAFT</div>",null,,word,RAFT,,,,,,,,,,,,
html-keyboard-response,166,427029,261.5,"",32,,word,RAFT,,,,,,,,,,,,
html-keyboard-response,167,427232,null,"<div style=""font-size:42px;"">SOFTBALL</div><img id = ""stim"" ><div class = red_square id = topsquare></div>",null,encoding,word_square,,,0,topsquare,none,true,,,SOFTBALL,0,,,
html-keyboard-response,168,427535,null,"<div style=""font-size:42px;"">SOFTBALL</div>",null,,word,SOFTBALL,,,,,,,,,,,,
html-keyboard-response,169,429038,null,"",null,,word,SOFTBALL,,,,,,,,,,,,
html-keyboard-response,170,429240,null,"<div style=""font-size:42px;"">CRICKET</div><img id = ""stim"" ><div class = green_square id = bottomsquare></div>",null,encoding,word_square,,,1,bottomsquare,32,true,,,CRICKET,0,,,
html-keyboard-response,171,429544,null,"<div style=""font-size:42px;"">CRICKET</div>",null,,word,CRICKET,,,,,,,,,,,,
html-keyboard-response,172,431048,654.7000000476837,"",32,,word,CRICKET,,,,,,,,,,,,
html-keyboard-response,173,431251,null,"<div style=""font-size:42px;"">LOVER</div><img id = ""stim"" ><div class = red_square id = bottomsquare></div>",null,encoding,word_square,,,0,bottomsquare,none,true,,,LOVER,0,,,
html-keyboard-response,174,431557,null,"<div style=""font-size:42px;"">LOVER</div>",null,,word,LOVER,,,,,,,,,,,,
html-keyboard-response,175,433060,null,"",null,,word,LOVER,,,,,,,,,,,,
html-keyboard-response,176,433264,null,"<div style=""font-size:42px;"">NIGHTGOWN</div><img id = ""stim"" ><div class = red_square id = topsquare></div>",null,encoding,word_square,,,0,topsquare,none,false,,,NIGHTGOWN,0,,,
html-keyboard-response,177,433570,null,"<div style=""font-size:42px;"">NIGHTGOWN</div>",null,,word,NIGHTGOWN,,,,,,,,,,,,
html-keyboard-response,178,435073,269.5,"",32,,word,NIGHTGOWN,,,,,,,,,,,,
html-keyboard-response,179,435276,null,"<div style=""font-size:42px;"">LION</div><img id = ""stim"" ><div class = green_square id = topsquare></div>",null,encoding,word_square,,,1,topsquare,32,true,,,LION,0,,,
html-keyboard-response,180,435580,288.89999997615814,"<div style=""font-size:42px;"">LION</div>",32,,word,LION,,,,,,,,,,,,
html-keyboard-response,181,437085,null,"",null,,word,LION,,,,,,,,,,,,
html-keyboard-response,182,437291,null,"<div style=""font-size:42px;"">LAVA</div><img id = ""stim"" ><div class = red_square id = bottomsquare></div>",null,encoding,word_square,,,0,bottomsquare,none,false,,,LAVA,0,,,
html-keyboard-response,183,437595,null,"<div style=""font-size:42px;"">LAVA</div>",null,,word,LAVA,,,,,,,,,,,,
html-keyboard-response,184,439099,1235.300000011921,"",32,,word,LAVA,,,,,,,,,,,,
html-keyboard-response,185,439304,null,"<div style=""font-size:42px;"">BLOSSOM</div><img id = ""stim"" ><div class = green_square id = bottomsquare></div>",null,encoding,word_square,,,1,bottomsquare,32,true,,,BLOSSOM,0,,,
html-keyboard-response,186,439608,184,"<div style=""font-size:42px;"">BLOSSOM</div>",32,,word,BLOSSOM,,,,,,,,,,,,
html-keyboard-response,187,441112,null,"",null,,word,BLOSSOM,,,,,,,,,,,,
html-keyboard-response,188,441317,null,"<div style=""font-size:42px;"">SHACK</div><img id = ""stim"" ><div class = green_square id = topsquare></div>",null,encoding,word_square,,,1,topsquare,32,true,,,SHACK,0,,,
html-keyboard-response,189,441622,null,"<div style=""font-size:42px;"">SHACK</div>",null,,word,SHACK,,,,,,,,,,,,
html-keyboard-response,190,443125,56.09999996423721,"",32,,word,SHACK,,,,,,,,,,,,
html-keyboard-response,191,443328,null,"<div style=""font-size:42px;"">LAKE</div><img id = ""stim"" ><div class = green_square id = bottomsquare></div>",null,encoding,word_square,,,1,bottomsquare,32,true,,,LAKE,0,,,
html-keyboard-response,192,443631,null,"<div style=""font-size:42px;"">LAKE</div>",null,,word,LAKE,,,,,,,,,,,,
html-keyboard-response,193,445136,36.39999997615814,"",32,,word,LAKE,,,,,,,,,,,,
html-keyboard-response,194,445341,null,"<div style=""font-size:42px;"">BASEBALL</div><img id = ""stim"" ><div class = red_square id = topsquare></div>",null,encoding,word_square,,,0,topsquare,none,true,,,BASEBALL,0,,,
html-keyboard-response,195,445645,null,"<div style=""font-size:42px;"">BASEBALL</div>",null,,word,BASEBALL,,,,,,,,,,,,
html-keyboard-response,196,447149,null,"",null,,word,BASEBALL,,,,,,,,,,,,
call-function,197,447151,,"",,,,,,,,,,,,,,,,
html-keyboard-response,198,447254,null,"",null,,,,,,,,,,,,,,,
math-period,199,449581,4194.200000047684,"",,,,,,,,,,,2,,,,,
html-keyboard-response,200,449684,null,"",null,,,,,,,,,,,,,,,
math-period,201,451341,3087.800000011921,"",,,,,,,,,,,5,,,,,
html-keyboard-response,202,451444,null,"",null,,,,,,,,,,,,,,,
math-period,203,453552,3849.699999988079,"",,,,,,,,,,,1,,,,,
html-keyboard-response,204,453655,null,"",null,,,,,,,,,,,,,,,
math-period,205,456057,4424.999999940395,"",,,,,,,,,,,4,,,,,
html-keyboard-response,206,456160,null,"",null,,,,,,,,,,,,,,,
math-period,207,459229,5722,"",,,,,,,,,,,1,,,,,
html-keyboard-response,208,459333,null,"",null,,,,,,,,,,,,,,,
math-period,209,460976,3042.600000023842,"",,,,,,,,,,,4,,,,,
html-keyboard-response,210,461079,null,"",null,,,,,,,,,,,,,,,
math-period,211,462571,2805.899999976158,"",,,,,,,,,,,3,,,,,
html-keyboard-response,212,462674,null,"",null,,,,,,,,,,,,,,,
math-period,213,464306,2996.199999988079,"",,,,,,,,,,,5,,,,,
html-keyboard-response,214,464409,null,"",null,,,,,,,,,,,,,,,
math-period,215,466633,4189.299999952316,"",,,,,,,,,,,0,,,,,
html-keyboard-response,216,466736,null,"",null,,,,,,,,,,,,,,,
math-period,217,468288,2899.800000011921,"",,,,,,,,,,,4,,,,,
html-keyboard-response,218,468391,null,"",null,,,,,,,,,,,,,,,
math-period,219,469764,2506.199999988079,"",,,,,,,,,,,5,,,,,
html-keyboard-response,220,469866,null,"",null,,,,,,,,,,,,,,,
math-period,221,471156,null,"",,,,,,,,,,,,,,,,
html-keyboard-response,222,472162,null,"Recall Period!",null,,,,,,,,,,,,,,,
call-function,223,472165,,"",,,,,,,,,,,,,,,,
html-keyboard-response,224,472269,null,"",null,,,,,,,,,,,,,,,
recall-period,225,475021,17529.19999998808,"",,,,,,,,,,,blossom,,,,,
html-keyboard-response,226,475124,null,"",null,,,,,,,,,,,,,,,
recall-period,227,477388,11515.800000071526,"",,,,,,,,,,,flower,,,,,
html-keyboard-response,228,477489,null,"",null,,,,,,,,,,,,,,,
recall-period,229,480966,31303.300000429153,"",,,,,,,,,,,wisdom,,,,,
html-keyboard-response,230,481068,null,"",null,,,,,,,,,,,,,,,
recall-period,231,482756,9555.000000178814,"",,,,,,,,,,,flower,,,,,
html-keyboard-response,232,482860,null,"",null,,,,,,,,,,,,,,,
recall-period,233,485181,14191.700000047684,"",,,,,,,,,,,healthy,,,,,
html-keyboard-response,234,485283,null,"",null,,,,,,,,,,,,,,,
recall-period,235,487685,14394.800000190735,"",,,,,,,,,,,mushroom,,,,,
html-keyboard-response,236,487787,null,"",null,,,,,,,,,,,,,,,
recall-period,237,547170,null,"",,,,,,,,,,,,,,,,
html-keyboard-response,238,547675,null,"Time's Up!",null,,,,,,,,,,,,,,,
html-keyboard-response,239,553884,6204.399999976158,"<p> Good job! You have responded correctly to 81% of the trials. </p>
                      <p>Be sure to only press the spacebar if you see a GREEN square, and please keep your accuracy above 80%.</p>
                      <p> Press any key to continue the experiment. </p>",32,,,,,,,,,,,,,,,
html-keyboard-response,240,558158,4269.199999988079,"<div style=""font-size:48px;"">Press any key to begin list 2 of 16 </div>",32,,,,,,,,,,,,,,,
html-keyboard-response,241,560663,null,"<div style=""font-size:60px;"">+</div>",null,,,,,,,,,,,,,,,
html-keyboard-response,242,560868,null,"<div style=""font-size:42px;"">HORSE</div><img id = ""stim"" ><div class = red_square id = topsquare></div>",null,encoding,word_square,,,0,topsquare,none,true,,,HORSE,1,,,
html-keyboard-response,243,561173,null,"<div style=""font-size:42px;"">HORSE</div>",null,,word,HORSE,,,,,,,,,,,,
html-keyboard-response,244,562677,null,"",null,,word,HORSE,,,,,,,,,,,,
html-keyboard-response,245,562882,null,"<div style=""font-size:42px;"">FIELD</div><img id = ""stim"" ><div class = green_square id = bottomsquare></div>",null,encoding,word_square,,,1,bottomsquare,32,true,,,FIELD,1,,,
html-keyboard-response,246,563186,244.30000001192093,"<div style=""font-size:42px;"">FIELD</div>",32,,word,FIELD,,,,,,,,,,,,
html-keyboard-response,247,564690,null,"",null,,word,FIELD,,,,,,,,,,,,
html-keyboard-response,248,564895,null,"<div style=""font-size:42px;"">BARLEY</div><img id = ""stim"" ><div class = green_square id = topsquare></div>",null,encoding,word_square,,,1,topsquare,32,true,,,BARLEY,1,,,
html-keyboard-response,249,565200,239.69999998807907,"<div style=""font-size:42px;"">BARLEY</div>",32,,word,BARLEY,,,,,,,,,,,,
html-keyboard-response,250,566704,null,"",null,,word,BARLEY,,,,,,,,,,,,
html-keyboard-response,251,566907,null,"<div style=""font-size:42px;"">HELMET</div><img id = ""stim"" ><div class = green_square id = bottomsquare></div>",null,encoding,word_square,,,1,bottomsquare,32,true,,,HELMET,1,,,
html-keyboard-response,252,567210,213.89999997615814,"<div style=""font-size:42px;"">HELMET</div>",32,,word,HELMET,,,,,,,,,,,,
html-keyboard-response,253,568715,null,"",null,,word,HELMET,,,,,,,,,,,,
html-keyboard-response,254,568919,null,"<div style=""font-size:42px;"">PEDAL</div><img id = ""stim"" ><div class = red_square id = bottomsquare></div>",null,encoding,word_square,,,0,bottomsquare,none,true,,,PEDAL,1,,,
html-keyboard-response,255,569227,null,"<div style=""font-size:42px;"">PEDAL</div>",null,,word,PEDAL,,,,,,,,,,,,
html-keyboard-response,256,570731,null,"",null,,word,PEDAL,,,,,,,,,,,,
html-keyboard-response,257,570937,null,"<div style=""font-size:42px;"">ROBIN</div><img id = ""stim"" ><div class = green_square id = topsquare></div>",null,encoding,word_square,,,1,topsquare,32,true,,,ROBIN,1,,,
html-keyboard-response,258,571242,183.19999998807907,"<div style=""font-size:42px;"">ROBIN</div>",32,,word,ROBIN,,,,,,,,,,,,
html-keyboard-response,259,572746,null,"",null,,word,ROBIN,,,,,,,,,,,,
html-keyboard-response,260,572951,null,"<div style=""font-size:42px;"">POND</div><img id = ""stim"" ><div class = red_square id = topsquare></div>",null,encoding,word_square,,,0,topsquare,none,true,,,POND,1,,,
html-keyboard-response,261,573255,null,"<div style=""font-size:42px;"">POND</div>",null,,word,POND,,,,,,,,,,,,
html-keyboard-response,262,574759,null,"",null,,word,POND,,,,,,,,,,,,
html-keyboard-response,263,574963,null,"<div style=""font-size:42px;"">BRANDY</div><img id = ""stim"" ><div class = red_square id = bottomsquare></div>",null,encoding,word_square,,,0,bottomsquare,none,true,,,BRANDY,1,,,
html-keyboard-response,264,575269,null,"<div style=""font-size:42px;"">BRANDY</div>",null,,word,BRANDY,,,,,,,,,,,,
html-keyboard-response,265,576773,null,"",null,,word,BRANDY,,,,,,,,,,,,
html-keyboard-response,266,576977,null,"<div style=""font-size:42px;"">STREAM</div><img id = ""stim"" ><div class = green_square id = bottomsquare></div>",null,encoding,word_square,,,1,bottomsquare,32,true,,,STREAM,1,,,
html-keyboard-response,267,577281,242.4000000357628,"<div style=""font-size:42px;"">STREAM</div>",32,,word,STREAM,,,,,,,,,,,,
html-keyboard-response,268,578787,null,"",null,,word,STREAM,,,,,,,,,,,,
html-keyboard-response,269,578991,null,"<div style=""font-size:42px;"">KNAPSACK</div><img id = ""stim"" ><div class = red_square id = topsquare></div>",null,encoding,word_square,,,0,topsquare,none,true,,,KNAPSACK,1,,,
html-keyboard-response,270,579295,null,"<div style=""font-size:42px;"">KNAPSACK</div>",null,,word,KNAPSACK,,,,,,,,,,,,
html-keyboard-response,271,580799,null,"",null,,word,KNAPSACK,,,,,,,,,,,,
html-keyboard-response,272,581004,null,"<div style=""font-size:42px;"">FRECKLE</div><img id = ""stim"" ><div class = red_square id = bottomsquare></div>",null,encoding,word_square,,,0,bottomsquare,none,true,,,FRECKLE,1,,,
html-keyboard-response,273,581308,null,"<div style=""font-size:42px;"">FRECKLE</div>",null,,word,FRECKLE,,,,,,,,,,,,
html-keyboard-response,274,582814,null,"",null,,word,FRECKLE,,,,,,,,,,,,
html-keyboard-response,275,583019,null,"<div style=""font-size:42px;"">PEOPLE</div><img id = ""stim"" ><div class = green_square id = topsquare></div>",null,encoding,word_square,,,1,topsquare,32,true,,,PEOPLE,1,,,
html-keyboard-response,276,583324,207.9000000357628,"<div style=""font-size:42px;"">PEOPLE</div>",32,,word,PEOPLE,,,,,,,,,,,,
html-keyboard-response,277,584829,null,"",null,,word,PEOPLE,,,,,,,,,,,,
html-keyboard-response,278,585033,null,"<div style=""font-size:42px;"">POLICE</div><img id = ""stim"" ><div class = green_square id = bottomsquare></div>",null,encoding,word_square,,,1,bottomsquare,32,true,,,POLICE,1,,,
html-keyboard-response,279,585337,235.30000001192093,"<div style=""font-size:42px;"">POLICE</div>",32,,word,POLICE,,,,,,,,,,,,
html-keyboard-response,280,586840,null,"",null,,word,POLICE,,,,,,,,,,,,
html-keyboard-response,281,587046,null,"<div style=""font-size:42px;"">SUSPECT</div><img id = ""stim"" ><div class = red_square id = topsquare></div>",null,encoding,word_square,,,0,topsquare,none,true,,,SUSPECT,1,,,
html-keyboard-response,282,587350,null,"<div style=""font-size:42px;"">SUSPECT</div>",null,,word,SUSPECT,,,,,,,,,,,,
html-keyboard-response,283,588854,null,"",null,,word,SUSPECT,,,,,,,,,,,,
html-keyboard-response,284,589057,null,"<div style=""font-size:42px;"">DIVER</div><img id = ""stim"" ><div class = red_square id = bottomsquare></div>",null,encoding,word_square,,,0,bottomsquare,none,true,,,DIVER,1,,,
html-keyboard-response,285,589361,null,"<div style=""font-size:42px;"">DIVER</div>",null,,word,DIVER,,,,,,,,,,,,
html-keyboard-response,286,590866,null,"",null,,word,DIVER,,,,,,,,,,,,
html-keyboard-response,287,591070,null,"<div style=""font-size:42px;"">LOBBY</div><img id = ""stim"" ><div class = green_square id = topsquare></div>",null,encoding,word_square,,,1,topsquare,32,true,,,LOBBY,1,,,
html-keyboard-response,288,591373,189,"<div style=""font-size:42px;"">LOBBY</div>",32,,word,LOBBY,,,,,,,,,,,,
html-keyboard-response,289,592878,null,"",null,,word,LOBBY,,,,,,,,,,,,
call-function,290,592880,,"",,,,,,,,,,,,,,,,
html-keyboard-response,291,592984,null,"",null,,,,,,,,,,,,,,,
math-period,292,594994,3800.899999976158,"",,,,,,,,,,,3,,,,,
html-keyboard-response,293,595098,null,"",null,,,,,,,,,,,,,,,
math-period,294,598567,6703.899999976158,"",,,,,,,,,,,2,,,,,
html-keyboard-response,295,598670,null,"",null,,,,,,,,,,,,,,,
math-period,296,602074,6662.399999976158,"",,,,,,,,,,,4,,,,,
html-keyboard-response,297,602177,null,"",null,,,,,,,,,,,,,,,
math-period,298,605558,6428.199999928474,"",,,,,,,,,,,2,,,,,
html-keyboard-response,299,605661,null,"",null,,,,,,,,,,,,,,,
math-period,300,608377,4433.499999940395,"",,,,,,,,,,,2,,,,,
html-keyboard-response,301,608481,null,"",null,,,,,,,,,,,,,,,
math-period,302,610713,4286.400000035763,"",,,,,,,,,,,3,,,,,
html-keyboard-response,303,610817,null,"",null,,,,,,,,,,,,,,,
math-period,304,612152,2491.900000035763,"",,,,,,,,,,,3,,,,,
html-keyboard-response,305,612255,null,"",null,,,,,,,,,,,,,,,
math-period,306,613767,2820.5,"",,,,,,,,,,,4,,,,,
html-keyboard-response,307,613871,null,"",null,,,,,,,,,,,,,,,
math-period,308,616884,null,"",,,,,,,,,,,,,,,,
html-keyboard-response,309,617888,null,"Recall Period!",null,,,,,,,,,,,,,,,
call-function,310,617890,,"",,,,,,,,,,,,,,,,
html-keyboard-response,311,617993,null,"",null,,,,,,,,,,,,,,,
recall-period,312,618927,3873.9999998807907,"",,,,,,,,,,,field,,,,,
html-keyboard-response,313,619030,null,"",null,,,,,,,,,,,,,,,
recall-period,314,619988,3687.300000011921,"",,,,,,,,,,,barley,,,,,
html-keyboard-response,315,620091,null,"",null,,,,,,,,,,,,,,,
recall-period,316,621030,2752.5999999046326,"",,,,,,,,,,,horse,,,,,
html-keyboard-response,317,621134,null,"",null,,,,,,,,,,,,,,,
recall-period,318,626139,32575.500000178814,"",,,,,,,,,,,meadow,,,,,
html-keyboard-response,319,626241,null,"",null,,,,,,,,,,,,,,,
recall-period,320,692893,null,"",,,,,,,,,,,,,,,,
html-keyboard-response,321,693398,null,"Time's Up!",null,,,,,,,,,,,,,,,
html-keyboard-response,322,695418,2016.0999999642372,"<p> Good job! You have responded correctly to 91% of the trials. </p>
                      <p>Be sure to only press the spacebar if you see a GREEN square, and please keep your accuracy above 80%.</p>
                      <p> Press any key to continue the experiment. </p>",32,,,,,,,,,,,,,,,
html-keyboard-response,323,696529,1107.699999988079,"<div style=""font-size:48px;"">Press any key to begin list 3 of 16 </div>",32,,,,,,,,,,,,,,,
html-keyboard-response,324,699033,null,"<div style=""font-size:60px;"">+</div>",null,,,,,,,,,,,,,,,
html-keyboard-response,325,699237,null,"<div style=""font-size:42px;"">DOCK</div><img id = ""stim"" ><div class = red_square id = bottomsquare></div>",null,encoding,word_square,,,0,bottomsquare,none,true,,,DOCK,2,,,
html-keyboard-response,326,699541,null,"<div style=""font-size:42px;"">DOCK</div>",null,,word,DOCK,,,,,,,,,,,,
html-keyboard-response,327,701047,null,"",null,,word,DOCK,,,,,,,,,,,,
html-keyboard-response,328,701253,null,"<div style=""font-size:42px;"">CITRUS</div><img id = ""stim"" ><div class = green_square id = topsquare></div>",null,encoding,word_square,,,1,topsquare,32,true,,,CITRUS,2,,,
html-keyboard-response,329,701558,null,"<div style=""font-size:42px;"">CITRUS</div>",null,,word,CITRUS,,,,,,,,,,,,
html-keyboard-response,330,703063,6.300000011920929,"",32,,word,CITRUS,,,,,,,,,,,,
html-keyboard-response,331,703270,null,"<div style=""font-size:42px;"">NURSE</div><img id = ""stim"" ><div class = green_square id = bottomsquare></div>",null,encoding,word_square,,,1,bottomsquare,32,true,,,NURSE,2,,,
html-keyboard-response,332,703573,207.39999997615814,"<div style=""font-size:42px;"">NURSE</div>",32,,word,NURSE,,,,,,,,,,,,
html-keyboard-response,333,705077,null,"",null,,word,NURSE,,,,,,,,,,,,
html-keyboard-response,334,705281,null,"<div style=""font-size:42px;"">CONVICT</div><img id = ""stim"" ><div class = red_square id = topsquare></div>",null,encoding,word_square,,,0,topsquare,none,true,,,CONVICT,2,,,
html-keyboard-response,335,705585,null,"<div style=""font-size:42px;"">CONVICT</div>",null,,word,CONVICT,,,,,,,,,,,,
html-keyboard-response,336,707089,null,"",null,,word,CONVICT,,,,,,,,,,,,
html-keyboard-response,337,707292,null,"<div style=""font-size:42px;"">CRAB</div><img id = ""stim"" ><div class = red_square id = bottomsquare></div>",null,encoding,word_square,,,0,bottomsquare,none,true,,,CRAB,2,,,
html-keyboard-response,338,707596,null,"<div style=""font-size:42px;"">CRAB</div>",null,,word,CRAB,,,,,,,,,,,,
html-keyboard-response,339,709100,null,"",null,,word,CRAB,,,,,,,,,,,,
html-keyboard-response,340,709303,null,"<div style=""font-size:42px;"">SCAPEGOAT</div><img id = ""stim"" ><div class = green_square id = topsquare></div>",null,encoding,word_square,,,1,topsquare,32,true,,,SCAPEGOAT,2,,,
html-keyboard-response,341,709606,222.9000000357628,"<div style=""font-size:42px;"">SCAPEGOAT</div>",32,,word,SCAPEGOAT,,,,,,,,,,,,
html-keyboard-response,342,711109,null,"",null,,word,SCAPEGOAT,,,,,,,,,,,,
html-keyboard-response,343,711312,null,"<div style=""font-size:42px;"">OZONE</div><img id = ""stim"" ><div class = green_square id = bottomsquare></div>",null,encoding,word_square,,,1,bottomsquare,32,true,,,OZONE,2,,,
html-keyboard-response,344,711616,235.70000004768372,"<div style=""font-size:42px;"">OZONE</div>",32,,word,OZONE,,,,,,,,,,,,
html-keyboard-response,345,713121,null,"",null,,word,OZONE,,,,,,,,,,,,
html-keyboard-response,346,713329,null,"<div style=""font-size:42px;"">PLUM</div><img id = ""stim"" ><div class = red_square id = topsquare></div>",null,encoding,word_square,,,0,topsquare,none,true,,,PLUM,2,,,
html-keyboard-response,347,713633,176.9000000357628,"<div style=""font-size:42px;"">PLUM</div>",32,,word,PLUM,,,,,,,,,,,,
html-keyboard-response,348,715136,null,"",null,,word,PLUM,,,,,,,,,,,,
html-keyboard-response,349,715339,null,"<div style=""font-size:42px;"">SIDEWALK</div><img id = ""stim"" ><div class = green_square id = topsquare></div>",null,encoding,word_square,,,1,topsquare,32,true,,,SIDEWALK,2,,,
html-keyboard-response,350,715643,263.69999998807907,"<div style=""font-size:42px;"">SIDEWALK</div>",32,,word,SIDEWALK,,,,,,,,,,,,
html-keyboard-response,351,717147,null,"",null,,word,SIDEWALK,,,,,,,,,,,,
html-keyboard-response,352,717351,null,"<div style=""font-size:42px;"">TRIBE</div><img id = ""stim"" ><div class = green_square id = bottomsquare></div>",null,encoding,word_square,,,1,bottomsquare,32,true,,,TRIBE,2,,,
html-keyboard-response,353,717655,null,"<div style=""font-size:42px;"">TRIBE</div>",null,,word,TRIBE,,,,,,,,,,,,
html-keyboard-response,354,719160,21.69999998807907,"",32,,word,TRIBE,,,,,,,,,,,,
html-keyboard-response,355,719364,null,"<div style=""font-size:42px;"">COWBOY</div><img id = ""stim"" ><div class = red_square id = bottomsquare></div>",null,encoding,word_square,,,0,bottomsquare,none,true,,,COWBOY,2,,,
html-keyboard-response,356,719668,null,"<div style=""font-size:42px;"">COWBOY</div>",null,,word,COWBOY,,,,,,,,,,,,
html-keyboard-response,357,721174,null,"",null,,word,COWBOY,,,,,,,,,,,,
html-keyboard-response,358,721378,null,"<div style=""font-size:42px;"">EUROPE</div><img id = ""stim"" ><div class = green_square id = topsquare></div>",null,encoding,word_square,,,1,topsquare,32,true,,,EUROPE,2,,,
html-keyboard-response,359,721683,180.80000001192093,"<div style=""font-size:42px;"">EUROPE</div>",32,,word,EUROPE,,,,,,,,,,,,
html-keyboard-response,360,723187,null,"",null,,word,EUROPE,,,,,,,,,,,,
html-keyboard-response,361,723391,null,"<div style=""font-size:42px;"">SALAD</div><img id = ""stim"" ><div class = red_square id = topsquare></div>",null,encoding,word_square,,,0,topsquare,none,false,,,SALAD,2,,,
html-keyboard-response,362,723695,null,"<div style=""font-size:42px;"">SALAD</div>",null,,word,SALAD,,,,,,,,,,,,
html-keyboard-response,363,725199,1083.8999999761581,"",32,,word,SALAD,,,,,,,,,,,,
html-keyboard-response,364,725405,null,"<div style=""font-size:42px;"">STALLION</div><img id = ""stim"" ><div class = red_square id = bottomsquare></div>",null,encoding,word_square,,,0,bottomsquare,none,true,,,STALLION,2,,,
html-keyboard-response,365,725708,null,"<div style=""font-size:42px;"">STALLION</div>",null,,word,STALLION,,,,,,,,,,,,
html-keyboard-response,366,727212,null,"",null,,word,STALLION,,,,,,,,,,,,
html-keyboard-response,367,727416,null,"<div style=""font-size:42px;"">SADDLE</div><img id = ""stim"" ><div class = red_square id = topsquare></div>",null,encoding,word_square,,,0,topsquare,none,true,,,SADDLE,2,,,
html-keyboard-response,368,727719,null,"<div style=""font-size:42px;"">SADDLE</div>",null,,word,SADDLE,,,,,,,,,,,,
html-keyboard-response,369,729223,null,"",null,,word,SADDLE,,,,,,,,,,,,
html-keyboard-response,370,729427,null,"<div style=""font-size:42px;"">ZEBRA</div><img id = ""stim"" ><div class = green_square id = bottomsquare></div>",null,encoding,word_square,,,1,bottomsquare,32,true,,,ZEBRA,2,,,
html-keyboard-response,371,729730,203.19999998807907,"<div style=""font-size:42px;"">ZEBRA</div>",32,,word,ZEBRA,,,,,,,,,,,,
html-keyboard-response,372,731235,null,"",null,,word,ZEBRA,,,,,,,,,,,,
call-function,373,731237,,"",,,,,,,,,,,,,,,,
html-keyboard-response,374,731341,null,"",null,,,,,,,,,,,,,,,
math-period,375,734633,4920.600000023842,"",,,,,,,,,,,4,,,,,
html-keyboard-response,376,734734,null,"",null,,,,,,,,,,,,,,,
math-period,377,736265,2685.099999964237,"",,,,,,,,,,,5,,,,,
html-keyboard-response,378,736368,null,"",null,,,,,,,,,,,,,,,
math-period,379,737866,2839.600000023842,"",,,,,,,,,,,4,,,,,
html-keyboard-response,380,737969,null,"",null,,,,,,,,,,,,,,,
math-period,381,741141,5979.800000011921,"",,,,,,,,,,,2,,,,,
html-keyboard-response,382,741244,null,"",null,,,,,,,,,,,,,,,
math-period,383,744304,5863.699999988079,"",,,,,,,,,,,1,,,,,
html-keyboard-response,384,744406,null,"",null,,,,,,,,,,,,,,,
math-period,385,745566,2148.2000000476837,"",,,,,,,,,,,2,,,,,
html-keyboard-response,386,745669,null,"",null,,,,,,,,,,,,,,,
math-period,387,746973,2496.7999999523163,"",,,,,,,,,,,4,,,,,
html-keyboard-response,388,747076,null,"",null,,,,,,,,,,,,,,,
math-period,389,748965,3476.5000000596046,"",,,,,,,,,,,2,,,,,
html-keyboard-response,390,749067,null,"",null,,,,,,,,,,,,,,,
math-period,391,751892,5262.799999952316,"",,,,,,,,,,,1,,,,,
html-keyboard-response,392,751995,null,"",null,,,,,,,,,,,,,,,
math-period,393,755240,7780.700000107288,"",,,,,,,,,,,1,,,,,
html-keyboard-response,394,756247,null,"Recall Period!",null,,,,,,,,,,,,,,,
call-function,395,756248,,"",,,,,,,,,,,,,,,,
html-keyboard-response,396,756351,null,"",null,,,,,,,,,,,,,,,
recall-period,397,757423,4208.899999976158,"",,,,,,,,,,,ozone,,,,,
html-keyboard-response,398,757526,null,"",null,,,,,,,,,,,,,,,
recall-period,399,758499,3896.400000154972,"",,,,,,,,,,,cowboy,,,,,
html-keyboard-response,400,758602,null,"",null,,,,,,,,,,,,,,,
recall-period,401,759893,4959.099999904633,"",,,,,,,,,,,europe,,,,,
html-keyboard-response,402,759995,null,"",null,,,,,,,,,,,,,,,
recall-period,403,764486,23355.699999809265,"",,,,,,,,,,,horse,,,,,
html-keyboard-response,404,764587,null,"",null,,,,,,,,,,,,,,,
recall-period,405,831254,null,"",,,,,,,,,,,,,,,,
html-keyboard-response,406,831758,null,"Time's Up!",null,,,,,,,,,,,,,,,
html-keyboard-response,407,834149,2387.100000023842,"<p> Good job! You have responded correctly to 92% of the trials. </p>
                      <p>Be sure to only press the spacebar if you see a GREEN square, and please keep your accuracy above 80%.</p>
                      <p> Press any key to continue the experiment. </p>",32,,,,,,,,,,,,,,,
html-keyboard-response,408,837169,3016.5,"<div style=""font-size:48px;"">Press any key to begin list 4 of 16 </div>",32,,,,,,,,,,,,,,,
html-keyboard-response,409,839673,null,"<div style=""font-size:60px;"">+</div>",null,,,,,,,,,,,,,,,
html-keyboard-response,410,839877,null,"<div style=""font-size:42px;"">PIGEON</div><img id = ""stim"" ><div class = green_square id = bottomsquare></div>",null,encoding,word_square,,,1,bottomsquare,32,true,,,PIGEON,3,,,
html-keyboard-response,411,840182,null,"<div style=""font-size:42px;"">PIGEON</div>",null,,word,PIGEON,,,,,,,,,,,,
html-keyboard-response,412,841685,67,"",32,,word,PIGEON,,,,,,,,,,,,
html-keyboard-response,413,841887,null,"<div style=""font-size:42px;"">PARROT</div><img id = ""stim"" ><div class = red_square id = topsquare></div>",null,encoding,word_square,,,0,topsquare,none,true,,,PARROT,3,,,
html-keyboard-response,414,842191,null,"<div style=""font-size:42px;"">PARROT</div>",null,,word,PARROT,,,,,,,,,,,,
html-keyboard-response,415,843696,null,"",null,,word,PARROT,,,,,,,,,,,,
html-keyboard-response,416,843901,null,"<div style=""font-size:42px;"">SCOUT</div><img id = ""stim"" ><div class = red_square id = bottomsquare></div>",null,encoding,word_square,,,0,bottomsquare,none,true,,,SCOUT,3,,,
html-keyboard-response,417,844205,null,"<div style=""font-size:42px;"">SCOUT</div>",null,,word,SCOUT,,,,,,,,,,,,
html-keyboard-response,418,845708,null,"",null,,word,SCOUT,,,,,,,,,,,,
html-keyboard-response,419,845913,null,"<div style=""font-size:42px;"">DONKEY</div><img id = ""stim"" ><div class = red_square id = topsquare></div>",null,encoding,word_square,,,0,topsquare,none,true,,,DONKEY,3,,,
html-keyboard-response,420,846218,null,"<div style=""font-size:42px;"">DONKEY</div>",null,,word,DONKEY,,,,,,,,,,,,
html-keyboard-response,421,847721,null,"",null,,word,DONKEY,,,,,,,,,,,,
html-keyboard-response,422,847926,null,"<div style=""font-size:42px;"">FOREHEAD</div><img id = ""stim"" ><div class = green_square id = topsquare></div>",null,encoding,word_square,,,1,topsquare,32,true,,,FOREHEAD,3,,,
html-keyboard-response,423,848231,230.4000000357628,"<div style=""font-size:42px;"">FOREHEAD</div>",32,,word,FOREHEAD,,,,,,,,,,,,
html-keyboard-response,424,849738,null,"",null,,word,FOREHEAD,,,,,,,,,,,,
html-keyboard-response,425,849942,null,"<div style=""font-size:42px;"">SENATE</div><img id = ""stim"" ><div class = red_square id = bottomsquare></div>",null,encoding,word_square,,,0,bottomsquare,none,true,,,SENATE,3,,,
html-keyboard-response,426,850247,null,"<div style=""font-size:42px;"">SENATE</div>",null,,word,SENATE,,,,,,,,,,,,
html-keyboard-response,427,851752,null,"",null,,word,SENATE,,,,,,,,,,,,
html-keyboard-response,428,851958,null,"<div style=""font-size:42px;"">RAILROAD</div><img id = ""stim"" ><div class = green_square id = bottomsquare></div>",null,encoding,word_square,,,1,bottomsquare,32,true,,,RAILROAD,3,,,
html-keyboard-response,429,852262,152.20000004768372,"<div style=""font-size:42px;"">RAILROAD</div>",32,,word,RAILROAD,,,,,,,,,,,,
html-keyboard-response,430,853766,null,"",null,,word,RAILROAD,,,,,,,,,,,,
html-keyboard-response,431,853972,null,"<div style=""font-size:42px;"">HEART</div><img id = ""stim"" ><div class = green_square id = topsquare></div>",null,encoding,word_square,,,1,topsquare,32,true,,,HEART,3,,,
html-keyboard-response,432,854277,null,"<div style=""font-size:42px;"">HEART</div>",null,,word,HEART,,,,,,,,,,,,
html-keyboard-response,433,855782,14.199999988079071,"",32,,word,HEART,,,,,,,,,,,,
html-keyboard-response,434,855986,null,"<div style=""font-size:42px;"">LETTUCE</div><img id = ""stim"" ><div class = red_square id = topsquare></div>",null,encoding,word_square,,,0,topsquare,none,true,,,LETTUCE,3,,,
html-keyboard-response,435,856290,null,"<div style=""font-size:42px;"">LETTUCE</div>",null,,word,LETTUCE,,,,,,,,,,,,
html-keyboard-response,436,857794,null,"",null,,word,LETTUCE,,,,,,,,,,,,
html-keyboard-response,437,858000,null,"<div style=""font-size:42px;"">LEMON</div><img id = ""stim"" ><div class = green_square id = bottomsquare></div>",null,encoding,word_square,,,1,bottomsquare,32,true,,,LEMON,3,,,
html-keyboard-response,438,858304,168,"<div style=""font-size:42px;"">LEMON</div>",32,,word,LEMON,,,,,,,,,,,,
html-keyboard-response,439,859807,null,"",null,,word,LEMON,,,,,,,,,,,,
html-keyboard-response,440,860011,null,"<div style=""font-size:42px;"">SCARF</div><img id = ""stim"" ><div class = green_square id = topsquare></div>",null,encoding,word_square,,,1,topsquare,32,true,,,SCARF,3,,,
html-keyboard-response,441,860315,null,"<div style=""font-size:42px;"">SCARF</div>",null,,word,SCARF,,,,,,,,,,,,
html-keyboard-response,442,861819,28.599999964237213,"",32,,word,SCARF,,,,,,,,,,,,
html-keyboard-response,443,862024,null,"<div style=""font-size:42px;"">TORCH</div><img id = ""stim"" ><div class = red_square id = bottomsquare></div>",null,encoding,word_square,,,0,bottomsquare,none,true,,,TORCH,3,,,
html-keyboard-response,444,862327,null,"<div style=""font-size:42px;"">TORCH</div>",null,,word,TORCH,,,,,,,,,,,,
html-keyboard-response,445,863831,null,"",null,,word,TORCH,,,,,,,,,,,,
html-keyboard-response,446,864035,null,"<div style=""font-size:42px;"">PARENT</div><img id = ""stim"" ><div class = red_square id = topsquare></div>",null,encoding,word_square,,,0,topsquare,none,true,,,PARENT,3,,,
html-keyboard-response,447,864339,null,"<div style=""font-size:42px;"">PARENT</div>",null,,word,PARENT,,,,,,,,,,,,
html-keyboard-response,448,865844,null,"",null,,word,PARENT,,,,,,,,,,,,
html-keyboard-response,449,866048,null,"<div style=""font-size:42px;"">SWATTER</div><img id = ""stim"" ><div class = green_square id = bottomsquare></div>",null,encoding,word_square,,,1,bottomsquare,32,true,,,SWATTER,3,,,
html-keyboard-response,450,866351,233.10000002384186,"<div style=""font-size:42px;"">SWATTER</div>",32,,word,SWATTER,,,,,,,,,,,,
html-keyboard-response,451,867856,null,"",null,,word,SWATTER,,,,,,,,,,,,
html-keyboard-response,452,868061,null,"<div style=""font-size:42px;"">PATIENT</div><img id = ""stim"" ><div class = green_square id = topsquare></div>",null,encoding,word_square,,,1,topsquare,32,true,,,PATIENT,3,,,
html-keyboard-response,453,868365,null,"<div style=""font-size:42px;"">PATIENT</div>",null,,word,PATIENT,,,,,,,,,,,,
html-keyboard-response,454,869873,105,"",32,,word,PATIENT,,,,,,,,,,,,
html-keyboard-response,455,870079,null,"<div style=""font-size:42px;"">CRATER</div><img id = ""stim"" ><div class = red_square id = bottomsquare></div>",null,encoding,word_square,,,0,bottomsquare,none,false,,,CRATER,3,,,
html-keyboard-response,456,870385,null,"<div style=""font-size:42px;"">CRATER</div>",null,,word,CRATER,,,,,,,,,,,,
html-keyboard-response,457,871889,13.300000011920929,"",32,,word,CRATER,,,,,,,,,,,,
call-function,458,871891,,"",,,,,,,,,,,,,,,,
html-keyboard-response,459,871995,null,"",null,,,,,,,,,,,,,,,
math-period,460,873921,3536.699999988079,"",,,,,,,,,,,3,,,,,
html-keyboard-response,461,874024,null,"",null,,,,,,,,,,,,,,,
math-period,462,876426,4303.300000011921,"",,,,,,,,,,,0,,,,,
html-keyboard-response,463,876529,null,"",null,,,,,,,,,,,,,,,
math-period,464,878324,3372.8000000715256,"",,,,,,,,,,,1,,,,,
html-keyboard-response,465,878426,null,"",null,,,,,,,,,,,,,,,
math-period,466,879834,2510.099999964237,"",,,,,,,,,,,3,,,,,
html-keyboard-response,467,879936,null,"",null,,,,,,,,,,,,,,,
math-period,468,881448,2813.600000023842,"",,,,,,,,,,,1,,,,,
html-keyboard-response,469,881550,null,"",null,,,,,,,,,,,,,,,
math-period,470,882836,2444.2000000476837,"",,,,,,,,,,,5,,,,,
html-keyboard-response,471,882939,null,"",null,,,,,,,,,,,,,,,
math-period,472,884246,2470.899999976158,"",,,,,,,,,,,3,,,,,
html-keyboard-response,473,884350,null,"",null,,,,,,,,,,,,,,,
math-period,474,885694,2580.2999999523163,"",,,,,,,,,,,5,,,,,
html-keyboard-response,475,885796,null,"",null,,,,,,,,,,,,,,,
math-period,476,886990,2264.300000011921,"",,,,,,,,,,,3,,,,,
html-keyboard-response,477,887094,null,"",null,,,,,,,,,,,,,,,
math-period,478,889031,3560.2999999523163,"",,,,,,,,,,,4,,,,,
html-keyboard-response,479,889135,null,"",null,,,,,,,,,,,,,,,
math-period,480,890383,2311.699999988079,"",,,,,,,,,,,3,,,,,
html-keyboard-response,481,890488,null,"",null,,,,,,,,,,,,,,,
math-period,482,891916,2651.600000023842,"",,,,,,,,,,,6,,,,,
html-keyboard-response,483,892019,null,"",null,,,,,,,,,,,,,,,
math-period,484,894272,4297.899999976158,"",,,,,,,,,,,1,,,,,
html-keyboard-response,485,894374,null,"",null,,,,,,,,,,,,,,,
math-period,486,895895,1508.699999988079,"",,,,,,,,,,,2,,,,,
html-keyboard-response,487,896901,null,"Recall Period!",null,,,,,,,,,,,,,,,
call-function,488,896903,,"",,,,,,,,,,,,,,,,
html-keyboard-response,489,897006,null,"",null,,,,,,,,,,,,,,,
recall-period,490,899357,12392.199999809265,"",,,,,,,,,,,pigeon,,,,,
html-keyboard-response,491,899461,null,"",null,,,,,,,,,,,,,,,
recall-period,492,900632,5789.199999988079,"",,,,,,,,,,,railroad,,,,,
html-keyboard-response,493,900735,null,"",null,,,,,,,,,,,,,,,
recall-period,494,901831,3326.900000154972,"",,,,,,,,,,,scarf,,,,,
html-keyboard-response,495,901933,null,"",null,,,,,,,,,,,,,,,
recall-period,496,902886,3859.1000002622604,"",,,,,,,,,,,person,,,,,
html-keyboard-response,497,902989,null,"",null,,,,,,,,,,,,,,,
recall-period,498,904336,6678.299999892712,"",,,,,,,,,,,people,,,,,
html-keyboard-response,499,904440,null,"",null,,,,,,,,,,,,,,,
recall-period,500,971908,null,"",,,,,,,,,,,,,,,,
html-keyboard-response,501,972415,null,"Time's Up!",null,,,,,,,,,,,,,,,
html-keyboard-response,502,978527,6107.300000011921,"<p> Good job! You have responded correctly to 92% of the trials. </p>
                      <p>Be sure to only press the spacebar if you see a GREEN square, and please keep your accuracy above 80%.</p>
                      <p> Press any key to continue the experiment. </p>",32,,,,,,,,,,,,,,,
html-keyboard-response,503,984130,5600.900000035763,"<div style=""font-size:48px;"">Press any key to begin list 5 of 16 </div>",32,,,,,,,,,,,,,,,
html-keyboard-response,504,986635,null,"<div style=""font-size:60px;"">+</div>",null,,,,,,,,,,,,,,,
html-keyboard-response,505,986838,null,"<div style=""font-size:42px;"">VALVE</div><img id = ""stim"" ><div class = green_square id = topsquare></div>",null,encoding,word_square,,,1,topsquare,32,true,,,VALVE,4,,,
html-keyboard-response,506,987141,215.10000002384186,"<div style=""font-size:42px;"">VALVE</div>",32,,word,VALVE,,,,,,,,,,,,
html-keyboard-response,507,988645,null,"",null,,word,VALVE,,,,,,,,,,,,
html-keyboard-response,508,988850,null,"<div style=""font-size:42px;"">ASIA</div><img id = ""stim"" ><div class = green_square id = bottomsquare></div>",null,encoding,word_square,,,1,bottomsquare,32,true,,,ASIA,4,,,
html-keyboard-response,509,989153,276.9000000357628,"<div style=""font-size:42px;"">ASIA</div>",32,,word,ASIA,,,,,,,,,,,,
html-keyboard-response,510,990656,null,"",null,,word,ASIA,,,,,,,,,,,,
html-keyboard-response,511,990861,null,"<div style=""font-size:42px;"">COUNTRY</div><img id = ""stim"" ><div class = red_square id = bottomsquare></div>",null,encoding,word_square,,,0,bottomsquare,none,true,,,COUNTRY,4,,,
html-keyboard-response,512,991166,null,"<div style=""font-size:42px;"">COUNTRY</div>",null,,word,COUNTRY,,,,,,,,,,,,
html-keyboard-response,513,992671,null,"",null,,word,COUNTRY,,,,,,,,,,,,
html-keyboard-response,514,992878,null,"<div style=""font-size:42px;"">LAPEL</div><img id = ""stim"" ><div class = red_square id = topsquare></div>",null,encoding,word_square,,,0,topsquare,none,true,,,LAPEL,4,,,
html-keyboard-response,515,993183,null,"<div style=""font-size:42px;"">LAPEL</div>",null,,word,LAPEL,,,,,,,,,,,,
html-keyboard-response,516,994688,null,"",null,,word,LAPEL,,,,,,,,,,,,
html-keyboard-response,517,994894,null,"<div style=""font-size:42px;"">WITNESS</div><img id = ""stim"" ><div class = green_square id = topsquare></div>",null,encoding,word_square,,,1,topsquare,32,true,,,WITNESS,4,,,
html-keyboard-response,518,995197,238.5999999642372,"<div style=""font-size:42px;"">WITNESS</div>",32,,word,WITNESS,,,,,,,,,,,,
html-keyboard-response,519,996702,null,"",null,,word,WITNESS,,,,,,,,,,,,
html-keyboard-response,520,996908,null,"<div style=""font-size:42px;"">BOUILLON</div><img id = ""stim"" ><div class = red_square id = bottomsquare></div>",null,encoding,word_square,,,0,bottomsquare,none,true,,,BOUILLON,4,,,
html-keyboard-response,521,997212,null,"<div style=""font-size:42px;"">BOUILLON</div>",null,,word,BOUILLON,,,,,,,,,,,,
html-keyboard-response,522,998717,null,"",null,,word,BOUILLON,,,,,,,,,,,,
html-keyboard-response,523,998925,null,"<div style=""font-size:42px;"">DENIM</div><img id = ""stim"" ><div class = green_square id = bottomsquare></div>",null,encoding,word_square,,,1,bottomsquare,32,true,,,DENIM,4,,,
html-keyboard-response,524,999230,203.70000004768372,"<div style=""font-size:42px;"">DENIM</div>",32,,word,DENIM,,,,,,,,,,,,
html-keyboard-response,525,1000736,null,"",null,,word,DENIM,,,,,,,,,,,,
html-keyboard-response,526,1000941,null,"<div style=""font-size:42px;"">WAGON</div><img id = ""stim"" ><div class = green_square id = topsquare></div>",null,encoding,word_square,,,1,topsquare,32,true,,,WAGON,4,,,
html-keyboard-response,527,1001245,262.80000001192093,"<div style=""font-size:42px;"">WAGON</div>",32,,word,WAGON,,,,,,,,,,,,
html-keyboard-response,528,1002750,null,"",null,,word,WAGON,,,,,,,,,,,,
html-keyboard-response,529,1002954,null,"<div style=""font-size:42px;"">YACHT</div><img id = ""stim"" ><div class = red_square id = topsquare></div>",null,encoding,word_square,,,0,topsquare,none,true,,,YACHT,4,,,
html-keyboard-response,530,1003259,null,"<div style=""font-size:42px;"">YACHT</div>",null,,word,YACHT,,,,,,,,,,,,
html-keyboard-response,531,1004762,null,"",null,,word,YACHT,,,,,,,,,,,,
html-keyboard-response,532,1004966,null,"<div style=""font-size:42px;"">CANAL</div><img id = ""stim"" ><div class = red_square id = bottomsquare></div>",null,encoding,word_square,,,0,bottomsquare,none,true,,,CANAL,4,,,
html-keyboard-response,533,1005271,159.19999998807907,"<div style=""font-size:42px;"">CANAL</div>",32,,word,CANAL,,,,,,,,,,,,
html-keyboard-response,534,1006776,null,"",null,,word,CANAL,,,,,,,,,,,,
html-keyboard-response,535,1006981,null,"<div style=""font-size:42px;"">CHECKERS</div><img id = ""stim"" ><div class = green_square id = bottomsquare></div>",null,encoding,word_square,,,1,bottomsquare,32,true,,,CHECKERS,4,,,
html-keyboard-response,536,1007285,null,"<div style=""font-size:42px;"">CHECKERS</div>",null,,word,CHECKERS,,,,,,,,,,,,
html-keyboard-response,537,1008789,88.69999998807907,"",32,,word,CHECKERS,,,,,,,,,,,,
html-keyboard-response,538,1008995,null,"<div style=""font-size:42px;"">GRASS</div><img id = ""stim"" ><div class = green_square id = topsquare></div>",null,encoding,word_square,,,1,topsquare,32,true,,,GRASS,4,,,
html-keyboard-response,539,1009300,273.80000001192093,"<div style=""font-size:42px;"">GRASS</div>",32,,word,GRASS,,,,,,,,,,,,
html-keyboard-response,540,1010807,null,"",null,,word,GRASS,,,,,,,,,,,,
html-keyboard-response,541,1011011,null,"<div style=""font-size:42px;"">SPACE</div><img id = ""stim"" ><div class = red_square id = topsquare></div>",null,encoding,word_square,,,0,topsquare,none,true,,,SPACE,4,,,
html-keyboard-response,542,1011314,null,"<div style=""font-size:42px;"">SPACE</div>",null,,word,SPACE,,,,,,,,,,,,
html-keyboard-response,543,1012818,null,"",null,,word,SPACE,,,,,,,,,,,,
html-keyboard-response,544,1013023,null,"<div style=""font-size:42px;"">TURTLE</div><img id = ""stim"" ><div class = green_square id = bottomsquare></div>",null,encoding,word_square,,,1,bottomsquare,32,true,,,TURTLE,4,,,
html-keyboard-response,545,1013325,186.30000001192093,"<div style=""font-size:42px;"">TURTLE</div>",32,,word,TURTLE,,,,,,,,,,,,
html-keyboard-response,546,1014828,null,"",null,,word,TURTLE,,,,,,,,,,,,
html-keyboard-response,547,1015033,null,"<div style=""font-size:42px;"">CLAM</div><img id = ""stim"" ><div class = red_square id = bottomsquare></div>",null,encoding,word_square,,,0,bottomsquare,none,true,,,CLAM,4,,,
html-keyboard-response,548,1015336,null,"<div style=""font-size:42px;"">CLAM</div>",null,,word,CLAM,,,,,,,,,,,,
html-keyboard-response,549,1016839,null,"",null,,word,CLAM,,,,,,,,,,,,
html-keyboard-response,550,1017045,null,"<div style=""font-size:42px;"">NEUTRON</div><img id = ""stim"" ><div class = red_square id = topsquare></div>",null,encoding,word_square,,,0,topsquare,none,true,,,NEUTRON,4,,,
html-keyboard-response,551,1017348,null,"<div style=""font-size:42px;"">NEUTRON</div>",null,,word,NEUTRON,,,,,,,,,,,,
html-keyboard-response,552,1018853,null,"",null,,word,NEUTRON,,,,,,,,,,,,
call-function,553,1018856,,"",,,,,,,,,,,,,,,,
html-keyboard-response,554,1018959,null,"",null,,,,,,,,,,,,,,,
math-period,555,1021377,4586.400000035763,"",,,,,,,,,,,1,,,,,
html-keyboard-response,556,1021481,null,"",null,,,,,,,,,,,,,,,
math-period,557,1023630,3911.9000000953674,"",,,,,,,,,,,1,,,,,
html-keyboard-response,558,1023733,null,"",null,,,,,,,,,,,,,,,
math-period,559,1028057,6868.5,"",,,,,,,,,,,1,,,,,
html-keyboard-response,560,1028161,null,"",null,,,,,,,,,,,,,,,
math-period,561,1030169,3789.100000023842,"",,,,,,,,,,,4,,,,,
html-keyboard-response,562,1030272,null,"",null,,,,,,,,,,,,,,,
math-period,563,1031744,2786.099999964237,"",,,,,,,,,,,6,,,,,
html-keyboard-response,564,1031847,null,"",null,,,,,,,,,,,,,,,
math-period,565,1033671,3458.600000023842,"",,,,,,,,,,,2,,,,,
html-keyboard-response,566,1033774,null,"",null,,,,,,,,,,,,,,,
math-period,567,1034998,2356.7999999523163,"",,,,,,,,,,,3,,,,,
html-keyboard-response,568,1035101,null,"",null,,,,,,,,,,,,,,,
math-period,569,1037719,5042.1000000834465,"",,,,,,,,,,,4,,,,,
html-keyboard-response,570,1037822,null,"",null,,,,,,,,,,,,,,,
math-period,571,1039349,2873.0000000596046,"",,,,,,,,,,,1,,,,,
html-keyboard-response,572,1039452,null,"",null,,,,,,,,,,,,,,,
math-period,573,1040867,2711.599999964237,"",,,,,,,,,,,5,,,,,
html-keyboard-response,574,1040972,null,"",null,,,,,,,,,,,,,,,
math-period,575,1042861,null,"",,,,,,,,,,,,,,,,
html-keyboard-response,576,1043866,null,"Recall Period!",null,,,,,,,,,,,,,,,
call-function,577,1043866,,"",,,,,,,,,,,,,,,,
html-keyboard-response,578,1043969,null,"",null,,,,,,,,,,,,,,,
recall-period,579,1045022,3765.6999999284744,"",,,,,,,,,,,denim,,,,,
html-keyboard-response,580,1045125,null,"",null,,,,,,,,,,,,,,,
recall-period,581,1045905,2619.8999999165535,"",,,,,,,,,,,wagon,,,,,
html-keyboard-response,582,1046009,null,"",null,,,,,,,,,,,,,,,
recall-period,583,1046773,1972.7999998927116,"",,,,,,,,,,,lot,,,,,
html-keyboard-response,584,1046875,null,"",null,,,,,,,,,,,,,,,
recall-period,585,1057269,57873.79999983311,"",,,,,,,,,,,,,,,,
html-keyboard-response,586,1057372,null,"",null,,,,,,,,,,,,,,,
recall-period,587,1080345,113212.59999996424,"",,,,,,,,,,,loft,,,,,
html-keyboard-response,588,1080449,null,"",null,,,,,,,,,,,,,,,
recall-period,589,1118871,null,"",,,,,,,,,,,,,,,,
html-keyboard-response,590,1119376,null,"Time's Up!",null,,,,,,,,,,,,,,,
html-keyboard-response,591,1124327,4944.600000023842,"<p> Good job! You have responded correctly to 94% of the trials. </p>
                      <p>Be sure to only press the spacebar if you see a GREEN square, and please keep your accuracy above 80%.</p>
                      <p> Press any key to continue the experiment. </p>",32,,,,,,,,,,,,,,,
html-keyboard-response,592,1125801,1470.0999999642372,"<div style=""font-size:48px;"">Press any key to begin list 6 of 16 </div>",32,,,,,,,,,,,,,,,
html-keyboard-response,593,1128307,null,"<div style=""font-size:60px;"">+</div>",null,,,,,,,,,,,,,,,
html-keyboard-response,594,1128513,null,"<div style=""font-size:42px;"">PANTHER</div><img id = ""stim"" ><div class = red_square id = topsquare></div>",null,encoding,word_square,,,0,topsquare,none,true,,,PANTHER,5,,,
html-keyboard-response,595,1128816,null,"<div style=""font-size:42px;"">PANTHER</div>",null,,word,PANTHER,,,,,,,,,,,,
html-keyboard-response,596,1130321,null,"",null,,word,PANTHER,,,,,,,,,,,,
html-keyboard-response,597,1130528,null,"<div style=""font-size:42px;"">TROMBONE</div><img id = ""stim"" ><div class = red_square id = bottomsquare></div>",null,encoding,word_square,,,0,bottomsquare,none,true,,,TROMBONE,5,,,
html-keyboard-response,598,1130832,null,"<div style=""font-size:42px;"">TROMBONE</div>",null,,word,TROMBONE,,,,,,,,,,,,
html-keyboard-response,599,1132337,null,"",null,,word,TROMBONE,,,,,,,,,,,,
html-keyboard-response,600,1132541,null,"<div style=""font-size:42px;"">PERFUME</div><img id = ""stim"" ><div class = green_square id = bottomsquare></div>",null,encoding,word_square,,,1,bottomsquare,32,true,,,PERFUME,5,,,
html-keyboard-response,601,1132845,252.30000001192093,"<div style=""font-size:42px;"">PERFUME</div>",32,,word,PERFUME,,,,,,,,,,,,
html-keyboard-response,602,1134352,null,"",null,,word,PERFUME,,,,,,,,,,,,
html-keyboard-response,603,1134555,null,"<div style=""font-size:42px;"">PIRATE</div><img id = ""stim"" ><div class = red_square id = topsquare></div>",null,encoding,word_square,,,0,topsquare,none,true,,,PIRATE,5,,,
html-keyboard-response,604,1134859,null,"<div style=""font-size:42px;"">PIRATE</div>",null,,word,PIRATE,,,,,,,,,,,,
html-keyboard-response,605,1136362,null,"",null,,word,PIRATE,,,,,,,,,,,,
html-keyboard-response,606,1136567,null,"<div style=""font-size:42px;"">LOBSTER</div><img id = ""stim"" ><div class = green_square id = topsquare></div>",null,encoding,word_square,,,1,topsquare,32,true,,,LOBSTER,5,,,
html-keyboard-response,607,1136871,null,"<div style=""font-size:42px;"">LOBSTER</div>",null,,word,LOBSTER,,,,,,,,,,,,
html-keyboard-response,608,1138375,363.80000001192093,"",32,,word,LOBSTER,,,,,,,,,,,,
html-keyboard-response,609,1138579,null,"<div style=""font-size:42px;"">CYCLONE</div><img id = ""stim"" ><div class = green_square id = bottomsquare></div>",null,encoding,word_square,,,1,bottomsquare,32,true,,,CYCLONE,5,,,
html-keyboard-response,610,1138882,294.19999998807907,"<div style=""font-size:42px;"">CYCLONE</div>",32,,word,CYCLONE,,,,,,,,,,,,
html-keyboard-response,611,1140387,null,"",null,,word,CYCLONE,,,,,,,,,,,,
html-keyboard-response,612,1140591,null,"<div style=""font-size:42px;"">BRIDE</div><img id = ""stim"" ><div class = red_square id = bottomsquare></div>",null,encoding,word_square,,,0,bottomsquare,none,true,,,BRIDE,5,,,
html-keyboard-response,613,1140897,null,"<div style=""font-size:42px;"">BRIDE</div>",null,,word,BRIDE,,,,,,,,,,,,
html-keyboard-response,614,1142401,null,"",null,,word,BRIDE,,,,,,,,,,,,
html-keyboard-response,615,1142606,null,"<div style=""font-size:42px;"">WHISKERS</div><img id = ""stim"" ><div class = red_square id = topsquare></div>",null,encoding,word_square,,,0,topsquare,none,true,,,WHISKERS,5,,,
html-keyboard-response,616,1142910,null,"<div style=""font-size:42px;"">WHISKERS</div>",null,,word,WHISKERS,,,,,,,,,,,,
html-keyboard-response,617,1144414,null,"",null,,word,WHISKERS,,,,,,,,,,,,
html-keyboard-response,618,1144618,null,"<div style=""font-size:42px;"">MARSH</div><img id = ""stim"" ><div class = green_square id = topsquare></div>",null,encoding,word_square,,,1,topsquare,32,true,,,MARSH,5,,,
html-keyboard-response,619,1144922,null,"<div style=""font-size:42px;"">MARSH</div>",null,,word,MARSH,,,,,,,,,,,,
html-keyboard-response,620,1146429,372.2000000476837,"",32,,word,MARSH,,,,,,,,,,,,
html-keyboard-response,621,1146633,null,"<div style=""font-size:42px;"">HEDGE</div><img id = ""stim"" ><div class = green_square id = bottomsquare></div>",null,encoding,word_square,,,1,bottomsquare,32,true,,,HEDGE,5,,,
html-keyboard-response,622,1146937,null,"<div style=""font-size:42px;"">HEDGE</div>",null,,word,HEDGE,,,,,,,,,,,,
html-keyboard-response,623,1148441,942.5,"",32,,word,HEDGE,,,,,,,,,,,,
html-keyboard-response,624,1148645,null,"<div style=""font-size:42px;"">CLOUD</div><img id = ""stim"" ><div class = red_square id = bottomsquare></div>",null,encoding,word_square,,,0,bottomsquare,none,true,,,CLOUD,5,,,
html-keyboard-response,625,1148949,null,"<div style=""font-size:42px;"">CLOUD</div>",null,,word,CLOUD,,,,,,,,,,,,
html-keyboard-response,626,1150461,null,"",null,,word,CLOUD,,,,,,,,,,,,
html-keyboard-response,627,1150665,null,"<div style=""font-size:42px;"">WINDSHIELD</div><img id = ""stim"" ><div class = green_square id = topsquare></div>",null,encoding,word_square,,,1,topsquare,32,true,,,WINDSHIELD,5,,,
html-keyboard-response,628,1150969,null,"<div style=""font-size:42px;"">WINDSHIELD</div>",null,,word,WINDSHIELD,,,,,,,,,,,,
html-keyboard-response,629,1152473,709.3000000119209,"",32,,word,WINDSHIELD,,,,,,,,,,,,
html-keyboard-response,630,1152677,null,"<div style=""font-size:42px;"">VILLAGE</div><img id = ""stim"" ><div class = red_square id = topsquare></div>",null,encoding,word_square,,,0,topsquare,none,true,,,VILLAGE,5,,,
html-keyboard-response,631,1152982,null,"<div style=""font-size:42px;"">VILLAGE</div>",null,,word,VILLAGE,,,,,,,,,,,,
html-keyboard-response,632,1154486,null,"",null,,word,VILLAGE,,,,,,,,,,,,
html-keyboard-response,633,1154691,null,"<div style=""font-size:42px;"">LEG</div><img id = ""stim"" ><div class = red_square id = bottomsquare></div>",null,encoding,word_square,,,0,bottomsquare,none,true,,,LEG,5,,,
html-keyboard-response,634,1154995,null,"<div style=""font-size:42px;"">LEG</div>",null,,word,LEG,,,,,,,,,,,,
html-keyboard-response,635,1156501,null,"",null,,word,LEG,,,,,,,,,,,,
html-keyboard-response,636,1156705,null,"<div style=""font-size:42px;"">WRIST</div><img id = ""stim"" ><div class = green_square id = bottomsquare></div>",null,encoding,word_square,,,1,bottomsquare,32,true,,,WRIST,5,,,
html-keyboard-response,637,1157009,null,"<div style=""font-size:42px;"">WRIST</div>",null,,word,WRIST,,,,,,,,,,,,
html-keyboard-response,638,1158513,26.30000001192093,"",32,,word,WRIST,,,,,,,,,,,,
html-keyboard-response,639,1158718,null,"<div style=""font-size:42px;"">SKILLET</div><img id = ""stim"" ><div class = green_square id = topsquare></div>",null,encoding,word_square,,,1,topsquare,32,true,,,SKILLET,5,,,
html-keyboard-response,640,1159023,293.89999997615814,"<div style=""font-size:42px;"">SKILLET</div>",32,,word,SKILLET,,,,,,,,,,,,
html-keyboard-response,641,1160530,null,"",null,,word,SKILLET,,,,,,,,,,,,
call-function,642,1160534,,"",,,,,,,,,,,,,,,,
html-keyboard-response,643,1160638,null,"",null,,,,,,,,,,,,,,,
math-period,644,1163800,5140.199999988079,"",,,,,,,,,,,4,,,,,
html-keyboard-response,645,1163903,null,"",null,,,,,,,,,,,,,,,
math-period,646,1170341,12114.200000047684,"",,,,,,,,,,,4,,,,,
html-keyboard-response,647,1170443,null,"",null,,,,,,,,,,,,,,,
math-period,648,1172397,3762.2999999523163,"",,,,,,,,,,,1,,,,,
html-keyboard-response,649,1172500,null,"",null,,,,,,,,,,,,,,,
math-period,650,1173940,2750.9999999403954,"",,,,,,,,,,,1,,,,,
html-keyboard-response,651,1174043,null,"",null,,,,,,,,,,,,,,,
math-period,652,1176373,4425.100000023842,"",,,,,,,,,,,2,,,,,
html-keyboard-response,653,1176478,null,"",null,,,,,,,,,,,,,,,
math-period,654,1178174,3255.399999976158,"",,,,,,,,,,,1,,,,,
html-keyboard-response,655,1178277,null,"",null,,,,,,,,,,,,,,,
math-period,656,1180013,3404.4999999403954,"",,,,,,,,,,,5,,,,,
html-keyboard-response,657,1180116,null,"",null,,,,,,,,,,,,,,,
math-period,658,1181378,2381.600000023842,"",,,,,,,,,,,3,,,,,
html-keyboard-response,659,1181480,null,"",null,,,,,,,,,,,,,,,
math-period,660,1182969,2904.0000000596046,"",,,,,,,,,,,4,,,,,
html-keyboard-response,661,1183075,null,"",null,,,,,,,,,,,,,,,
math-period,662,1184539,null,"",,,,,,,,,,,,,,,,
html-keyboard-response,663,1185543,null,"Recall Period!",null,,,,,,,,,,,,,,,
call-function,664,1185545,,"",,,,,,,,,,,,,,,,
html-keyboard-response,665,1185648,null,"",null,,,,,,,,,,,,,,,
recall-period,666,1186780,4245.100000143051,"",,,,,,,,,,,marsh,,,,,
html-keyboard-response,667,1186883,null,"",null,,,,,,,,,,,,,,,
recall-period,668,1187684,2630.599999964237,"",,,,,,,,,,,hedge,,,,,
html-keyboard-response,669,1187787,null,"",null,,,,,,,,,,,,,,,
recall-period,670,1188835,3979,"",,,,,,,,,,,window,,,,,
html-keyboard-response,671,1188937,null,"",null,,,,,,,,,,,,,,,
recall-period,672,1189964,3919.500000178814,"",,,,,,,,,,,widow,,,,,
html-keyboard-response,673,1190066,null,"",null,,,,,,,,,,,,,,,
recall-period,674,1260547,null,"",,,,,,,,,,,,,,,,
html-keyboard-response,675,1261050,null,"Time's Up!",null,,,,,,,,,,,,,,,
html-keyboard-response,676,1267115,6063.5,"<p> Good job! You have responded correctly to 95% of the trials. </p>
                      <p>Be sure to only press the spacebar if you see a GREEN square, and please keep your accuracy above 80%.</p>
                      <p> Press any key to continue the experiment. </p>",32,,,,,,,,,,,,,,,
html-keyboard-response,677,1268188,1071.300000011921,"<div style=""font-size:48px;"">Press any key to begin list 7 of 16 </div>",32,,,,,,,,,,,,,,,
html-keyboard-response,678,1270692,null,"<div style=""font-size:60px;"">+</div>",null,,,,,,,,,,,,,,,
html-keyboard-response,679,1270896,null,"<div style=""font-size:42px;"">SAPPHIRE</div><img id = ""stim"" ><div class = red_square id = bottomsquare></div>",null,encoding,word_square,,,0,bottomsquare,none,true,,,SAPPHIRE,6,,,
html-keyboard-response,680,1271199,null,"<div style=""font-size:42px;"">SAPPHIRE</div>",null,,word,SAPPHIRE,,,,,,,,,,,,
html-keyboard-response,681,1272704,null,"",null,,word,SAPPHIRE,,,,,,,,,,,,
html-keyboard-response,682,1272909,null,"<div style=""font-size:42px;"">LUNCH</div><img id = ""stim"" ><div class = red_square id = topsquare></div>",null,encoding,word_square,,,0,topsquare,none,true,,,LUNCH,6,,,
html-keyboard-response,683,1273216,null,"<div style=""font-size:42px;"">LUNCH</div>",null,,word,LUNCH,,,,,,,,,,,,
html-keyboard-response,684,1274721,null,"",null,,word,LUNCH,,,,,,,,,,,,
html-keyboard-response,685,1274925,null,"<div style=""font-size:42px;"">PICNIC</div><img id = ""stim"" ><div class = green_square id = topsquare></div>",null,encoding,word_square,,,1,topsquare,32,true,,,PICNIC,6,,,
html-keyboard-response,686,1275229,284,"<div style=""font-size:42px;"">PICNIC</div>",32,,word,PICNIC,,,,,,,,,,,,
html-keyboard-response,687,1276731,null,"",null,,word,PICNIC,,,,,,,,,,,,
html-keyboard-response,688,1276935,null,"<div style=""font-size:42px;"">PLAID</div><img id = ""stim"" ><div class = green_square id = bottomsquare></div>",null,encoding,word_square,,,1,bottomsquare,32,true,,,PLAID,6,,,
html-keyboard-response,689,1277242,null,"<div style=""font-size:42px;"">PLAID</div>",null,,word,PLAID,,,,,,,,,,,,
html-keyboard-response,690,1278747,12.399999976158142,"",32,,word,PLAID,,,,,,,,,,,,
html-keyboard-response,691,1278952,null,"<div style=""font-size:42px;"">QUAIL</div><img id = ""stim"" ><div class = red_square id = bottomsquare></div>",null,encoding,word_square,,,0,bottomsquare,none,true,,,QUAIL,6,,,
html-keyboard-response,692,1279256,null,"<div style=""font-size:42px;"">QUAIL</div>",null,,word,QUAIL,,,,,,,,,,,,
html-keyboard-response,693,1280761,null,"",null,,word,QUAIL,,,,,,,,,,,,
html-keyboard-response,694,1280965,null,"<div style=""font-size:42px;"">WAIST</div><img id = ""stim"" ><div class = green_square id = topsquare></div>",null,encoding,word_square,,,1,topsquare,32,true,,,WAIST,6,,,
html-keyboard-response,695,1281269,244.39999997615814,"<div style=""font-size:42px;"">WAIST</div>",32,,word,WAIST,,,,,,,,,,,,
html-keyboard-response,696,1282777,null,"",null,,word,WAIST,,,,,,,,,,,,
html-keyboard-response,697,1282983,null,"<div style=""font-size:42px;"">PIANO</div><img id = ""stim"" ><div class = red_square id = topsquare></div>",null,encoding,word_square,,,0,topsquare,none,true,,,PIANO,6,,,
html-keyboard-response,698,1283286,null,"<div style=""font-size:42px;"">PIANO</div>",null,,word,PIANO,,,,,,,,,,,,
html-keyboard-response,699,1284791,null,"",null,,word,PIANO,,,,,,,,,,,,
html-keyboard-response,700,1284996,null,"<div style=""font-size:42px;"">MAILBOX</div><img id = ""stim"" ><div class = red_square id = bottomsquare></div>",null,encoding,word_square,,,0,bottomsquare,none,true,,,MAILBOX,6,,,
html-keyboard-response,701,1285300,null,"<div style=""font-size:42px;"">MAILBOX</div>",null,,word,MAILBOX,,,,,,,,,,,,
html-keyboard-response,702,1286803,null,"",null,,word,MAILBOX,,,,,,,,,,,,
html-keyboard-response,703,1287006,null,"<div style=""font-size:42px;"">BOX</div><img id = ""stim"" ><div class = green_square id = bottomsquare></div>",null,encoding,word_square,,,1,bottomsquare,32,true,,,BOX,6,,,
html-keyboard-response,704,1287308,181.19999998807907,"<div style=""font-size:42px;"">BOX</div>",32,,word,BOX,,,,,,,,,,,,
html-keyboard-response,705,1288810,null,"",null,,word,BOX,,,,,,,,,,,,
html-keyboard-response,706,1289013,null,"<div style=""font-size:42px;"">OX</div><img id = ""stim"" ><div class = green_square id = topsquare></div>",null,encoding,word_square,,,1,topsquare,32,true,,,OX,6,,,
html-keyboard-response,707,1289316,null,"<div style=""font-size:42px;"">OX</div>",null,,word,OX,,,,,,,,,,,,
html-keyboard-response,708,1290818,190.89999997615814,"",32,,word,OX,,,,,,,,,,,,
html-keyboard-response,709,1291022,null,"<div style=""font-size:42px;"">PLUMBER</div><img id = ""stim"" ><div class = red_square id = topsquare></div>",null,encoding,word_square,,,0,topsquare,none,false,,,PLUMBER,6,,,
html-keyboard-response,710,1291325,null,"<div style=""font-size:42px;"">PLUMBER</div>",null,,word,PLUMBER,,,,,,,,,,,,
html-keyboard-response,711,1292828,228.4000000357628,"",32,,word,PLUMBER,,,,,,,,,,,,
html-keyboard-response,712,1293033,null,"<div style=""font-size:42px;"">KNUCKLE</div><img id = ""stim"" ><div class = red_square id = bottomsquare></div>",null,encoding,word_square,,,0,bottomsquare,none,true,,,KNUCKLE,6,,,
html-keyboard-response,713,1293337,null,"<div style=""font-size:42px;"">KNUCKLE</div>",null,,word,KNUCKLE,,,,,,,,,,,,
html-keyboard-response,714,1294842,null,"",null,,word,KNUCKLE,,,,,,,,,,,,
html-keyboard-response,715,1295046,null,"<div style=""font-size:42px;"">COUNTY</div><img id = ""stim"" ><div class = green_square id = bottomsquare></div>",null,encoding,word_square,,,1,bottomsquare,32,true,,,COUNTY,6,,,
html-keyboard-response,716,1295349,null,"<div style=""font-size:42px;"">COUNTY</div>",null,,word,COUNTY,,,,,,,,,,,,
html-keyboard-response,717,1296854,37.60000002384186,"",32,,word,COUNTY,,,,,,,,,,,,
html-keyboard-response,718,1297058,null,"<div style=""font-size:42px;"">JOKER</div><img id = ""stim"" ><div class = red_square id = topsquare></div>",null,encoding,word_square,,,0,topsquare,none,true,,,JOKER,6,,,
html-keyboard-response,719,1297363,null,"<div style=""font-size:42px;"">JOKER</div>",null,,word,JOKER,,,,,,,,,,,,
html-keyboard-response,720,1298867,null,"",null,,word,JOKER,,,,,,,,,,,,
html-keyboard-response,721,1299073,null,"<div style=""font-size:42px;"">TABLET</div><img id = ""stim"" ><div class = green_square id = topsquare></div>",null,encoding,word_square,,,1,topsquare,32,true,,,TABLET,6,,,
html-keyboard-response,722,1299378,null,"<div style=""font-size:42px;"">TABLET</div>",null,,word,TABLET,,,,,,,,,,,,
html-keyboard-response,723,1300882,16.30000001192093,"",32,,word,TABLET,,,,,,,,,,,,
html-keyboard-response,724,1301086,null,"<div style=""font-size:42px;"">MUMMY</div><img id = ""stim"" ><div class = green_square id = bottomsquare></div>",null,encoding,word_square,,,1,bottomsquare,32,true,,,MUMMY,6,,,
html-keyboard-response,725,1301389,null,"<div style=""font-size:42px;"">MUMMY</div>",null,,word,MUMMY,,,,,,,,,,,,
html-keyboard-response,726,1302893,72.80000001192093,"",32,,word,MUMMY,,,,,,,,,,,,
call-function,727,1302896,,"",,,,,,,,,,,,,,,,
html-keyboard-response,728,1303001,null,"",null,,,,,,,,,,,,,,,
math-period,729,1305919,5035.299999952316,"",,,,,,,,,,,3,,,,,
html-keyboard-response,730,1306023,null,"",null,,,,,,,,,,,,,,,
math-period,731,1310209,8051.299999952316,"",,,,,,,,,,,2,,,,,
html-keyboard-response,732,1310310,null,"",null,,,,,,,,,,,,,,,
math-period,733,1311024,710.9000000357628,"",,,,,,,,,,,,,,,,
html-keyboard-response,734,1311127,null,"",null,,,,,,,,,,,,,,,
math-period,735,1313795,4618.899999976158,"",,,,,,,,,,,5,,,,,
html-keyboard-response,736,1313900,null,"",null,,,,,,,,,,,,,,,
math-period,737,1315948,3915.099999964237,"",,,,,,,,,,,2,,,,,
html-keyboard-response,738,1316051,null,"",null,,,,,,,,,,,,,,,
math-period,739,1317506,2710.100000023842,"",,,,,,,,,,,6,,,,,
html-keyboard-response,740,1317609,null,"",null,,,,,,,,,,,,,,,
math-period,741,1319676,6647.999999940395,"",,,,,,,,,,,5,,,,,
html-keyboard-response,742,1319778,null,"",null,,,,,,,,,,,,,,,
math-period,743,1321336,2907.5,"",,,,,,,,,,,1,,,,,
html-keyboard-response,744,1321439,null,"",null,,,,,,,,,,,,,,,
math-period,745,1323130,3104.899999976158,"",,,,,,,,,,,3,,,,,
html-keyboard-response,746,1323235,null,"",null,,,,,,,,,,,,,,,
math-period,747,1325758,4890.8999999165535,"",,,,,,,,,,,3,,,,,
html-keyboard-response,748,1325860,null,"",null,,,,,,,,,,,,,,,
math-period,749,1326902,null,"",,,,,,,,,,,,,,,,
html-keyboard-response,750,1327906,null,"Recall Period!",null,,,,,,,,,,,,,,,
call-function,751,1327909,,"",,,,,,,,,,,,,,,,
html-keyboard-response,752,1328011,null,"",null,,,,,,,,,,,,,,,
recall-period,753,1329527,6025.100000143051,"",,,,,,,,,,,plaid,,,,,
html-keyboard-response,754,1329630,null,"",null,,,,,,,,,,,,,,,
recall-period,755,1331025,5417.000000178814,"",,,,,,,,,,,picnic,,,,,
html-keyboard-response,756,1331128,null,"",null,,,,,,,,,,,,,,,
recall-period,757,1333081,11883.500000178814,"",,,,,,,,,,,piano,,,,,
html-keyboard-response,758,1333185,null,"",null,,,,,,,,,,,,,,,
recall-period,759,1335131,9285.200000047684,"",,,,,,,,,,,plumber,,,,,
html-keyboard-response,760,1335233,null,"",null,,,,,,,,,,,,,,,
recall-period,761,1402914,null,"",,,,,,,,,,,,,,,,
html-keyboard-response,762,1403419,null,"Time's Up!",null,,,,,,,,,,,,,,,
html-keyboard-response,763,1404596,1171.7999999523163,"<p> Good job! You have responded correctly to 95% of the trials. </p>
                      <p>Be sure to only press the spacebar if you see a GREEN square, and please keep your accuracy above 80%.</p>
                      <p> Press any key to continue the experiment. </p>",32,,,,,,,,,,,,,,,
html-keyboard-response,764,1405791,1191,"<div style=""font-size:48px;"">Press any key to begin list 8 of 16 </div>",32,,,,,,,,,,,,,,,
html-keyboard-response,765,1408297,null,"<div style=""font-size:60px;"">+</div>",null,,,,,,,,,,,,,,,
html-keyboard-response,766,1408501,null,"<div style=""font-size:42px;"">RACCOON</div><img id = ""stim"" ><div class = green_square id = bottomsquare></div>",null,encoding,word_square,,,1,bottomsquare,32,true,,,RACCOON,7,,,
html-keyboard-response,767,1408805,215.30000001192093,"<div style=""font-size:42px;"">RACCOON</div>",32,,word,RACCOON,,,,,,,,,,,,
html-keyboard-response,768,1410309,null,"",null,,word,RACCOON,,,,,,,,,,,,
html-keyboard-response,769,1410513,null,"<div style=""font-size:42px;"">CROSS</div><img id = ""stim"" ><div class = green_square id = topsquare></div>",null,encoding,word_square,,,1,topsquare,32,true,,,CROSS,7,,,
html-keyboard-response,770,1410822,193,"<div style=""font-size:42px;"">CROSS</div>",32,,word,CROSS,,,,,,,,,,,,
html-keyboard-response,771,1412330,null,"",null,,word,CROSS,,,,,,,,,,,,
html-keyboard-response,772,1412535,null,"<div style=""font-size:42px;"">IDOL</div><img id = ""stim"" ><div class = red_square id = topsquare></div>",null,encoding,word_square,,,0,topsquare,none,true,,,IDOL,7,,,
html-keyboard-response,773,1412840,null,"<div style=""font-size:42px;"">IDOL</div>",null,,word,IDOL,,,,,,,,,,,,
html-keyboard-response,774,1414344,null,"",null,,word,IDOL,,,,,,,,,,,,
html-keyboard-response,775,1414549,null,"<div style=""font-size:42px;"">ANTLER</div><img id = ""stim"" ><div class = green_square id = bottomsquare></div>",null,encoding,word_square,,,1,bottomsquare,32,true,,,ANTLER,7,,,
html-keyboard-response,776,1414854,219.5,"<div style=""font-size:42px;"">ANTLER</div>",32,,word,ANTLER,,,,,,,,,,,,
html-keyboard-response,777,1416359,null,"",null,,word,ANTLER,,,,,,,,,,,,
html-keyboard-response,778,1416569,null,"<div style=""font-size:42px;"">GAZELLE</div><img id = ""stim"" ><div class = red_square id = bottomsquare></div>",null,encoding,word_square,,,0,bottomsquare,none,true,,,GAZELLE,7,,,
html-keyboard-response,779,1416873,null,"<div style=""font-size:42px;"">GAZELLE</div>",null,,word,GAZELLE,,,,,,,,,,,,
html-keyboard-response,780,1418379,null,"",null,,word,GAZELLE,,,,,,,,,,,,
html-keyboard-response,781,1418583,null,"<div style=""font-size:42px;"">BROTHER</div><img id = ""stim"" ><div class = red_square id = topsquare></div>",null,encoding,word_square,,,0,topsquare,none,true,,,BROTHER,7,,,
html-keyboard-response,782,1418888,null,"<div style=""font-size:42px;"">BROTHER</div>",null,,word,BROTHER,,,,,,,,,,,,
html-keyboard-response,783,1420393,null,"",null,,word,BROTHER,,,,,,,,,,,,
html-keyboard-response,784,1420597,null,"<div style=""font-size:42px;"">FRIEND</div><img id = ""stim"" ><div class = green_square id = topsquare></div>",null,encoding,word_square,,,1,topsquare,32,true,,,FRIEND,7,,,
html-keyboard-response,785,1420902,246.10000002384186,"<div style=""font-size:42px;"">FRIEND</div>",32,,word,FRIEND,,,,,,,,,,,,
html-keyboard-response,786,1422408,null,"",null,,word,FRIEND,,,,,,,,,,,,
html-keyboard-response,787,1422615,null,"<div style=""font-size:42px;"">POSSUM</div><img id = ""stim"" ><div class = green_square id = bottomsquare></div>",null,encoding,word_square,,,1,bottomsquare,32,true,,,POSSUM,7,,,
html-keyboard-response,788,1422918,null,"<div style=""font-size:42px;"">POSSUM</div>",null,,word,POSSUM,,,,,,,,,,,,
html-keyboard-response,789,1424421,63.5,"",32,,word,POSSUM,,,,,,,,,,,,
html-keyboard-response,790,1424627,null,"<div style=""font-size:42px;"">ARMY</div><img id = ""stim"" ><div class = red_square id = bottomsquare></div>",null,encoding,word_square,,,0,bottomsquare,none,true,,,ARMY,7,,,
html-keyboard-response,791,1424931,null,"<div style=""font-size:42px;"">ARMY</div>",null,,word,ARMY,,,,,,,,,,,,
html-keyboard-response,792,1426436,null,"",null,,word,ARMY,,,,,,,,,,,,
html-keyboard-response,793,1426641,null,"<div style=""font-size:42px;"">CLIPPERS</div><img id = ""stim"" ><div class = red_square id = topsquare></div>",null,encoding,word_square,,,0,topsquare,none,true,,,CLIPPERS,7,,,
html-keyboard-response,794,1426945,null,"<div style=""font-size:42px;"">CLIPPERS</div>",null,,word,CLIPPERS,,,,,,,,,,,,
html-keyboard-response,795,1428449,null,"",null,,word,CLIPPERS,,,,,,,,,,,,
html-keyboard-response,796,1428656,null,"<div style=""font-size:42px;"">GLASS</div><img id = ""stim"" ><div class = green_square id = topsquare></div>",null,encoding,word_square,,,1,topsquare,32,true,,,GLASS,7,,,
html-keyboard-response,797,1428960,213.9000000357628,"<div style=""font-size:42px;"">GLASS</div>",32,,word,GLASS,,,,,,,,,,,,
html-keyboard-response,798,1430464,null,"",null,,word,GLASS,,,,,,,,,,,,
html-keyboard-response,799,1430670,null,"<div style=""font-size:42px;"">YARN</div><img id = ""stim"" ><div class = red_square id = bottomsquare></div>",null,encoding,word_square,,,0,bottomsquare,none,true,,,YARN,7,,,
html-keyboard-response,800,1430975,null,"<div style=""font-size:42px;"">YARN</div>",null,,word,YARN,,,,,,,,,,,,
html-keyboard-response,801,1432480,null,"",null,,word,YARN,,,,,,,,,,,,
html-keyboard-response,802,1432686,null,"<div style=""font-size:42px;"">BASKET</div><img id = ""stim"" ><div class = green_square id = bottomsquare></div>",null,encoding,word_square,,,1,bottomsquare,32,true,,,BASKET,7,,,
html-keyboard-response,803,1432992,222.69999998807907,"<div style=""font-size:42px;"">BASKET</div>",32,,word,BASKET,,,,,,,,,,,,
html-keyboard-response,804,1434496,null,"",null,,word,BASKET,,,,,,,,,,,,
html-keyboard-response,805,1434701,null,"<div style=""font-size:42px;"">TRUMPET</div><img id = ""stim"" ><div class = green_square id = topsquare></div>",null,encoding,word_square,,,1,topsquare,32,true,,,TRUMPET,7,,,
html-keyboard-response,806,1435004,null,"<div style=""font-size:42px;"">TRUMPET</div>",null,,word,TRUMPET,,,,,,,,,,,,
html-keyboard-response,807,1436511,126.09999996423721,"",32,,word,TRUMPET,,,,,,,,,,,,
html-keyboard-response,808,1436716,null,"<div style=""font-size:42px;"">ISLAND</div><img id = ""stim"" ><div class = red_square id = topsquare></div>",null,encoding,word_square,,,0,topsquare,none,true,,,ISLAND,7,,,
html-keyboard-response,809,1437022,null,"<div style=""font-size:42px;"">ISLAND</div>",null,,word,ISLAND,,,,,,,,,,,,
html-keyboard-response,810,1438527,null,"",null,,word,ISLAND,,,,,,,,,,,,
html-keyboard-response,811,1438731,null,"<div style=""font-size:42px;"">MARKET</div><img id = ""stim"" ><div class = red_square id = bottomsquare></div>",null,encoding,word_square,,,0,bottomsquare,none,true,,,MARKET,7,,,
html-keyboard-response,812,1439035,null,"<div style=""font-size:42px;"">MARKET</div>",null,,word,MARKET,,,,,,,,,,,,
html-keyboard-response,813,1440540,null,"",null,,word,MARKET,,,,,,,,,,,,
call-function,814,1440543,,"",,,,,,,,,,,,,,,,
html-keyboard-response,815,1440647,null,"",null,,,,,,,,,,,,,,,
math-period,816,1442777,3801.2000000476837,"",,,,,,,,,,,2,,,,,
html-keyboard-response,817,1442881,null,"",null,,,,,,,,,,,,,,,
math-period,818,1444757,3483.800000011921,"",,,,,,,,,,,1,,,,,
html-keyboard-response,819,1444860,null,"",null,,,,,,,,,,,,,,,
math-period,820,1447222,4541.3999999165535,"",,,,,,,,,,,0,,,,,
html-keyboard-response,821,1447325,null,"",null,,,,,,,,,,,,,,,
math-period,822,1448808,2824.9999999403954,"",,,,,,,,,,,6,,,,,
html-keyboard-response,823,1448910,null,"",null,,,,,,,,,,,,,,,
math-period,824,1451675,5347.699999928474,"",,,,,,,,,,,4,,,,,
html-keyboard-response,825,1451779,null,"",null,,,,,,,,,,,,,,,
math-period,826,1453289,2859.100000023842,"",,,,,,,,,,,2,,,,,
html-keyboard-response,827,1453391,null,"",null,,,,,,,,,,,,,,,
math-period,828,1454895,2853.900000035763,"",,,,,,,,,,,1,,,,,
html-keyboard-response,829,1454998,null,"",null,,,,,,,,,,,,,,,
math-period,830,1456847,3525.2000000476837,"",,,,,,,,,,,1,,,,,
html-keyboard-response,831,1456949,null,"",null,,,,,,,,,,,,,,,
math-period,832,1458330,2569.100000023842,"",,,,,,,,,,,4,,,,,
html-keyboard-response,833,1458434,null,"",null,,,,,,,,,,,,,,,
math-period,834,1462020,6897.199999988079,"",,,,,,,,,,,3,,,,,
html-keyboard-response,835,1462125,null,"",null,,,,,,,,,,,,,,,
math-period,836,1463510,2665.900000035763,"",,,,,,,,,,,4,,,,,
html-keyboard-response,837,1463613,null,"",null,,,,,,,,,,,,,,,
math-period,838,1464548,null,"",,,,,,,,,,,,,,,,
html-keyboard-response,839,1465554,null,"Recall Period!",null,,,,,,,,,,,,,,,
call-function,840,1465556,,"",,,,,,,,,,,,,,,,
html-keyboard-response,841,1465659,null,"",null,,,,,,,,,,,,,,,
recall-period,842,1469159,22372.10000026226,"",,,,,,,,,,,raccoon,,,,,
html-keyboard-response,843,1469262,null,"",null,,,,,,,,,,,,,,,
recall-period,844,1471074,10274.599999845028,"",,,,,,,,,,,trumpet,,,,,
html-keyboard-response,845,1471178,null,"",null,,,,,,,,,,,,,,,
recall-period,846,1473361,10321.400000214577,"",,,,,,,,,,,island,,,,,
html-keyboard-response,847,1473463,null,"",null,,,,,,,,,,,,,,,
recall-period,848,1482136,65281.59999978542,"",,,,,,,,,,,country,,,,,
html-keyboard-response,849,1482238,null,"",null,,,,,,,,,,,,,,,
recall-period,850,1540562,null,"",,,,,,,,,,,,,,,,
html-keyboard-response,851,1541068,null,"Time's Up!",null,,,,,,,,,,,,,,,
html-keyboard-response,852,1543205,2132.900000035763,"<p> Good job! You have responded correctly to 95% of the trials. </p>
                      <p>Be sure to only press the spacebar if you see a GREEN square, and please keep your accuracy above 80%.</p>
                      <p> Press any key to continue the experiment. </p>",32,,,,,,,,,,,,,,,
html-keyboard-response,853,1544034,826.3000000119209,"<div style=""font-size:48px;"">Press any key to begin list 9 of 16 </div>",32,,,,,,,,,,,,,,,
html-keyboard-response,854,1546539,null,"<div style=""font-size:60px;"">+</div>",null,,,,,,,,,,,,,,,
html-keyboard-response,855,1546742,null,"<div style=""font-size:42px;"">FOLDER</div><img id = ""stim"" ><div class = green_square id = topsquare></div>",null,encoding,word_square,,,1,topsquare,32,true,,,FOLDER,8,,,
html-keyboard-response,856,1547045,null,"<div style=""font-size:42px;"">FOLDER</div>",null,,word,FOLDER,,,,,,,,,,,,
html-keyboard-response,857,1548551,138.89999997615814,"",32,,word,FOLDER,,,,,,,,,,,,
html-keyboard-response,858,1548755,null,"<div style=""font-size:42px;"">BATHTUB</div><img id = ""stim"" ><div class = green_square id = bottomsquare></div>",null,encoding,word_square,,,1,bottomsquare,32,true,,,BATHTUB,8,,,
html-keyboard-response,859,1549059,null,"<div style=""font-size:42px;"">BATHTUB</div>",null,,word,BATHTUB,,,,,,,,,,,,
html-keyboard-response,860,1550565,12.900000035762787,"",32,,word,BATHTUB,,,,,,,,,,,,
html-keyboard-response,861,1550770,null,"<div style=""font-size:42px;"">PAIL</div><img id = ""stim"" ><div class = red_square id = bottomsquare></div>",null,encoding,word_square,,,0,bottomsquare,none,true,,,PAIL,8,,,
html-keyboard-response,862,1551073,null,"<div style=""font-size:42px;"">PAIL</div>",null,,word,PAIL,,,,,,,,,,,,
html-keyboard-response,863,1552579,null,"",null,,word,PAIL,,,,,,,,,,,,
html-keyboard-response,864,1552785,null,"<div style=""font-size:42px;"">NOTEBOOK</div><img id = ""stim"" ><div class = red_square id = topsquare></div>",null,encoding,word_square,,,0,topsquare,none,true,,,NOTEBOOK,8,,,
html-keyboard-response,865,1553088,null,"<div style=""font-size:42px;"">NOTEBOOK</div>",null,,word,NOTEBOOK,,,,,,,,,,,,
html-keyboard-response,866,1554595,null,"",null,,word,NOTEBOOK,,,,,,,,,,,,
html-keyboard-response,867,1554800,null,"<div style=""font-size:42px;"">ATLAS</div><img id = ""stim"" ><div class = green_square id = topsquare></div>",null,encoding,word_square,,,1,topsquare,32,true,,,ATLAS,8,,,
html-keyboard-response,868,1555107,null,"<div style=""font-size:42px;"">ATLAS</div>",null,,word,ATLAS,,,,,,,,,,,,
html-keyboard-response,869,1556616,22.80000001192093,"",32,,word,ATLAS,,,,,,,,,,,,
html-keyboard-response,870,1556821,null,"<div style=""font-size:42px;"">COFFIN</div><img id = ""stim"" ><div class = red_square id = bottomsquare></div>",null,encoding,word_square,,,0,bottomsquare,none,true,,,COFFIN,8,,,
html-keyboard-response,871,1557123,null,"<div style=""font-size:42px;"">COFFIN</div>",null,,word,COFFIN,,,,,,,,,,,,
html-keyboard-response,872,1558627,null,"",null,,word,COFFIN,,,,,,,,,,,,
html-keyboard-response,873,1558832,null,"<div style=""font-size:42px;"">SAND</div><img id = ""stim"" ><div class = red_square id = topsquare></div>",null,encoding,word_square,,,0,topsquare,none,true,,,SAND,8,,,
html-keyboard-response,874,1559135,null,"<div style=""font-size:42px;"">SAND</div>",null,,word,SAND,,,,,,,,,,,,
html-keyboard-response,875,1560639,null,"",null,,word,SAND,,,,,,,,,,,,
html-keyboard-response,876,1560845,null,"<div style=""font-size:42px;"">HAMPER</div><img id = ""stim"" ><div class = green_square id = bottomsquare></div>",null,encoding,word_square,,,1,bottomsquare,32,true,,,HAMPER,8,,,
html-keyboard-response,877,1561149,259.19999998807907,"<div style=""font-size:42px;"">HAMPER</div>",32,,word,HAMPER,,,,,,,,,,,,
html-keyboard-response,878,1562654,null,"",null,,word,HAMPER,,,,,,,,,,,,
html-keyboard-response,879,1562858,null,"<div style=""font-size:42px;"">ACTOR</div><img id = ""stim"" ><div class = green_square id = topsquare></div>",null,encoding,word_square,,,1,topsquare,32,true,,,ACTOR,8,,,
html-keyboard-response,880,1563162,null,"<div style=""font-size:42px;"">ACTOR</div>",null,,word,ACTOR,,,,,,,,,,,,
html-keyboard-response,881,1564665,85.30000001192093,"",32,,word,ACTOR,,,,,,,,,,,,
html-keyboard-response,882,1564870,null,"<div style=""font-size:42px;"">CATCHER</div><img id = ""stim"" ><div class = green_square id = bottomsquare></div>",null,encoding,word_square,,,1,bottomsquare,32,true,,,CATCHER,8,,,
html-keyboard-response,883,1565174,null,"<div style=""font-size:42px;"">CATCHER</div>",null,,word,CATCHER,,,,,,,,,,,,
html-keyboard-response,884,1566677,43.89999997615814,"",32,,word,CATCHER,,,,,,,,,,,,
html-keyboard-response,885,1566883,null,"<div style=""font-size:42px;"">FIGHTER</div><img id = ""stim"" ><div class = red_square id = bottomsquare></div>",null,encoding,word_square,,,0,bottomsquare,none,true,,,FIGHTER,8,,,
html-keyboard-response,886,1567186,null,"<div style=""font-size:42px;"">FIGHTER</div>",null,,word,FIGHTER,,,,,,,,,,,,
html-keyboard-response,887,1568690,null,"",null,,word,FIGHTER,,,,,,,,,,,,
html-keyboard-response,888,1568894,null,"<div style=""font-size:42px;"">GODDESS</div><img id = ""stim"" ><div class = green_square id = topsquare></div>",null,encoding,word_square,,,1,topsquare,32,true,,,GODDESS,8,,,
html-keyboard-response,889,1569198,191.39999997615814,"<div style=""font-size:42px;"">GODDESS</div>",32,,word,GODDESS,,,,,,,,,,,,
html-keyboard-response,890,1570702,null,"",null,,word,GODDESS,,,,,,,,,,,,
html-keyboard-response,891,1570909,null,"<div style=""font-size:42px;"">LABEL</div><img id = ""stim"" ><div class = red_square id = topsquare></div>",null,encoding,word_square,,,0,topsquare,none,true,,,LABEL,8,,,
