trial_type,trial_index,time_elapsed,rt,stimulus,key_press,exp_phase,test_part,word,task,targ_cond,sq_pos,correctKeyCode,correct,value,response,Word,List,RecResp,serial_pos,colorChosen
pavlovia,0,2356,,"",,,,,,,,,,,,,,,,
external-html,1,429225,426758.59999990463,"",,,,,,,,,,,,,,,,
html-keyboard-response,2,430833,1606.7000000476837,"Welcome to the experiment. Press any key to begin.",32,,,,,,,,,,,,,,,
html-keyboard-response,3,463937,33103.5,"<p>You will see a list of words and colored squares in the following task.<p><p>Press the spacebar whenever you see a red square.<p><p>Do not press a key if the square is green.<p><p>Press the spacebar to continue.</p>",32,,,,,,,,,,,,,,,
html-keyboard-response,4,476913,12475.100000023842,"<p>Please try to remember as many of the words as you can, and try to think about the meaning of each word as it appears.<p><p>After the detection and encoding task you will be asked to solve some math problems for 24 seconds.<p> Please solve as many problems as you can in the time given. <p><p><p>Press the spacebar to continue.</p>",32,,,,,,,,,,,,,,,
html-keyboard-response,5,485088,7674,"After solving the math problems, you will be asked to type in as many words <p>from the previous list as you can remember for 75 seconds.<p> If you finish recalling before the 75 seconds are up,<p> just sit tight and try to think of any more words you could have missed. <p><p><p>Press the spacebar to continue.</p>",32,,,,,,,,,,,,,,,
html-keyboard-response,6,498224,12623.899999976158,"There will be 16 lists of words and recall, followed  by<p><p> a recognition phase. The experiment is expected to take up to 90 minutes.<p>We will begin with a brief practice session.<p>Press the spacebar to begin the practice.</p>",32,,,,,,,,,,,,,,,
html-keyboard-response,7,500741,null,"<div style=""font-size:60px;"">+</div>",null,,,,,,,,,,,,,,,
html-keyboard-response,8,500951,null,"<div style=""font-size:42px;"">HAPPY</div><img id = ""stim"" ><div class = green_square id = ""bottomsquare"" ></div>",null,practice,word_square,HAPPY,prac_response,0,Bottom,none,true,,,,,,,
html-keyboard-response,9,501266,null,"<div style=""font-size:42px;"">HAPPY</div>",null,,word,HAPPY,,,,,,,,,,,,
html-keyboard-response,10,502781,null,"",null,,word,HAPPY,,,,,,,,,,,,
html-keyboard-response,11,502986,null,"<div style=""font-size:42px;"">COLD</div><img id = ""stim"" ><div class = red_square id = ""bottomsquare"" ></div>",null,practice,word_square,COLD,prac_response,1,Bottom,32,false,,,,,,,
html-keyboard-response,12,503288,null,"<div style=""font-size:42px;"">COLD</div>",null,,word,COLD,,,,,,,,,,,,
html-keyboard-response,13,504800,null,"",null,,word,COLD,,,,,,,,,,,,
html-keyboard-response,14,505007,null,"<div style=""font-size:42px;"">HEAVY</div><img id = ""stim"" ><div class = red_square id = ""topsquare"" ></div>",null,practice,word_square,HEAVY,prac_response,1,Top,32,false,,,,,,,
html-keyboard-response,15,505323,null,"<div style=""font-size:42px;"">HEAVY</div>",null,,word,HEAVY,,,,,,,,,,,,
html-keyboard-response,16,506828,229.09999990463257,"",65,,word,HEAVY,,,,,,,,,,,,
html-keyboard-response,17,507037,null,"<div style=""font-size:42px;"">FUNNY</div><img id = ""stim"" ><div class = green_square id = ""topsquare"" ></div>",null,practice,word_square,FUNNY,prac_response,0,Top,none,true,,,,,,,
html-keyboard-response,18,507343,130.79999995231628,"<div style=""font-size:42px;"">FUNNY</div>",65,,word,FUNNY,,,,,,,,,,,,
html-keyboard-response,19,508852,null,"",null,,word,FUNNY,,,,,,,,,,,,
html-keyboard-response,20,509056,null,"<div style=""font-size:42px;"">SCARY</div><img id = ""stim"" ><div class = red_square id = ""bottomsquare"" ></div>",null,practice,word_square,SCARY,prac_response,1,Bottom,32,false,,,,,,,
html-keyboard-response,21,509363,null,"<div style=""font-size:42px;"">SCARY</div>",null,,word,SCARY,,,,,,,,,,,,
html-keyboard-response,22,510868,132.89999997615814,"",65,,word,SCARY,,,,,,,,,,,,
html-keyboard-response,23,511077,null,"<div style=""font-size:42px;"">PEACEFUL</div><img id = ""stim"" ><div class = red_square id = ""topsquare"" ></div>",null,practice,word_square,PEACEFUL,prac_response,1,Top,32,true,,,,,,,
html-keyboard-response,24,511391,null,"<div style=""font-size:42px;"">PEACEFUL</div>",null,,word,PEACEFUL,,,,,,,,,,,,
html-keyboard-response,25,512906,96.70000004768372,"",32,,word,PEACEFUL,,,,,,,,,,,,
html-keyboard-response,26,513112,null,"<div style=""font-size:42px;"">LITTLE</div><img id = ""stim"" ><div class = green_square id = ""bottomsquare"" ></div>",null,practice,word_square,LITTLE,prac_response,0,Bottom,none,true,,,,,,,
html-keyboard-response,27,513414,223.89999997615814,"<div style=""font-size:42px;"">LITTLE</div>",65,,word,LITTLE,,,,,,,,,,,,
html-keyboard-response,28,514925,null,"",null,,word,LITTLE,,,,,,,,,,,,
html-keyboard-response,29,515132,null,"<div style=""font-size:42px;"">TIRED</div><img id = ""stim"" ><div class = green_square id = ""topsquare"" ></div>",null,practice,word_square,TIRED,prac_response,0,Top,none,true,,,,,,,
html-keyboard-response,30,515447,null,"<div style=""font-size:42px;"">TIRED</div>",null,,word,TIRED,,,,,,,,,,,,
html-keyboard-response,31,516954,521.2999999523163,"",65,,word,TIRED,,,,,,,,,,,,
html-keyboard-response,32,517160,null,"<div style=""font-size:42px;"">ENTERTAINING</div><img id = ""stim"" ><div class = green_square id = ""bottomsquare"" ></div>",null,practice,word_square,ENTERTAINING,prac_response,0,Bottom,none,true,,,,,,,
html-keyboard-response,33,517462,null,"<div style=""font-size:42px;"">ENTERTAINING</div>",null,,word,ENTERTAINING,,,,,,,,,,,,
html-keyboard-response,34,518978,1.3000000715255737,"",65,,word,ENTERTAINING,,,,,,,,,,,,
html-keyboard-response,35,519184,null,"<div style=""font-size:42px;"">GRATEFUL</div><img id = ""stim"" ><div class = red_square id = ""bottomsquare"" ></div>",null,practice,word_square,GRATEFUL,prac_response,1,Bottom,32,true,,,,,,,
html-keyboard-response,36,519490,null,"<div style=""font-size:42px;"">GRATEFUL</div>",null,,word,GRATEFUL,,,,,,,,,,,,
html-keyboard-response,37,520995,613.3999999761581,"",32,,word,GRATEFUL,,,,,,,,,,,,
html-keyboard-response,38,521204,null,"<div style=""font-size:42px;"">LOUD</div><img id = ""stim"" ><div class = green_square id = ""topsquare"" ></div>",null,practice,word_square,LOUD,prac_response,0,Top,none,true,,,,,,,
html-keyboard-response,39,521520,139.70000004768372,"<div style=""font-size:42px;"">LOUD</div>",65,,word,LOUD,,,,,,,,,,,,
html-keyboard-response,40,523025,null,"",null,,word,LOUD,,,,,,,,,,,,
html-keyboard-response,41,523240,null,"<div style=""font-size:42px;"">SMART</div><img id = ""stim"" ><div class = red_square id = ""topsquare"" ></div>",null,practice,word_square,SMART,prac_response,1,Top,32,true,,,,,,,
html-keyboard-response,42,523556,31.800000071525574,"<div style=""font-size:42px;"">SMART</div>",32,,word,SMART,,,,,,,,,,,,
html-keyboard-response,43,525064,null,"",null,,word,SMART,,,,,,,,,,,,
html-keyboard-response,44,525273,null,"<div style=""font-size:42px;"">SMOOTH</div><img id = ""stim"" ><div class = red_square id = ""bottomsquare"" ></div>",null,practice,word_square,SMOOTH,prac_response,1,Bottom,32,false,,,,,,,
html-keyboard-response,45,525589,null,"<div style=""font-size:42px;"">SMOOTH</div>",null,,word,SMOOTH,,,,,,,,,,,,
html-keyboard-response,46,527096,18,"",65,,word,SMOOTH,,,,,,,,,,,,
html-keyboard-response,47,527306,null,"<div style=""font-size:42px;"">DISHONEST</div><img id = ""stim"" ><div class = green_square id = ""bottomsquare"" ></div>",null,practice,word_square,DISHONEST,prac_response,0,Bottom,none,true,,,,,,,
html-keyboard-response,48,527609,null,"<div style=""font-size:42px;"">DISHONEST</div>",null,,word,DISHONEST,,,,,,,,,,,,
html-keyboard-response,49,529113,183.5,"",65,,word,DISHONEST,,,,,,,,,,,,
html-keyboard-response,50,529322,null,"<div style=""font-size:42px;"">WEALTHY</div><img id = ""stim"" ><div class = red_square id = ""topsquare"" ></div>",null,practice,word_square,WEALTHY,prac_response,1,Top,32,true,,,,,,,
html-keyboard-response,51,529638,null,"<div style=""font-size:42px;"">WEALTHY</div>",null,,word,WEALTHY,,,,,,,,,,,,
html-keyboard-response,52,531146,465.2999999523163,"",32,,word,WEALTHY,,,,,,,,,,,,
html-keyboard-response,53,531354,null,"<div style=""font-size:42px;"">BEAUTIFUL</div><img id = ""stim"" ><div class = green_square id = ""topsquare"" ></div>",null,practice,word_square,BEAUTIFUL,prac_response,0,Top,none,true,,,,,,,
html-keyboard-response,54,531666,null,"<div style=""font-size:42px;"">BEAUTIFUL</div>",null,,word,BEAUTIFUL,,,,,,,,,,,,
html-keyboard-response,55,533168,525.5,"",65,,word,BEAUTIFUL,,,,,,,,,,,,
html-keyboard-response,56,572841,39671.799999952316,"<p> Uh oh. You responded correctly to only 75% of the trials. </p>
                  <p>Be sure to only press the spacebar if you see a red square, and please keep your accuracy above 80%.</p>
                  <p>We're going to try once more to make sure you understand the task. press any key to continue.</p>",32,,,,,,,,,,,,,,,
html-keyboard-response,57,585512,12670.5,"<p>You will see a list of words and colored squares in the following task.<p><p>Press the spacebar whenever you see a red square.<p><p>Do not press a key if the square is green<p><p>Press the spacebar to continue.</p>",32,,,,,,,,,,,,,,,
html-keyboard-response,58,588016,null,"<div style=""font-size:60px;"">+</div>",null,,,,,,,,,,,,,,,
html-keyboard-response,59,588222,null,"<div style=""font-size:42px;"">HAPPY</div><img id = ""stim"" ><div class = green_square id = ""bottomsquare"" ></div>",null,practice2,word_square,HAPPY,prac_response,0,Bottom,none,true,,,,,,,
html-keyboard-response,60,588536,null,"<div style=""font-size:42px;"">HAPPY</div>",null,,word,HAPPY,,,,,,,,,,,,
html-keyboard-response,61,590048,null,"",null,,word,HAPPY,,,,,,,,,,,,
html-keyboard-response,62,590254,null,"<div style=""font-size:42px;"">COLD</div><img id = ""stim"" ><div class = red_square id = ""bottomsquare"" ></div>",null,practice2,word_square,,prac_response,1,Bottom,32,true,,,,,,,
html-keyboard-response,63,590555,145.29999995231628,"<div style=""font-size:42px;"">COLD</div>",32,,word,COLD,,,,,,,,,,,,
html-keyboard-response,64,592065,null,"",null,,word,COLD,,,,,,,,,,,,
html-keyboard-response,65,592269,null,"<div style=""font-size:42px;"">HEAVY</div><img id = ""stim"" ><div class = red_square id = ""topsquare"" ></div>",null,practice2,word_square,,prac_response,1,Top,32,true,,,,,,,
html-keyboard-response,66,592585,218.80000007152557,"<div style=""font-size:42px;"">HEAVY</div>",32,,word,HEAVY,,,,,,,,,,,,
html-keyboard-response,67,594097,null,"",null,,word,HEAVY,,,,,,,,,,,,
html-keyboard-response,68,594300,null,"<div style=""font-size:42px;"">FUNNY</div><img id = ""stim"" ><div class = green_square id = ""topsquare"" ></div>",null,practice2,word_square,,prac_response,0,Top,none,true,,,,,,,
html-keyboard-response,69,594613,null,"<div style=""font-size:42px;"">FUNNY</div>",null,,word,FUNNY,,,,,,,,,,,,
html-keyboard-response,70,596114,null,"",null,,word,FUNNY,,,,,,,,,,,,
html-keyboard-response,71,596323,null,"<div style=""font-size:42px;"">SCARY</div><img id = ""stim"" ><div class = red_square id = ""bottomsquare"" ></div>",null,practice2,word_square,,prac_response,1,Bottom,32,true,,,,,,,
html-keyboard-response,72,596625,null,"<div style=""font-size:42px;"">SCARY</div>",null,,word,SCARY,,,,,,,,,,,,
html-keyboard-response,73,598131,15.199999928474426,"",32,,word,SCARY,,,,,,,,,,,,
html-keyboard-response,74,598340,null,"<div style=""font-size:42px;"">PEACEFUL</div><img id = ""stim"" ><div class = red_square id = ""topsquare"" ></div>",null,practice2,word_square,,prac_response,1,Top,32,true,,,,,,,
html-keyboard-response,75,598654,null,"<div style=""font-size:42px;"">PEACEFUL</div>",null,,word,PEACEFUL,,,,,,,,,,,,
html-keyboard-response,76,600160,265.2000000476837,"",32,,word,PEACEFUL,,,,,,,,,,,,
html-keyboard-response,77,600365,null,"<div style=""font-size:42px;"">LITTLE</div><img id = ""stim"" ><div class = green_square id = ""bottomsquare"" ></div>",null,practice2,word_square,LITTLE,prac_response,0,Bottom,none,true,,,,,,,
html-keyboard-response,78,600667,null,"<div style=""font-size:42px;"">LITTLE</div>",null,,word,LITTLE,,,,,,,,,,,,
html-keyboard-response,79,602169,null,"",null,,word,LITTLE,,,,,,,,,,,,
html-keyboard-response,80,602379,null,"<div style=""font-size:42px;"">TIRED</div><img id = ""stim"" ><div class = green_square id = ""topsquare"" ></div>",null,practice2,word_square,,prac_response,0,Top,none,true,,,,,,,
html-keyboard-response,81,602681,null,"<div style=""font-size:42px;"">TIRED</div>",null,,word,TIRED,,,,,,,,,,,,
html-keyboard-response,82,604184,null,"",null,,word,TIRED,,,,,,,,,,,,
html-keyboard-response,83,604392,null,"<div style=""font-size:42px;"">ENTERTAINING</div><img id = ""stim"" ><div class = green_square id = ""bottomsquare"" ></div>",null,practice2,word_square,ENTERTAINING,prac_response,0,Bottom,none,true,,,,,,,
html-keyboard-response,84,604695,null,"<div style=""font-size:42px;"">ENTERTAINING</div>",null,,word,ENTERTAINING,,,,,,,,,,,,
html-keyboard-response,85,606196,null,"",null,,word,ENTERTAINING,,,,,,,,,,,,
html-keyboard-response,86,606405,null,"<div style=""font-size:42px;"">GRATEFUL</div><img id = ""stim"" ><div class = red_square id = ""bottomsquare"" ></div>",null,practice2,word_square,,prac_response,1,Bottom,32,true,,,,,,,
html-keyboard-response,87,606707,274.5,"<div style=""font-size:42px;"">GRATEFUL</div>",32,,word,GRATEFUL,,,,,,,,,,,,
html-keyboard-response,88,608208,null,"",null,,word,GRATEFUL,,,,,,,,,,,,
html-keyboard-response,89,608413,null,"<div style=""font-size:42px;"">LOUD</div><img id = ""stim"" ><div class = green_square id = ""topsquare"" ></div>",null,practice2,word_square,,prac_response,0,Top,none,true,,,,,,,
html-keyboard-response,90,608716,null,"<div style=""font-size:42px;"">LOUD</div>",null,,word,LOUD,,,,,,,,,,,,
html-keyboard-response,91,610223,null,"",null,,word,LOUD,,,,,,,,,,,,
html-keyboard-response,92,610427,null,"<div style=""font-size:42px;"">SMART</div><img id = ""stim"" ><div class = red_square id = ""topsquare"" ></div>",null,practice2,word_square,,prac_response,1,Top,32,true,,,,,,,
html-keyboard-response,93,610730,292.3000000715256,"<div style=""font-size:42px;"">SMART</div>",32,,word,SMART,,,,,,,,,,,,
html-keyboard-response,94,612238,null,"",null,,word,SMART,,,,,,,,,,,,
html-keyboard-response,95,612442,null,"<div style=""font-size:42px;"">SMOOTH</div><img id = ""stim"" ><div class = red_square id = ""bottomsquare"" ></div>",null,practice2,word_square,,prac_response,1,Bottom,32,true,,,,,,,
html-keyboard-response,96,612743,null,"<div style=""font-size:42px;"">SMOOTH</div>",null,,word,SMOOTH,,,,,,,,,,,,
html-keyboard-response,97,614254,48.10000002384186,"",32,,word,SMOOTH,,,,,,,,,,,,
html-keyboard-response,98,614462,null,"<div style=""font-size:42px;"">DISHONEST</div><img id = ""stim"" ><div class = green_square id = ""bottomsquare"" ></div>",null,practice2,word_square,DISHONEST,prac_response,0,Bottom,none,true,,,,,,,
html-keyboard-response,99,614764,null,"<div style=""font-size:42px;"">DISHONEST</div>",null,,word,DISHONEST,,,,,,,,,,,,
html-keyboard-response,100,616271,null,"",null,,word,DISHONEST,,,,,,,,,,,,
html-keyboard-response,101,616476,null,"<div style=""font-size:42px;"">WEALTHY</div><img id = ""stim"" ><div class = red_square id = ""topsquare"" ></div>",null,practice2,word_square,,prac_response,1,Top,32,true,,,,,,,
html-keyboard-response,102,616779,139.39999997615814,"<div style=""font-size:42px;"">WEALTHY</div>",32,,word,WEALTHY,,,,,,,,,,,,
html-keyboard-response,103,618285,null,"",null,,word,WEALTHY,,,,,,,,,,,,
html-keyboard-response,104,618490,null,"<div style=""font-size:42px;"">BEAUTIFUL</div><img id = ""stim"" ><div class = green_square id = ""topsquare"" ></div>",null,practice2,word_square,,prac_response,0,Top,none,false,,,,,,,
html-keyboard-response,105,618792,null,"<div style=""font-size:42px;"">BEAUTIFUL</div>",null,,word,BEAUTIFUL,,,,,,,,,,,,
html-keyboard-response,106,620301,null,"",null,,word,BEAUTIFUL,,,,,,,,,,,,
html-keyboard-response,107,625824,5522.699999928474,"<p> Good job! You responded correctly to 100% of the trials. </p>
                    <p>Be sure to only press the spacebar if you see a red square, and please keep your accuracy above 80%.</p>
                    <p>Press any key to begin the math and recall sections. Thank you! </p>",32,,,,,,,,,,,,,,,
call-function,108,625825,,"",,,,,,,,,,,,,,,,
html-keyboard-response,109,625937,null,"",null,,,,,,,,,,,,,,,
math-period,110,635760,18532.699999928474,"",,,,,,,,,,,2numpad,,,,,
html-keyboard-response,111,635874,null,"",null,,,,,,,,,,,,,,,
math-period,112,639056,5938.5,"",,,,,,,,,,,4numpad,,,,,
html-keyboard-response,113,639166,null,"",null,,,,,,,,,,,,,,,
math-period,114,642680,6842.599999904633,"",,,,,,,,,,,3numpad,,,,,
html-keyboard-response,115,642793,null,"",null,,,,,,,,,,,,,,,
math-period,116,643936,2140.8000000715256,"",,,,,,,,,,,4numpad,,,,,
html-keyboard-response,117,644050,null,"",null,,,,,,,,,,,,,,,
math-period,118,645776,3298.600000143051,"",,,,,,,,,,,3numpad,,,,,
html-keyboard-response,119,645892,null,"",null,,,,,,,,,,,,,,,
math-period,120,647112,2286.5999999046326,"",,,,,,,,,,,3numpad,,,,,
html-keyboard-response,121,647222,null,"",null,,,,,,,,,,,,,,,
math-period,122,648432,2291.5000001192093,"",,,,,,,,,,,4numpad,,,,,
html-keyboard-response,123,648543,null,"",null,,,,,,,,,,,,,,,
math-period,124,649833,null,"",,,,,,,,,,,,,,,,
html-keyboard-response,125,650847,null,"Recall Period!",null,,,,,,,,,,,,,,,
call-function,126,650847,,"",,,,,,,,,,,,,,,,
html-keyboard-response,127,650960,null,"",null,,,,,,,,,,,,,,,
recall-period,128,666392,286358.89999961853,"",,,,,,,,,,,funny,,,,,
html-keyboard-response,129,666502,null,"",null,,,,,,,,,,,,,,,
recall-period,130,672600,24526.399999976158,"",,,,,,,,,,,tired,,,,,
html-keyboard-response,131,672712,null,"",null,,,,,,,,,,,,,,,
recall-period,132,684224,29955.800000071526,"",,,,,,,,,,,beautiful,,,,,
html-keyboard-response,133,684336,null,"",null,,,,,,,,,,,,,,,
recall-period,134,693464,59759.39999985695,"",,,,,,,,,,,wealthy,,,,,
html-keyboard-response,135,693579,null,"",null,,,,,,,,,,,,,,,
recall-period,136,725854,null,"",,,,,,,,,,,,,,,,
html-keyboard-response,137,726369,null,"Time's Up!",null,,,,,,,,,,,,,,,
html-keyboard-response,138,752360,25990.099999904633,"<p>We will now begin the experiment!<p><p>Please try to remember all words from each list.<p><p>Press the spacebar whenever you see a red square.<p><p><p><p>Press the spacebar to begin.</p>",32,,,,,,,,,,,,,,,
html-keyboard-response,139,755904,3042.899999976158,"<div style=""font-size:48px;"">Press any key to begin list 1 of 16 </div>",32,,,,,,,,,,,,,,,
html-keyboard-response,140,758431,null,"<div style=""font-size:60px;"">+</div>",null,,,,,,,,,,,,,,,
html-keyboard-response,141,758634,null,"<div style=""font-size:42px;"">ATOM</div><img id = ""stim"" ><div class = red_square id = topsquare></div>",null,encoding,word_square,,,1,topsquare,32,true,,,ATOM,0,,,
html-keyboard-response,142,758936,189.5,"<div style=""font-size:42px;"">ATOM</div>",32,,word,ATOM,,,,,,,,,,,,
html-keyboard-response,143,760448,null,"",null,,word,ATOM,,,,,,,,,,,,
html-keyboard-response,144,760655,null,"<div style=""font-size:42px;"">TROUT</div><img id = ""stim"" ><div class = green_square id = bottomsquare></div>",null,encoding,word_square,,,0,bottomsquare,none,true,,,TROUT,0,,,
html-keyboard-response,145,760957,null,"<div style=""font-size:42px;"">TROUT</div>",null,,word,TROUT,,,,,,,,,,,,
html-keyboard-response,146,762473,null,"",null,,word,TROUT,,,,,,,,,,,,
html-keyboard-response,147,762685,null,"<div style=""font-size:42px;"">MAMMAL</div><img id = ""stim"" ><div class = red_square id = bottomsquare></div>",null,encoding,word_square,,,1,bottomsquare,32,true,,,MAMMAL,0,,,
html-keyboard-response,148,763000,179,"<div style=""font-size:42px;"">MAMMAL</div>",32,,word,MAMMAL,,,,,,,,,,,,
html-keyboard-response,149,764502,null,"",null,,word,MAMMAL,,,,,,,,,,,,
html-keyboard-response,150,764710,null,"<div style=""font-size:42px;"">EARRING</div><img id = ""stim"" ><div class = red_square id = topsquare></div>",null,encoding,word_square,,,1,topsquare,32,true,,,EARRING,0,,,
html-keyboard-response,151,765013,257,"<div style=""font-size:42px;"">EARRING</div>",32,,word,EARRING,,,,,,,,,,,,
html-keyboard-response,152,766525,null,"",null,,word,EARRING,,,,,,,,,,,,
html-keyboard-response,153,766731,null,"<div style=""font-size:42px;"">AUTHOR</div><img id = ""stim"" ><div class = red_square id = bottomsquare></div>",null,encoding,word_square,,,1,bottomsquare,32,true,,,AUTHOR,0,,,
html-keyboard-response,154,767036,228,"<div style=""font-size:42px;"">AUTHOR</div>",32,,word,AUTHOR,,,,,,,,,,,,
html-keyboard-response,155,768541,null,"",null,,word,AUTHOR,,,,,,,,,,,,
html-keyboard-response,156,768745,null,"<div style=""font-size:42px;"">PEANUT</div><img id = ""stim"" ><div class = red_square id = topsquare></div>",null,encoding,word_square,,,1,topsquare,32,true,,,PEANUT,0,,,
html-keyboard-response,157,769051,150,"<div style=""font-size:42px;"">PEANUT</div>",32,,word,PEANUT,,,,,,,,,,,,
html-keyboard-response,158,770565,null,"",null,,word,PEANUT,,,,,,,,,,,,
html-keyboard-response,159,770773,null,"<div style=""font-size:42px;"">IDOL</div><img id = ""stim"" ><div class = green_square id = topsquare></div>",null,encoding,word_square,,,0,topsquare,none,true,,,IDOL,0,,,
html-keyboard-response,160,771075,null,"<div style=""font-size:42px;"">IDOL</div>",null,,word,IDOL,,,,,,,,,,,,
html-keyboard-response,161,772580,null,"",null,,word,IDOL,,,,,,,,,,,,
html-keyboard-response,162,772787,null,"<div style=""font-size:42px;"">WOLF</div><img id = ""stim"" ><div class = green_square id = bottomsquare></div>",null,encoding,word_square,,,0,bottomsquare,none,true,,,WOLF,0,,,
html-keyboard-response,163,773090,null,"<div style=""font-size:42px;"">WOLF</div>",null,,word,WOLF,,,,,,,,,,,,
html-keyboard-response,164,774596,null,"",null,,word,WOLF,,,,,,,,,,,,
html-keyboard-response,165,774801,null,"<div style=""font-size:42px;"">ARTIST</div><img id = ""stim"" ><div class = red_square id = bottomsquare></div>",null,encoding,word_square,,,1,bottomsquare,32,true,,,ARTIST,0,,,
html-keyboard-response,166,775103,286.60000002384186,"<div style=""font-size:42px;"">ARTIST</div>",32,,word,ARTIST,,,,,,,,,,,,
html-keyboard-response,167,776612,null,"",null,,word,ARTIST,,,,,,,,,,,,
html-keyboard-response,168,776815,null,"<div style=""font-size:42px;"">ANKLE</div><img id = ""stim"" ><div class = green_square id = topsquare></div>",null,encoding,word_square,,,0,topsquare,none,true,,,ANKLE,0,,,
html-keyboard-response,169,777117,null,"<div style=""font-size:42px;"">ANKLE</div>",null,,word,ANKLE,,,,,,,,,,,,
html-keyboard-response,170,778628,null,"",null,,word,ANKLE,,,,,,,,,,,,
html-keyboard-response,171,778836,null,"<div style=""font-size:42px;"">SEAGULL</div><img id = ""stim"" ><div class = red_square id = topsquare></div>",null,encoding,word_square,,,1,topsquare,32,true,,,SEAGULL,0,,,
html-keyboard-response,172,779137,null,"<div style=""font-size:42px;"">SEAGULL</div>",null,,word,SEAGULL,,,,,,,,,,,,
html-keyboard-response,173,780650,22.5,"",32,,word,SEAGULL,,,,,,,,,,,,
html-keyboard-response,174,780857,null,"<div style=""font-size:42px;"">OX</div><img id = ""stim"" ><div class = green_square id = bottomsquare></div>",null,encoding,word_square,,,0,bottomsquare,none,true,,,OX,0,,,
html-keyboard-response,175,781160,238.5,"<div style=""font-size:42px;"">OX</div>",32,,word,OX,,,,,,,,,,,,
html-keyboard-response,176,782667,null,"",null,,word,OX,,,,,,,,,,,,
html-keyboard-response,177,782871,null,"<div style=""font-size:42px;"">CATTLE</div><img id = ""stim"" ><div class = green_square id = topsquare></div>",null,encoding,word_square,,,0,topsquare,none,true,,,CATTLE,0,,,
html-keyboard-response,178,783174,null,"<div style=""font-size:42px;"">CATTLE</div>",null,,word,CATTLE,,,,,,,,,,,,
html-keyboard-response,179,784681,null,"",null,,word,CATTLE,,,,,,,,,,,,
html-keyboard-response,180,784895,null,"<div style=""font-size:42px;"">CREVICE</div><img id = ""stim"" ><div class = red_square id = bottomsquare></div>",null,encoding,word_square,,,1,bottomsquare,32,true,,,CREVICE,0,,,
html-keyboard-response,181,785207,120.70000004768372,"<div style=""font-size:42px;"">CREVICE</div>",32,,word,CREVICE,,,,,,,,,,,,
html-keyboard-response,182,786715,null,"",null,,word,CREVICE,,,,,,,,,,,,
html-keyboard-response,183,786920,null,"<div style=""font-size:42px;"">SHERIFF</div><img id = ""stim"" ><div class = green_square id = bottomsquare></div>",null,encoding,word_square,,,0,bottomsquare,none,true,,,SHERIFF,0,,,
html-keyboard-response,184,787222,null,"<div style=""font-size:42px;"">SHERIFF</div>",null,,word,SHERIFF,,,,,,,,,,,,
html-keyboard-response,185,788723,null,"",null,,word,SHERIFF,,,,,,,,,,,,
html-keyboard-response,186,788927,null,"<div style=""font-size:42px;"">AGENT</div><img id = ""stim"" ><div class = green_square id = topsquare></div>",null,encoding,word_square,,,0,topsquare,none,true,,,AGENT,0,,,
html-keyboard-response,187,789230,null,"<div style=""font-size:42px;"">AGENT</div>",null,,word,AGENT,,,,,,,,,,,,
html-keyboard-response,188,790746,null,"",null,,word,AGENT,,,,,,,,,,,,
call-function,189,790746,,"",,,,,,,,,,,,,,,,
html-keyboard-response,190,790854,null,"",null,,,,,,,,,,,,,,,
math-period,191,795272,6467.399999976158,"",,,,,,,,,,,6numpad,,,,,
html-keyboard-response,192,795382,null,"",null,,,,,,,,,,,,,,,
math-period,193,803096,15131.5,"",,,,,,,,,,,0numpad,,,,,
html-keyboard-response,194,803204,null,"",null,,,,,,,,,,,,,,,
math-period,195,804696,2813.5999999046326,"",,,,,,,,,,,4numpad,,,,,
html-keyboard-response,196,804797,null,"",null,,,,,,,,,,,,,,,
math-period,197,806032,2260.6999999284744,"",,,,,,,,,,,6numpad,,,,,
html-keyboard-response,198,806146,null,"",null,,,,,,,,,,,,,,,
math-period,199,808936,5450.899999976158,"",,,,,,,,,,,2numpad,,,,,
html-keyboard-response,200,809051,null,"",null,,,,,,,,,,,,,,,
math-period,201,810232,2191.7999999523163,"",,,,,,,,,,,3numpad,,,,,
html-keyboard-response,202,810348,null,"",null,,,,,,,,,,,,,,,
math-period,203,812280,3719.5000001192093,"",,,,,,,,,,,1numpad,,,,,
html-keyboard-response,204,812389,null,"",null,,,,,,,,,,,,,,,
math-period,205,814376,3844.600000023842,"",,,,,,,,,,,1numpad,,,,,
html-keyboard-response,206,814487,null,"",null,,,,,,,,,,,,,,,
math-period,207,814756,null,"",,,,,,,,,,,,,,,,
html-keyboard-response,208,815769,null,"Recall Period!",null,,,,,,,,,,,,,,,
call-function,209,815769,,"",,,,,,,,,,,,,,,,
html-keyboard-response,210,815884,null,"",null,,,,,,,,,,,,,,,
recall-period,211,822072,38643.800000190735,"",,,,,,,,,,,sheriff,,,,,
html-keyboard-response,212,822188,null,"",null,,,,,,,,,,,,,,,
recall-period,213,830896,34452.39999997616,"",,,,,,,,,,,seagull,,,,,
html-keyboard-response,214,831008,null,"",null,,,,,,,,,,,,,,,
recall-period,215,836408,14987.299999594688,"",,,,,,,,,,,cattle,,,,,
html-keyboard-response,216,836523,null,"",null,,,,,,,,,,,,,,,
recall-period,217,844960,11960.800000190735,"",,,,,,,,,,,agent,,,,,
html-keyboard-response,218,845073,null,"",null,,,,,,,,,,,,,,,
recall-period,219,890783,null,"",,,,,,,,,,,,,,,,
html-keyboard-response,220,891288,null,"Time's Up!",null,,,,,,,,,,,,,,,
html-keyboard-response,221,898520,7231.899999976158,"<p> Good job! You have responded correctly to 100% of the trials. </p>
                      <p>Be sure to only press the spacebar if you see a red square, and please keep your accuracy above 80%.</p>
                      <p> Press any key to continue the experiment. </p>",32,,,,,,,,,,,,,,,
html-keyboard-response,222,899696,1174.8999999761581,"<div style=""font-size:48px;"">Press any key to begin list 2 of 16 </div>",32,,,,,,,,,,,,,,,
html-keyboard-response,223,902208,null,"<div style=""font-size:60px;"">+</div>",null,,,,,,,,,,,,,,,
html-keyboard-response,224,902417,null,"<div style=""font-size:42px;"">COURSE</div><img id = ""stim"" ><div class = green_square id = topsquare></div>",null,encoding,word_square,,,0,topsquare,none,true,,,COURSE,1,,,
html-keyboard-response,225,902719,null,"<div style=""font-size:42px;"">COURSE</div>",null,,word,COURSE,,,,,,,,,,,,
html-keyboard-response,226,904222,null,"",null,,word,COURSE,,,,,,,,,,,,
html-keyboard-response,227,904431,null,"<div style=""font-size:42px;"">SAUSAGE</div><img id = ""stim"" ><div class = green_square id = bottomsquare></div>",null,encoding,word_square,,,0,bottomsquare,none,true,,,SAUSAGE,1,,,
html-keyboard-response,228,904733,null,"<div style=""font-size:42px;"">SAUSAGE</div>",null,,word,SAUSAGE,,,,,,,,,,,,
html-keyboard-response,229,906236,null,"",null,,word,SAUSAGE,,,,,,,,,,,,
html-keyboard-response,230,906445,null,"<div style=""font-size:42px;"">PARTNER</div><img id = ""stim"" ><div class = red_square id = bottomsquare></div>",null,encoding,word_square,,,1,bottomsquare,32,true,,,PARTNER,1,,,
html-keyboard-response,231,906747,null,"<div style=""font-size:42px;"">PARTNER</div>",null,,word,PARTNER,,,,,,,,,,,,
html-keyboard-response,232,908250,228.70000004768372,"",32,,word,PARTNER,,,,,,,,,,,,
html-keyboard-response,233,908452,null,"<div style=""font-size:42px;"">BOYFRIEND</div><img id = ""stim"" ><div class = green_square id = topsquare></div>",null,encoding,word_square,,,0,topsquare,none,true,,,BOYFRIEND,1,,,
html-keyboard-response,234,908754,null,"<div style=""font-size:42px;"">BOYFRIEND</div>",null,,word,BOYFRIEND,,,,,,,,,,,,
html-keyboard-response,235,910259,null,"",null,,word,BOYFRIEND,,,,,,,,,,,,
html-keyboard-response,236,910466,null,"<div style=""font-size:42px;"">CREATURE</div><img id = ""stim"" ><div class = green_square id = bottomsquare></div>",null,encoding,word_square,,,0,bottomsquare,none,true,,,CREATURE,1,,,
html-keyboard-response,237,910768,null,"<div style=""font-size:42px;"">CREATURE</div>",null,,word,CREATURE,,,,,,,,,,,,
html-keyboard-response,238,912282,null,"",null,,word,CREATURE,,,,,,,,,,,,
html-keyboard-response,239,912486,null,"<div style=""font-size:42px;"">COLUMN</div><img id = ""stim"" ><div class = red_square id = topsquare></div>",null,encoding,word_square,,,1,topsquare,32,true,,,COLUMN,1,,,
html-keyboard-response,240,912789,185.10000002384186,"<div style=""font-size:42px;"">COLUMN</div>",32,,word,COLUMN,,,,,,,,,,,,
html-keyboard-response,241,914298,null,"",null,,word,COLUMN,,,,,,,,,,,,
html-keyboard-response,242,914507,null,"<div style=""font-size:42px;"">DRIVER</div><img id = ""stim"" ><div class = green_square id = topsquare></div>",null,encoding,word_square,,,0,topsquare,none,true,,,DRIVER,1,,,
html-keyboard-response,243,914809,null,"<div style=""font-size:42px;"">DRIVER</div>",null,,word,DRIVER,,,,,,,,,,,,
html-keyboard-response,244,916313,null,"",null,,word,DRIVER,,,,,,,,,,,,
html-keyboard-response,245,916521,null,"<div style=""font-size:42px;"">TRUCK</div><img id = ""stim"" ><div class = red_square id = bottomsquare></div>",null,encoding,word_square,,,1,bottomsquare,32,true,,,TRUCK,1,,,
html-keyboard-response,246,916823,190.30000007152557,"<div style=""font-size:42px;"">TRUCK</div>",32,,word,TRUCK,,,,,,,,,,,,
html-keyboard-response,247,918329,null,"",null,,word,TRUCK,,,,,,,,,,,,
html-keyboard-response,248,918535,null,"<div style=""font-size:42px;"">RUBY</div><img id = ""stim"" ><div class = green_square id = bottomsquare></div>",null,encoding,word_square,,,0,bottomsquare,none,true,,,RUBY,1,,,
html-keyboard-response,249,918837,null,"<div style=""font-size:42px;"">RUBY</div>",null,,word,RUBY,,,,,,,,,,,,
html-keyboard-response,250,920351,null,"",null,,word,RUBY,,,,,,,,,,,,
html-keyboard-response,251,920556,null,"<div style=""font-size:42px;"">WASP</div><img id = ""stim"" ><div class = green_square id = topsquare></div>",null,encoding,word_square,,,0,topsquare,none,true,,,WASP,1,,,
html-keyboard-response,252,920858,null,"<div style=""font-size:42px;"">WASP</div>",null,,word,WASP,,,,,,,,,,,,
html-keyboard-response,253,922367,null,"",null,,word,WASP,,,,,,,,,,,,
html-keyboard-response,254,922570,null,"<div style=""font-size:42px;"">WHISKERS</div><img id = ""stim"" ><div class = red_square id = topsquare></div>",null,encoding,word_square,,,1,topsquare,32,true,,,WHISKERS,1,,,
html-keyboard-response,255,922872,245.39999997615814,"<div style=""font-size:42px;"">WHISKERS</div>",32,,word,WHISKERS,,,,,,,,,,,,
html-keyboard-response,256,924383,null,"",null,,word,WHISKERS,,,,,,,,,,,,
html-keyboard-response,257,924591,null,"<div style=""font-size:42px;"">RAZOR</div><img id = ""stim"" ><div class = red_square id = bottomsquare></div>",null,encoding,word_square,,,1,bottomsquare,32,true,,,RAZOR,1,,,
html-keyboard-response,258,924893,null,"<div style=""font-size:42px;"">RAZOR</div>",null,,word,RAZOR,,,,,,,,,,,,
html-keyboard-response,259,926400,10.200000047683716,"",32,,word,RAZOR,,,,,,,,,,,,
html-keyboard-response,260,926605,null,"<div style=""font-size:42px;"">CARPET</div><img id = ""stim"" ><div class = red_square id = topsquare></div>",null,encoding,word_square,,,1,topsquare,32,true,,,CARPET,1,,,
html-keyboard-response,261,926907,null,"<div style=""font-size:42px;"">CARPET</div>",null,,word,CARPET,,,,,,,,,,,,
html-keyboard-response,262,928412,52.200000047683716,"",32,,word,CARPET,,,,,,,,,,,,
html-keyboard-response,263,928619,null,"<div style=""font-size:42px;"">TOOTHPASTE</div><img id = ""stim"" ><div class = red_square id = bottomsquare></div>",null,encoding,word_square,,,1,bottomsquare,32,true,,,TOOTHPASTE,1,,,
html-keyboard-response,264,928921,null,"<div style=""font-size:42px;"">TOOTHPASTE</div>",null,,word,TOOTHPASTE,,,,,,,,,,,,
html-keyboard-response,265,930428,422.2999999523163,"",32,,word,TOOTHPASTE,,,,,,,,,,,,
html-keyboard-response,266,930633,null,"<div style=""font-size:42px;"">PAVEMENT</div><img id = ""stim"" ><div class = green_square id = bottomsquare></div>",null,encoding,word_square,,,0,bottomsquare,none,true,,,PAVEMENT,1,,,
html-keyboard-response,267,930935,null,"<div style=""font-size:42px;"">PAVEMENT</div>",null,,word,PAVEMENT,,,,,,,,,,,,
html-keyboard-response,268,932447,null,"",null,,word,PAVEMENT,,,,,,,,,,,,
html-keyboard-response,269,932654,null,"<div style=""font-size:42px;"">RUG</div><img id = ""stim"" ><div class = red_square id = topsquare></div>",null,encoding,word_square,,,1,topsquare,32,true,,,RUG,1,,,
html-keyboard-response,270,932956,225.79999995231628,"<div style=""font-size:42px;"">RUG</div>",32,,word,RUG,,,,,,,,,,,,
html-keyboard-response,271,934471,null,"",null,,word,RUG,,,,,,,,,,,,
call-function,272,934472,,"",,,,,,,,,,,,,,,,
html-keyboard-response,273,934574,null,"",null,,,,,,,,,,,,,,,
math-period,274,936704,4050.4000000953674,"",,,,,,,,,,,6numpad,,,,,
html-keyboard-response,275,936818,null,"",null,,,,,,,,,,,,,,,
math-period,276,938992,3681,"",,,,,,,,,,,4numpad,,,,,
html-keyboard-response,277,939102,null,"",null,,,,,,,,,,,,,,,
math-period,278,944624,10818.899999856949,"",,,,,,,,,,,1numpad,,,,,
html-keyboard-response,279,944742,null,"",null,,,,,,,,,,,,,,,
math-period,280,948704,7418.200000047684,"",,,,,,,,,,,3numpad,,,,,
html-keyboard-response,281,948822,null,"",null,,,,,,,,,,,,,,,
math-period,282,950032,2065.7999999523163,"",,,,,,,,,,,4numpad,,,,,
html-keyboard-response,283,950152,null,"",null,,,,,,,,,,,,,,,
math-period,284,952032,3598,"",,,,,,,,,,,6numpad,,,,,
html-keyboard-response,285,952152,null,"",null,,,,,,,,,,,,,,,
math-period,286,954560,4622.199999928474,"",,,,,,,,,,,5numpad,,,,,
html-keyboard-response,287,954663,null,"",null,,,,,,,,,,,,,,,
math-period,288,957184,4863.599999904633,"",,,,,,,,,,,0numpad,,,,,
html-keyboard-response,289,957299,null,"",null,,,,,,,,,,,,,,,
math-period,290,958479,null,"",,,,,,,,,,,,,,,,
html-keyboard-response,291,959495,null,"Recall Period!",null,,,,,,,,,,,,,,,
call-function,292,959495,,"",,,,,,,,,,,,,,,,
html-keyboard-response,293,959609,null,"",null,,,,,,,,,,,,,,,
recall-period,294,966648,48233.50000047684,"",,,,,,,,,,,sausage,,,,,
html-keyboard-response,295,966762,null,"",null,,,,,,,,,,,,,,,
recall-period,296,971384,24659.599999904633,"",,,,,,,,,,,partner,,,,,
html-keyboard-response,297,971499,null,"",null,,,,,,,,,,,,,,,
recall-period,298,980232,37954.10000038147,"",,,,,,,,,,,boyfriend,,,,,
html-keyboard-response,299,980346,null,"",null,,,,,,,,,,,,,,,
recall-period,300,984752,25523.800000548363,"",,,,,,,,,,,toothpaste,,,,,
html-keyboard-response,301,984853,null,"",null,,,,,,,,,,,,,,,
recall-period,302,987736,5343.799999833107,"",,,,,,,,,,,rug,,,,,
html-keyboard-response,303,987846,null,"",null,,,,,,,,,,,,,,,
recall-period,304,997688,27332.800000071526,"",,,,,,,,,,,whiskers,,,,,
html-keyboard-response,305,997799,null,"",null,,,,,,,,,,,,,,,
recall-period,306,1009760,72502.50000035763,"",,,,,,,,,,,pavement,,,,,
html-keyboard-response,307,1009875,null,"",null,,,,,,,,,,,,,,,
recall-period,308,1034503,null,"",,,,,,,,,,,,,,,,
html-keyboard-response,309,1035016,null,"Time's Up!",null,,,,,,,,,,,,,,,
html-keyboard-response,310,1044808,9791.899999976158,"<p> Good job! You have responded correctly to 100% of the trials. </p>
                      <p>Be sure to only press the spacebar if you see a red square, and please keep your accuracy above 80%.</p>
                      <p> Press any key to continue the experiment. </p>",32,,,,,,,,,,,,,,,
html-keyboard-response,311,1045512,703.1000000238419,"<div style=""font-size:48px;"">Press any key to begin list 3 of 16 </div>",32,,,,,,,,,,,,,,,
html-keyboard-response,312,1048021,null,"<div style=""font-size:60px;"">+</div>",null,,,,,,,,,,,,,,,
html-keyboard-response,313,1048233,null,"<div style=""font-size:42px;"">VILLAGE</div><img id = ""stim"" ><div class = green_square id = bottomsquare></div>",null,encoding,word_square,,,0,bottomsquare,none,true,,,VILLAGE,2,,,
html-keyboard-response,314,1048545,null,"<div style=""font-size:42px;"">VILLAGE</div>",null,,word,VILLAGE,,,,,,,,,,,,
html-keyboard-response,315,1050052,null,"",null,,word,VILLAGE,,,,,,,,,,,,
html-keyboard-response,316,1050268,null,"<div style=""font-size:42px;"">LIGHTNING</div><img id = ""stim"" ><div class = red_square id = topsquare></div>",null,encoding,word_square,,,1,topsquare,32,true,,,LIGHTNING,2,,,
html-keyboard-response,317,1050571,179.29999995231628,"<div style=""font-size:42px;"">LIGHTNING</div>",32,,word,LIGHTNING,,,,,,,,,,,,
html-keyboard-response,318,1052076,null,"",null,,word,LIGHTNING,,,,,,,,,,,,
html-keyboard-response,319,1052287,null,"<div style=""font-size:42px;"">NECKLACE</div><img id = ""stim"" ><div class = green_square id = topsquare></div>",null,encoding,word_square,,,0,topsquare,none,true,,,NECKLACE,2,,,
html-keyboard-response,320,1052601,null,"<div style=""font-size:42px;"">NECKLACE</div>",null,,word,NECKLACE,,,,,,,,,,,,
html-keyboard-response,321,1054112,null,"",null,,word,NECKLACE,,,,,,,,,,,,
html-keyboard-response,322,1054325,null,"<div style=""font-size:42px;"">MISTER</div><img id = ""stim"" ><div class = green_square id = bottomsquare></div>",null,encoding,word_square,,,0,bottomsquare,none,true,,,MISTER,2,,,
html-keyboard-response,323,1054628,null,"<div style=""font-size:42px;"">MISTER</div>",null,,word,MISTER,,,,,,,,,,,,
html-keyboard-response,324,1056132,null,"",null,,word,MISTER,,,,,,,,,,,,
html-keyboard-response,325,1056342,null,"<div style=""font-size:42px;"">NOMAD</div><img id = ""stim"" ><div class = green_square id = topsquare></div>",null,encoding,word_square,,,0,topsquare,none,true,,,NOMAD,2,,,
html-keyboard-response,326,1056657,null,"<div style=""font-size:42px;"">NOMAD</div>",null,,word,NOMAD,,,,,,,,,,,,
html-keyboard-response,327,1058162,null,"",null,,word,NOMAD,,,,,,,,,,,,
html-keyboard-response,328,1058367,null,"<div style=""font-size:42px;"">PERSON</div><img id = ""stim"" ><div class = green_square id = bottomsquare></div>",null,encoding,word_square,,,0,bottomsquare,none,true,,,PERSON,2,,,
html-keyboard-response,329,1058670,null,"<div style=""font-size:42px;"">PERSON</div>",null,,word,PERSON,,,,,,,,,,,,
html-keyboard-response,330,1060177,null,"",null,,word,PERSON,,,,,,,,,,,,
html-keyboard-response,331,1060381,null,"<div style=""font-size:42px;"">FLUTE</div><img id = ""stim"" ><div class = red_square id = bottomsquare></div>",null,encoding,word_square,,,1,bottomsquare,32,true,,,FLUTE,2,,,
html-keyboard-response,332,1060683,267.09999990463257,"<div style=""font-size:42px;"">FLUTE</div>",32,,word,FLUTE,,,,,,,,,,,,
html-keyboard-response,333,1062189,null,"",null,,word,FLUTE,,,,,,,,,,,,
html-keyboard-response,334,1062395,null,"<div style=""font-size:42px;"">ICING</div><img id = ""stim"" ><div class = red_square id = topsquare></div>",null,encoding,word_square,,,1,topsquare,32,true,,,ICING,2,,,
html-keyboard-response,335,1062697,null,"<div style=""font-size:42px;"">ICING</div>",null,,word,ICING,,,,,,,,,,,,
html-keyboard-response,336,1064209,126.70000004768372,"",32,,word,ICING,,,,,,,,,,,,
html-keyboard-response,337,1064416,null,"<div style=""font-size:42px;"">SLACKS</div><img id = ""stim"" ><div class = green_square id = topsquare></div>",null,encoding,word_square,,,0,topsquare,none,true,,,SLACKS,2,,,
html-keyboard-response,338,1064718,null,"<div style=""font-size:42px;"">SLACKS</div>",null,,word,SLACKS,,,,,,,,,,,,
html-keyboard-response,339,1066225,null,"",null,,word,SLACKS,,,,,,,,,,,,
html-keyboard-response,340,1066429,null,"<div style=""font-size:42px;"">TABLE</div><img id = ""stim"" ><div class = red_square id = bottomsquare></div>",null,encoding,word_square,,,1,bottomsquare,32,true,,,TABLE,2,,,
html-keyboard-response,341,1066731,274,"<div style=""font-size:42px;"">TABLE</div>",32,,word,TABLE,,,,,,,,,,,,
html-keyboard-response,342,1068242,null,"",null,,word,TABLE,,,,,,,,,,,,
html-keyboard-response,343,1068450,null,"<div style=""font-size:42px;"">COUCH</div><img id = ""stim"" ><div class = green_square id = bottomsquare></div>",null,encoding,word_square,,,0,bottomsquare,none,true,,,COUCH,2,,,
html-keyboard-response,344,1068753,null,"<div style=""font-size:42px;"">COUCH</div>",null,,word,COUCH,,,,,,,,,,,,
html-keyboard-response,345,1070257,null,"",null,,word,COUCH,,,,,,,,,,,,
html-keyboard-response,346,1070464,null,"<div style=""font-size:42px;"">BULLET</div><img id = ""stim"" ><div class = red_square id = topsquare></div>",null,encoding,word_square,,,1,topsquare,32,true,,,BULLET,2,,,
html-keyboard-response,347,1070768,223.39999997615814,"<div style=""font-size:42px;"">BULLET</div>",32,,word,BULLET,,,,,,,,,,,,
html-keyboard-response,348,1072273,null,"",null,,word,BULLET,,,,,,,,,,,,
html-keyboard-response,349,1072478,null,"<div style=""font-size:42px;"">FIDDLE</div><img id = ""stim"" ><div class = red_square id = bottomsquare></div>",null,encoding,word_square,,,1,bottomsquare,32,true,,,FIDDLE,2,,,
html-keyboard-response,350,1072780,297.10000002384186,"<div style=""font-size:42px;"">FIDDLE</div>",32,,word,FIDDLE,,,,,,,,,,,,
html-keyboard-response,351,1074286,null,"",null,,word,FIDDLE,,,,,,,,,,,,
html-keyboard-response,352,1074492,null,"<div style=""font-size:42px;"">THIEF</div><img id = ""stim"" ><div class = green_square id = topsquare></div>",null,encoding,word_square,,,0,topsquare,none,true,,,THIEF,2,,,
html-keyboard-response,353,1074794,null,"<div style=""font-size:42px;"">THIEF</div>",null,,word,THIEF,,,,,,,,,,,,
html-keyboard-response,354,1076300,null,"",null,,word,THIEF,,,,,,,,,,,,
html-keyboard-response,355,1076506,null,"<div style=""font-size:42px;"">VICTIM</div><img id = ""stim"" ><div class = red_square id = topsquare></div>",null,encoding,word_square,,,1,topsquare,32,true,,,VICTIM,2,,,
html-keyboard-response,356,1076808,165,"<div style=""font-size:42px;"">VICTIM</div>",32,,word,VICTIM,,,,,,,,,,,,
html-keyboard-response,357,1078314,null,"",null,,word,VICTIM,,,,,,,,,,,,
html-keyboard-response,358,1078520,null,"<div style=""font-size:42px;"">BARLEY</div><img id = ""stim"" ><div class = red_square id = bottomsquare></div>",null,encoding,word_square,,,1,bottomsquare,32,true,,,BARLEY,2,,,
html-keyboard-response,359,1078822,223.10000002384186,"<div style=""font-size:42px;"">BARLEY</div>",32,,word,BARLEY,,,,,,,,,,,,
html-keyboard-response,360,1080328,null,"",null,,word,BARLEY,,,,,,,,,,,,
call-function,361,1080328,,"",,,,,,,,,,,,,,,,
html-keyboard-response,362,1080434,null,"",null,,,,,,,,,,,,,,,
math-period,363,1084224,7020.199999928474,"",,,,,,,,,,,1numpad,,,,,
html-keyboard-response,364,1084328,null,"",null,,,,,,,,,,,,,,,
math-period,365,1093176,17014.599999904633,"",,,,,,,,,,,0numpad,,,,,
html-keyboard-response,366,1093288,null,"",null,,,,,,,,,,,,,,,
math-period,367,1095864,4462.800000071526,"",,,,,,,,,,,3numpad,,,,,
html-keyboard-response,368,1095976,null,"",null,,,,,,,,,,,,,,,
math-period,369,1102304,40450.70000040531,"",,,,,,,,,,,1numpad,,,,,
html-keyboard-response,370,1102417,null,"",null,,,,,,,,,,,,,,,
math-period,371,1104200,3292.7999999523163,"",,,,,,,,,,,1numpad,,,,,
html-keyboard-response,372,1104309,null,"",null,,,,,,,,,,,,,,,
math-period,373,1104329,null,"",,,,,,,,,,,,,,,,
html-keyboard-response,374,1105335,null,"Recall Period!",null,,,,,,,,,,,,,,,
call-function,375,1105336,,"",,,,,,,,,,,,,,,,
html-keyboard-response,376,1105448,null,"",null,,,,,,,,,,,,,,,
recall-period,377,1113440,26329.00000011921,"",,,,,,,,,,,village,,,,,
html-keyboard-response,378,1113553,null,"",null,,,,,,,,,,,,,,,
recall-period,379,1124616,72069.19999957085,"",,,,,,,,,,,necklace,,,,,
html-keyboard-response,380,1124727,null,"",null,,,,,,,,,,,,,,,
recall-period,381,1130016,14268.900000214577,"",,,,,,,,,,,column,,,,,
html-keyboard-response,382,1130130,null,"",null,,,,,,,,,,,,,,,
recall-period,383,1137064,14521.700000166893,"",,,,,,,,,,,party,,,,,
html-keyboard-response,384,1137170,null,"",null,,,,,,,,,,,,,,,
recall-period,385,1153344,176363.69999992847,"",,,,,,,,,,,thief,,,,,
html-keyboard-response,386,1153448,null,"",null,,,,,,,,,,,,,,,
recall-period,387,1180338,null,"",,,,,,,,,,,,,,,,
html-keyboard-response,388,1180841,null,"Time's Up!",null,,,,,,,,,,,,,,,
html-keyboard-response,389,1182192,1350.1999999284744,"<p> Good job! You have responded correctly to 100% of the trials. </p>
                      <p>Be sure to only press the spacebar if you see a red square, and please keep your accuracy above 80%.</p>
                      <p> Press any key to continue the experiment. </p>",32,,,,,,,,,,,,,,,
html-keyboard-response,390,1182984,791.1000000238419,"<div style=""font-size:48px;"">Press any key to begin list 4 of 16 </div>",32,,,,,,,,,,,,,,,
html-keyboard-response,391,1185504,null,"<div style=""font-size:60px;"">+</div>",null,,,,,,,,,,,,,,,
html-keyboard-response,392,1185713,null,"<div style=""font-size:42px;"">HAMMER</div><img id = ""stim"" ><div class = red_square id = bottomsquare></div>",null,encoding,word_square,,,1,bottomsquare,32,true,,,HAMMER,3,,,
html-keyboard-response,393,1186013,150.60000002384186,"<div style=""font-size:42px;"">HAMMER</div>",32,,word,HAMMER,,,,,,,,,,,,
html-keyboard-response,394,1187525,null,"",null,,word,HAMMER,,,,,,,,,,,,
html-keyboard-response,395,1187732,null,"<div style=""font-size:42px;"">TURTLE</div><img id = ""stim"" ><div class = red_square id = topsquare></div>",null,encoding,word_square,,,1,topsquare,32,true,,,TURTLE,3,,,
html-keyboard-response,396,1188040,227.10000002384186,"<div style=""font-size:42px;"">TURTLE</div>",32,,word,TURTLE,,,,,,,,,,,,
html-keyboard-response,397,1189544,null,"",null,,word,TURTLE,,,,,,,,,,,,
html-keyboard-response,398,1189753,null,"<div style=""font-size:42px;"">MAILMAN</div><img id = ""stim"" ><div class = green_square id = topsquare></div>",null,encoding,word_square,,,0,topsquare,none,true,,,MAILMAN,3,,,
html-keyboard-response,399,1190055,null,"<div style=""font-size:42px;"">MAILMAN</div>",null,,word,MAILMAN,,,,,,,,,,,,
html-keyboard-response,400,1191559,null,"",null,,word,MAILMAN,,,,,,,,,,,,
html-keyboard-response,401,1191767,null,"<div style=""font-size:42px;"">NICKEL</div><img id = ""stim"" ><div class = red_square id = bottomsquare></div>",null,encoding,word_square,,,1,bottomsquare,32,true,,,NICKEL,3,,,
html-keyboard-response,402,1192069,160.20000004768372,"<div style=""font-size:42px;"">NICKEL</div>",32,,word,NICKEL,,,,,,,,,,,,
html-keyboard-response,403,1193572,null,"",null,,word,NICKEL,,,,,,,,,,,,
html-keyboard-response,404,1193781,null,"<div style=""font-size:42px;"">MAILBOX</div><img id = ""stim"" ><div class = red_square id = topsquare></div>",null,encoding,word_square,,,1,topsquare,32,true,,,MAILBOX,3,,,
html-keyboard-response,405,1194083,274.40000009536743,"<div style=""font-size:42px;"">MAILBOX</div>",32,,word,MAILBOX,,,,,,,,,,,,
html-keyboard-response,406,1195586,null,"",null,,word,MAILBOX,,,,,,,,,,,,
html-keyboard-response,407,1195795,null,"<div style=""font-size:42px;"">STICKER</div><img id = ""stim"" ><div class = green_square id = bottomsquare></div>",null,encoding,word_square,,,0,bottomsquare,none,true,,,STICKER,3,,,
html-keyboard-response,408,1196097,null,"<div style=""font-size:42px;"">STICKER</div>",null,,word,STICKER,,,,,,,,,,,,
html-keyboard-response,409,1197600,null,"",null,,word,STICKER,,,,,,,,,,,,
html-keyboard-response,410,1197809,null,"<div style=""font-size:42px;"">SCALLOP</div><img id = ""stim"" ><div class = red_square id = bottomsquare></div>",null,encoding,word_square,,,1,bottomsquare,32,true,,,SCALLOP,3,,,
html-keyboard-response,411,1198111,null,"<div style=""font-size:42px;"">SCALLOP</div>",null,,word,SCALLOP,,,,,,,,,,,,
html-keyboard-response,412,1199614,0.20000004768371582,"",32,,word,SCALLOP,,,,,,,,,,,,
html-keyboard-response,413,1199823,null,"<div style=""font-size:42px;"">SALT</div><img id = ""stim"" ><div class = green_square id = topsquare></div>",null,encoding,word_square,,,0,topsquare,none,true,,,SALT,3,,,
html-keyboard-response,414,1200130,null,"<div style=""font-size:42px;"">SALT</div>",null,,word,SALT,,,,,,,,,,,,
html-keyboard-response,415,1201644,null,"",null,,word,SALT,,,,,,,,,,,,
html-keyboard-response,416,1201851,null,"<div style=""font-size:42px;"">SHRUB</div><img id = ""stim"" ><div class = red_square id = topsquare></div>",null,encoding,word_square,,,1,topsquare,32,true,,,SHRUB,3,,,
html-keyboard-response,417,1202153,188.29999995231628,"<div style=""font-size:42px;"">SHRUB</div>",32,,word,SHRUB,,,,,,,,,,,,
html-keyboard-response,418,1203667,null,"",null,,word,SHRUB,,,,,,,,,,,,
html-keyboard-response,419,1203872,null,"<div style=""font-size:42px;"">CREEK</div><img id = ""stim"" ><div class = red_square id = bottomsquare></div>",null,encoding,word_square,,,1,bottomsquare,32,true,,,CREEK,3,,,
html-keyboard-response,420,1204174,215.80000007152557,"<div style=""font-size:42px;"">CREEK</div>",32,,word,CREEK,,,,,,,,,,,,
html-keyboard-response,421,1205684,null,"",null,,word,CREEK,,,,,,,,,,,,
html-keyboard-response,422,1205893,null,"<div style=""font-size:42px;"">MEAT</div><img id = ""stim"" ><div class = green_square id = bottomsquare></div>",null,encoding,word_square,,,0,bottomsquare,none,true,,,MEAT,3,,,
html-keyboard-response,423,1206200,null,"<div style=""font-size:42px;"">MEAT</div>",null,,word,MEAT,,,,,,,,,,,,
html-keyboard-response,424,1207709,null,"",null,,word,MEAT,,,,,,,,,,,,
html-keyboard-response,425,1207914,null,"<div style=""font-size:42px;"">BRIDE</div><img id = ""stim"" ><div class = green_square id = topsquare></div>",null,encoding,word_square,,,0,topsquare,none,true,,,BRIDE,3,,,
html-keyboard-response,426,1208222,null,"<div style=""font-size:42px;"">BRIDE</div>",null,,word,BRIDE,,,,,,,,,,,,
html-keyboard-response,427,1209735,null,"",null,,word,BRIDE,,,,,,,,,,,,
html-keyboard-response,428,1209941,null,"<div style=""font-size:42px;"">MOTOR</div><img id = ""stim"" ><div class = green_square id = bottomsquare></div>",null,encoding,word_square,,,0,bottomsquare,none,true,,,MOTOR,3,,,
html-keyboard-response,429,1210252,null,"<div style=""font-size:42px;"">MOTOR</div>",null,,word,MOTOR,,,,,,,,,,,,
html-keyboard-response,430,1211764,null,"",null,,word,MOTOR,,,,,,,,,,,,
html-keyboard-response,431,1211969,null,"<div style=""font-size:42px;"">VALVE</div><img id = ""stim"" ><div class = green_square id = topsquare></div>",null,encoding,word_square,,,0,topsquare,none,true,,,VALVE,3,,,
html-keyboard-response,432,1212285,null,"<div style=""font-size:42px;"">VALVE</div>",null,,word,VALVE,,,,,,,,,,,,
html-keyboard-response,433,1213792,null,"",null,,word,VALVE,,,,,,,,,,,,
html-keyboard-response,434,1213997,null,"<div style=""font-size:42px;"">BEEF</div><img id = ""stim"" ><div class = red_square id = topsquare></div>",null,encoding,word_square,,,1,topsquare,32,true,,,BEEF,3,,,
html-keyboard-response,435,1214310,266.5,"<div style=""font-size:42px;"">BEEF</div>",32,,word,BEEF,,,,,,,,,,,,
html-keyboard-response,436,1215816,null,"",null,,word,BEEF,,,,,,,,,,,,
html-keyboard-response,437,1216025,null,"<div style=""font-size:42px;"">HUMAN</div><img id = ""stim"" ><div class = green_square id = bottomsquare></div>",null,encoding,word_square,,,0,bottomsquare,none,true,,,HUMAN,3,,,
html-keyboard-response,438,1216333,null,"<div style=""font-size:42px;"">HUMAN</div>",null,,word,HUMAN,,,,,,,,,,,,
html-keyboard-response,439,1217841,null,"",null,,word,HUMAN,,,,,,,,,,,,
call-function,440,1217841,,"",,,,,,,,,,,,,,,,
html-keyboard-response,441,1217945,null,"",null,,,,,,,,,,,,,,,
math-period,442,1227272,17956.100000023842,"",,,,,,,,,,,2numpad,,,,,
html-keyboard-response,443,1227383,null,"",null,,,,,,,,,,,,,,,
math-period,444,1231112,7184.400000095367,"",,,,,,,,,,,1numpad,,,,,
html-keyboard-response,445,1231221,null,"",null,,,,,,,,,,,,,,,
math-period,446,1233776,4619.699999928474,"",,,,,,,,,,,3numpad,,,,,
html-keyboard-response,447,1233881,null,"",null,,,,,,,,,,,,,,,
math-period,448,1235936,3459.5999999046326,"",,,,,,,,,,,6numpad,,,,,
html-keyboard-response,449,1236040,null,"",null,,,,,,,,,,,,,,,
math-period,450,1237360,2415.1999999284744,"",,,,,,,,,,,3numpad,,,,,
html-keyboard-response,451,1237475,null,"",null,,,,,,,,,,,,,,,
math-period,452,1240064,4680.899999976158,"",,,,,,,,,,,5numpad,,,,,
html-keyboard-response,453,1240175,null,"",null,,,,,,,,,,,,,,,
math-period,454,1241843,null,"",,,,,,,,,,,,,,,,
html-keyboard-response,455,1242849,null,"Recall Period!",null,,,,,,,,,,,,,,,
call-function,456,1242849,,"",,,,,,,,,,,,,,,,
html-keyboard-response,457,1242960,null,"",null,,,,,,,,,,,,,,,
recall-period,458,1246512,20690.99999976158,"",,,,,,,,,,,mailman,,,,,
html-keyboard-response,459,1246627,null,"",null,,,,,,,,,,,,,,,
recall-period,460,1249552,9460.299999952316,"",,,,,,,,,,,mailbox,,,,,
html-keyboard-response,461,1249662,null,"",null,,,,,,,,,,,,,,,
recall-period,462,1252896,13613.300000309944,"",,,,,,,,,,,sticker,,,,,
html-keyboard-response,463,1253009,null,"",null,,,,,,,,,,,,,,,
recall-period,464,1256960,18135,"",,,,,,,,,,,creek,,,,,
html-keyboard-response,465,1257072,null,"",null,,,,,,,,,,,,,,,
recall-period,466,1259656,13748.900000333786,"",,,,,,,,,,,scallops,,,,,
html-keyboard-response,467,1259766,null,"",null,,,,,,,,,,,,,,,
recall-period,468,1260800,3109.5000001192093,"",,,,,,,,,,,beef,,,,,
html-keyboard-response,469,1260914,null,"",null,,,,,,,,,,,,,,,
recall-period,470,1266160,14307.900000095367,"",,,,,,,,,,,salt,,,,,
html-keyboard-response,471,1266265,null,"",null,,,,,,,,,,,,,,,
recall-period,472,1272040,18059.50000011921,"",,,,,,,,,,,stickers,,,,,
html-keyboard-response,473,1272155,null,"",null,,,,,,,,,,,,,,,
recall-period,474,1317850,null,"",,,,,,,,,,,,,,,,
html-keyboard-response,475,1318353,null,"Time's Up!",null,,,,,,,,,,,,,,,
html-keyboard-response,476,1330312,11958.399999976158,"<p> Good job! You have responded correctly to 100% of the trials. </p>
                      <p>Be sure to only press the spacebar if you see a red square, and please keep your accuracy above 80%.</p>
                      <p> Press any key to continue the experiment. </p>",32,,,,,,,,,,,,,,,
html-keyboard-response,477,1331008,695,"<div style=""font-size:48px;"">Press any key to begin list 5 of 16 </div>",32,,,,,,,,,,,,,,,
html-keyboard-response,478,1333515,null,"<div style=""font-size:60px;"">+</div>",null,,,,,,,,,,,,,,,
html-keyboard-response,479,1333717,null,"<div style=""font-size:42px;"">SHARK</div><img id = ""stim"" ><div class = red_square id = topsquare></div>",null,encoding,word_square,,,1,topsquare,32,true,,,SHARK,4,,,
html-keyboard-response,480,1334019,210,"<div style=""font-size:42px;"">SHARK</div>",32,,word,SHARK,,,,,,,,,,,,
html-keyboard-response,481,1335520,null,"",null,,word,SHARK,,,,,,,,,,,,
html-keyboard-response,482,1335724,null,"<div style=""font-size:42px;"">HOOK</div><img id = ""stim"" ><div class = green_square id = bottomsquare></div>",null,encoding,word_square,,,0,bottomsquare,none,true,,,HOOK,4,,,
html-keyboard-response,483,1336026,null,"<div style=""font-size:42px;"">HOOK</div>",null,,word,HOOK,,,,,,,,,,,,
html-keyboard-response,484,1337531,null,"",null,,word,HOOK,,,,,,,,,,,,
html-keyboard-response,485,1337738,null,"<div style=""font-size:42px;"">SPOON</div><img id = ""stim"" ><div class = red_square id = bottomsquare></div>",null,encoding,word_square,,,1,bottomsquare,32,true,,,SPOON,4,,,
html-keyboard-response,486,1338040,213.60000002384186,"<div style=""font-size:42px;"">SPOON</div>",32,,word,SPOON,,,,,,,,,,,,
html-keyboard-response,487,1339548,null,"",null,,word,SPOON,,,,,,,,,,,,
html-keyboard-response,488,1339752,null,"<div style=""font-size:42px;"">SCALPEL</div><img id = ""stim"" ><div class = red_square id = topsquare></div>",null,encoding,word_square,,,1,topsquare,32,true,,,SCALPEL,4,,,
html-keyboard-response,489,1340054,199.5,"<div style=""font-size:42px;"">SCALPEL</div>",32,,word,SCALPEL,,,,,,,,,,,,
html-keyboard-response,490,1341564,null,"",null,,word,SCALPEL,,,,,,,,,,,,
html-keyboard-response,491,1341778,null,"<div style=""font-size:42px;"">MONGOOSE</div><img id = ""stim"" ><div class = green_square id = topsquare></div>",null,encoding,word_square,,,0,topsquare,none,true,,,MONGOOSE,4,,,
html-keyboard-response,492,1342090,null,"<div style=""font-size:42px;"">MONGOOSE</div>",null,,word,MONGOOSE,,,,,,,,,,,,
html-keyboard-response,493,1343595,null,"",null,,word,MONGOOSE,,,,,,,,,,,,
html-keyboard-response,494,1343800,null,"<div style=""font-size:42px;"">CAFE</div><img id = ""stim"" ><div class = red_square id = bottomsquare></div>",null,encoding,word_square,,,1,bottomsquare,32,true,,,CAFE,4,,,
html-keyboard-response,495,1344102,191.20000004768372,"<div style=""font-size:42px;"">CAFE</div>",32,,word,CAFE,,,,,,,,,,,,
html-keyboard-response,496,1345611,null,"",null,,word,CAFE,,,,,,,,,,,,
html-keyboard-response,497,1345814,null,"<div style=""font-size:42px;"">PERCH</div><img id = ""stim"" ><div class = red_square id = topsquare></div>",null,encoding,word_square,,,1,topsquare,32,true,,,PERCH,4,,,
html-keyboard-response,498,1346116,null,"<div style=""font-size:42px;"">PERCH</div>",null,,word,PERCH,,,,,,,,,,,,
html-keyboard-response,499,1347618,75,"",32,,word,PERCH,,,,,,,,,,,,
html-keyboard-response,500,1347821,null,"<div style=""font-size:42px;"">LIST</div><img id = ""stim"" ><div class = green_square id = bottomsquare></div>",null,encoding,word_square,,,0,bottomsquare,none,true,,,LIST,4,,,
html-keyboard-response,501,1348123,null,"<div style=""font-size:42px;"">LIST</div>",null,,word,LIST,,,,,,,,,,,,
html-keyboard-response,502,1349634,null,"",null,,word,LIST,,,,,,,,,,,,
html-keyboard-response,503,1349842,null,"<div style=""font-size:42px;"">BLOCKADE</div><img id = ""stim"" ><div class = green_square id = topsquare></div>",null,encoding,word_square,,,0,topsquare,none,true,,,BLOCKADE,4,,,
html-keyboard-response,504,1350147,null,"<div style=""font-size:42px;"">BLOCKADE</div>",null,,word,BLOCKADE,,,,,,,,,,,,
html-keyboard-response,505,1351651,null,"",null,,word,BLOCKADE,,,,,,,,,,,,
html-keyboard-response,506,1351856,null,"<div style=""font-size:42px;"">DESSERT</div><img id = ""stim"" ><div class = red_square id = bottomsquare></div>",null,encoding,word_square,,,1,bottomsquare,32,true,,,DESSERT,4,,,
html-keyboard-response,507,1352159,255.29999995231628,"<div style=""font-size:42px;"">DESSERT</div>",32,,word,DESSERT,,,,,,,,,,,,
html-keyboard-response,508,1353660,null,"",null,,word,DESSERT,,,,,,,,,,,,
html-keyboard-response,509,1353870,null,"<div style=""font-size:42px;"">PIMPLE</div><img id = ""stim"" ><div class = green_square id = bottomsquare></div>",null,encoding,word_square,,,0,bottomsquare,none,true,,,PIMPLE,4,,,
html-keyboard-response,510,1354172,null,"<div style=""font-size:42px;"">PIMPLE</div>",null,,word,PIMPLE,,,,,,,,,,,,
html-keyboard-response,511,1355674,null,"",null,,word,PIMPLE,,,,,,,,,,,,
html-keyboard-response,512,1355877,null,"<div style=""font-size:42px;"">HOSTAGE</div><img id = ""stim"" ><div class = green_square id = topsquare></div>",null,encoding,word_square,,,0,topsquare,none,true,,,HOSTAGE,4,,,
html-keyboard-response,513,1356192,null,"<div style=""font-size:42px;"">HOSTAGE</div>",null,,word,HOSTAGE,,,,,,,,,,,,
html-keyboard-response,514,1357698,null,"",null,,word,HOSTAGE,,,,,,,,,,,,
html-keyboard-response,515,1357905,null,"<div style=""font-size:42px;"">CRITIC</div><img id = ""stim"" ><div class = red_square id = topsquare></div>",null,encoding,word_square,,,1,topsquare,32,true,,,CRITIC,4,,,
html-keyboard-response,516,1358212,230.89999997615814,"<div style=""font-size:42px;"">CRITIC</div>",32,,word,CRITIC,,,,,,,,,,,,
html-keyboard-response,517,1359727,null,"",null,,word,CRITIC,,,,,,,,,,,,
html-keyboard-response,518,1359933,null,"<div style=""font-size:42px;"">BACKBONE</div><img id = ""stim"" ><div class = green_square id = bottomsquare></div>",null,encoding,word_square,,,0,bottomsquare,none,true,,,BACKBONE,4,,,
html-keyboard-response,519,1360237,null,"<div style=""font-size:42px;"">BACKBONE</div>",null,,word,BACKBONE,,,,,,,,,,,,
html-keyboard-response,520,1361741,null,"",null,,word,BACKBONE,,,,,,,,,,,,
html-keyboard-response,521,1361947,null,"<div style=""font-size:42px;"">CHEST</div><img id = ""stim"" ><div class = green_square id = topsquare></div>",null,encoding,word_square,,,0,topsquare,none,true,,,CHEST,4,,,
html-keyboard-response,522,1362253,null,"<div style=""font-size:42px;"">CHEST</div>",null,,word,CHEST,,,,,,,,,,,,
html-keyboard-response,523,1363761,null,"",null,,word,CHEST,,,,,,,,,,,,
html-keyboard-response,524,1363968,null,"<div style=""font-size:42px;"">CLIFF</div><img id = ""stim"" ><div class = red_square id = bottomsquare></div>",null,encoding,word_square,,,1,bottomsquare,32,true,,,CLIFF,4,,,
html-keyboard-response,525,1364269,167.60000002384186,"<div style=""font-size:42px;"">CLIFF</div>",32,,word,CLIFF,,,,,,,,,,,,
html-keyboard-response,526,1365781,null,"",null,,word,CLIFF,,,,,,,,,,,,
call-function,527,1365782,,"",,,,,,,,,,,,,,,,
html-keyboard-response,528,1365888,null,"",null,,,,,,,,,,,,,,,
math-period,529,1368368,4462.899999976158,"",,,,,,,,,,,5numpad,,,,,
html-keyboard-response,530,1368478,null,"",null,,,,,,,,,,,,,,,
math-period,531,1370560,3946.2000000476837,"",,,,,,,,,,,4numpad,,,,,
html-keyboard-response,532,1370673,null,"",null,,,,,,,,,,,,,,,
math-period,533,1375296,8229,"",,,,,,,,,,,1numpad,,,,,
html-keyboard-response,534,1375409,null,"",null,,,,,,,,,,,,,,,
math-period,535,1379056,7060.600000023842,"",,,,,,,,,,,3numpad,,,,,
html-keyboard-response,536,1379166,null,"",null,,,,,,,,,,,,,,,
math-period,537,1381568,4570.499999880791,"",,,,,,,,,,,0numpad,,,,,
html-keyboard-response,538,1381680,null,"",null,,,,,,,,,,,,,,,
math-period,539,1383288,2974.100000023842,"",,,,,,,,,,,3numpad,,,,,
html-keyboard-response,540,1383402,null,"",null,,,,,,,,,,,,,,,
math-period,541,1386536,6089.799999952316,"",,,,,,,,,,,2numpad,,,,,
html-keyboard-response,542,1386646,null,"",null,,,,,,,,,,,,,,,
math-period,543,1388200,3011.2000000476837,"",,,,,,,,,,,4numpad,,,,,
html-keyboard-response,544,1388312,null,"",null,,,,,,,,,,,,,,,
math-period,545,1389576,2382.6999999284744,"",,,,,,,,,,,5numpad,,,,,
html-keyboard-response,546,1389678,null,"",null,,,,,,,,,,,,,,,
math-period,547,1389792,null,"",,,,,,,,,,,,,,,,
html-keyboard-response,548,1390793,null,"Recall Period!",null,,,,,,,,,,,,,,,
call-function,549,1390794,,"",,,,,,,,,,,,,,,,
html-keyboard-response,550,1390903,null,"",null,,,,,,,,,,,,,,,
recall-period,551,1395840,11684.000000238419,"",,,,,,,,,,,shark,,,,,
html-keyboard-response,552,1395951,null,"",null,,,,,,,,,,,,,,,
recall-period,553,1397632,6222.89999973774,"",,,,,,,,,,,hook,,,,,
html-keyboard-response,554,1397743,null,"",null,,,,,,,,,,,,,,,
recall-period,555,1403768,9553.400000214577,"",,,,,,,,,,,spoon,,,,,
html-keyboard-response,556,1403871,null,"",null,,,,,,,,,,,,,,,
recall-period,557,1447648,342464.5000001192,"",,,,,,,,,,,scalpel,,,,,
html-keyboard-response,558,1447758,null,"",null,,,,,,,,,,,,,,,
recall-period,559,1465966,null,"",,,,,,,,,,,,,,,,
html-keyboard-response,560,1466960,null,"Time's Up!",null,,,,,,,,,,,,,,,
html-keyboard-response,561,1487616,20655.800000071526,"<p> Good job! You have responded correctly to 100% of the trials. </p>
                      <p>Be sure to only press the spacebar if you see a red square, and please keep your accuracy above 80%.</p>
                      <p> Press any key to continue the experiment. </p>",32,,,,,,,,,,,,,,,
html-keyboard-response,562,1488632,1015,"<div style=""font-size:48px;"">Press any key to begin list 6 of 16 </div>",32,,,,,,,,,,,,,,,
html-keyboard-response,563,1491138,null,"<div style=""font-size:60px;"">+</div>",null,,,,,,,,,,,,,,,
html-keyboard-response,564,1491344,null,"<div style=""font-size:42px;"">DOUGHNUT</div><img id = ""stim"" ><div class = red_square id = bottomsquare></div>",null,encoding,word_square,,,1,bottomsquare,32,true,,,DOUGHNUT,5,,,
html-keyboard-response,565,1491660,183.60000002384186,"<div style=""font-size:42px;"">DOUGHNUT</div>",32,,word,DOUGHNUT,,,,,,,,,,,,
html-keyboard-response,566,1493170,null,"",null,,word,DOUGHNUT,,,,,,,,,,,,
html-keyboard-response,567,1493382,null,"<div style=""font-size:42px;"">SCULPTURE</div><img id = ""stim"" ><div class = green_square id = topsquare></div>",null,encoding,word_square,,,0,topsquare,none,true,,,SCULPTURE,5,,,
html-keyboard-response,568,1493684,null,"<div style=""font-size:42px;"">SCULPTURE</div>",null,,word,SCULPTURE,,,,,,,,,,,,
html-keyboard-response,569,1495186,null,"",null,,word,SCULPTURE,,,,,,,,,,,,
html-keyboard-response,570,1495396,null,"<div style=""font-size:42px;"">PLASTER</div><img id = ""stim"" ><div class = green_square id = bottomsquare></div>",null,encoding,word_square,,,0,bottomsquare,none,true,,,PLASTER,5,,,
html-keyboard-response,571,1495698,null,"<div style=""font-size:42px;"">PLASTER</div>",null,,word,PLASTER,,,,,,,,,,,,
html-keyboard-response,572,1497210,null,"",null,,word,PLASTER,,,,,,,,,,,,
html-keyboard-response,573,1497417,null,"<div style=""font-size:42px;"">LETTUCE</div><img id = ""stim"" ><div class = red_square id = topsquare></div>",null,encoding,word_square,,,1,topsquare,32,true,,,LETTUCE,5,,,
html-keyboard-response,574,1497719,215,"<div style=""font-size:42px;"">LETTUCE</div>",32,,word,LETTUCE,,,,,,,,,,,,
html-keyboard-response,575,1499226,null,"",null,,word,LETTUCE,,,,,,,,,,,,
html-keyboard-response,576,1499431,null,"<div style=""font-size:42px;"">BUTLER</div><img id = ""stim"" ><div class = green_square id = topsquare></div>",null,encoding,word_square,,,0,topsquare,none,false,,,BUTLER,5,,,
html-keyboard-response,577,1499733,null,"<div style=""font-size:42px;"">BUTLER</div>",null,,word,BUTLER,,,,,,,,,,,,
html-keyboard-response,578,1501241,842.3999999761581,"",32,,word,BUTLER,,,,,,,,,,,,
html-keyboard-response,579,1501445,null,"<div style=""font-size:42px;"">BANKER</div><img id = ""stim"" ><div class = green_square id = bottomsquare></div>",null,encoding,word_square,,,0,bottomsquare,none,true,,,BANKER,5,,,
html-keyboard-response,580,1501747,null,"<div style=""font-size:42px;"">BANKER</div>",null,,word,BANKER,,,,,,,,,,,,
html-keyboard-response,581,1503258,null,"",null,,word,BANKER,,,,,,,,,,,,
html-keyboard-response,582,1503465,null,"<div style=""font-size:42px;"">WALNUT</div><img id = ""stim"" ><div class = red_square id = bottomsquare></div>",null,encoding,word_square,,,1,bottomsquare,32,true,,,WALNUT,5,,,
html-keyboard-response,583,1503767,213.79999995231628,"<div style=""font-size:42px;"">WALNUT</div>",32,,word,WALNUT,,,,,,,,,,,,
html-keyboard-response,584,1505273,null,"",null,,word,WALNUT,,,,,,,,,,,,
html-keyboard-response,585,1505479,null,"<div style=""font-size:42px;"">POND</div><img id = ""stim"" ><div class = green_square id = topsquare></div>",null,encoding,word_square,,,0,topsquare,none,true,,,POND,5,,,
html-keyboard-response,586,1505781,null,"<div style=""font-size:42px;"">POND</div>",null,,word,POND,,,,,,,,,,,,
html-keyboard-response,587,1507290,null,"",null,,word,POND,,,,,,,,,,,,
html-keyboard-response,588,1507493,null,"<div style=""font-size:42px;"">DANDRUFF</div><img id = ""stim"" ><div class = green_square id = bottomsquare></div>",null,encoding,word_square,,,0,bottomsquare,none,true,,,DANDRUFF,5,,,
html-keyboard-response,589,1507795,null,"<div style=""font-size:42px;"">DANDRUFF</div>",null,,word,DANDRUFF,,,,,,,,,,,,
html-keyboard-response,590,1509299,null,"",null,,word,DANDRUFF,,,,,,,,,,,,
html-keyboard-response,591,1509507,null,"<div style=""font-size:42px;"">ZIPPER</div><img id = ""stim"" ><div class = red_square id = topsquare></div>",null,encoding,word_square,,,1,topsquare,32,true,,,ZIPPER,5,,,
html-keyboard-response,592,1509809,null,"<div style=""font-size:42px;"">ZIPPER</div>",null,,word,ZIPPER,,,,,,,,,,,,
html-keyboard-response,593,1511312,77.90000009536743,"",32,,word,ZIPPER,,,,,,,,,,,,
html-keyboard-response,594,1511521,null,"<div style=""font-size:42px;"">SHORTS</div><img id = ""stim"" ><div class = red_square id = bottomsquare></div>",null,encoding,word_square,,,1,bottomsquare,32,true,,,SHORTS,5,,,
html-keyboard-response,595,1511823,261.89999997615814,"<div style=""font-size:42px;"">SHORTS</div>",32,,word,SHORTS,,,,,,,,,,,,
html-keyboard-response,596,1513328,null,"",null,,word,SHORTS,,,,,,,,,,,,
html-keyboard-response,597,1513535,null,"<div style=""font-size:42px;"">YOLK</div><img id = ""stim"" ><div class = green_square id = topsquare></div>",null,encoding,word_square,,,0,topsquare,none,true,,,YOLK,5,,,
html-keyboard-response,598,1513837,null,"<div style=""font-size:42px;"">YOLK</div>",null,,word,YOLK,,,,,,,,,,,,
html-keyboard-response,599,1515344,null,"",null,,word,YOLK,,,,,,,,,,,,
html-keyboard-response,600,1515549,null,"<div style=""font-size:42px;"">ROOSTER</div><img id = ""stim"" ><div class = red_square id = topsquare></div>",null,encoding,word_square,,,1,topsquare,32,true,,,ROOSTER,5,,,
html-keyboard-response,601,1515851,177.89999997615814,"<div style=""font-size:42px;"">ROOSTER</div>",32,,word,ROOSTER,,,,,,,,,,,,
html-keyboard-response,602,1517367,null,"",null,,word,ROOSTER,,,,,,,,,,,,
html-keyboard-response,603,1517577,null,"<div style=""font-size:42px;"">TRENCH</div><img id = ""stim"" ><div class = red_square id = bottomsquare></div>",null,encoding,word_square,,,1,bottomsquare,32,true,,,TRENCH,5,,,
html-keyboard-response,604,1517879,198,"<div style=""font-size:42px;"">TRENCH</div>",32,,word,TRENCH,,,,,,,,,,,,
html-keyboard-response,605,1519383,null,"",null,,word,TRENCH,,,,,,,,,,,,
html-keyboard-response,606,1519591,null,"<div style=""font-size:42px;"">CANDY</div><img id = ""stim"" ><div class = green_square id = bottomsquare></div>",null,encoding,word_square,,,0,bottomsquare,none,false,,,CANDY,5,,,
html-keyboard-response,607,1519893,null,"<div style=""font-size:42px;"">CANDY</div>",null,,word,CANDY,,,,,,,,,,,,
html-keyboard-response,608,1521398,163.5,"",32,,word,CANDY,,,,,,,,,,,,
html-keyboard-response,609,1521605,null,"<div style=""font-size:42px;"">TROUSERS</div><img id = ""stim"" ><div class = red_square id = topsquare></div>",null,encoding,word_square,,,1,topsquare,32,true,,,TROUSERS,5,,,
html-keyboard-response,610,1521908,178,"<div style=""font-size:42px;"">TROUSERS</div>",32,,word,TROUSERS,,,,,,,,,,,,
html-keyboard-response,611,1523416,null,"",null,,word,TROUSERS,,,,,,,,,,,,
call-function,612,1523416,,"",,,,,,,,,,,,,,,,
html-keyboard-response,613,1523518,null,"",null,,,,,,,,,,,,,,,
math-period,614,1525624,4081.399999856949,"",,,,,,,,,,,4numpad,,,,,
html-keyboard-response,615,1525735,null,"",null,,,,,,,,,,,,,,,
math-period,616,1528928,6049,"",,,,,,,,,,,2numpad,,,,,
html-keyboard-response,617,1529040,null,"",null,,,,,,,,,,,,,,,
math-period,618,1534544,10877.699999928474,"",,,,,,,,,,,1numpad,,,,,
html-keyboard-response,619,1534658,null,"",null,,,,,,,,,,,,,,,
math-period,620,1537584,5650.799999952316,"",,,,,,,,,,,4numpad,,,,,
html-keyboard-response,621,1537699,null,"",null,,,,,,,,,,,,,,,
math-period,622,1539360,3143.2000000476837,"",,,,,,,,,,,3numpad,,,,,
html-keyboard-response,623,1539470,null,"",null,,,,,,,,,,,,,,,
math-period,624,1540743,2298,"",,,,,,,,,,,2numpad,,,,,
html-keyboard-response,625,1540857,null,"",null,,,,,,,,,,,,,,,
math-period,626,1542167,2473.7999999523163,"",,,,,,,,,,,5numpad,,,,,
html-keyboard-response,627,1542281,null,"",null,,,,,,,,,,,,,,,
math-period,628,1543351,2042.1000000238419,"",,,,,,,,,,,3numpad,,,,,
html-keyboard-response,629,1543453,null,"",null,,,,,,,,,,,,,,,
math-period,630,1545063,3107.100000023842,"",,,,,,,,,,,2numpad,,,,,
html-keyboard-response,631,1545174,null,"",null,,,,,,,,,,,,,,,
math-period,632,1546639,2817.2000000476837,"",,,,,,,,,,,1numpad,,,,,
html-keyboard-response,633,1546753,null,"",null,,,,,,,,,,,,,,,
math-period,634,1547418,null,"",,,,,,,,,,,,,,,,
html-keyboard-response,635,1548424,null,"Recall Period!",null,,,,,,,,,,,,,,,
call-function,636,1548424,,"",,,,,,,,,,,,,,,,
html-keyboard-response,637,1548538,null,"",null,,,,,,,,,,,,,,,
recall-period,638,1556287,21117.400000333786,"",,,,,,,,,,,doughnut,,,,,
html-keyboard-response,639,1556400,null,"",null,,,,,,,,,,,,,,,
recall-period,640,1561567,12909.699999451637,"",,,,,,,,,,,plaster,,,,,
html-keyboard-response,641,1561679,null,"",null,,,,,,,,,,,,,,,
recall-period,642,1563391,6561.400000095367,"",,,,,,,,,,,shorts,,,,,
html-keyboard-response,643,1563492,null,"",null,,,,,,,,,,,,,,,
recall-period,644,1568296,11865.49999988079,"",,,,,,,,,,,zipper,,,,,
html-keyboard-response,645,1568407,null,"",null,,,,,,,,,,,,,,,
recall-period,646,1572951,10284.99999988079,"",,,,,,,,,,,yolk,,,,,
html-keyboard-response,647,1573053,null,"",null,,,,,,,,,,,,,,,
recall-period,648,1623440,null,"",,,,,,,,,,,,,,,,
html-keyboard-response,649,1623956,null,"Time's Up!",null,,,,,,,,,,,,,,,
html-keyboard-response,650,1629048,5091.299999952316,"<p> Good job! You have responded correctly to 98% of the trials. </p>
                      <p>Be sure to only press the spacebar if you see a red square, and please keep your accuracy above 80%.</p>
                      <p> Press any key to continue the experiment. </p>",32,,,,,,,,,,,,,,,
html-keyboard-response,651,1629776,727.1000000238419,"<div style=""font-size:48px;"">Press any key to begin list 7 of 16 </div>",32,,,,,,,,,,,,,,,
html-keyboard-response,652,1632295,null,"<div style=""font-size:60px;"">+</div>",null,,,,,,,,,,,,,,,
html-keyboard-response,653,1632498,null,"<div style=""font-size:42px;"">VENUS</div><img id = ""stim"" ><div class = green_square id = bottomsquare></div>",null,encoding,word_square,,,0,bottomsquare,none,true,,,VENUS,6,,,
html-keyboard-response,654,1632800,null,"<div style=""font-size:42px;"">VENUS</div>",null,,word,VENUS,,,,,,,,,,,,
html-keyboard-response,655,1634303,null,"",null,,word,VENUS,,,,,,,,,,,,
html-keyboard-response,656,1634506,null,"<div style=""font-size:42px;"">PIZZA</div><img id = ""stim"" ><div class = red_square id = topsquare></div>",null,encoding,word_square,,,1,topsquare,32,true,,,PIZZA,6,,,
html-keyboard-response,657,1634807,229.90000009536743,"<div style=""font-size:42px;"">PIZZA</div>",32,,word,PIZZA,,,,,,,,,,,,
html-keyboard-response,658,1636309,null,"",null,,word,PIZZA,,,,,,,,,,,,
html-keyboard-response,659,1636512,null,"<div style=""font-size:42px;"">FOLDER</div><img id = ""stim"" ><div class = green_square id = topsquare></div>",null,encoding,word_square,,,0,topsquare,none,true,,,FOLDER,6,,,
html-keyboard-response,660,1636814,null,"<div style=""font-size:42px;"">FOLDER</div>",null,,word,FOLDER,,,,,,,,,,,,
html-keyboard-response,661,1638326,null,"",null,,word,FOLDER,,,,,,,,,,,,
html-keyboard-response,662,1638533,null,"<div style=""font-size:42px;"">ORANGE</div><img id = ""stim"" ><div class = green_square id = bottomsquare></div>",null,encoding,word_square,,,0,bottomsquare,none,true,,,ORANGE,6,,,
html-keyboard-response,663,1638835,null,"<div style=""font-size:42px;"">ORANGE</div>",null,,word,ORANGE,,,,,,,,,,,,
html-keyboard-response,664,1640342,null,"",null,,word,ORANGE,,,,,,,,,,,,
html-keyboard-response,665,1640549,null,"<div style=""font-size:42px;"">BATHTUB</div><img id = ""stim"" ><div class = red_square id = bottomsquare></div>",null,encoding,word_square,,,1,bottomsquare,32,true,,,BATHTUB,6,,,
html-keyboard-response,666,1640864,null,"<div style=""font-size:42px;"">BATHTUB</div>",null,,word,BATHTUB,,,,,,,,,,,,
html-keyboard-response,667,1642373,134.69999992847443,"",32,,word,BATHTUB,,,,,,,,,,,,
html-keyboard-response,668,1642582,null,"<div style=""font-size:42px;"">GARLIC</div><img id = ""stim"" ><div class = green_square id = topsquare></div>",null,encoding,word_square,,,0,topsquare,none,true,,,GARLIC,6,,,
html-keyboard-response,669,1642884,null,"<div style=""font-size:42px;"">GARLIC</div>",null,,word,GARLIC,,,,,,,,,,,,
html-keyboard-response,670,1644389,null,"",null,,word,GARLIC,,,,,,,,,,,,
html-keyboard-response,671,1644596,null,"<div style=""font-size:42px;"">TOOTHBRUSH</div><img id = ""stim"" ><div class = green_square id = bottomsquare></div>",null,encoding,word_square,,,0,bottomsquare,none,true,,,TOOTHBRUSH,6,,,
html-keyboard-response,672,1644898,null,"<div style=""font-size:42px;"">TOOTHBRUSH</div>",null,,word,TOOTHBRUSH,,,,,,,,,,,,
html-keyboard-response,673,1646412,null,"",null,,word,TOOTHBRUSH,,,,,,,,,,,,
html-keyboard-response,674,1646616,null,"<div style=""font-size:42px;"">FROG</div><img id = ""stim"" ><div class = red_square id = topsquare></div>",null,encoding,word_square,,,1,topsquare,32,true,,,FROG,6,,,
html-keyboard-response,675,1646918,null,"<div style=""font-size:42px;"">FROG</div>",null,,word,FROG,,,,,,,,,,,,
html-keyboard-response,676,1648427,57.10000002384186,"",32,,word,FROG,,,,,,,,,,,,
html-keyboard-response,677,1648637,null,"<div style=""font-size:42px;"">DAISY</div><img id = ""stim"" ><div class = red_square id = bottomsquare></div>",null,encoding,word_square,,,1,bottomsquare,32,true,,,DAISY,6,,,
html-keyboard-response,678,1648939,null,"<div style=""font-size:42px;"">DAISY</div>",null,,word,DAISY,,,,,,,,,,,,
html-keyboard-response,679,1650444,251.69999992847443,"",32,,word,DAISY,,,,,,,,,,,,
html-keyboard-response,680,1650651,null,"<div style=""font-size:42px;"">PISTON</div><img id = ""stim"" ><div class = green_square id = topsquare></div>",null,encoding,word_square,,,0,topsquare,none,true,,,PISTON,6,,,
html-keyboard-response,681,1650953,null,"<div style=""font-size:42px;"">PISTON</div>",null,,word,PISTON,,,,,,,,,,,,
html-keyboard-response,682,1652459,null,"",null,,word,PISTON,,,,,,,,,,,,
html-keyboard-response,683,1652665,null,"<div style=""font-size:42px;"">PIGMENT</div><img id = ""stim"" ><div class = red_square id = topsquare></div>",null,encoding,word_square,,,1,topsquare,32,true,,,PIGMENT,6,,,
html-keyboard-response,684,1652967,278,"<div style=""font-size:42px;"">PIGMENT</div>",32,,word,PIGMENT,,,,,,,,,,,,
html-keyboard-response,685,1654476,null,"",null,,word,PIGMENT,,,,,,,,,,,,
html-keyboard-response,686,1654679,null,"<div style=""font-size:42px;"">MARKER</div><img id = ""stim"" ><div class = red_square id = bottomsquare></div>",null,encoding,word_square,,,1,bottomsquare,32,true,,,MARKER,6,,,
html-keyboard-response,687,1654988,240,"<div style=""font-size:42px;"">MARKER</div>",32,,word,MARKER,,,,,,,,,,,,
html-keyboard-response,688,1656490,null,"",null,,word,MARKER,,,,,,,,,,,,
html-keyboard-response,689,1656700,null,"<div style=""font-size:42px;"">BRANCH</div><img id = ""stim"" ><div class = green_square id = bottomsquare></div>",null,encoding,word_square,,,0,bottomsquare,none,true,,,BRANCH,6,,,
html-keyboard-response,690,1657003,null,"<div style=""font-size:42px;"">BRANCH</div>",null,,word,BRANCH,,,,,,,,,,,,
html-keyboard-response,691,1658507,null,"",null,,word,BRANCH,,,,,,,,,,,,
html-keyboard-response,692,1658714,null,"<div style=""font-size:42px;"">KEYBOARD</div><img id = ""stim"" ><div class = red_square id = topsquare></div>",null,encoding,word_square,,,1,topsquare,32,true,,,KEYBOARD,6,,,
html-keyboard-response,693,1659016,285.40000009536743,"<div style=""font-size:42px;"">KEYBOARD</div>",32,,word,KEYBOARD,,,,,,,,,,,,
html-keyboard-response,694,1660533,null,"",null,,word,KEYBOARD,,,,,,,,,,,,
html-keyboard-response,695,1660736,null,"<div style=""font-size:42px;"">GRILL</div><img id = ""stim"" ><div class = red_square id = bottomsquare></div>",null,encoding,word_square,,,1,bottomsquare,32,true,,,GRILL,6,,,
html-keyboard-response,696,1661038,null,"<div style=""font-size:42px;"">GRILL</div>",null,,word,GRILL,,,,,,,,,,,,
html-keyboard-response,697,1662552,40.299999952316284,"",32,,word,GRILL,,,,,,,,,,,,
html-keyboard-response,698,1662756,null,"<div style=""font-size:42px;"">BOXER</div><img id = ""stim"" ><div class = green_square id = topsquare></div>",null,encoding,word_square,,,0,topsquare,none,true,,,BOXER,6,,,
html-keyboard-response,699,1663073,null,"<div style=""font-size:42px;"">BOXER</div>",null,,word,BOXER,,,,,,,,,,,,
html-keyboard-response,700,1664584,null,"",null,,word,BOXER,,,,,,,,,,,,
call-function,701,1664584,,"",,,,,,,,,,,,,,,,
html-keyboard-response,702,1664690,null,"",null,,,,,,,,,,,,,,,
math-period,703,1669952,7018.699999928474,"",,,,,,,,,,,5numpad,,,,,
html-keyboard-response,704,1670053,null,"",null,,,,,,,,,,,,,,,
math-period,705,1671128,1970.6999999284744,"",,,,,,,,,,,2numpad,,,,,
html-keyboard-response,706,1671228,null,"",null,,,,,,,,,,,,,,,
math-period,707,1672711,2805.2000000476837,"",,,,,,,,,,,4numpad,,,,,
html-keyboard-response,708,1672822,null,"",null,,,,,,,,,,,,,,,
math-period,709,1677879,9946.200000047684,"",,,,,,,,,,,2numpad,,,,,
html-keyboard-response,710,1677989,null,"",null,,,,,,,,,,,,,,,
math-period,711,1680456,4396.500000119209,"",,,,,,,,,,,4numpad,,,,,
html-keyboard-response,712,1680565,null,"",null,,,,,,,,,,,,,,,
math-period,713,1681872,2507.3000000715256,"",,,,,,,,,,,4numpad,,,,,
html-keyboard-response,714,1681982,null,"",null,,,,,,,,,,,,,,,
math-period,715,1683175,2217.5999999046326,"",,,,,,,,,,,3numpad,,,,,
html-keyboard-response,716,1683287,null,"",null,,,,,,,,,,,,,,,
math-period,717,1684176,1694.8999999761581,"",,,,,,,,,,,2numpad,,,,,
html-keyboard-response,718,1684287,null,"",null,,,,,,,,,,,,,,,
math-period,719,1685647,2590.5999999046326,"",,,,,,,,,,,1numpad,,,,,
html-keyboard-response,720,1685760,null,"",null,,,,,,,,,,,,,,,
math-period,721,1687463,3278,"",,,,,,,,,,,2numpad,,,,,
html-keyboard-response,722,1687579,null,"",null,,,,,,,,,,,,,,,
math-period,723,1688591,null,"",,,,,,,,,,,,,,,,
html-keyboard-response,724,1689607,null,"Recall Period!",null,,,,,,,,,,,,,,,
call-function,725,1689608,,"",,,,,,,,,,,,,,,,
html-keyboard-response,726,1689718,null,"",null,,,,,,,,,,,,,,,
recall-period,727,1692295,11556.60000026226,"",,,,,,,,,,,orange,,,,,
html-keyboard-response,728,1692406,null,"",null,,,,,,,,,,,,,,,
recall-period,729,1695239,14646.50000011921,"",,,,,,,,,,,pizza,,,,,
html-keyboard-response,730,1695350,null,"",null,,,,,,,,,,,,,,,
recall-period,731,1696688,7547.800000071526,"",,,,,,,,,,,folder,,,,,
html-keyboard-response,732,1696791,null,"",null,,,,,,,,,,,,,,,
recall-period,733,1700264,31405.29999959469,"",,,,,,,,,,,bathtub,,,,,
html-keyboard-response,734,1700378,null,"",null,,,,,,,,,,,,,,,
recall-period,735,1701647,6048.200000047684,"",,,,,,,,,,,garlic,,,,,
html-keyboard-response,736,1701764,null,"",null,,,,,,,,,,,,,,,
recall-period,737,1709632,51728.79999983311,"",,,,,,,,,,,piston,,,,,
html-keyboard-response,738,1709747,null,"",null,,,,,,,,,,,,,,,
recall-period,739,1764608,null,"",,,,,,,,,,,,,,,,
html-keyboard-response,740,1765114,null,"Time's Up!",null,,,,,,,,,,,,,,,
html-keyboard-response,741,1774504,9389.100000023842,"<p> Good job! You have responded correctly to 98% of the trials. </p>
                      <p>Be sure to only press the spacebar if you see a red square, and please keep your accuracy above 80%.</p>
                      <p> Press any key to continue the experiment. </p>",32,,,,,,,,,,,,,,,
html-keyboard-response,742,1778456,3951.600000023842,"<div style=""font-size:48px;"">Press any key to begin list 8 of 16 </div>",32,,,,,,,,,,,,,,,
html-keyboard-response,743,1780965,null,"<div style=""font-size:60px;"">+</div>",null,,,,,,,,,,,,,,,
html-keyboard-response,744,1781181,null,"<div style=""font-size:42px;"">OFFICE</div><img id = ""stim"" ><div class = green_square id = topsquare></div>",null,encoding,word_square,,,0,topsquare,none,true,,,OFFICE,7,,,
html-keyboard-response,745,1781494,null,"<div style=""font-size:42px;"">OFFICE</div>",null,,word,OFFICE,,,,,,,,,,,,
html-keyboard-response,746,1783000,null,"",null,,word,OFFICE,,,,,,,,,,,,
html-keyboard-response,747,1783206,null,"<div style=""font-size:42px;"">POSTAGE</div><img id = ""stim"" ><div class = red_square id = bottomsquare></div>",null,encoding,word_square,,,1,bottomsquare,32,true,,,POSTAGE,7,,,
html-keyboard-response,748,1783522,null,"<div style=""font-size:42px;"">POSTAGE</div>",null,,word,POSTAGE,,,,,,,,,,,,
html-keyboard-response,749,1785037,4.799999952316284,"",32,,word,POSTAGE,,,,,,,,,,,,
html-keyboard-response,750,1785245,null,"<div style=""font-size:42px;"">MOP</div><img id = ""stim"" ><div class = red_square id = topsquare></div>",null,encoding,word_square,,,1,topsquare,32,true,,,MOP,7,,,
html-keyboard-response,751,1785552,306.6999999284744,"<div style=""font-size:42px;"">MOP</div>",32,,word,MOP,,,,,,,,,,,,
html-keyboard-response,752,1787053,null,"",null,,word,MOP,,,,,,,,,,,,
html-keyboard-response,753,1787262,null,"<div style=""font-size:42px;"">REINDEER</div><img id = ""stim"" ><div class = green_square id = bottomsquare></div>",null,encoding,word_square,,,0,bottomsquare,none,true,,,REINDEER,7,,,
html-keyboard-response,754,1787578,null,"<div style=""font-size:42px;"">REINDEER</div>",null,,word,REINDEER,,,,,,,,,,,,
html-keyboard-response,755,1789082,null,"",null,,word,REINDEER,,,,,,,,,,,,
html-keyboard-response,756,1789284,null,"<div style=""font-size:42px;"">SERVANT</div><img id = ""stim"" ><div class = red_square id = bottomsquare></div>",null,encoding,word_square,,,1,bottomsquare,32,true,,,SERVANT,7,,,
html-keyboard-response,757,1789599,211.30000007152557,"<div style=""font-size:42px;"">SERVANT</div>",32,,word,SERVANT,,,,,,,,,,,,
html-keyboard-response,758,1791106,null,"",null,,word,SERVANT,,,,,,,,,,,,
html-keyboard-response,759,1791316,null,"<div style=""font-size:42px;"">VIKING</div><img id = ""stim"" ><div class = red_square id = topsquare></div>",null,encoding,word_square,,,1,topsquare,32,true,,,VIKING,7,,,
html-keyboard-response,760,1791619,291.1999999284744,"<div style=""font-size:42px;"">VIKING</div>",32,,word,VIKING,,,,,,,,,,,,
html-keyboard-response,761,1793125,null,"",null,,word,VIKING,,,,,,,,,,,,
html-keyboard-response,762,1793332,null,"<div style=""font-size:42px;"">PARTY</div><img id = ""stim"" ><div class = green_square id = topsquare></div>",null,encoding,word_square,,,0,topsquare,none,true,,,PARTY,7,,,
html-keyboard-response,763,1793648,null,"<div style=""font-size:42px;"">PARTY</div>",null,,word,PARTY,,,,,,,,,,,,
html-keyboard-response,764,1795159,null,"",null,,word,PARTY,,,,,,,,,,,,
html-keyboard-response,765,1795371,null,"<div style=""font-size:42px;"">BANDIT</div><img id = ""stim"" ><div class = red_square id = bottomsquare></div>",null,encoding,word_square,,,1,bottomsquare,32,true,,,BANDIT,7,,,
html-keyboard-response,766,1795674,284.2999999523163,"<div style=""font-size:42px;"">BANDIT</div>",32,,word,BANDIT,,,,,,,,,,,,
html-keyboard-response,767,1797184,null,"",null,,word,BANDIT,,,,,,,,,,,,
html-keyboard-response,768,1797393,null,"<div style=""font-size:42px;"">BROOK</div><img id = ""stim"" ><div class = red_square id = topsquare></div>",null,encoding,word_square,,,1,topsquare,32,true,,,BROOK,7,,,
html-keyboard-response,769,1797695,190.79999995231628,"<div style=""font-size:42px;"">BROOK</div>",32,,word,BROOK,,,,,,,,,,,,
html-keyboard-response,770,1799207,null,"",null,,word,BROOK,,,,,,,,,,,,
html-keyboard-response,771,1799414,null,"<div style=""font-size:42px;"">MARSH</div><img id = ""stim"" ><div class = green_square id = bottomsquare></div>",null,encoding,word_square,,,0,bottomsquare,none,true,,,MARSH,7,,,
html-keyboard-response,772,1799715,null,"<div style=""font-size:42px;"">MARSH</div>",null,,word,MARSH,,,,,,,,,,,,
html-keyboard-response,773,1801229,null,"",null,,word,MARSH,,,,,,,,,,,,
html-keyboard-response,774,1801434,null,"<div style=""font-size:42px;"">BATHROOM</div><img id = ""stim"" ><div class = green_square id = topsquare></div>",null,encoding,word_square,,,0,topsquare,none,true,,,BATHROOM,7,,,
html-keyboard-response,775,1801736,null,"<div style=""font-size:42px;"">BATHROOM</div>",null,,word,BATHROOM,,,,,,,,,,,,
html-keyboard-response,776,1803238,null,"",null,,word,BATHROOM,,,,,,,,,,,,
html-keyboard-response,777,1803441,null,"<div style=""font-size:42px;"">BROTHER</div><img id = ""stim"" ><div class = red_square id = bottomsquare></div>",null,encoding,word_square,,,1,bottomsquare,32,true,,,BROTHER,7,,,
html-keyboard-response,778,1803743,158.20000004768372,"<div style=""font-size:42px;"">BROTHER</div>",32,,word,BROTHER,,,,,,,,,,,,
html-keyboard-response,779,1805254,null,"",null,,word,BROTHER,,,,,,,,,,,,
html-keyboard-response,780,1805462,null,"<div style=""font-size:42px;"">ZEBRA</div><img id = ""stim"" ><div class = green_square id = bottomsquare></div>",null,encoding,word_square,,,0,bottomsquare,none,true,,,ZEBRA,7,,,
html-keyboard-response,781,1805764,null,"<div style=""font-size:42px;"">ZEBRA</div>",null,,word,ZEBRA,,,,,,,,,,,,
html-keyboard-response,782,1807270,null,"",null,,word,ZEBRA,,,,,,,,,,,,
html-keyboard-response,783,1807476,null,"<div style=""font-size:42px;"">FINGER</div><img id = ""stim"" ><div class = green_square id = topsquare></div>",null,encoding,word_square,,,0,topsquare,none,true,,,FINGER,7,,,
html-keyboard-response,784,1807778,null,"<div style=""font-size:42px;"">FINGER</div>",null,,word,FINGER,,,,,,,,,,,,
html-keyboard-response,785,1809285,null,"",null,,word,FINGER,,,,,,,,,,,,
html-keyboard-response,786,1809490,null,"<div style=""font-size:42px;"">CELLAR</div><img id = ""stim"" ><div class = red_square id = topsquare></div>",null,encoding,word_square,,,1,topsquare,32,true,,,CELLAR,7,,,
html-keyboard-response,787,1809792,116.79999995231628,"<div style=""font-size:42px;"">CELLAR</div>",32,,word,CELLAR,,,,,,,,,,,,
html-keyboard-response,788,1811294,null,"",null,,word,CELLAR,,,,,,,,,,,,
html-keyboard-response,789,1811497,null,"<div style=""font-size:42px;"">BOTTLE</div><img id = ""stim"" ><div class = green_square id = bottomsquare></div>",null,encoding,word_square,,,0,bottomsquare,none,true,,,BOTTLE,7,,,
html-keyboard-response,790,1811799,null,"<div style=""font-size:42px;"">BOTTLE</div>",null,,word,BOTTLE,,,,,,,,,,,,
html-keyboard-response,791,1813305,null,"",null,,word,BOTTLE,,,,,,,,,,,,
call-function,792,1813305,,"",,,,,,,,,,,,,,,,
html-keyboard-response,793,1813410,null,"",null,,,,,,,,,,,,,,,
math-period,794,1815376,3794.2000000476837,"",,,,,,,,,,,4numpad,,,,,
html-keyboard-response,795,1815487,null,"",null,,,,,,,,,,,,,,,
math-period,796,1816728,2384.6999999284744,"",,,,,,,,,,,5numpad,,,,,
html-keyboard-response,797,1816841,null,"",null,,,,,,,,,,,,,,,
math-period,798,1819248,3948,"",,,,,,,,,,,4numpad,,,,,
html-keyboard-response,799,1819353,null,"",null,,,,,,,,,,,,,,,
math-period,800,1820664,2379.4999998807907,"",,,,,,,,,,,6numpad,,,,,
html-keyboard-response,801,1820779,null,"",null,,,,,,,,,,,,,,,
math-period,802,1827336,12929.200000047684,"",,,,,,,,,,,3numpad,,,,,
html-keyboard-response,803,1827438,null,"",null,,,,,,,,,,,,,,,
math-period,804,1831632,8186,"",,,,,,,,,,,4numpad,,,,,
html-keyboard-response,805,1831744,null,"",null,,,,,,,,,,,,,,,
math-period,806,1836408,9053.599999904633,"",,,,,,,,,,,1numpad,,,,,
html-keyboard-response,807,1836522,null,"",null,,,,,,,,,,,,,,,
math-period,808,1837311,null,"",,,,,,,,,,,,,,,,
html-keyboard-response,809,1838325,null,"Recall Period!",null,,,,,,,,,,,,,,,
call-function,810,1838325,,"",,,,,,,,,,,,,,,,
html-keyboard-response,811,1838439,null,"",null,,,,,,,,,,,,,,,
recall-period,812,1840544,7864.600000143051,"",,,,,,,,,,,office,,,,,
html-keyboard-response,813,1840654,null,"",null,,,,,,,,,,,,,,,
recall-period,814,1844696,20452.099999547005,"",,,,,,,,,,,party,,,,,
html-keyboard-response,815,1844807,null,"",null,,,,,,,,,,,,,,,
recall-period,816,1846272,7206.39999961853,"",,,,,,,,,,,postage,,,,,
html-keyboard-response,817,1846375,null,"",null,,,,,,,,,,,,,,,
recall-period,818,1847344,2376.3000000715256,"",,,,,,,,,,,mop,,,,,
html-keyboard-response,819,1847460,null,"",null,,,,,,,,,,,,,,,
recall-period,820,1850632,31446.29999935627,"",,,,,,,,,,,brother ,,,,,
html-keyboard-response,821,1850744,null,"",null,,,,,,,,,,,,,,,
recall-period,822,1851680,3435.199999690056,"",,,,,,,,,,,finger,,,,,
html-keyboard-response,823,1851794,null,"",null,,,,,,,,,,,,,,,
recall-period,824,1852744,3878.5,"",,,,,,,,,,,bottle,,,,,
html-keyboard-response,825,1852856,null,"",null,,,,,,,,,,,,,,,
recall-period,826,1913336,null,"",,,,,,,,,,,,,,,,
html-keyboard-response,827,1913839,null,"Time's Up!",null,,,,,,,,,,,,,,,
html-keyboard-response,828,1918016,4176.399999976158,"<p> Good job! You have responded correctly to 98% of the trials. </p>
                      <p>Be sure to only press the spacebar if you see a red square, and please keep your accuracy above 80%.</p>
                      <p> Press any key to continue the experiment. </p>",32,,,,,,,,,,,,,,,
html-keyboard-response,829,1923016,4999.100000023842,"<div style=""font-size:48px;"">Press any key to begin list 9 of 16 </div>",32,,,,,,,,,,,,,,,
html-keyboard-response,830,1925532,null,"<div style=""font-size:60px;"">+</div>",null,,,,,,,,,,,,,,,
html-keyboard-response,831,1925737,null,"<div style=""font-size:42px;"">PICTURE</div><img id = ""stim"" ><div class = red_square id = topsquare></div>",null,encoding,word_square,,,1,topsquare,32,true,,,PICTURE,8,,,
html-keyboard-response,832,1926044,null,"<div style=""font-size:42px;"">PICTURE</div>",null,,word,PICTURE,,,,,,,,,,,,
html-keyboard-response,833,1927555,42.59999990463257,"",32,,word,PICTURE,,,,,,,,,,,,
html-keyboard-response,834,1927759,null,"<div style=""font-size:42px;"">PLUTO</div><img id = ""stim"" ><div class = red_square id = bottomsquare></div>",null,encoding,word_square,,,1,bottomsquare,32,true,,,PLUTO,8,,,
html-keyboard-response,835,1928060,208.39999997615814,"<div style=""font-size:42px;"">PLUTO</div>",32,,word,PLUTO,,,,,,,,,,,,
html-keyboard-response,836,1929571,null,"",null,,word,PLUTO,,,,,,,,,,,,
html-keyboard-response,837,1929779,null,"<div style=""font-size:42px;"">CAMEL</div><img id = ""stim"" ><div class = green_square id = bottomsquare></div>",null,encoding,word_square,,,0,bottomsquare,none,true,,,CAMEL,8,,,
html-keyboard-response,838,1930083,null,"<div style=""font-size:42px;"">CAMEL</div>",null,,word,CAMEL,,,,,,,,,,,,
html-keyboard-response,839,1931588,null,"",null,,word,CAMEL,,,,,,,,,,,,
html-keyboard-response,840,1931798,null,"<div style=""font-size:42px;"">TAXI</div><img id = ""stim"" ><div class = red_square id = topsquare></div>",null,encoding,word_square,,,1,topsquare,32,true,,,TAXI,8,,,
html-keyboard-response,841,1932111,201.30000007152557,"<div style=""font-size:42px;"">TAXI</div>",32,,word,TAXI,,,,,,,,,,,,
html-keyboard-response,842,1933614,null,"",null,,word,TAXI,,,,,,,,,,,,
html-keyboard-response,843,1933821,null,"<div style=""font-size:42px;"">GRASS</div><img id = ""stim"" ><div class = green_square id = topsquare></div>",null,encoding,word_square,,,0,topsquare,none,true,,,GRASS,8,,,
html-keyboard-response,844,1934123,null,"<div style=""font-size:42px;"">GRASS</div>",null,,word,GRASS,,,,,,,,,,,,
html-keyboard-response,845,1935633,null,"",null,,word,GRASS,,,,,,,,,,,,
html-keyboard-response,846,1935842,null,"<div style=""font-size:42px;"">PACKAGE</div><img id = ""stim"" ><div class = green_square id = bottomsquare></div>",null,encoding,word_square,,,0,bottomsquare,none,true,,,PACKAGE,8,,,
html-keyboard-response,847,1936144,null,"<div style=""font-size:42px;"">PACKAGE</div>",null,,word,PACKAGE,,,,,,,,,,,,
html-keyboard-response,848,1937649,null,"",null,,word,PACKAGE,,,,,,,,,,,,
html-keyboard-response,849,1937856,null,"<div style=""font-size:42px;"">BRIEFCASE</div><img id = ""stim"" ><div class = red_square id = bottomsquare></div>",null,encoding,word_square,,,1,bottomsquare,32,true,,,BRIEFCASE,8,,,
html-keyboard-response,850,1938170,191.60000002384186,"<div style=""font-size:42px;"">BRIEFCASE</div>",32,,word,BRIEFCASE,,,,,,,,,,,,
html-keyboard-response,851,1939681,null,"",null,,word,BRIEFCASE,,,,,,,,,,,,
html-keyboard-response,852,1939890,null,"<div style=""font-size:42px;"">BELLY</div><img id = ""stim"" ><div class = green_square id = topsquare></div>",null,encoding,word_square,,,0,topsquare,none,true,,,BELLY,8,,,
html-keyboard-response,853,1940191,null,"<div style=""font-size:42px;"">BELLY</div>",null,,word,BELLY,,,,,,,,,,,,
html-keyboard-response,854,1941696,null,"",null,,word,BELLY,,,,,,,,,,,,
html-keyboard-response,855,1941910,null,"<div style=""font-size:42px;"">NURSE</div><img id = ""stim"" ><div class = green_square id = bottomsquare></div>",null,encoding,word_square,,,0,bottomsquare,none,true,,,NURSE,8,,,
html-keyboard-response,856,1942212,null,"<div style=""font-size:42px;"">NURSE</div>",null,,word,NURSE,,,,,,,,,,,,
html-keyboard-response,857,1943726,null,"",null,,word,NURSE,,,,,,,,,,,,
html-keyboard-response,858,1943932,null,"<div style=""font-size:42px;"">PATIENT</div><img id = ""stim"" ><div class = red_square id = topsquare></div>",null,encoding,word_square,,,1,topsquare,32,true,,,PATIENT,8,,,
html-keyboard-response,859,1944243,179.20000004768372,"<div style=""font-size:42px;"">PATIENT</div>",32,,word,PATIENT,,,,,,,,,,,,
html-keyboard-response,860,1945755,null,"",null,,word,PATIENT,,,,,,,,,,,,
html-keyboard-response,861,1945960,null,"<div style=""font-size:42px;"">SUBWAY</div><img id = ""stim"" ><div class = green_square id = topsquare></div>",null,encoding,word_square,,,0,topsquare,none,true,,,SUBWAY,8,,,
html-keyboard-response,862,1946276,null,"<div style=""font-size:42px;"">SUBWAY</div>",null,,word,SUBWAY,,,,,,,,,,,,
html-keyboard-response,863,1947783,null,"",null,,word,SUBWAY,,,,,,,,,,,,
html-keyboard-response,864,1947990,null,"<div style=""font-size:42px;"">CRADLE</div><img id = ""stim"" ><div class = green_square id = bottomsquare></div>",null,encoding,word_square,,,0,bottomsquare,none,true,,,CRADLE,8,,,
html-keyboard-response,865,1948292,null,"<div style=""font-size:42px;"">CRADLE</div>",null,,word,CRADLE,,,,,,,,,,,,
html-keyboard-response,866,1949799,null,"",null,,word,CRADLE,,,,,,,,,,,,
html-keyboard-response,867,1950002,null,"<div style=""font-size:42px;"">SIRLOIN</div><img id = ""stim"" ><div class = red_square id = bottomsquare></div>",null,encoding,word_square,,,1,bottomsquare,32,true,,,SIRLOIN,8,,,
html-keyboard-response,868,1950304,197.19999992847443,"<div style=""font-size:42px;"">SIRLOIN</div>",32,,word,SIRLOIN,,,,,,,,,,,,
html-keyboard-response,869,1951818,null,"",null,,word,SIRLOIN,,,,,,,,,,,,
html-keyboard-response,870,1952023,null,"<div style=""font-size:42px;"">LEOPARD</div><img id = ""stim"" ><div class = green_square id = topsquare></div>",null,encoding,word_square,,,0,topsquare,none,true,,,LEOPARD,8,,,
html-keyboard-response,871,1952339,null,"<div style=""font-size:42px;"">LEOPARD</div>",null,,word,LEOPARD,,,,,,,,,,,,
html-keyboard-response,872,1953846,null,"",null,,word,LEOPARD,,,,,,,,,,,,
html-keyboard-response,873,1954051,null,"<div style=""font-size:42px;"">BEAVER</div><img id = ""stim"" ><div class = red_square id = topsquare></div>",null,encoding,word_square,,,1,topsquare,32,true,,,BEAVER,8,,,
