trial_type,trial_index,time_elapsed,rt,stimulus,key_press,exp_phase,test_part,word,task,targ_cond,sq_pos,correctKeyCode,correct,value,response,Word,List,RecResp,serial_pos,colorChosen
pavlovia,0,2380,,"",,,,,,,,,,,,,,,,
external-html,1,1089803,1087289.1000000015,"",,,,,,,,,,,,,,,,
html-keyboard-response,2,1091263,1457.3000000044703,"Welcome to the experiment. Press any key to begin.",32,,,,,,,,,,,,,,,
html-keyboard-response,3,1108158,16893.10000000149,"<p>You will see a list of words and colored squares in the following task.<p><p>Press the spacebar whenever you see a GREEN square.<p><p>Do not press a key if the square is RED.<p><p>Press the spacebar to continue.</p>",32,,,,,,,,,,,,,,,
html-keyboard-response,4,1121132,12467.89999999851,"<p>Please try to remember as many of the words as you can, and try to think about the meaning of each word as it appears.<p><p>After the detection and encoding task you will be asked to solve some math problems for 24 seconds.<p> Please solve as many problems as you can in the time given. <p><p><p>Press the spacebar to continue.</p>",32,,,,,,,,,,,,,,,
html-keyboard-response,5,1130821,9187.10000000149,"After solving the math problems, you will be asked to type in as many words <p>from the previous list as you can remember for 75 seconds.<p> If you finish recalling before the 75 seconds are up,<p> just sit tight and try to think of any more words you could have missed. <p><p><p>Press the spacebar to continue.</p>",32,,,,,,,,,,,,,,,
html-keyboard-response,6,1146253,14925.5,"There will be 16 lists of words and recall, followed  by<p><p> a recognition phase. The experiment is expected to take up to 90 minutes.<p>We will begin with a brief practice session.<p>Press the spacebar to begin the practice.</p>",32,,,,,,,,,,,,,,,
html-keyboard-response,7,1148759,null,"<div style=""font-size:60px;"">+</div>",null,,,,,,,,,,,,,,,
html-keyboard-response,8,1148969,null,"<div style=""font-size:42px;"">HAPPY</div><img id = ""stim"" ><div class = red_square id = ""bottomsquare"" ></div>",null,practice,word_square,HAPPY,prac_response,0,Bottom,none,false,,,,,,,
html-keyboard-response,9,1149276,null,"<div style=""font-size:42px;"">HAPPY</div>",null,,word,HAPPY,,,,,,,,,,,,
html-keyboard-response,10,1150781,169.89999999850988,"",32,,word,HAPPY,,,,,,,,,,,,
html-keyboard-response,11,1150984,null,"<div style=""font-size:42px;"">COLD</div><img id = ""stim"" ><div class = green_square id = ""bottomsquare"" ></div>",null,practice,word_square,COLD,prac_response,1,Bottom,32,true,,,,,,,
html-keyboard-response,12,1151291,null,"<div style=""font-size:42px;"">COLD</div>",null,,word,COLD,,,,,,,,,,,,
html-keyboard-response,13,1152792,23.200000002980232,"",32,,word,COLD,,,,,,,,,,,,
html-keyboard-response,14,1152999,null,"<div style=""font-size:42px;"">HEAVY</div><img id = ""stim"" ><div class = green_square id = ""topsquare"" ></div>",null,practice,word_square,HEAVY,prac_response,1,Top,32,true,,,,,,,
html-keyboard-response,15,1153306,null,"<div style=""font-size:42px;"">HEAVY</div>",null,,word,HEAVY,,,,,,,,,,,,
html-keyboard-response,16,1154810,3.2999999970197678,"",32,,word,HEAVY,,,,,,,,,,,,
html-keyboard-response,17,1155017,null,"<div style=""font-size:42px;"">FUNNY</div><img id = ""stim"" ><div class = red_square id = ""topsquare"" ></div>",null,practice,word_square,FUNNY,prac_response,0,Top,none,true,,,,,,,
html-keyboard-response,18,1155323,null,"<div style=""font-size:42px;"">FUNNY</div>",null,,word,FUNNY,,,,,,,,,,,,
html-keyboard-response,19,1156827,null,"",null,,word,FUNNY,,,,,,,,,,,,
html-keyboard-response,20,1157034,null,"<div style=""font-size:42px;"">SCARY</div><img id = ""stim"" ><div class = green_square id = ""bottomsquare"" ></div>",null,practice,word_square,SCARY,prac_response,1,Bottom,32,true,,,,,,,
html-keyboard-response,21,1157336,217.20000000298023,"<div style=""font-size:42px;"">SCARY</div>",32,,word,SCARY,,,,,,,,,,,,
html-keyboard-response,22,1158838,null,"",null,,word,SCARY,,,,,,,,,,,,
html-keyboard-response,23,1159045,null,"<div style=""font-size:42px;"">PEACEFUL</div><img id = ""stim"" ><div class = green_square id = ""topsquare"" ></div>",null,practice,word_square,PEACEFUL,prac_response,1,Top,32,true,,,,,,,
html-keyboard-response,24,1159352,null,"<div style=""font-size:42px;"">PEACEFUL</div>",null,,word,PEACEFUL,,,,,,,,,,,,
html-keyboard-response,25,1160856,505.8999999985099,"",32,,word,PEACEFUL,,,,,,,,,,,,
html-keyboard-response,26,1161062,null,"<div style=""font-size:42px;"">LITTLE</div><img id = ""stim"" ><div class = red_square id = ""bottomsquare"" ></div>",null,practice,word_square,LITTLE,prac_response,0,Bottom,none,true,,,,,,,
html-keyboard-response,27,1161369,null,"<div style=""font-size:42px;"">LITTLE</div>",null,,word,LITTLE,,,,,,,,,,,,
html-keyboard-response,28,1162872,null,"",null,,word,LITTLE,,,,,,,,,,,,
html-keyboard-response,29,1163074,null,"<div style=""font-size:42px;"">TIRED</div><img id = ""stim"" ><div class = red_square id = ""topsquare"" ></div>",null,practice,word_square,TIRED,prac_response,0,Top,none,true,,,,,,,
html-keyboard-response,30,1163381,null,"<div style=""font-size:42px;"">TIRED</div>",null,,word,TIRED,,,,,,,,,,,,
html-keyboard-response,31,1164882,null,"",null,,word,TIRED,,,,,,,,,,,,
html-keyboard-response,32,1165089,null,"<div style=""font-size:42px;"">ENTERTAINING</div><img id = ""stim"" ><div class = red_square id = ""bottomsquare"" ></div>",null,practice,word_square,ENTERTAINING,prac_response,0,Bottom,none,true,,,,,,,
html-keyboard-response,33,1165395,null,"<div style=""font-size:42px;"">ENTERTAINING</div>",null,,word,ENTERTAINING,,,,,,,,,,,,
html-keyboard-response,34,1166898,null,"",null,,word,ENTERTAINING,,,,,,,,,,,,
html-keyboard-response,35,1167101,null,"<div style=""font-size:42px;"">GRATEFUL</div><img id = ""stim"" ><div class = green_square id = ""bottomsquare"" ></div>",null,practice,word_square,GRATEFUL,prac_response,1,Bottom,32,true,,,,,,,
html-keyboard-response,36,1167406,185,"<div style=""font-size:42px;"">GRATEFUL</div>",32,,word,GRATEFUL,,,,,,,,,,,,
html-keyboard-response,37,1168908,null,"",null,,word,GRATEFUL,,,,,,,,,,,,
html-keyboard-response,38,1169112,null,"<div style=""font-size:42px;"">LOUD</div><img id = ""stim"" ><div class = red_square id = ""topsquare"" ></div>",null,practice,word_square,LOUD,prac_response,0,Top,none,true,,,,,,,
html-keyboard-response,39,1169418,null,"<div style=""font-size:42px;"">LOUD</div>",null,,word,LOUD,,,,,,,,,,,,
html-keyboard-response,40,1170922,null,"",null,,word,LOUD,,,,,,,,,,,,
html-keyboard-response,41,1171129,null,"<div style=""font-size:42px;"">SMART</div><img id = ""stim"" ><div class = green_square id = ""topsquare"" ></div>",null,practice,word_square,SMART,prac_response,1,Top,32,true,,,,,,,
html-keyboard-response,42,1171431,260.8999999985099,"<div style=""font-size:42px;"">SMART</div>",32,,word,SMART,,,,,,,,,,,,
html-keyboard-response,43,1172934,null,"",null,,word,SMART,,,,,,,,,,,,
html-keyboard-response,44,1173136,null,"<div style=""font-size:42px;"">SMOOTH</div><img id = ""stim"" ><div class = green_square id = ""bottomsquare"" ></div>",null,practice,word_square,SMOOTH,prac_response,1,Bottom,32,true,,,,,,,
html-keyboard-response,45,1173443,206.89999999850988,"<div style=""font-size:42px;"">SMOOTH</div>",32,,word,SMOOTH,,,,,,,,,,,,
html-keyboard-response,46,1174946,null,"",null,,word,SMOOTH,,,,,,,,,,,,
html-keyboard-response,47,1175153,null,"<div style=""font-size:42px;"">DISHONEST</div><img id = ""stim"" ><div class = red_square id = ""bottomsquare"" ></div>",null,practice,word_square,DISHONEST,prac_response,0,Bottom,none,true,,,,,,,
html-keyboard-response,48,1175460,null,"<div style=""font-size:42px;"">DISHONEST</div>",null,,word,DISHONEST,,,,,,,,,,,,
html-keyboard-response,49,1176963,null,"",null,,word,DISHONEST,,,,,,,,,,,,
html-keyboard-response,50,1177170,null,"<div style=""font-size:42px;"">WEALTHY</div><img id = ""stim"" ><div class = green_square id = ""topsquare"" ></div>",null,practice,word_square,WEALTHY,prac_response,1,Top,32,true,,,,,,,
html-keyboard-response,51,1177473,233.39999999850988,"<div style=""font-size:42px;"">WEALTHY</div>",32,,word,WEALTHY,,,,,,,,,,,,
html-keyboard-response,52,1178976,null,"",null,,word,WEALTHY,,,,,,,,,,,,
html-keyboard-response,53,1179181,null,"<div style=""font-size:42px;"">BEAUTIFUL</div><img id = ""stim"" ><div class = red_square id = ""topsquare"" ></div>",null,practice,word_square,BEAUTIFUL,prac_response,0,Top,none,true,,,,,,,
html-keyboard-response,54,1179488,null,"<div style=""font-size:42px;"">BEAUTIFUL</div>",null,,word,BEAUTIFUL,,,,,,,,,,,,
html-keyboard-response,55,1180990,null,"",null,,word,BEAUTIFUL,,,,,,,,,,,,
html-keyboard-response,56,1190618,9625.60000000149,"<p> Good job! You responded correctly to 94% of the trials. </p>
                  <p>Be sure to only press the spacebar if you see a GREEN square, and please keep your accuracy above 80%.</p>
                  <p>We're going to try once more to make sure you understand the task. press any key to continue. </p>",32,,,,,,,,,,,,,,,
html-keyboard-response,57,1194199,3580.10000000149,"<p>You will see a list of words and colored squares in the following task.<p><p>Press the spacebar whenever you see a GREEN square.<p><p>Do not press a key if the square is RED<p><p>Press the spacebar to continue.</p>",32,,,,,,,,,,,,,,,
html-keyboard-response,58,1196713,null,"<div style=""font-size:60px;"">+</div>",null,,,,,,,,,,,,,,,
html-keyboard-response,59,1196921,null,"<div style=""font-size:42px;"">HAPPY</div><img id = ""stim"" ><div class = red_square id = ""bottomsquare"" ></div>",null,practice2,word_square,HAPPY,prac_response,0,Bottom,none,true,,,,,,,
html-keyboard-response,60,1197227,null,"<div style=""font-size:42px;"">HAPPY</div>",null,,word,HAPPY,,,,,,,,,,,,
html-keyboard-response,61,1198731,null,"",null,,word,HAPPY,,,,,,,,,,,,
html-keyboard-response,62,1198939,null,"<div style=""font-size:42px;"">COLD</div><img id = ""stim"" ><div class = green_square id = ""bottomsquare"" ></div>",null,practice2,word_square,,prac_response,1,Bottom,32,true,,,,,,,
html-keyboard-response,63,1199246,null,"<div style=""font-size:42px;"">COLD</div>",null,,word,COLD,,,,,,,,,,,,
html-keyboard-response,64,1200749,25.100000001490116,"",32,,word,COLD,,,,,,,,,,,,
html-keyboard-response,65,1200952,null,"<div style=""font-size:42px;"">HEAVY</div><img id = ""stim"" ><div class = green_square id = ""topsquare"" ></div>",null,practice2,word_square,,prac_response,1,Top,32,true,,,,,,,
html-keyboard-response,66,1201258,212.79999999701977,"<div style=""font-size:42px;"">HEAVY</div>",32,,word,HEAVY,,,,,,,,,,,,
html-keyboard-response,67,1202760,null,"",null,,word,HEAVY,,,,,,,,,,,,
html-keyboard-response,68,1202962,null,"<div style=""font-size:42px;"">FUNNY</div><img id = ""stim"" ><div class = red_square id = ""topsquare"" ></div>",null,practice2,word_square,,prac_response,0,Top,none,true,,,,,,,
html-keyboard-response,69,1203267,null,"<div style=""font-size:42px;"">FUNNY</div>",null,,word,FUNNY,,,,,,,,,,,,
html-keyboard-response,70,1204770,null,"",null,,word,FUNNY,,,,,,,,,,,,
html-keyboard-response,71,1204974,null,"<div style=""font-size:42px;"">SCARY</div><img id = ""stim"" ><div class = green_square id = ""bottomsquare"" ></div>",null,practice2,word_square,,prac_response,1,Bottom,32,true,,,,,,,
html-keyboard-response,72,1205280,null,"<div style=""font-size:42px;"">SCARY</div>",null,,word,SCARY,,,,,,,,,,,,
html-keyboard-response,73,1206783,32.29999999701977,"",32,,word,SCARY,,,,,,,,,,,,
html-keyboard-response,74,1206989,null,"<div style=""font-size:42px;"">PEACEFUL</div><img id = ""stim"" ><div class = green_square id = ""topsquare"" ></div>",null,practice2,word_square,,prac_response,1,Top,32,true,,,,,,,
html-keyboard-response,75,1207293,235.79999999701977,"<div style=""font-size:42px;"">PEACEFUL</div>",32,,word,PEACEFUL,,,,,,,,,,,,
html-keyboard-response,76,1208794,null,"",null,,word,PEACEFUL,,,,,,,,,,,,
html-keyboard-response,77,1208999,null,"<div style=""font-size:42px;"">LITTLE</div><img id = ""stim"" ><div class = red_square id = ""bottomsquare"" ></div>",null,practice2,word_square,LITTLE,prac_response,0,Bottom,none,true,,,,,,,
html-keyboard-response,78,1209305,null,"<div style=""font-size:42px;"">LITTLE</div>",null,,word,LITTLE,,,,,,,,,,,,
html-keyboard-response,79,1210808,null,"",null,,word,LITTLE,,,,,,,,,,,,
html-keyboard-response,80,1211010,null,"<div style=""font-size:42px;"">TIRED</div><img id = ""stim"" ><div class = red_square id = ""topsquare"" ></div>",null,practice2,word_square,,prac_response,0,Top,none,true,,,,,,,
html-keyboard-response,81,1211312,null,"<div style=""font-size:42px;"">TIRED</div>",null,,word,TIRED,,,,,,,,,,,,
html-keyboard-response,82,1212817,null,"",null,,word,TIRED,,,,,,,,,,,,
html-keyboard-response,83,1213024,null,"<div style=""font-size:42px;"">ENTERTAINING</div><img id = ""stim"" ><div class = red_square id = ""bottomsquare"" ></div>",null,practice2,word_square,ENTERTAINING,prac_response,0,Bottom,none,true,,,,,,,
html-keyboard-response,84,1213328,null,"<div style=""font-size:42px;"">ENTERTAINING</div>",null,,word,ENTERTAINING,,,,,,,,,,,,
html-keyboard-response,85,1214830,null,"",null,,word,ENTERTAINING,,,,,,,,,,,,
html-keyboard-response,86,1215035,null,"<div style=""font-size:42px;"">GRATEFUL</div><img id = ""stim"" ><div class = green_square id = ""bottomsquare"" ></div>",null,practice2,word_square,,prac_response,1,Bottom,32,true,,,,,,,
html-keyboard-response,87,1215342,200.30000000447035,"<div style=""font-size:42px;"">GRATEFUL</div>",32,,word,GRATEFUL,,,,,,,,,,,,
html-keyboard-response,88,1216846,null,"",null,,word,GRATEFUL,,,,,,,,,,,,
html-keyboard-response,89,1217049,null,"<div style=""font-size:42px;"">LOUD</div><img id = ""stim"" ><div class = red_square id = ""topsquare"" ></div>",null,practice2,word_square,,prac_response,0,Top,none,true,,,,,,,
html-keyboard-response,90,1217356,null,"<div style=""font-size:42px;"">LOUD</div>",null,,word,LOUD,,,,,,,,,,,,
html-keyboard-response,91,1218859,null,"",null,,word,LOUD,,,,,,,,,,,,
html-keyboard-response,92,1219062,null,"<div style=""font-size:42px;"">SMART</div><img id = ""stim"" ><div class = green_square id = ""topsquare"" ></div>",null,practice2,word_square,,prac_response,1,Top,32,true,,,,,,,
html-keyboard-response,93,1219369,174.70000000298023,"<div style=""font-size:42px;"">SMART</div>",32,,word,SMART,,,,,,,,,,,,
html-keyboard-response,94,1220872,null,"",null,,word,SMART,,,,,,,,,,,,
html-keyboard-response,95,1221078,null,"<div style=""font-size:42px;"">SMOOTH</div><img id = ""stim"" ><div class = green_square id = ""bottomsquare"" ></div>",null,practice2,word_square,,prac_response,1,Bottom,32,true,,,,,,,
html-keyboard-response,96,1221385,null,"<div style=""font-size:42px;"">SMOOTH</div>",null,,word,SMOOTH,,,,,,,,,,,,
html-keyboard-response,97,1222889,2.6999999955296516,"",32,,word,SMOOTH,,,,,,,,,,,,
html-keyboard-response,98,1223091,null,"<div style=""font-size:42px;"">DISHONEST</div><img id = ""stim"" ><div class = red_square id = ""bottomsquare"" ></div>",null,practice2,word_square,DISHONEST,prac_response,0,Bottom,none,true,,,,,,,
html-keyboard-response,99,1223398,null,"<div style=""font-size:42px;"">DISHONEST</div>",null,,word,DISHONEST,,,,,,,,,,,,
html-keyboard-response,100,1224899,null,"",null,,word,DISHONEST,,,,,,,,,,,,
html-keyboard-response,101,1225106,null,"<div style=""font-size:42px;"">WEALTHY</div><img id = ""stim"" ><div class = green_square id = ""topsquare"" ></div>",null,practice2,word_square,,prac_response,1,Top,32,true,,,,,,,
html-keyboard-response,102,1225409,184.60000000149012,"<div style=""font-size:42px;"">WEALTHY</div>",32,,word,WEALTHY,,,,,,,,,,,,
html-keyboard-response,103,1226911,null,"",null,,word,WEALTHY,,,,,,,,,,,,
html-keyboard-response,104,1227113,null,"<div style=""font-size:42px;"">BEAUTIFUL</div><img id = ""stim"" ><div class = red_square id = ""topsquare"" ></div>",null,practice2,word_square,,prac_response,0,Top,none,false,,,,,,,
html-keyboard-response,105,1227420,null,"<div style=""font-size:42px;"">BEAUTIFUL</div>",null,,word,BEAUTIFUL,,,,,,,,,,,,
html-keyboard-response,106,1228922,null,"",null,,word,BEAUTIFUL,,,,,,,,,,,,
html-keyboard-response,107,1234937,6012.79999999702,"<p> Good job! You responded correctly to 100% of the trials. </p>
                    <p>Be sure to only press the spacebar if you see a GREEN square, and please keep your accuracy above 80%.</p>
                    <p>Press any key to begin the math and recall sections. Thank you! </p>",32,,,,,,,,,,,,,,,
call-function,108,1234938,,"",,,,,,,,,,,,,,,,
html-keyboard-response,109,1235042,null,"",null,,,,,,,,,,,,,,,
math-period,110,1238769,6978.29999999702,"",,,,,,,,,,,3,,,,,
html-keyboard-response,111,1238871,null,"",null,,,,,,,,,,,,,,,
math-period,112,1240905,3854.9000000059605,"",,,,,,,,,,,6,,,,,
html-keyboard-response,113,1241010,null,"",null,,,,,,,,,,,,,,,
math-period,114,1245015,7785.10000000149,"",,,,,,,,,,,1,,,,,
html-keyboard-response,115,1245118,null,"",null,,,,,,,,,,,,,,,
math-period,116,1247180,3922.7000000029802,"",,,,,,,,,,,4,,,,,
html-keyboard-response,117,1247282,null,"",null,,,,,,,,,,,,,,,
math-period,118,1248720,2687.60000000149,"",,,,,,,,,,,4,,,,,
html-keyboard-response,119,1248823,null,"",null,,,,,,,,,,,,,,,
math-period,120,1250127,2386.5999999940395,"",,,,,,,,,,,4,,,,,
html-keyboard-response,121,1250231,null,"",null,,,,,,,,,,,,,,,
math-period,122,1251905,3173.5000000074506,"",,,,,,,,,,,1,,,,,
html-keyboard-response,123,1252007,null,"",null,,,,,,,,,,,,,,,
math-period,124,1253720,3235.6999999955297,"",,,,,,,,,,,4,,,,,
html-keyboard-response,125,1253825,null,"",null,,,,,,,,,,,,,,,
math-period,126,1255195,2516.6999999955297,"",,,,,,,,,,,4,,,,,
html-keyboard-response,127,1255298,null,"",null,,,,,,,,,,,,,,,
math-period,128,1257540,4288.69999999553,"",,,,,,,,,,,2,,,,,
html-keyboard-response,129,1257641,null,"",null,,,,,,,,,,,,,,,
math-period,130,1258942,null,"",,,,,,,,,,,,,,,,
html-keyboard-response,131,1259944,null,"Recall Period!",null,,,,,,,,,,,,,,,
call-function,132,1259945,,"",,,,,,,,,,,,,,,,
html-keyboard-response,133,1260048,null,"",null,,,,,,,,,,,,,,,
recall-period,134,1265004,34377.79999998957,"",,,,,,,,,,,beautiful,,,,,
html-keyboard-response,135,1265110,null,"",null,,,,,,,,,,,,,,,
recall-period,136,1266621,3760.200000025332,"",,,,,,,,,,,smooth,,,,,
html-keyboard-response,137,1266724,null,"",null,,,,,,,,,,,,,,,
recall-period,138,1273286,44989.29999998957,"",,,,,,,,,,,wealthy,,,,,
html-keyboard-response,139,1273391,null,"",null,,,,,,,,,,,,,,,
recall-period,140,1274573,5349.1999999806285,"",,,,,,,,,,,dishonest,,,,,
html-keyboard-response,141,1274678,null,"",null,,,,,,,,,,,,,,,
recall-period,142,1276052,8470.40000000596,"",,,,,,,,,,,entertaining,,,,,
html-keyboard-response,143,1276157,null,"",null,,,,,,,,,,,,,,,
recall-period,144,1286607,57865.30000001192,"",,,,,,,,,,,happy,,,,,
html-keyboard-response,145,1286709,null,"",null,,,,,,,,,,,,,,,
recall-period,146,1320493,200815.79999999702,"",,,,,,,,,,,scary,,,,,
html-keyboard-response,147,1320597,null,"",null,,,,,,,,,,,,,,,
recall-period,148,1334952,null,"",,,,,,,,,,,,,,,,
html-keyboard-response,149,1335456,null,"Time's Up!",null,,,,,,,,,,,,,,,
html-keyboard-response,150,1339322,3865.2000000029802,"<p>We will now begin the experiment!<p><p>Please try to remember all words from each list.<p><p>Press the spacebar whenever you see a GREEN square.<p><p><p><p>Press the spacebar to begin.</p>",32,,,,,,,,,,,,,,,
html-keyboard-response,151,1341938,2110,"<div style=""font-size:48px;"">Press any key to begin list 1 of 16 </div>",32,,,,,,,,,,,,,,,
html-keyboard-response,152,1344446,null,"<div style=""font-size:60px;"">+</div>",null,,,,,,,,,,,,,,,
html-keyboard-response,153,1344653,null,"<div style=""font-size:42px;"">BISCUIT</div><img id = ""stim"" ><div class = green_square id = topsquare></div>",null,encoding,word_square,,,1,topsquare,32,true,,,BISCUIT,0,,,
html-keyboard-response,154,1344960,null,"<div style=""font-size:42px;"">BISCUIT</div>",null,,word,BISCUIT,,,,,,,,,,,,
html-keyboard-response,155,1346463,35.600000001490116,"",32,,word,BISCUIT,,,,,,,,,,,,
html-keyboard-response,156,1346670,null,"<div style=""font-size:42px;"">PORCH</div><img id = ""stim"" ><div class = red_square id = bottomsquare></div>",null,encoding,word_square,,,0,bottomsquare,none,true,,,PORCH,0,,,
html-keyboard-response,157,1346977,null,"<div style=""font-size:42px;"">PORCH</div>",null,,word,PORCH,,,,,,,,,,,,
html-keyboard-response,158,1348481,null,"",null,,word,PORCH,,,,,,,,,,,,
html-keyboard-response,159,1348686,null,"<div style=""font-size:42px;"">COD</div><img id = ""stim"" ><div class = green_square id = bottomsquare></div>",null,encoding,word_square,,,1,bottomsquare,32,true,,,COD,0,,,
html-keyboard-response,160,1348989,null,"<div style=""font-size:42px;"">COD</div>",null,,word,COD,,,,,,,,,,,,
html-keyboard-response,161,1350493,84.20000000298023,"",32,,word,COD,,,,,,,,,,,,
html-keyboard-response,162,1350698,null,"<div style=""font-size:42px;"">BANJO</div><img id = ""stim"" ><div class = red_square id = topsquare></div>",null,encoding,word_square,,,0,topsquare,none,true,,,BANJO,0,,,
html-keyboard-response,163,1351002,null,"<div style=""font-size:42px;"">BANJO</div>",null,,word,BANJO,,,,,,,,,,,,
html-keyboard-response,164,1352504,null,"",null,,word,BANJO,,,,,,,,,,,,
html-keyboard-response,165,1352711,null,"<div style=""font-size:42px;"">FIREPLACE</div><img id = ""stim"" ><div class = red_square id = bottomsquare></div>",null,encoding,word_square,,,0,bottomsquare,none,true,,,FIREPLACE,0,,,
html-keyboard-response,166,1353017,null,"<div style=""font-size:42px;"">FIREPLACE</div>",null,,word,FIREPLACE,,,,,,,,,,,,
html-keyboard-response,167,1354519,null,"",null,,word,FIREPLACE,,,,,,,,,,,,
html-keyboard-response,168,1354726,null,"<div style=""font-size:42px;"">DOG</div><img id = ""stim"" ><div class = green_square id = topsquare></div>",null,encoding,word_square,,,1,topsquare,32,true,,,DOG,0,,,
html-keyboard-response,169,1355033,153.70000000298023,"<div style=""font-size:42px;"">DOG</div>",32,,word,DOG,,,,,,,,,,,,
html-keyboard-response,170,1356536,null,"",null,,word,DOG,,,,,,,,,,,,
html-keyboard-response,171,1356742,null,"<div style=""font-size:42px;"">BURGLAR</div><img id = ""stim"" ><div class = red_square id = topsquare></div>",null,encoding,word_square,,,0,topsquare,none,true,,,BURGLAR,0,,,
html-keyboard-response,172,1357049,null,"<div style=""font-size:42px;"">BURGLAR</div>",null,,word,BURGLAR,,,,,,,,,,,,
html-keyboard-response,173,1358552,null,"",null,,word,BURGLAR,,,,,,,,,,,,
html-keyboard-response,174,1358754,null,"<div style=""font-size:42px;"">SUSPECT</div><img id = ""stim"" ><div class = red_square id = bottomsquare></div>",null,encoding,word_square,,,0,bottomsquare,none,true,,,SUSPECT,0,,,
html-keyboard-response,175,1359060,null,"<div style=""font-size:42px;"">SUSPECT</div>",null,,word,SUSPECT,,,,,,,,,,,,
html-keyboard-response,176,1360563,null,"",null,,word,SUSPECT,,,,,,,,,,,,
html-keyboard-response,177,1360770,null,"<div style=""font-size:42px;"">SCULPTURE</div><img id = ""stim"" ><div class = green_square id = bottomsquare></div>",null,encoding,word_square,,,1,bottomsquare,32,true,,,SCULPTURE,0,,,
html-keyboard-response,178,1361077,null,"<div style=""font-size:42px;"">SCULPTURE</div>",null,,word,SCULPTURE,,,,,,,,,,,,
html-keyboard-response,179,1362580,59,"",32,,word,SCULPTURE,,,,,,,,,,,,
html-keyboard-response,180,1362787,null,"<div style=""font-size:42px;"">IDOL</div><img id = ""stim"" ><div class = green_square id = topsquare></div>",null,encoding,word_square,,,1,topsquare,32,true,,,IDOL,0,,,
html-keyboard-response,181,1363093,null,"<div style=""font-size:42px;"">IDOL</div>",null,,word,IDOL,,,,,,,,,,,,
html-keyboard-response,182,1364597,255.5,"",32,,word,IDOL,,,,,,,,,,,,
html-keyboard-response,183,1364804,null,"<div style=""font-size:42px;"">SCALLOP</div><img id = ""stim"" ><div class = green_square id = bottomsquare></div>",null,encoding,word_square,,,1,bottomsquare,32,true,,,SCALLOP,0,,,
html-keyboard-response,184,1365108,255.29999999701977,"<div style=""font-size:42px;"">SCALLOP</div>",32,,word,SCALLOP,,,,,,,,,,,,
html-keyboard-response,185,1366610,null,"",null,,word,SCALLOP,,,,,,,,,,,,
html-keyboard-response,186,1366817,null,"<div style=""font-size:42px;"">COWBOY</div><img id = ""stim"" ><div class = red_square id = topsquare></div>",null,encoding,word_square,,,0,topsquare,none,true,,,COWBOY,0,,,
html-keyboard-response,187,1367118,null,"<div style=""font-size:42px;"">COWBOY</div>",null,,word,COWBOY,,,,,,,,,,,,
html-keyboard-response,188,1368621,null,"",null,,word,COWBOY,,,,,,,,,,,,
html-keyboard-response,189,1368825,null,"<div style=""font-size:42px;"">FIDDLE</div><img id = ""stim"" ><div class = red_square id = bottomsquare></div>",null,encoding,word_square,,,0,bottomsquare,none,true,,,FIDDLE,0,,,
html-keyboard-response,190,1369130,null,"<div style=""font-size:42px;"">FIDDLE</div>",null,,word,FIDDLE,,,,,,,,,,,,
html-keyboard-response,191,1370633,null,"",null,,word,FIDDLE,,,,,,,,,,,,
html-keyboard-response,192,1370836,null,"<div style=""font-size:42px;"">ROBOT</div><img id = ""stim"" ><div class = green_square id = topsquare></div>",null,encoding,word_square,,,1,topsquare,32,true,,,ROBOT,0,,,
html-keyboard-response,193,1371142,216.70000000298023,"<div style=""font-size:42px;"">ROBOT</div>",32,,word,ROBOT,,,,,,,,,,,,
html-keyboard-response,194,1372646,null,"",null,,word,ROBOT,,,,,,,,,,,,
html-keyboard-response,195,1372851,null,"<div style=""font-size:42px;"">ATTIRE</div><img id = ""stim"" ><div class = green_square id = bottomsquare></div>",null,encoding,word_square,,,1,bottomsquare,32,true,,,ATTIRE,0,,,
html-keyboard-response,196,1373155,205.30000000447035,"<div style=""font-size:42px;"">ATTIRE</div>",32,,word,ATTIRE,,,,,,,,,,,,
html-keyboard-response,197,1374657,null,"",null,,word,ATTIRE,,,,,,,,,,,,
html-keyboard-response,198,1374859,null,"<div style=""font-size:42px;"">SHELTER</div><img id = ""stim"" ><div class = red_square id = topsquare></div>",null,encoding,word_square,,,0,topsquare,none,true,,,SHELTER,0,,,
html-keyboard-response,199,1375166,null,"<div style=""font-size:42px;"">SHELTER</div>",null,,word,SHELTER,,,,,,,,,,,,
html-keyboard-response,200,1376668,null,"",null,,word,SHELTER,,,,,,,,,,,,
call-function,201,1376669,,"",,,,,,,,,,,,,,,,
html-keyboard-response,202,1376772,null,"",null,,,,,,,,,,,,,,,
math-period,203,1379711,5104.89999999851,"",,,,,,,,,,,1,,,,,
html-keyboard-response,204,1379813,null,"",null,,,,,,,,,,,,,,,
math-period,205,1381049,2226.4999999925494,"",,,,,,,,,,,3,,,,,
html-keyboard-response,206,1381151,null,"",null,,,,,,,,,,,,,,,
math-period,207,1382401,2354.60000000149,"",,,,,,,,,,,5,,,,,
html-keyboard-response,208,1382506,null,"",null,,,,,,,,,,,,,,,
math-period,209,1384450,3768.0999999940395,"",,,,,,,,,,,2,,,,,
html-keyboard-response,210,1384552,null,"",null,,,,,,,,,,,,,,,
math-period,211,1386306,3394.3000000044703,"",,,,,,,,,,,2,,,,,
html-keyboard-response,212,1386407,null,"",null,,,,,,,,,,,,,,,
math-period,213,1387438,1942.3999999985099,"",,,,,,,,,,,4,,,,,
html-keyboard-response,214,1387543,null,"",null,,,,,,,,,,,,,,,
math-period,215,1388281,1344.6000000089407,"",,,,,,,,,,,4,,,,,
html-keyboard-response,216,1388383,null,"",null,,,,,,,,,,,,,,,
math-period,217,1389494,2084.60000000149,"",,,,,,,,,,,3,,,,,
html-keyboard-response,218,1389595,null,"",null,,,,,,,,,,,,,,,
math-period,219,1390683,2058.60000000149,"",,,,,,,,,,,5,,,,,
html-keyboard-response,220,1390787,null,"",null,,,,,,,,,,,,,,,
math-period,221,1391902,2091.6000000089407,"",,,,,,,,,,,4,,,,,
html-keyboard-response,222,1392009,null,"",null,,,,,,,,,,,,,,,
math-period,223,1393148,2151.5999999940395,"",,,,,,,,,,,4,,,,,
html-keyboard-response,224,1393250,null,"",null,,,,,,,,,,,,,,,
math-period,225,1394437,2252.299999989569,"",,,,,,,,,,,4,,,,,
html-keyboard-response,226,1394539,null,"",null,,,,,,,,,,,,,,,
math-period,227,1395476,1754.7999999970198,"",,,,,,,,,,,4,,,,,
html-keyboard-response,228,1395582,null,"",null,,,,,,,,,,,,,,,
math-period,229,1398256,4890.69999999553,"",,,,,,,,,,,0,,,,,
html-keyboard-response,230,1398358,null,"",null,,,,,,,,,,,,,,,
math-period,231,1399899,2929.9999999925494,"",,,,,,,,,,,5,,,,,
html-keyboard-response,232,1400006,null,"",null,,,,,,,,,,,,,,,
math-period,233,1400674,null,"",,,,,,,,,,,,,,,,
html-keyboard-response,234,1401676,null,"Recall Period!",null,,,,,,,,,,,,,,,
call-function,235,1401677,,"",,,,,,,,,,,,,,,,
html-keyboard-response,236,1401783,null,"",null,,,,,,,,,,,,,,,
recall-period,237,1405743,41801.29999998212,"",,,,,,,,,,,biscuit,,,,,
html-keyboard-response,238,1405848,null,"",null,,,,,,,,,,,,,,,
recall-period,239,1407133,7288.20000000298,"",,,,,,,,,,,shelter,,,,,
html-keyboard-response,240,1407239,null,"",null,,,,,,,,,,,,,,,
recall-period,241,1407912,2864.3999999836087,"",,,,,,,,,,,attire,,,,,
html-keyboard-response,242,1408016,null,"",null,,,,,,,,,,,,,,,
recall-period,243,1411489,26473.00000000745,"",,,,,,,,,,,sculpture,,,,,
html-keyboard-response,244,1411595,null,"",null,,,,,,,,,,,,,,,
recall-period,245,1412388,3465.099999971688,"",,,,,,,,,,,fiddle,,,,,
html-keyboard-response,246,1412491,null,"",null,,,,,,,,,,,,,,,
recall-period,247,1414523,5674.100000016391,"",,,,,,,,,,,cowboy,,,,,
html-keyboard-response,248,1414629,null,"",null,,,,,,,,,,,,,,,
recall-period,249,1418350,14181.699999988079,"",,,,,,,,,,,dog,,,,,
html-keyboard-response,250,1418453,null,"",null,,,,,,,,,,,,,,,
recall-period,251,1440134,127999.10000000149,"",,,,,,,,,,,porch,,,,,
html-keyboard-response,252,1440241,null,"",null,,,,,,,,,,,,,,,
recall-period,253,1476684,null,"",,,,,,,,,,,,,,,,
html-keyboard-response,254,1477192,null,"Time's Up!",null,,,,,,,,,,,,,,,
html-keyboard-response,255,1480941,3747.2999999970198,"<p> Good job! You have responded correctly to 100% of the trials. </p>
                      <p>Be sure to only press the spacebar if you see a GREEN square, and please keep your accuracy above 80%.</p>
                      <p> Press any key to continue the experiment. </p>",32,,,,,,,,,,,,,,,
html-keyboard-response,256,1482026,1084.2999999970198,"<div style=""font-size:48px;"">Press any key to begin list 2 of 16 </div>",32,,,,,,,,,,,,,,,
html-keyboard-response,257,1484535,null,"<div style=""font-size:60px;"">+</div>",null,,,,,,,,,,,,,,,
html-keyboard-response,258,1484742,null,"<div style=""font-size:42px;"">BLUEPRINT</div><img id = ""stim"" ><div class = red_square id = topsquare></div>",null,encoding,word_square,,,0,topsquare,none,true,,,BLUEPRINT,1,,,
html-keyboard-response,259,1485049,null,"<div style=""font-size:42px;"">BLUEPRINT</div>",null,,word,BLUEPRINT,,,,,,,,,,,,
html-keyboard-response,260,1486552,null,"",null,,word,BLUEPRINT,,,,,,,,,,,,
html-keyboard-response,261,1486754,null,"<div style=""font-size:42px;"">PICTURE</div><img id = ""stim"" ><div class = green_square id = bottomsquare></div>",null,encoding,word_square,,,1,bottomsquare,32,true,,,PICTURE,1,,,
html-keyboard-response,262,1487061,null,"<div style=""font-size:42px;"">PICTURE</div>",null,,word,PICTURE,,,,,,,,,,,,
html-keyboard-response,263,1488565,7,"",32,,word,PICTURE,,,,,,,,,,,,
html-keyboard-response,264,1488768,null,"<div style=""font-size:42px;"">SURVEY</div><img id = ""stim"" ><div class = green_square id = topsquare></div>",null,encoding,word_square,,,1,topsquare,32,true,,,SURVEY,1,,,
html-keyboard-response,265,1489075,null,"<div style=""font-size:42px;"">SURVEY</div>",null,,word,SURVEY,,,,,,,,,,,,
html-keyboard-response,266,1490577,36.80000000447035,"",32,,word,SURVEY,,,,,,,,,,,,
html-keyboard-response,267,1490784,null,"<div style=""font-size:42px;"">PAPER</div><img id = ""stim"" ><div class = red_square id = bottomsquare></div>",null,encoding,word_square,,,0,bottomsquare,none,true,,,PAPER,1,,,
html-keyboard-response,268,1491091,null,"<div style=""font-size:42px;"">PAPER</div>",null,,word,PAPER,,,,,,,,,,,,
html-keyboard-response,269,1492594,null,"",null,,word,PAPER,,,,,,,,,,,,
html-keyboard-response,270,1492796,null,"<div style=""font-size:42px;"">SUPPER</div><img id = ""stim"" ><div class = red_square id = topsquare></div>",null,encoding,word_square,,,0,topsquare,none,true,,,SUPPER,1,,,
html-keyboard-response,271,1493103,null,"<div style=""font-size:42px;"">SUPPER</div>",null,,word,SUPPER,,,,,,,,,,,,
html-keyboard-response,272,1494606,null,"",null,,word,SUPPER,,,,,,,,,,,,
html-keyboard-response,273,1494813,null,"<div style=""font-size:42px;"">BANQUET</div><img id = ""stim"" ><div class = green_square id = bottomsquare></div>",null,encoding,word_square,,,1,bottomsquare,32,true,,,BANQUET,1,,,
html-keyboard-response,274,1495116,null,"<div style=""font-size:42px;"">BANQUET</div>",null,,word,BANQUET,,,,,,,,,,,,
html-keyboard-response,275,1496618,10.100000001490116,"",32,,word,BANQUET,,,,,,,,,,,,
html-keyboard-response,276,1496824,null,"<div style=""font-size:42px;"">BINDER</div><img id = ""stim"" ><div class = green_square id = topsquare></div>",null,encoding,word_square,,,1,topsquare,32,true,,,BINDER,1,,,
html-keyboard-response,277,1497126,null,"<div style=""font-size:42px;"">BINDER</div>",null,,word,BINDER,,,,,,,,,,,,
html-keyboard-response,278,1498628,171.10000000149012,"",32,,word,BINDER,,,,,,,,,,,,
html-keyboard-response,279,1498830,null,"<div style=""font-size:42px;"">NEPHEW</div><img id = ""stim"" ><div class = green_square id = bottomsquare></div>",null,encoding,word_square,,,1,bottomsquare,32,true,,,NEPHEW,1,,,
html-keyboard-response,280,1499137,213.29999999701977,"<div style=""font-size:42px;"">NEPHEW</div>",32,,word,NEPHEW,,,,,,,,,,,,
html-keyboard-response,281,1500641,null,"",null,,word,NEPHEW,,,,,,,,,,,,
html-keyboard-response,282,1500848,null,"<div style=""font-size:42px;"">DOCTOR</div><img id = ""stim"" ><div class = red_square id = bottomsquare></div>",null,encoding,word_square,,,0,bottomsquare,none,true,,,DOCTOR,1,,,
html-keyboard-response,283,1501154,null,"<div style=""font-size:42px;"">DOCTOR</div>",null,,word,DOCTOR,,,,,,,,,,,,
html-keyboard-response,284,1502658,null,"",null,,word,DOCTOR,,,,,,,,,,,,
html-keyboard-response,285,1502865,null,"<div style=""font-size:42px;"">PIZZA</div><img id = ""stim"" ><div class = red_square id = topsquare></div>",null,encoding,word_square,,,0,topsquare,none,true,,,PIZZA,1,,,
html-keyboard-response,286,1503166,null,"<div style=""font-size:42px;"">PIZZA</div>",null,,word,PIZZA,,,,,,,,,,,,
html-keyboard-response,287,1504669,null,"",null,,word,PIZZA,,,,,,,,,,,,
html-keyboard-response,288,1504876,null,"<div style=""font-size:42px;"">SAUSAGE</div><img id = ""stim"" ><div class = green_square id = topsquare></div>",null,encoding,word_square,,,1,topsquare,32,true,,,SAUSAGE,1,,,
html-keyboard-response,289,1505183,null,"<div style=""font-size:42px;"">SAUSAGE</div>",null,,word,SAUSAGE,,,,,,,,,,,,
html-keyboard-response,290,1506686,25.5,"",32,,word,SAUSAGE,,,,,,,,,,,,
html-keyboard-response,291,1506893,null,"<div style=""font-size:42px;"">COMPASS</div><img id = ""stim"" ><div class = red_square id = bottomsquare></div>",null,encoding,word_square,,,0,bottomsquare,none,true,,,COMPASS,1,,,
html-keyboard-response,292,1507195,null,"<div style=""font-size:42px;"">COMPASS</div>",null,,word,COMPASS,,,,,,,,,,,,
html-keyboard-response,293,1508698,null,"",null,,word,COMPASS,,,,,,,,,,,,
html-keyboard-response,294,1508906,null,"<div style=""font-size:42px;"">DRILL</div><img id = ""stim"" ><div class = red_square id = topsquare></div>",null,encoding,word_square,,,0,topsquare,none,true,,,DRILL,1,,,
html-keyboard-response,295,1509213,null,"<div style=""font-size:42px;"">DRILL</div>",null,,word,DRILL,,,,,,,,,,,,
html-keyboard-response,296,1510717,null,"",null,,word,DRILL,,,,,,,,,,,,
html-keyboard-response,297,1510924,null,"<div style=""font-size:42px;"">MATCH</div><img id = ""stim"" ><div class = green_square id = bottomsquare></div>",null,encoding,word_square,,,1,bottomsquare,32,true,,,MATCH,1,,,
html-keyboard-response,298,1511231,null,"<div style=""font-size:42px;"">MATCH</div>",null,,word,MATCH,,,,,,,,,,,,
html-keyboard-response,299,1512735,55.400000005960464,"",32,,word,MATCH,,,,,,,,,,,,
html-keyboard-response,300,1512941,null,"<div style=""font-size:42px;"">DOLPHIN</div><img id = ""stim"" ><div class = red_square id = bottomsquare></div>",null,encoding,word_square,,,0,bottomsquare,none,true,,,DOLPHIN,1,,,
html-keyboard-response,301,1513247,null,"<div style=""font-size:42px;"">DOLPHIN</div>",null,,word,DOLPHIN,,,,,,,,,,,,
html-keyboard-response,302,1514750,null,"",null,,word,DOLPHIN,,,,,,,,,,,,
html-keyboard-response,303,1514952,null,"<div style=""font-size:42px;"">BELT</div><img id = ""stim"" ><div class = green_square id = topsquare></div>",null,encoding,word_square,,,1,topsquare,32,true,,,BELT,1,,,
html-keyboard-response,304,1515256,203.60000000149012,"<div style=""font-size:42px;"">BELT</div>",32,,word,BELT,,,,,,,,,,,,
html-keyboard-response,305,1516758,null,"",null,,word,BELT,,,,,,,,,,,,
call-function,306,1516759,,"",,,,,,,,,,,,,,,,
html-keyboard-response,307,1516860,null,"",null,,,,,,,,,,,,,,,
math-period,308,1519260,4576.60000000149,"",,,,,,,,,,,3,,,,,
html-keyboard-response,309,1519366,null,"",null,,,,,,,,,,,,,,,
math-period,310,1521301,3728.6999999955297,"",,,,,,,,,,,2,,,,,
html-keyboard-response,311,1521407,null,"",null,,,,,,,,,,,,,,,
math-period,312,1522367,1742.6000000089407,"",,,,,,,,,,,3,,,,,
html-keyboard-response,313,1522473,null,"",null,,,,,,,,,,,,,,,
math-period,314,1523544,2009.1000000014901,"",,,,,,,,,,,5,,,,,
html-keyboard-response,315,1523646,null,"",null,,,,,,,,,,,,,,,
math-period,316,1524538,1664.3000000044703,"",,,,,,,,,,,2,,,,,
html-keyboard-response,317,1524640,null,"",null,,,,,,,,,,,,,,,
math-period,318,1527890,6332.89999999851,"",,,,,,,,,,,3,,,,,
html-keyboard-response,319,1527996,null,"",null,,,,,,,,,,,,,,,
math-period,320,1530069,3924.10000000149,"",,,,,,,,,,,2,,,,,
html-keyboard-response,321,1530171,null,"",null,,,,,,,,,,,,,,,
math-period,322,1531447,2403.5999999940395,"",,,,,,,,,,,5,,,,,
html-keyboard-response,323,1531550,null,"",null,,,,,,,,,,,,,,,
math-period,324,1532918,2590.4000000059605,"",,,,,,,,,,,4,,,,,
html-keyboard-response,325,1533020,null,"",null,,,,,,,,,,,,,,,
math-period,326,1534112,2053.3000000044703,"",,,,,,,,,,,2,,,,,
html-keyboard-response,327,1534214,null,"",null,,,,,,,,,,,,,,,
math-period,328,1536309,4049.2000000029802,"",,,,,,,,,,,3,,,,,
html-keyboard-response,329,1536413,null,"",null,,,,,,,,,,,,,,,
math-period,330,1537619,2279,"",,,,,,,,,,,4,,,,,
html-keyboard-response,331,1537724,null,"",null,,,,,,,,,,,,,,,
math-period,332,1538920,2281.39999999851,"",,,,,,,,,,,5,,,,,
html-keyboard-response,333,1539025,null,"",null,,,,,,,,,,,,,,,
math-period,334,1540761,null,"",,,,,,,,,,,,,,,,
html-keyboard-response,335,1541763,null,"Recall Period!",null,,,,,,,,,,,,,,,
call-function,336,1541764,,"",,,,,,,,,,,,,,,,
html-keyboard-response,337,1541866,null,"",null,,,,,,,,,,,,,,,
recall-period,338,1547397,29000.4999999851,"",,,,,,,,,,,match,,,,,
html-keyboard-response,339,1547500,null,"",null,,,,,,,,,,,,,,,
recall-period,340,1554947,48845.79999998957,"",,,,,,,,,,,doctor,,,,,
html-keyboard-response,341,1555052,null,"",null,,,,,,,,,,,,,,,
recall-period,342,1569563,154348.29999995232,"",,,,,,,,,,,banquet,,,,,
html-keyboard-response,343,1569668,null,"",null,,,,,,,,,,,,,,,
recall-period,344,1579312,89645.70000000298,"",,,,,,,,,,,blueprint,,,,,
html-keyboard-response,345,1579417,null,"",null,,,,,,,,,,,,,,,
recall-period,346,1616770,null,"",,,,,,,,,,,,,,,,
html-keyboard-response,347,1617277,null,"Time's Up!",null,,,,,,,,,,,,,,,
html-keyboard-response,348,1620090,2811,"<p> Good job! You have responded correctly to 100% of the trials. </p>
                      <p>Be sure to only press the spacebar if you see a GREEN square, and please keep your accuracy above 80%.</p>
                      <p> Press any key to continue the experiment. </p>",32,,,,,,,,,,,,,,,
html-keyboard-response,349,1620871,779.1000000014901,"<div style=""font-size:48px;"">Press any key to begin list 3 of 16 </div>",32,,,,,,,,,,,,,,,
html-keyboard-response,350,1623378,null,"<div style=""font-size:60px;"">+</div>",null,,,,,,,,,,,,,,,
html-keyboard-response,351,1623585,null,"<div style=""font-size:42px;"">ROCKET</div><img id = ""stim"" ><div class = red_square id = bottomsquare></div>",null,encoding,word_square,,,0,bottomsquare,none,true,,,ROCKET,2,,,
html-keyboard-response,352,1623893,null,"<div style=""font-size:42px;"">ROCKET</div>",null,,word,ROCKET,,,,,,,,,,,,
html-keyboard-response,353,1625396,null,"",null,,word,ROCKET,,,,,,,,,,,,
html-keyboard-response,354,1625603,null,"<div style=""font-size:42px;"">MISSILE</div><img id = ""stim"" ><div class = green_square id = topsquare></div>",null,encoding,word_square,,,1,topsquare,32,true,,,MISSILE,2,,,
html-keyboard-response,355,1625905,275.1000000014901,"<div style=""font-size:42px;"">MISSILE</div>",32,,word,MISSILE,,,,,,,,,,,,
html-keyboard-response,356,1627408,null,"",null,,word,MISSILE,,,,,,,,,,,,
html-keyboard-response,357,1627614,null,"<div style=""font-size:42px;"">WIDOW</div><img id = ""stim"" ><div class = red_square id = topsquare></div>",null,encoding,word_square,,,0,topsquare,none,true,,,WIDOW,2,,,
html-keyboard-response,358,1627920,null,"<div style=""font-size:42px;"">WIDOW</div>",null,,word,WIDOW,,,,,,,,,,,,
html-keyboard-response,359,1629422,null,"",null,,word,WIDOW,,,,,,,,,,,,
html-keyboard-response,360,1629629,null,"<div style=""font-size:42px;"">MILDEW</div><img id = ""stim"" ><div class = green_square id = bottomsquare></div>",null,encoding,word_square,,,1,bottomsquare,32,true,,,MILDEW,2,,,
html-keyboard-response,361,1629936,null,"<div style=""font-size:42px;"">MILDEW</div>",null,,word,MILDEW,,,,,,,,,,,,
html-keyboard-response,362,1631439,89,"",32,,word,MILDEW,,,,,,,,,,,,
html-keyboard-response,363,1631646,null,"<div style=""font-size:42px;"">SPHINX</div><img id = ""stim"" ><div class = green_square id = topsquare></div>",null,encoding,word_square,,,1,topsquare,32,true,,,SPHINX,2,,,
html-keyboard-response,364,1631952,179.79999999701977,"<div style=""font-size:42px;"">SPHINX</div>",32,,word,SPHINX,,,,,,,,,,,,
html-keyboard-response,365,1633456,null,"",null,,word,SPHINX,,,,,,,,,,,,
html-keyboard-response,366,1633663,null,"<div style=""font-size:42px;"">MARINE</div><img id = ""stim"" ><div class = red_square id = bottomsquare></div>",null,encoding,word_square,,,0,bottomsquare,none,true,,,MARINE,2,,,
html-keyboard-response,367,1633970,null,"<div style=""font-size:42px;"">MARINE</div>",null,,word,MARINE,,,,,,,,,,,,
html-keyboard-response,368,1635474,null,"",null,,word,MARINE,,,,,,,,,,,,
html-keyboard-response,369,1635680,null,"<div style=""font-size:42px;"">STONE</div><img id = ""stim"" ><div class = green_square id = bottomsquare></div>",null,encoding,word_square,,,1,bottomsquare,32,true,,,STONE,2,,,
html-keyboard-response,370,1635982,298.29999999701977,"<div style=""font-size:42px;"">STONE</div>",32,,word,STONE,,,,,,,,,,,,
html-keyboard-response,371,1637484,null,"",null,,word,STONE,,,,,,,,,,,,
html-keyboard-response,372,1637688,null,"<div style=""font-size:42px;"">ALMOND</div><img id = ""stim"" ><div class = green_square id = topsquare></div>",null,encoding,word_square,,,1,topsquare,32,true,,,ALMOND,2,,,
html-keyboard-response,373,1637992,217.89999999850988,"<div style=""font-size:42px;"">ALMOND</div>",32,,word,ALMOND,,,,,,,,,,,,
html-keyboard-response,374,1639495,null,"",null,,word,ALMOND,,,,,,,,,,,,
html-keyboard-response,375,1639702,null,"<div style=""font-size:42px;"">CRYSTAL</div><img id = ""stim"" ><div class = red_square id = topsquare></div>",null,encoding,word_square,,,0,topsquare,none,true,,,CRYSTAL,2,,,
html-keyboard-response,376,1640008,null,"<div style=""font-size:42px;"">CRYSTAL</div>",null,,word,CRYSTAL,,,,,,,,,,,,
html-keyboard-response,377,1641512,null,"",null,,word,CRYSTAL,,,,,,,,,,,,
html-keyboard-response,378,1641714,null,"<div style=""font-size:42px;"">LOVER</div><img id = ""stim"" ><div class = red_square id = bottomsquare></div>",null,encoding,word_square,,,0,bottomsquare,none,true,,,LOVER,2,,,
html-keyboard-response,379,1642020,null,"<div style=""font-size:42px;"">LOVER</div>",null,,word,LOVER,,,,,,,,,,,,
html-keyboard-response,380,1643522,null,"",null,,word,LOVER,,,,,,,,,,,,
html-keyboard-response,381,1643730,null,"<div style=""font-size:42px;"">STOCKING</div><img id = ""stim"" ><div class = red_square id = topsquare></div>",null,encoding,word_square,,,0,topsquare,none,true,,,STOCKING,2,,,
html-keyboard-response,382,1644034,null,"<div style=""font-size:42px;"">STOCKING</div>",null,,word,STOCKING,,,,,,,,,,,,
html-keyboard-response,383,1645536,null,"",null,,word,STOCKING,,,,,,,,,,,,
html-keyboard-response,384,1645743,null,"<div style=""font-size:42px;"">TAXI</div><img id = ""stim"" ><div class = green_square id = bottomsquare></div>",null,encoding,word_square,,,1,bottomsquare,32,true,,,TAXI,2,,,
html-keyboard-response,385,1646045,214.79999999701977,"<div style=""font-size:42px;"">TAXI</div>",32,,word,TAXI,,,,,,,,,,,,
html-keyboard-response,386,1647547,null,"",null,,word,TAXI,,,,,,,,,,,,
html-keyboard-response,387,1647749,null,"<div style=""font-size:42px;"">HIKER</div><img id = ""stim"" ><div class = green_square id = topsquare></div>",null,encoding,word_square,,,1,topsquare,32,true,,,HIKER,2,,,
html-keyboard-response,388,1648055,178.80000000447035,"<div style=""font-size:42px;"">HIKER</div>",32,,word,HIKER,,,,,,,,,,,,
html-keyboard-response,389,1649559,null,"",null,,word,HIKER,,,,,,,,,,,,
html-keyboard-response,390,1649764,null,"<div style=""font-size:42px;"">SATURN</div><img id = ""stim"" ><div class = red_square id = bottomsquare></div>",null,encoding,word_square,,,0,bottomsquare,none,true,,,SATURN,2,,,
html-keyboard-response,391,1650067,null,"<div style=""font-size:42px;"">SATURN</div>",null,,word,SATURN,,,,,,,,,,,,
html-keyboard-response,392,1651570,null,"",null,,word,SATURN,,,,,,,,,,,,
html-keyboard-response,393,1651778,null,"<div style=""font-size:42px;"">SERPENT</div><img id = ""stim"" ><div class = red_square id = topsquare></div>",null,encoding,word_square,,,0,topsquare,none,true,,,SERPENT,2,,,
html-keyboard-response,394,1652086,null,"<div style=""font-size:42px;"">SERPENT</div>",null,,word,SERPENT,,,,,,,,,,,,
html-keyboard-response,395,1653589,null,"",null,,word,SERPENT,,,,,,,,,,,,
html-keyboard-response,396,1653791,null,"<div style=""font-size:42px;"">EGYPT</div><img id = ""stim"" ><div class = green_square id = bottomsquare></div>",null,encoding,word_square,,,1,bottomsquare,32,true,,,EGYPT,2,,,
html-keyboard-response,397,1654094,188.90000000596046,"<div style=""font-size:42px;"">EGYPT</div>",32,,word,EGYPT,,,,,,,,,,,,
html-keyboard-response,398,1655597,null,"",null,,word,EGYPT,,,,,,,,,,,,
call-function,399,1655598,,"",,,,,,,,,,,,,,,,
html-keyboard-response,400,1655704,null,"",null,,,,,,,,,,,,,,,
math-period,401,1657755,3604.5,"",,,,,,,,,,,3,,,,,
html-keyboard-response,402,1657857,null,"",null,,,,,,,,,,,,,,,
math-period,403,1659614,3364.89999999851,"",,,,,,,,,,,1,,,,,
html-keyboard-response,404,1659716,null,"",null,,,,,,,,,,,,,,,
math-period,405,1660956,2282.10000000149,"",,,,,,,,,,,5,,,,,
html-keyboard-response,406,1661060,null,"",null,,,,,,,,,,,,,,,
math-period,407,1663114,3998.5999999940395,"",,,,,,,,,,,4,,,,,
html-keyboard-response,408,1663219,null,"",null,,,,,,,,,,,,,,,
math-period,409,1666016,5454.9000000059605,"",,,,,,,,,,,3,,,,,
html-keyboard-response,410,1666119,null,"",null,,,,,,,,,,,,,,,
math-period,411,1667741,2911.5000000074506,"",,,,,,,,,,,2,,,,,
html-keyboard-response,412,1667843,null,"",null,,,,,,,,,,,,,,,
math-period,413,1668897,1933.3999999985099,"",,,,,,,,,,,4,,,,,
html-keyboard-response,414,1669002,null,"",null,,,,,,,,,,,,,,,
math-period,415,1670170,2188.9000000059605,"",,,,,,,,,,,5,,,,,
html-keyboard-response,416,1670272,null,"",null,,,,,,,,,,,,,,,
math-period,417,1671473,2271.1999999955297,"",,,,,,,,,,,4,,,,,
html-keyboard-response,418,1671574,null,"",null,,,,,,,,,,,,,,,
math-period,419,1672391,1525.4000000059605,"",,,,,,,,,,,3,,,,,
html-keyboard-response,420,1672493,null,"",null,,,,,,,,,,,,,,,
math-period,421,1673639,2054.6999999955297,"",,,,,,,,,,,4,,,,,
html-keyboard-response,422,1673745,null,"",null,,,,,,,,,,,,,,,
math-period,423,1674772,1972.1999999955297,"",,,,,,,,,,,2,,,,,
html-keyboard-response,424,1674875,null,"",null,,,,,,,,,,,,,,,
math-period,425,1675662,1497.2000000029802,"",,,,,,,,,,,4,,,,,
html-keyboard-response,426,1675766,null,"",null,,,,,,,,,,,,,,,
math-period,427,1676638,1660.8999999985099,"",,,,,,,,,,,3,,,,,
html-keyboard-response,428,1676742,null,"",null,,,,,,,,,,,,,,,
math-period,429,1677961,2346.2000000029802,"",,,,,,,,,,,4,,,,,
html-keyboard-response,430,1678067,null,"",null,,,,,,,,,,,,,,,
math-period,431,1679602,null,"",,,,,,,,,,,,,,,,
html-keyboard-response,432,1680604,null,"Recall Period!",null,,,,,,,,,,,,,,,
call-function,433,1680605,,"",,,,,,,,,,,,,,,,
html-keyboard-response,434,1680709,null,"",null,,,,,,,,,,,,,,,
recall-period,435,1684504,17635.099999971688,"",,,,,,,,,,,sphinx,,,,,
html-keyboard-response,436,1684607,null,"",null,,,,,,,,,,,,,,,
recall-period,437,1686165,4408.500000007451,"",,,,,,,,,,,egypt,,,,,
html-keyboard-response,438,1686266,null,"",null,,,,,,,,,,,,,,,
recall-period,439,1687615,6045.299999989569,"",,,,,,,,,,,hiking,,,,,
html-keyboard-response,440,1687717,null,"",null,,,,,,,,,,,,,,,
recall-period,441,1695426,42359.20000001043,"",,,,,,,,,,,lover,,,,,
html-keyboard-response,442,1695531,null,"",null,,,,,,,,,,,,,,,
recall-period,443,1701711,40869.00000000745,"",,,,,,,,,,,almond,,,,,
html-keyboard-response,444,1701817,null,"",null,,,,,,,,,,,,,,,
recall-period,445,1755612,null,"",,,,,,,,,,,,,,,,
html-keyboard-response,446,1756114,null,"Time's Up!",null,,,,,,,,,,,,,,,
html-keyboard-response,447,1764305,8188.79999999702,"<p> Good job! You have responded correctly to 100% of the trials. </p>
                      <p>Be sure to only press the spacebar if you see a GREEN square, and please keep your accuracy above 80%.</p>
                      <p> Press any key to continue the experiment. </p>",32,,,,,,,,,,,,,,,
html-keyboard-response,448,1765207,901.3999999985099,"<div style=""font-size:48px;"">Press any key to begin list 4 of 16 </div>",32,,,,,,,,,,,,,,,
html-keyboard-response,449,1767716,null,"<div style=""font-size:60px;"">+</div>",null,,,,,,,,,,,,,,,
html-keyboard-response,450,1767923,null,"<div style=""font-size:42px;"">CYCLONE</div><img id = ""stim"" ><div class = green_square id = bottomsquare></div>",null,encoding,word_square,,,1,bottomsquare,32,true,,,CYCLONE,3,,,
html-keyboard-response,451,1768227,null,"<div style=""font-size:42px;"">CYCLONE</div>",null,,word,CYCLONE,,,,,,,,,,,,
html-keyboard-response,452,1769730,2.899999998509884,"",32,,word,CYCLONE,,,,,,,,,,,,
html-keyboard-response,453,1769935,null,"<div style=""font-size:42px;"">CRITIC</div><img id = ""stim"" ><div class = red_square id = topsquare></div>",null,encoding,word_square,,,0,topsquare,none,true,,,CRITIC,3,,,
html-keyboard-response,454,1770239,null,"<div style=""font-size:42px;"">CRITIC</div>",null,,word,CRITIC,,,,,,,,,,,,
html-keyboard-response,455,1771742,null,"",null,,word,CRITIC,,,,,,,,,,,,
html-keyboard-response,456,1771949,null,"<div style=""font-size:42px;"">SHELF</div><img id = ""stim"" ><div class = red_square id = bottomsquare></div>",null,encoding,word_square,,,0,bottomsquare,none,true,,,SHELF,3,,,
html-keyboard-response,457,1772252,null,"<div style=""font-size:42px;"">SHELF</div>",null,,word,SHELF,,,,,,,,,,,,
html-keyboard-response,458,1773755,null,"",null,,word,SHELF,,,,,,,,,,,,
html-keyboard-response,459,1773962,null,"<div style=""font-size:42px;"">SUMMIT</div><img id = ""stim"" ><div class = green_square id = topsquare></div>",null,encoding,word_square,,,1,topsquare,32,true,,,SUMMIT,3,,,
html-keyboard-response,460,1774264,264.90000000596046,"<div style=""font-size:42px;"">SUMMIT</div>",32,,word,SUMMIT,,,,,,,,,,,,
html-keyboard-response,461,1775767,null,"",null,,word,SUMMIT,,,,,,,,,,,,
html-keyboard-response,462,1775974,null,"<div style=""font-size:42px;"">BRAKE</div><img id = ""stim"" ><div class = green_square id = bottomsquare></div>",null,encoding,word_square,,,1,bottomsquare,32,true,,,BRAKE,3,,,
html-keyboard-response,463,1776278,null,"<div style=""font-size:42px;"">BRAKE</div>",null,,word,BRAKE,,,,,,,,,,,,
html-keyboard-response,464,1777780,245.80000000447035,"",32,,word,BRAKE,,,,,,,,,,,,
html-keyboard-response,465,1777987,null,"<div style=""font-size:42px;"">COUSIN</div><img id = ""stim"" ><div class = red_square id = topsquare></div>",null,encoding,word_square,,,0,topsquare,none,true,,,COUSIN,3,,,
html-keyboard-response,466,1778295,null,"<div style=""font-size:42px;"">COUSIN</div>",null,,word,COUSIN,,,,,,,,,,,,
html-keyboard-response,467,1779797,null,"",null,,word,COUSIN,,,,,,,,,,,,
html-keyboard-response,468,1779999,null,"<div style=""font-size:42px;"">POND</div><img id = ""stim"" ><div class = red_square id = bottomsquare></div>",null,encoding,word_square,,,0,bottomsquare,none,true,,,POND,3,,,
html-keyboard-response,469,1780305,null,"<div style=""font-size:42px;"">POND</div>",null,,word,POND,,,,,,,,,,,,
html-keyboard-response,470,1781809,null,"",null,,word,POND,,,,,,,,,,,,
html-keyboard-response,471,1782014,null,"<div style=""font-size:42px;"">TIGER</div><img id = ""stim"" ><div class = red_square id = topsquare></div>",null,encoding,word_square,,,0,topsquare,none,true,,,TIGER,3,,,
html-keyboard-response,472,1782318,null,"<div style=""font-size:42px;"">TIGER</div>",null,,word,TIGER,,,,,,,,,,,,
html-keyboard-response,473,1783821,null,"",null,,word,TIGER,,,,,,,,,,,,
html-keyboard-response,474,1784025,null,"<div style=""font-size:42px;"">JOKER</div><img id = ""stim"" ><div class = green_square id = topsquare></div>",null,encoding,word_square,,,1,topsquare,32,true,,,JOKER,3,,,
html-keyboard-response,475,1784330,252.89999999850988,"<div style=""font-size:42px;"">JOKER</div>",32,,word,JOKER,,,,,,,,,,,,
html-keyboard-response,476,1785833,null,"",null,,word,JOKER,,,,,,,,,,,,
html-keyboard-response,477,1786037,null,"<div style=""font-size:42px;"">REINDEER</div><img id = ""stim"" ><div class = green_square id = bottomsquare></div>",null,encoding,word_square,,,1,bottomsquare,32,true,,,REINDEER,3,,,
html-keyboard-response,478,1786339,239.89999999850988,"<div style=""font-size:42px;"">REINDEER</div>",32,,word,REINDEER,,,,,,,,,,,,
html-keyboard-response,479,1787845,null,"",null,,word,REINDEER,,,,,,,,,,,,
html-keyboard-response,480,1788049,null,"<div style=""font-size:42px;"">BUG</div><img id = ""stim"" ><div class = red_square id = bottomsquare></div>",null,encoding,word_square,,,0,bottomsquare,none,true,,,BUG,3,,,
html-keyboard-response,481,1788354,null,"<div style=""font-size:42px;"">BUG</div>",null,,word,BUG,,,,,,,,,,,,
html-keyboard-response,482,1789856,null,"",null,,word,BUG,,,,,,,,,,,,
html-keyboard-response,483,1790058,null,"<div style=""font-size:42px;"">SPIDER</div><img id = ""stim"" ><div class = green_square id = topsquare></div>",null,encoding,word_square,,,1,topsquare,32,true,,,SPIDER,3,,,
html-keyboard-response,484,1790364,215.39999999850988,"<div style=""font-size:42px;"">SPIDER</div>",32,,word,SPIDER,,,,,,,,,,,,
html-keyboard-response,485,1791866,null,"",null,,word,SPIDER,,,,,,,,,,,,
html-keyboard-response,486,1792068,null,"<div style=""font-size:42px;"">BROTHER</div><img id = ""stim"" ><div class = green_square id = bottomsquare></div>",null,encoding,word_square,,,1,bottomsquare,32,true,,,BROTHER,3,,,
html-keyboard-response,487,1792374,268.20000000298023,"<div style=""font-size:42px;"">BROTHER</div>",32,,word,BROTHER,,,,,,,,,,,,
html-keyboard-response,488,1793877,null,"",null,,word,BROTHER,,,,,,,,,,,,
html-keyboard-response,489,1794080,null,"<div style=""font-size:42px;"">YARD</div><img id = ""stim"" ><div class = red_square id = topsquare></div>",null,encoding,word_square,,,0,topsquare,none,true,,,YARD,3,,,
html-keyboard-response,490,1794384,null,"<div style=""font-size:42px;"">YARD</div>",null,,word,YARD,,,,,,,,,,,,
html-keyboard-response,491,1795886,null,"",null,,word,YARD,,,,,,,,,,,,
html-keyboard-response,492,1796093,null,"<div style=""font-size:42px;"">LONDON</div><img id = ""stim"" ><div class = green_square id = topsquare></div>",null,encoding,word_square,,,1,topsquare,32,true,,,LONDON,3,,,
html-keyboard-response,493,1796400,null,"<div style=""font-size:42px;"">LONDON</div>",null,,word,LONDON,,,,,,,,,,,,
html-keyboard-response,494,1797904,268,"",32,,word,LONDON,,,,,,,,,,,,
html-keyboard-response,495,1798111,null,"<div style=""font-size:42px;"">SCISSORS</div><img id = ""stim"" ><div class = red_square id = bottomsquare></div>",null,encoding,word_square,,,0,bottomsquare,none,true,,,SCISSORS,3,,,
html-keyboard-response,496,1798413,null,"<div style=""font-size:42px;"">SCISSORS</div>",null,,word,SCISSORS,,,,,,,,,,,,
html-keyboard-response,497,1799916,null,"",null,,word,SCISSORS,,,,,,,,,,,,
call-function,498,1799917,,"",,,,,,,,,,,,,,,,
html-keyboard-response,499,1800020,null,"",null,,,,,,,,,,,,,,,
math-period,500,1802432,4448.79999999702,"",,,,,,,,,,,0,,,,,
html-keyboard-response,501,1802536,null,"",null,,,,,,,,,,,,,,,
math-period,502,1804401,3538.4000000059605,"",,,,,,,,,,,0,,,,,
html-keyboard-response,503,1804503,null,"",null,,,,,,,,,,,,,,,
math-period,504,1805677,2057.89999999851,"",,,,,,,,,,,0,,,,,
html-keyboard-response,505,1805779,null,"",null,,,,,,,,,,,,,,,
math-period,506,1806754,1804.7000000029802,"",,,,,,,,,,,3,,,,,
html-keyboard-response,507,1806858,null,"",null,,,,,,,,,,,,,,,
math-period,508,1808358,2889.2000000029802,"",,,,,,,,,,,2,,,,,
html-keyboard-response,509,1808462,null,"",null,,,,,,,,,,,,,,,
math-period,510,1810636,4228.5,"",,,,,,,,,,,2,,,,,
html-keyboard-response,511,1810741,null,"",null,,,,,,,,,,,,,,,
math-period,512,1812206,2769.0000000074506,"",,,,,,,,,,,4,,,,,
html-keyboard-response,513,1812311,null,"",null,,,,,,,,,,,,,,,
math-period,514,1813458,2128.299999989569,"",,,,,,,,,,,4,,,,,
html-keyboard-response,515,1813561,null,"",null,,,,,,,,,,,,,,,
math-period,516,1815040,2800.0000000074506,"",,,,,,,,,,,0,,,,,
html-keyboard-response,517,1815142,null,"",null,,,,,,,,,,,,,,,
math-period,518,1816685,2863.1000000089407,"",,,,,,,,,,,4,,,,,
html-keyboard-response,519,1816787,null,"",null,,,,,,,,,,,,,,,
math-period,520,1818613,3484.9000000059605,"",,,,,,,,,,,0,,,,,
html-keyboard-response,521,1818715,null,"",null,,,,,,,,,,,,,,,
math-period,522,1819822,2049.10000000149,"",,,,,,,,,,,3,,,,,
html-keyboard-response,523,1819924,null,"",null,,,,,,,,,,,,,,,
math-period,524,1821002,2036.7999999970198,"",,,,,,,,,,,4,,,,,
html-keyboard-response,525,1821104,null,"",null,,,,,,,,,,,,,,,
math-period,526,1822467,2600.2000000029802,"",,,,,,,,,,,5,,,,,
html-keyboard-response,527,1822569,null,"",null,,,,,,,,,,,,,,,
math-period,528,1823591,1912.3000000044703,"",,,,,,,,,,,2,,,,,
html-keyboard-response,529,1823696,null,"",null,,,,,,,,,,,,,,,
math-period,530,1823922,null,"",,,,,,,,,,,,,,,,
html-keyboard-response,531,1824924,null,"Recall Period!",null,,,,,,,,,,,,,,,
call-function,532,1824925,,"",,,,,,,,,,,,,,,,
html-keyboard-response,533,1825031,null,"",null,,,,,,,,,,,,,,,
recall-period,534,1826987,10531.39999999106,"",,,,,,,,,,,london,,,,,
html-keyboard-response,535,1827090,null,"",null,,,,,,,,,,,,,,,
recall-period,536,1828505,6850.499999970198,"",,,,,,,,,,,scissors,,,,,
html-keyboard-response,537,1828607,null,"",null,,,,,,,,,,,,,,,
recall-period,538,1836453,44815.40000000596,"",,,,,,,,,,,brake,,,,,
html-keyboard-response,539,1836558,null,"",null,,,,,,,,,,,,,,,
recall-period,540,1839951,23723.80000001192,"",,,,,,,,,,,cyclone,,,,,
html-keyboard-response,541,1840057,null,"",null,,,,,,,,,,,,,,,
recall-period,542,1840763,2816.000000014901,"",,,,,,,,,,,critic,,,,,
html-keyboard-response,543,1840865,null,"",null,,,,,,,,,,,,,,,
recall-period,544,1864546,155297.20000001043,"",,,,,,,,,,,shelf,,,,,
html-keyboard-response,545,1864652,null,"",null,,,,,,,,,,,,,,,
recall-period,546,1888343,187212.80000001192,"",,,,,,,,,,,brother,,,,,
html-keyboard-response,547,1888450,null,"",null,,,,,,,,,,,,,,,
recall-period,548,1899931,null,"",,,,,,,,,,,,,,,,
html-keyboard-response,549,1900436,null,"Time's Up!",null,,,,,,,,,,,,,,,
html-keyboard-response,550,1941622,41183.40000000596,"<p> Good job! You have responded correctly to 100% of the trials. </p>
                      <p>Be sure to only press the spacebar if you see a GREEN square, and please keep your accuracy above 80%.</p>
                      <p> Press any key to continue the experiment. </p>",32,,,,,,,,,,,,,,,
html-keyboard-response,551,1943200,1576.8000000044703,"<div style=""font-size:48px;"">Press any key to begin list 5 of 16 </div>",32,,,,,,,,,,,,,,,
html-keyboard-response,552,1945704,null,"<div style=""font-size:60px;"">+</div>",null,,,,,,,,,,,,,,,
html-keyboard-response,553,1945910,null,"<div style=""font-size:42px;"">MOTHER</div><img id = ""stim"" ><div class = green_square id = topsquare></div>",null,encoding,word_square,,,1,topsquare,32,true,,,MOTHER,4,,,
html-keyboard-response,554,1946217,null,"<div style=""font-size:42px;"">MOTHER</div>",null,,word,MOTHER,,,,,,,,,,,,
html-keyboard-response,555,1947719,63.70000000298023,"",32,,word,MOTHER,,,,,,,,,,,,
html-keyboard-response,556,1947926,null,"<div style=""font-size:42px;"">POWDER</div><img id = ""stim"" ><div class = green_square id = bottomsquare></div>",null,encoding,word_square,,,1,bottomsquare,32,true,,,POWDER,4,,,
html-keyboard-response,557,1948231,288.1000000014901,"<div style=""font-size:42px;"">POWDER</div>",32,,word,POWDER,,,,,,,,,,,,
html-keyboard-response,558,1949734,null,"",null,,word,POWDER,,,,,,,,,,,,
html-keyboard-response,559,1949941,null,"<div style=""font-size:42px;"">QUARTER</div><img id = ""stim"" ><div class = red_square id = bottomsquare></div>",null,encoding,word_square,,,0,bottomsquare,none,true,,,QUARTER,4,,,
html-keyboard-response,560,1950247,null,"<div style=""font-size:42px;"">QUARTER</div>",null,,word,QUARTER,,,,,,,,,,,,
html-keyboard-response,561,1951750,null,"",null,,word,QUARTER,,,,,,,,,,,,
html-keyboard-response,562,1951957,null,"<div style=""font-size:42px;"">COIN</div><img id = ""stim"" ><div class = red_square id = topsquare></div>",null,encoding,word_square,,,0,topsquare,none,true,,,COIN,4,,,
html-keyboard-response,563,1952264,null,"<div style=""font-size:42px;"">COIN</div>",null,,word,COIN,,,,,,,,,,,,
html-keyboard-response,564,1953766,null,"",null,,word,COIN,,,,,,,,,,,,
html-keyboard-response,565,1953973,null,"<div style=""font-size:42px;"">REPORT</div><img id = ""stim"" ><div class = green_square id = topsquare></div>",null,encoding,word_square,,,1,topsquare,32,true,,,REPORT,4,,,
html-keyboard-response,566,1954280,239.59999999403954,"<div style=""font-size:42px;"">REPORT</div>",32,,word,REPORT,,,,,,,,,,,,
html-keyboard-response,567,1955782,null,"",null,,word,REPORT,,,,,,,,,,,,
html-keyboard-response,568,1955989,null,"<div style=""font-size:42px;"">MEAT</div><img id = ""stim"" ><div class = green_square id = bottomsquare></div>",null,encoding,word_square,,,1,bottomsquare,32,true,,,MEAT,4,,,
html-keyboard-response,569,1956296,223.10000000149012,"<div style=""font-size:42px;"">MEAT</div>",32,,word,MEAT,,,,,,,,,,,,
html-keyboard-response,570,1957798,null,"",null,,word,MEAT,,,,,,,,,,,,
html-keyboard-response,571,1958005,null,"<div style=""font-size:42px;"">LIVER</div><img id = ""stim"" ><div class = red_square id = bottomsquare></div>",null,encoding,word_square,,,0,bottomsquare,none,true,,,LIVER,4,,,
html-keyboard-response,572,1958311,null,"<div style=""font-size:42px;"">LIVER</div>",null,,word,LIVER,,,,,,,,,,,,
html-keyboard-response,573,1959814,null,"",null,,word,LIVER,,,,,,,,,,,,
html-keyboard-response,574,1960017,null,"<div style=""font-size:42px;"">FINGER</div><img id = ""stim"" ><div class = red_square id = topsquare></div>",null,encoding,word_square,,,0,topsquare,none,true,,,FINGER,4,,,
html-keyboard-response,575,1960324,null,"<div style=""font-size:42px;"">FINGER</div>",null,,word,FINGER,,,,,,,,,,,,
html-keyboard-response,576,1961826,null,"",null,,word,FINGER,,,,,,,,,,,,
html-keyboard-response,577,1962029,null,"<div style=""font-size:42px;"">MESSAGE</div><img id = ""stim"" ><div class = green_square id = topsquare></div>",null,encoding,word_square,,,1,topsquare,32,true,,,MESSAGE,4,,,
html-keyboard-response,578,1962335,null,"<div style=""font-size:42px;"">MESSAGE</div>",null,,word,MESSAGE,,,,,,,,,,,,
html-keyboard-response,579,1963837,27.80000000447035,"",32,,word,MESSAGE,,,,,,,,,,,,
html-keyboard-response,580,1964045,null,"<div style=""font-size:42px;"">SNOB</div><img id = ""stim"" ><div class = red_square id = bottomsquare></div>",null,encoding,word_square,,,0,bottomsquare,none,true,,,SNOB,4,,,
html-keyboard-response,581,1964346,null,"<div style=""font-size:42px;"">SNOB</div>",null,,word,SNOB,,,,,,,,,,,,
html-keyboard-response,582,1965850,null,"",null,,word,SNOB,,,,,,,,,,,,
html-keyboard-response,583,1966057,null,"<div style=""font-size:42px;"">CIGAR</div><img id = ""stim"" ><div class = green_square id = bottomsquare></div>",null,encoding,word_square,,,1,bottomsquare,32,true,,,CIGAR,4,,,
html-keyboard-response,584,1966362,279.90000000596046,"<div style=""font-size:42px;"">CIGAR</div>",32,,word,CIGAR,,,,,,,,,,,,
html-keyboard-response,585,1967864,null,"",null,,word,CIGAR,,,,,,,,,,,,
html-keyboard-response,586,1968072,null,"<div style=""font-size:42px;"">LIPSTICK</div><img id = ""stim"" ><div class = green_square id = topsquare></div>",null,encoding,word_square,,,1,topsquare,32,true,,,LIPSTICK,4,,,
html-keyboard-response,587,1968375,292.5,"<div style=""font-size:42px;"">LIPSTICK</div>",32,,word,LIPSTICK,,,,,,,,,,,,
html-keyboard-response,588,1969879,null,"",null,,word,LIPSTICK,,,,,,,,,,,,
html-keyboard-response,589,1970086,null,"<div style=""font-size:42px;"">RODENT</div><img id = ""stim"" ><div class = red_square id = topsquare></div>",null,encoding,word_square,,,0,topsquare,none,true,,,RODENT,4,,,
html-keyboard-response,590,1970391,null,"<div style=""font-size:42px;"">RODENT</div>",null,,word,RODENT,,,,,,,,,,,,
html-keyboard-response,591,1971894,null,"",null,,word,RODENT,,,,,,,,,,,,
html-keyboard-response,592,1972101,null,"<div style=""font-size:42px;"">NOTEBOOK</div><img id = ""stim"" ><div class = red_square id = bottomsquare></div>",null,encoding,word_square,,,0,bottomsquare,none,true,,,NOTEBOOK,4,,,
html-keyboard-response,593,1972408,null,"<div style=""font-size:42px;"">NOTEBOOK</div>",null,,word,NOTEBOOK,,,,,,,,,,,,
html-keyboard-response,594,1973911,null,"",null,,word,NOTEBOOK,,,,,,,,,,,,
html-keyboard-response,595,1974118,null,"<div style=""font-size:42px;"">GUARD</div><img id = ""stim"" ><div class = green_square id = bottomsquare></div>",null,encoding,word_square,,,1,bottomsquare,32,true,,,GUARD,4,,,
html-keyboard-response,596,1974423,183.5,"<div style=""font-size:42px;"">GUARD</div>",32,,word,GUARD,,,,,,,,,,,,
html-keyboard-response,597,1975926,null,"",null,,word,GUARD,,,,,,,,,,,,
html-keyboard-response,598,1976130,null,"<div style=""font-size:42px;"">ARMY</div><img id = ""stim"" ><div class = red_square id = topsquare></div>",null,encoding,word_square,,,0,topsquare,none,true,,,ARMY,4,,,
html-keyboard-response,599,1976437,null,"<div style=""font-size:42px;"">ARMY</div>",null,,word,ARMY,,,,,,,,,,,,
html-keyboard-response,600,1977939,null,"",null,,word,ARMY,,,,,,,,,,,,
call-function,601,1977940,,"",,,,,,,,,,,,,,,,
html-keyboard-response,602,1978044,null,"",null,,,,,,,,,,,,,,,
math-period,603,1981260,6332.4000000059605,"",,,,,,,,,,,1,,,,,
html-keyboard-response,604,1981367,null,"",null,,,,,,,,,,,,,,,
math-period,605,1983260,3671.89999999851,"",,,,,,,,,,,2,,,,,
html-keyboard-response,606,1983365,null,"",null,,,,,,,,,,,,,,,
math-period,607,1984849,2724.0999999940395,"",,,,,,,,,,,0,,,,,
html-keyboard-response,608,1984951,null,"",null,,,,,,,,,,,,,,,
math-period,609,1986371,2683.7999999970198,"",,,,,,,,,,,2,,,,,
html-keyboard-response,610,1986473,null,"",null,,,,,,,,,,,,,,,
math-period,611,1988287,5994.000000007451,"",,,,,,,,,,,6,,,,,
html-keyboard-response,612,1988391,null,"",null,,,,,,,,,,,,,,,
math-period,613,1989579,2232,"",,,,,,,,,,,4,,,,,
html-keyboard-response,614,1989685,null,"",null,,,,,,,,,,,,,,,
math-period,615,1990926,2155,"",,,,,,,,,,,4,,,,,
html-keyboard-response,616,1991032,null,"",null,,,,,,,,,,,,,,,
math-period,617,1992821,3477.8999999910593,"",,,,,,,,,,,2,,,,,
html-keyboard-response,618,1992926,null,"",null,,,,,,,,,,,,,,,
math-period,619,1995076,4217.9000000059605,"",,,,,,,,,,,1,,,,,
html-keyboard-response,620,1995178,null,"",null,,,,,,,,,,,,,,,
math-period,621,1996151,1899.2999999970198,"",,,,,,,,,,,3,,,,,
html-keyboard-response,622,1996257,null,"",null,,,,,,,,,,,,,,,
math-period,623,1997412,2234.5000000074506,"",,,,,,,,,,,1,,,,,
html-keyboard-response,624,1997519,null,"",null,,,,,,,,,,,,,,,
math-period,625,1999010,2886.700000010431,"",,,,,,,,,,,1,,,,,
html-keyboard-response,626,1999112,null,"",null,,,,,,,,,,,,,,,
math-period,627,2000797,3216.10000000149,"",,,,,,,,,,,0,,,,,
html-keyboard-response,628,2000898,null,"",null,,,,,,,,,,,,,,,
math-period,629,2001945,null,"",,,,,,,,,,,,,,,,
html-keyboard-response,630,2002947,null,"Recall Period!",null,,,,,,,,,,,,,,,
call-function,631,2002948,,"",,,,,,,,,,,,,,,,
html-keyboard-response,632,2003054,null,"",null,,,,,,,,,,,,,,,
recall-period,633,2004252,6624.600000016391,"",,,,,,,,,,,notebook,,,,,
html-keyboard-response,634,2004355,null,"",null,,,,,,,,,,,,,,,
recall-period,635,2004926,1858.5000000074506,"",,,,,,,,,,,guard,,,,,
html-keyboard-response,636,2005032,null,"",null,,,,,,,,,,,,,,,
recall-period,637,2006207,4720.3000000193715,"",,,,,,,,,,,army,,,,,
html-keyboard-response,638,2006309,null,"",null,,,,,,,,,,,,,,,
recall-period,639,2007948,10786.29999998957,"",,,,,,,,,,,mother,,,,,
html-keyboard-response,640,2008051,null,"",null,,,,,,,,,,,,,,,
recall-period,641,2012791,21479.00000000745,"",,,,,,,,,,,coin,,,,,
html-keyboard-response,642,2012893,null,"",null,,,,,,,,,,,,,,,
recall-period,643,2013695,3297.9000000059605,"",,,,,,,,,,,quarter,,,,,
html-keyboard-response,644,2013797,null,"",null,,,,,,,,,,,,,,,
recall-period,645,2024496,71700.80000000447,"",,,,,,,,,,,rodent,,,,,
html-keyboard-response,646,2024599,null,"",null,,,,,,,,,,,,,,,
recall-period,647,2077950,null,"",,,,,,,,,,,,,,,,
html-keyboard-response,648,2078452,null,"Time's Up!",null,,,,,,,,,,,,,,,
html-keyboard-response,649,2328049,249592.70000000298,"<p> Good job! You have responded correctly to 100% of the trials. </p>
                      <p>Be sure to only press the spacebar if you see a GREEN square, and please keep your accuracy above 80%.</p>
                      <p> Press any key to continue the experiment. </p>",32,,,,,,,,,,,,,,,
html-keyboard-response,650,2333541,5491,"<div style=""font-size:48px;"">Press any key to begin list 6 of 16 </div>",32,,,,,,,,,,,,,,,
html-keyboard-response,651,2336049,null,"<div style=""font-size:60px;"">+</div>",null,,,,,,,,,,,,,,,
html-keyboard-response,652,2336257,null,"<div style=""font-size:42px;"">OX</div><img id = ""stim"" ><div class = red_square id = topsquare></div>",null,encoding,word_square,,,0,topsquare,none,true,,,OX,5,,,
html-keyboard-response,653,2336559,null,"<div style=""font-size:42px;"">OX</div>",null,,word,OX,,,,,,,,,,,,
html-keyboard-response,654,2338062,null,"",null,,word,OX,,,,,,,,,,,,
html-keyboard-response,655,2338267,null,"<div style=""font-size:42px;"">CREATURE</div><img id = ""stim"" ><div class = green_square id = bottomsquare></div>",null,encoding,word_square,,,1,bottomsquare,32,true,,,CREATURE,5,,,
html-keyboard-response,656,2338572,null,"<div style=""font-size:42px;"">CREATURE</div>",null,,word,CREATURE,,,,,,,,,,,,
html-keyboard-response,657,2340076,14.100000001490116,"",32,,word,CREATURE,,,,,,,,,,,,
html-keyboard-response,658,2340283,null,"<div style=""font-size:42px;"">SUITCASE</div><img id = ""stim"" ><div class = red_square id = bottomsquare></div>",null,encoding,word_square,,,0,bottomsquare,none,true,,,SUITCASE,5,,,
html-keyboard-response,659,2340589,null,"<div style=""font-size:42px;"">SUITCASE</div>",null,,word,SUITCASE,,,,,,,,,,,,
html-keyboard-response,660,2342092,null,"",null,,word,SUITCASE,,,,,,,,,,,,
html-keyboard-response,661,2342295,null,"<div style=""font-size:42px;"">PUPPY</div><img id = ""stim"" ><div class = red_square id = topsquare></div>",null,encoding,word_square,,,0,topsquare,none,true,,,PUPPY,5,,,
html-keyboard-response,662,2342599,null,"<div style=""font-size:42px;"">PUPPY</div>",null,,word,PUPPY,,,,,,,,,,,,
html-keyboard-response,663,2344102,null,"",null,,word,PUPPY,,,,,,,,,,,,
html-keyboard-response,664,2344309,null,"<div style=""font-size:42px;"">PERSON</div><img id = ""stim"" ><div class = green_square id = topsquare></div>",null,encoding,word_square,,,1,topsquare,32,true,,,PERSON,5,,,
html-keyboard-response,665,2344613,291.5,"<div style=""font-size:42px;"">PERSON</div>",32,,word,PERSON,,,,,,,,,,,,
html-keyboard-response,666,2346116,null,"",null,,word,PERSON,,,,,,,,,,,,
html-keyboard-response,667,2346323,null,"<div style=""font-size:42px;"">STRANGER</div><img id = ""stim"" ><div class = green_square id = bottomsquare></div>",null,encoding,word_square,,,1,bottomsquare,32,true,,,STRANGER,5,,,
html-keyboard-response,668,2346630,174.30000000447035,"<div style=""font-size:42px;"">STRANGER</div>",32,,word,STRANGER,,,,,,,,,,,,
html-keyboard-response,669,2348133,null,"",null,,word,STRANGER,,,,,,,,,,,,
html-keyboard-response,670,2348336,null,"<div style=""font-size:42px;"">ATLAS</div><img id = ""stim"" ><div class = red_square id = bottomsquare></div>",null,encoding,word_square,,,0,bottomsquare,none,true,,,ATLAS,5,,,
html-keyboard-response,671,2348640,null,"<div style=""font-size:42px;"">ATLAS</div>",null,,word,ATLAS,,,,,,,,,,,,
html-keyboard-response,672,2350143,null,"",null,,word,ATLAS,,,,,,,,,,,,
html-keyboard-response,673,2350349,null,"<div style=""font-size:42px;"">HIGHWAY</div><img id = ""stim"" ><div class = green_square id = topsquare></div>",null,encoding,word_square,,,1,topsquare,32,true,,,HIGHWAY,5,,,
html-keyboard-response,674,2350654,245.5,"<div style=""font-size:42px;"">HIGHWAY</div>",32,,word,HIGHWAY,,,,,,,,,,,,
html-keyboard-response,675,2352159,null,"",null,,word,HIGHWAY,,,,,,,,,,,,
html-keyboard-response,676,2352366,null,"<div style=""font-size:42px;"">MUFFIN</div><img id = ""stim"" ><div class = red_square id = topsquare></div>",null,encoding,word_square,,,0,topsquare,none,true,,,MUFFIN,5,,,
html-keyboard-response,677,2352669,null,"<div style=""font-size:42px;"">MUFFIN</div>",null,,word,MUFFIN,,,,,,,,,,,,
html-keyboard-response,678,2354172,null,"",null,,word,MUFFIN,,,,,,,,,,,,
html-keyboard-response,679,2354379,null,"<div style=""font-size:42px;"">DRAWER</div><img id = ""stim"" ><div class = red_square id = bottomsquare></div>",null,encoding,word_square,,,0,bottomsquare,none,true,,,DRAWER,5,,,
html-keyboard-response,680,2354682,null,"<div style=""font-size:42px;"">DRAWER</div>",null,,word,DRAWER,,,,,,,,,,,,
html-keyboard-response,681,2356184,null,"",null,,word,DRAWER,,,,,,,,,,,,
html-keyboard-response,682,2356391,null,"<div style=""font-size:42px;"">PEACH</div><img id = ""stim"" ><div class = green_square id = bottomsquare></div>",null,encoding,word_square,,,1,bottomsquare,32,true,,,PEACH,5,,,
html-keyboard-response,683,2356694,269.70000000298023,"<div style=""font-size:42px;"">PEACH</div>",32,,word,PEACH,,,,,,,,,,,,
html-keyboard-response,684,2358197,null,"",null,,word,PEACH,,,,,,,,,,,,
html-keyboard-response,685,2358399,null,"<div style=""font-size:42px;"">CHECKERS</div><img id = ""stim"" ><div class = green_square id = topsquare></div>",null,encoding,word_square,,,1,topsquare,32,false,,,CHECKERS,5,,,
html-keyboard-response,686,2358704,null,"<div style=""font-size:42px;"">CHECKERS</div>",null,,word,CHECKERS,,,,,,,,,,,,
html-keyboard-response,687,2360209,null,"",null,,word,CHECKERS,,,,,,,,,,,,
html-keyboard-response,688,2360415,null,"<div style=""font-size:42px;"">STOMACH</div><img id = ""stim"" ><div class = red_square id = topsquare></div>",null,encoding,word_square,,,0,topsquare,none,true,,,STOMACH,5,,,
html-keyboard-response,689,2360722,null,"<div style=""font-size:42px;"">STOMACH</div>",null,,word,STOMACH,,,,,,,,,,,,
html-keyboard-response,690,2362225,null,"",null,,word,STOMACH,,,,,,,,,,,,
html-keyboard-response,691,2362432,null,"<div style=""font-size:42px;"">BELLY</div><img id = ""stim"" ><div class = red_square id = bottomsquare></div>",null,encoding,word_square,,,0,bottomsquare,none,true,,,BELLY,5,,,
html-keyboard-response,692,2362737,null,"<div style=""font-size:42px;"">BELLY</div>",null,,word,BELLY,,,,,,,,,,,,
html-keyboard-response,693,2364240,null,"",null,,word,BELLY,,,,,,,,,,,,
html-keyboard-response,694,2364447,null,"<div style=""font-size:42px;"">CURTAIN</div><img id = ""stim"" ><div class = green_square id = bottomsquare></div>",null,encoding,word_square,,,1,bottomsquare,32,true,,,CURTAIN,5,,,
html-keyboard-response,695,2364750,181.29999999701977,"<div style=""font-size:42px;"">CURTAIN</div>",32,,word,CURTAIN,,,,,,,,,,,,
html-keyboard-response,696,2366253,null,"",null,,word,CURTAIN,,,,,,,,,,,,
html-keyboard-response,697,2366461,null,"<div style=""font-size:42px;"">SURGEON</div><img id = ""stim"" ><div class = green_square id = topsquare></div>",null,encoding,word_square,,,1,topsquare,32,true,,,SURGEON,5,,,
html-keyboard-response,698,2366768,164.30000000447035,"<div style=""font-size:42px;"">SURGEON</div>",32,,word,SURGEON,,,,,,,,,,,,
html-keyboard-response,699,2368271,null,"",null,,word,SURGEON,,,,,,,,,,,,
call-function,700,2368273,,"",,,,,,,,,,,,,,,,
html-keyboard-response,701,2368374,null,"",null,,,,,,,,,,,,,,,
math-period,702,2370498,4081.2000000029802,"",,,,,,,,,,,4,,,,,
html-keyboard-response,703,2370602,null,"",null,,,,,,,,,,,,,,,
math-period,704,2371340,1332.6999999955297,"",,,,,,,,,,,4,,,,,
html-keyboard-response,705,2371446,null,"",null,,,,,,,,,,,,,,,
math-period,706,2373205,3377.2999999970198,"",,,,,,,,,,,3,,,,,
html-keyboard-response,707,2373307,null,"",null,,,,,,,,,,,,,,,
math-period,708,2374808,2772.1999999955297,"",,,,,,,,,,,0,,,,,
html-keyboard-response,709,2374914,null,"",null,,,,,,,,,,,,,,,
math-period,710,2376303,2643,"",,,,,,,,,,,2,,,,,
html-keyboard-response,711,2376407,null,"",null,,,,,,,,,,,,,,,
math-period,712,2377489,2018.800000011921,"",,,,,,,,,,,4,,,,,
html-keyboard-response,713,2377593,null,"",null,,,,,,,,,,,,,,,
math-period,714,2382455,49456.60000002384,"",,,,,,,,,,,0,,,,,
html-keyboard-response,715,2382557,null,"",null,,,,,,,,,,,,,,,
math-period,716,2384082,2875,"",,,,,,,,,,,5,,,,,
html-keyboard-response,717,2384187,null,"",null,,,,,,,,,,,,,,,
math-period,718,2385312,2083.4999999925494,"",,,,,,,,,,,4,,,,,
html-keyboard-response,719,2385415,null,"",null,,,,,,,,,,,,,,,
math-period,720,2387155,3362.4999999925494,"",,,,,,,,,,,3,,,,,
html-keyboard-response,721,2387261,null,"",null,,,,,,,,,,,,,,,
math-period,722,2388805,2968.6000000089407,"",,,,,,,,,,,1,,,,,
html-keyboard-response,723,2388910,null,"",null,,,,,,,,,,,,,,,
math-period,724,2389899,1856.6999999955297,"",,,,,,,,,,,4,,,,,
html-keyboard-response,725,2390001,null,"",null,,,,,,,,,,,,,,,
math-period,726,2391034,1976.7000000029802,"",,,,,,,,,,,5,,,,,
html-keyboard-response,727,2391137,null,"",null,,,,,,,,,,,,,,,
math-period,728,2392279,null,"",,,,,,,,,,,,,,,,
html-keyboard-response,729,2393286,null,"Recall Period!",null,,,,,,,,,,,,,,,
call-function,730,2393287,,"",,,,,,,,,,,,,,,,
html-keyboard-response,731,2393393,null,"",null,,,,,,,,,,,,,,,
recall-period,732,2394638,6136.900000028312,"",,,,,,,,,,,curtain,,,,,
html-keyboard-response,733,2394740,null,"",null,,,,,,,,,,,,,,,
recall-period,734,2395659,4334.000000022352,"",,,,,,,,,,,surgeon,,,,,
html-keyboard-response,735,2395764,null,"",null,,,,,,,,,,,,,,,
recall-period,736,2396596,2638.400000028312,"",,,,,,,,,,,belly,,,,,
html-keyboard-response,737,2396700,null,"",null,,,,,,,,,,,,,,,
recall-period,738,2397368,2977.400000028312,"",,,,,,,,,,,checkers,,,,,
html-keyboard-response,739,2397471,null,"",null,,,,,,,,,,,,,,,
recall-period,740,2401889,25013.60000000149,"",,,,,,,,,,,atlas,,,,,
html-keyboard-response,741,2401996,null,"",null,,,,,,,,,,,,,,,
recall-period,742,2410850,49994.19999998808,"",,,,,,,,,,,puppy,,,,,
html-keyboard-response,743,2410955,null,"",null,,,,,,,,,,,,,,,
recall-period,744,2427437,112916.20000001043,"",,,,,,,,,,,person,,,,,
html-keyboard-response,745,2427543,null,"",null,,,,,,,,,,,,,,,
recall-period,746,2428288,3510.3000000193715,"",,,,,,,,,,,stranger,,,,,
html-keyboard-response,747,2428394,null,"",null,,,,,,,,,,,,,,,
recall-period,748,2461481,98912.90000001341,"",,,,,,,,,,,os,,,,,
html-keyboard-response,749,2461586,null,"",null,,,,,,,,,,,,,,,
recall-period,750,2468292,null,"",,,,,,,,,,,,,,,,
html-keyboard-response,751,2468799,null,"Time's Up!",null,,,,,,,,,,,,,,,
html-keyboard-response,752,2586060,117257.89999999851,"<p> Good job! You have responded correctly to 99% of the trials. </p>
                      <p>Be sure to only press the spacebar if you see a GREEN square, and please keep your accuracy above 80%.</p>
                      <p> Press any key to continue the experiment. </p>",32,,,,,,,,,,,,,,,
html-keyboard-response,753,2586799,738.3000000044703,"<div style=""font-size:48px;"">Press any key to begin list 7 of 16 </div>",32,,,,,,,,,,,,,,,
html-keyboard-response,754,2589308,null,"<div style=""font-size:60px;"">+</div>",null,,,,,,,,,,,,,,,
html-keyboard-response,755,2589513,null,"<div style=""font-size:42px;"">COOK</div><img id = ""stim"" ><div class = red_square id = bottomsquare></div>",null,encoding,word_square,,,0,bottomsquare,none,true,,,COOK,6,,,
html-keyboard-response,756,2589815,null,"<div style=""font-size:42px;"">COOK</div>",null,,word,COOK,,,,,,,,,,,,
html-keyboard-response,757,2591318,null,"",null,,word,COOK,,,,,,,,,,,,
html-keyboard-response,758,2591525,null,"<div style=""font-size:42px;"">BACKBONE</div><img id = ""stim"" ><div class = red_square id = topsquare></div>",null,encoding,word_square,,,0,topsquare,none,true,,,BACKBONE,6,,,
html-keyboard-response,759,2591831,null,"<div style=""font-size:42px;"">BACKBONE</div>",null,,word,BACKBONE,,,,,,,,,,,,
html-keyboard-response,760,2593336,null,"",null,,word,BACKBONE,,,,,,,,,,,,
html-keyboard-response,761,2593539,null,"<div style=""font-size:42px;"">STAKE</div><img id = ""stim"" ><div class = green_square id = topsquare></div>",null,encoding,word_square,,,1,topsquare,32,true,,,STAKE,6,,,
html-keyboard-response,762,2593841,263,"<div style=""font-size:42px;"">STAKE</div>",32,,word,STAKE,,,,,,,,,,,,
html-keyboard-response,763,2595345,null,"",null,,word,STAKE,,,,,,,,,,,,
html-keyboard-response,764,2595547,null,"<div style=""font-size:42px;"">SENATE</div><img id = ""stim"" ><div class = green_square id = bottomsquare></div>",null,encoding,word_square,,,1,bottomsquare,32,true,,,SENATE,6,,,
html-keyboard-response,765,2595854,null,"<div style=""font-size:42px;"">SENATE</div>",null,,word,SENATE,,,,,,,,,,,,
html-keyboard-response,766,2597358,17.100000001490116,"",32,,word,SENATE,,,,,,,,,,,,
html-keyboard-response,767,2597565,null,"<div style=""font-size:42px;"">KNUCKLE</div><img id = ""stim"" ><div class = red_square id = bottomsquare></div>",null,encoding,word_square,,,0,bottomsquare,none,true,,,KNUCKLE,6,,,
html-keyboard-response,768,2597869,null,"<div style=""font-size:42px;"">KNUCKLE</div>",null,,word,KNUCKLE,,,,,,,,,,,,
html-keyboard-response,769,2599372,null,"",null,,word,KNUCKLE,,,,,,,,,,,,
html-keyboard-response,770,2599580,null,"<div style=""font-size:42px;"">TURTLE</div><img id = ""stim"" ><div class = red_square id = topsquare></div>",null,encoding,word_square,,,0,topsquare,none,true,,,TURTLE,6,,,
html-keyboard-response,771,2599887,null,"<div style=""font-size:42px;"">TURTLE</div>",null,,word,TURTLE,,,,,,,,,,,,
html-keyboard-response,772,2601391,null,"",null,,word,TURTLE,,,,,,,,,,,,
html-keyboard-response,773,2601598,null,"<div style=""font-size:42px;"">FLUTE</div><img id = ""stim"" ><div class = green_square id = topsquare></div>",null,encoding,word_square,,,1,topsquare,32,true,,,FLUTE,6,,,
html-keyboard-response,774,2601905,null,"<div style=""font-size:42px;"">FLUTE</div>",null,,word,FLUTE,,,,,,,,,,,,
html-keyboard-response,775,2603408,26.399999998509884,"",32,,word,FLUTE,,,,,,,,,,,,
html-keyboard-response,776,2603615,null,"<div style=""font-size:42px;"">WHISTLE</div><img id = ""stim"" ><div class = green_square id = bottomsquare></div>",null,encoding,word_square,,,1,bottomsquare,32,true,,,WHISTLE,6,,,
html-keyboard-response,777,2603923,267.20000000298023,"<div style=""font-size:42px;"">WHISTLE</div>",32,,word,WHISTLE,,,,,,,,,,,,
html-keyboard-response,778,2605425,null,"",null,,word,WHISTLE,,,,,,,,,,,,
html-keyboard-response,779,2605632,null,"<div style=""font-size:42px;"">SCAPEGOAT</div><img id = ""stim"" ><div class = red_square id = bottomsquare></div>",null,encoding,word_square,,,0,bottomsquare,none,true,,,SCAPEGOAT,6,,,
html-keyboard-response,780,2605936,null,"<div style=""font-size:42px;"">SCAPEGOAT</div>",null,,word,SCAPEGOAT,,,,,,,,,,,,
html-keyboard-response,781,2607438,null,"",null,,word,SCAPEGOAT,,,,,,,,,,,,
html-keyboard-response,782,2607641,null,"<div style=""font-size:42px;"">TURKEY</div><img id = ""stim"" ><div class = green_square id = topsquare></div>",null,encoding,word_square,,,1,topsquare,32,true,,,TURKEY,6,,,
html-keyboard-response,783,2607948,null,"<div style=""font-size:42px;"">TURKEY</div>",null,,word,TURKEY,,,,,,,,,,,,
html-keyboard-response,784,2609453,427.1000000014901,"",32,,word,TURKEY,,,,,,,,,,,,
html-keyboard-response,785,2609658,null,"<div style=""font-size:42px;"">NURSE</div><img id = ""stim"" ><div class = red_square id = topsquare></div>",null,encoding,word_square,,,0,topsquare,none,true,,,NURSE,6,,,
html-keyboard-response,786,2609965,null,"<div style=""font-size:42px;"">NURSE</div>",null,,word,NURSE,,,,,,,,,,,,
html-keyboard-response,787,2611468,null,"",null,,word,NURSE,,,,,,,,,,,,
html-keyboard-response,788,2611676,null,"<div style=""font-size:42px;"">MONKEY</div><img id = ""stim"" ><div class = red_square id = bottomsquare></div>",null,encoding,word_square,,,0,bottomsquare,none,true,,,MONKEY,6,,,
html-keyboard-response,789,2611983,null,"<div style=""font-size:42px;"">MONKEY</div>",null,,word,MONKEY,,,,,,,,,,,,
html-keyboard-response,790,2613487,null,"",null,,word,MONKEY,,,,,,,,,,,,
html-keyboard-response,791,2613694,null,"<div style=""font-size:42px;"">KITCHEN</div><img id = ""stim"" ><div class = green_square id = bottomsquare></div>",null,encoding,word_square,,,1,bottomsquare,32,true,,,KITCHEN,6,,,
html-keyboard-response,792,2613999,220.59999999403954,"<div style=""font-size:42px;"">KITCHEN</div>",32,,word,KITCHEN,,,,,,,,,,,,
html-keyboard-response,793,2615504,null,"",null,,word,KITCHEN,,,,,,,,,,,,
html-keyboard-response,794,2615706,null,"<div style=""font-size:42px;"">PEOPLE</div><img id = ""stim"" ><div class = green_square id = topsquare></div>",null,encoding,word_square,,,1,topsquare,32,true,,,PEOPLE,6,,,
html-keyboard-response,795,2616012,null,"<div style=""font-size:42px;"">PEOPLE</div>",null,,word,PEOPLE,,,,,,,,,,,,
html-keyboard-response,796,2617515,3.2000000029802322,"",32,,word,PEOPLE,,,,,,,,,,,,
html-keyboard-response,797,2617722,null,"<div style=""font-size:42px;"">STAMP</div><img id = ""stim"" ><div class = red_square id = topsquare></div>",null,encoding,word_square,,,0,topsquare,none,true,,,STAMP,6,,,
html-keyboard-response,798,2618029,null,"<div style=""font-size:42px;"">STAMP</div>",null,,word,STAMP,,,,,,,,,,,,
html-keyboard-response,799,2619531,null,"",null,,word,STAMP,,,,,,,,,,,,
html-keyboard-response,800,2619739,null,"<div style=""font-size:42px;"">NIGHTGOWN</div><img id = ""stim"" ><div class = green_square id = bottomsquare></div>",null,encoding,word_square,,,1,bottomsquare,32,true,,,NIGHTGOWN,6,,,
html-keyboard-response,801,2620040,271,"<div style=""font-size:42px;"">NIGHTGOWN</div>",32,,word,NIGHTGOWN,,,,,,,,,,,,
html-keyboard-response,802,2621543,null,"",null,,word,NIGHTGOWN,,,,,,,,,,,,
call-function,803,2621544,,"",,,,,,,,,,,,,,,,
html-keyboard-response,804,2621650,null,"",null,,,,,,,,,,,,,,,
math-period,805,2624195,4942.19999999553,"",,,,,,,,,,,2,,,,,
html-keyboard-response,806,2624297,null,"",null,,,,,,,,,,,,,,,
math-period,807,2625206,1709.6999999955297,"",,,,,,,,,,,4,,,,,
html-keyboard-response,808,2625308,null,"",null,,,,,,,,,,,,,,,
math-period,809,2626300,1881.4999999925494,"",,,,,,,,,,,6,,,,,
html-keyboard-response,810,2626401,null,"",null,,,,,,,,,,,,,,,
math-period,811,2627473,2038.2000000029802,"",,,,,,,,,,,4,,,,,
html-keyboard-response,812,2627576,null,"",null,,,,,,,,,,,,,,,
math-period,813,2628746,2245.2999999970198,"",,,,,,,,,,,4,,,,,
html-keyboard-response,814,2628849,null,"",null,,,,,,,,,,,,,,,
math-period,815,2629479,1135.2000000029802,"",,,,,,,,,,,4,,,,,
html-keyboard-response,816,2629581,null,"",null,,,,,,,,,,,,,,,
math-period,817,2631804,4317.79999999702,"",,,,,,,,,,,1,,,,,
html-keyboard-response,818,2631907,null,"",null,,,,,,,,,,,,,,,
math-period,819,2633019,2143.0999999940395,"",,,,,,,,,,,3,,,,,
html-keyboard-response,820,2633125,null,"",null,,,,,,,,,,,,,,,
math-period,821,2634996,3611.4000000059605,"",,,,,,,,,,,4,,,,,
html-keyboard-response,822,2635101,null,"",null,,,,,,,,,,,,,,,
math-period,823,2636382,2448.0999999940395,"",,,,,,,,,,,4,,,,,
html-keyboard-response,824,2636487,null,"",null,,,,,,,,,,,,,,,
math-period,825,2640297,7309.299999989569,"",,,,,,,,,,,1,,,,,
html-keyboard-response,826,2640400,null,"",null,,,,,,,,,,,,,,,
math-period,827,2641682,2490.4999999925494,"",,,,,,,,,,,4,,,,,
html-keyboard-response,828,2641787,null,"",null,,,,,,,,,,,,,,,
math-period,829,2645550,null,"",,,,,,,,,,,,,,,,
html-keyboard-response,830,2646553,null,"Recall Period!",null,,,,,,,,,,,,,,,
call-function,831,2646553,,"",,,,,,,,,,,,,,,,
html-keyboard-response,832,2646656,null,"",null,,,,,,,,,,,,,,,
recall-period,833,2649057,18948.19999998808,"",,,,,,,,,,,nightgown,,,,,
html-keyboard-response,834,2649163,null,"",null,,,,,,,,,,,,,,,
recall-period,835,2650655,6933.699999965727,"",,,,,,,,,,,backbone,,,,,
html-keyboard-response,836,2650758,null,"",null,,,,,,,,,,,,,,,
recall-period,837,2651541,2891.0000000074506,"",,,,,,,,,,,stake,,,,,
html-keyboard-response,838,2651643,null,"",null,,,,,,,,,,,,,,,
recall-period,839,2656769,34850.29999998957,"",,,,,,,,,,,cooking,,,,,
html-keyboard-response,840,2656871,null,"",null,,,,,,,,,,,,,,,
recall-period,841,2667025,57157.40000001341,"",,,,,,,,,,,flute,,,,,
html-keyboard-response,842,2667127,null,"",null,,,,,,,,,,,,,,,
recall-period,843,2668081,3687.4000000059605,"",,,,,,,,,,,whistle,,,,,
html-keyboard-response,844,2668183,null,"",null,,,,,,,,,,,,,,,
recall-period,845,2677090,59834.5000000149,"",,,,,,,,,,,people,,,,,
html-keyboard-response,846,2677192,null,"",null,,,,,,,,,,,,,,,
recall-period,847,2721560,null,"",,,,,,,,,,,,,,,,
html-keyboard-response,848,2722067,null,"Time's Up!",null,,,,,,,,,,,,,,,
html-keyboard-response,849,2722977,907.5,"<p> Good job! You have responded correctly to 99% of the trials. </p>
                      <p>Be sure to only press the spacebar if you see a GREEN square, and please keep your accuracy above 80%.</p>
                      <p> Press any key to continue the experiment. </p>",32,,,,,,,,,,,,,,,
html-keyboard-response,850,2723687,708.6000000014901,"<div style=""font-size:48px;"">Press any key to begin list 8 of 16 </div>",32,,,,,,,,,,,,,,,
html-keyboard-response,851,2726198,null,"<div style=""font-size:60px;"">+</div>",null,,,,,,,,,,,,,,,
html-keyboard-response,852,2726404,null,"<div style=""font-size:42px;"">FRUIT</div><img id = ""stim"" ><div class = green_square id = bottomsquare></div>",null,encoding,word_square,,,1,bottomsquare,32,true,,,FRUIT,7,,,
html-keyboard-response,853,2726710,null,"<div style=""font-size:42px;"">FRUIT</div>",null,,word,FRUIT,,,,,,,,,,,,
html-keyboard-response,854,2728214,0.29999999701976776,"",32,,word,FRUIT,,,,,,,,,,,,
html-keyboard-response,855,2728421,null,"<div style=""font-size:42px;"">HAWK</div><img id = ""stim"" ><div class = red_square id = topsquare></div>",null,encoding,word_square,,,0,topsquare,none,true,,,HAWK,7,,,
html-keyboard-response,856,2728725,null,"<div style=""font-size:42px;"">HAWK</div>",null,,word,HAWK,,,,,,,,,,,,
html-keyboard-response,857,2730227,null,"",null,,word,HAWK,,,,,,,,,,,,
html-keyboard-response,858,2730434,null,"<div style=""font-size:42px;"">PIGEON</div><img id = ""stim"" ><div class = green_square id = topsquare></div>",null,encoding,word_square,,,1,topsquare,32,true,,,PIGEON,7,,,
html-keyboard-response,859,2730736,195.10000000149012,"<div style=""font-size:42px;"">PIGEON</div>",32,,word,PIGEON,,,,,,,,,,,,
html-keyboard-response,860,2732238,null,"",null,,word,PIGEON,,,,,,,,,,,,
html-keyboard-response,861,2732445,null,"<div style=""font-size:42px;"">SAILOR</div><img id = ""stim"" ><div class = green_square id = bottomsquare></div>",null,encoding,word_square,,,1,bottomsquare,32,true,,,SAILOR,7,,,
html-keyboard-response,862,2732749,null,"<div style=""font-size:42px;"">SAILOR</div>",null,,word,SAILOR,,,,,,,,,,,,
html-keyboard-response,863,2734252,2.0999999940395355,"",32,,word,SAILOR,,,,,,,,,,,,
html-keyboard-response,864,2734454,null,"<div style=""font-size:42px;"">CASHIER</div><img id = ""stim"" ><div class = red_square id = bottomsquare></div>",null,encoding,word_square,,,0,bottomsquare,none,true,,,CASHIER,7,,,
html-keyboard-response,865,2734761,null,"<div style=""font-size:42px;"">CASHIER</div>",null,,word,CASHIER,,,,,,,,,,,,
html-keyboard-response,866,2736265,null,"",null,,word,CASHIER,,,,,,,,,,,,
html-keyboard-response,867,2736471,null,"<div style=""font-size:42px;"">BOYFRIEND</div><img id = ""stim"" ><div class = red_square id = topsquare></div>",null,encoding,word_square,,,0,topsquare,none,true,,,BOYFRIEND,7,,,
html-keyboard-response,868,2736775,null,"<div style=""font-size:42px;"">BOYFRIEND</div>",null,,word,BOYFRIEND,,,,,,,,,,,,
html-keyboard-response,869,2738277,null,"",null,,word,BOYFRIEND,,,,,,,,,,,,
html-keyboard-response,870,2738485,null,"<div style=""font-size:42px;"">ROOSTER</div><img id = ""stim"" ><div class = green_square id = topsquare></div>",null,encoding,word_square,,,1,topsquare,32,true,,,ROOSTER,7,,,
html-keyboard-response,871,2738788,265.1000000014901,"<div style=""font-size:42px;"">ROOSTER</div>",32,,word,ROOSTER,,,,,,,,,,,,
html-keyboard-response,872,2740291,null,"",null,,word,ROOSTER,,,,,,,,,,,,
html-keyboard-response,873,2740495,null,"<div style=""font-size:42px;"">COLUMN</div><img id = ""stim"" ><div class = red_square id = bottomsquare></div>",null,encoding,word_square,,,0,bottomsquare,none,true,,,COLUMN,7,,,
html-keyboard-response,874,2740799,null,"<div style=""font-size:42px;"">COLUMN</div>",null,,word,COLUMN,,,,,,,,,,,,
html-keyboard-response,875,2742302,null,"",null,,word,COLUMN,,,,,,,,,,,,
html-keyboard-response,876,2742510,null,"<div style=""font-size:42px;"">SLUG</div><img id = ""stim"" ><div class = green_square id = bottomsquare></div>",null,encoding,word_square,,,1,bottomsquare,32,true,,,SLUG,7,,,
html-keyboard-response,877,2742817,278,"<div style=""font-size:42px;"">SLUG</div>",32,,word,SLUG,,,,,,,,,,,,
html-keyboard-response,878,2744320,null,"",null,,word,SLUG,,,,,,,,,,,,
html-keyboard-response,879,2744527,null,"<div style=""font-size:42px;"">PLIERS</div><img id = ""stim"" ><div class = green_square id = topsquare></div>",null,encoding,word_square,,,1,topsquare,32,true,,,PLIERS,7,,,
html-keyboard-response,880,2744834,null,"<div style=""font-size:42px;"">PLIERS</div>",null,,word,PLIERS,,,,,,,,,,,,
html-keyboard-response,881,2746337,221.19999999552965,"",32,,word,PLIERS,,,,,,,,,,,,
html-keyboard-response,882,2746545,null,"<div style=""font-size:42px;"">TWEEZERS</div><img id = ""stim"" ><div class = red_square id = topsquare></div>",null,encoding,word_square,,,0,topsquare,none,true,,,TWEEZERS,7,,,
html-keyboard-response,883,2746852,null,"<div style=""font-size:42px;"">TWEEZERS</div>",null,,word,TWEEZERS,,,,,,,,,,,,
html-keyboard-response,884,2748355,null,"",null,,word,TWEEZERS,,,,,,,,,,,,
html-keyboard-response,885,2748563,null,"<div style=""font-size:42px;"">BANK</div><img id = ""stim"" ><div class = red_square id = bottomsquare></div>",null,encoding,word_square,,,0,bottomsquare,none,false,,,BANK,7,,,
html-keyboard-response,886,2748870,null,"<div style=""font-size:42px;"">BANK</div>",null,,word,BANK,,,,,,,,,,,,
html-keyboard-response,887,2750373,277.1000000014901,"",32,,word,BANK,,,,,,,,,,,,
html-keyboard-response,888,2750581,null,"<div style=""font-size:42px;"">BOXER</div><img id = ""stim"" ><div class = green_square id = bottomsquare></div>",null,encoding,word_square,,,1,bottomsquare,32,true,,,BOXER,7,,,
html-keyboard-response,889,2750888,null,"<div style=""font-size:42px;"">BOXER</div>",null,,word,BOXER,,,,,,,,,,,,
html-keyboard-response,890,2752391,14.400000005960464,"",32,,word,BOXER,,,,,,,,,,,,
html-keyboard-response,891,2752599,null,"<div style=""font-size:42px;"">OFFICE</div><img id = ""stim"" ><div class = green_square id = topsquare></div>",null,encoding,word_square,,,1,topsquare,32,true,,,OFFICE,7,,,
html-keyboard-response,892,2752906,265.20000000298023,"<div style=""font-size:42px;"">OFFICE</div>",32,,word,OFFICE,,,,,,,,,,,,
html-keyboard-response,893,2754409,null,"",null,,word,OFFICE,,,,,,,,,,,,
html-keyboard-response,894,2754615,null,"<div style=""font-size:42px;"">TERMITE</div><img id = ""stim"" ><div class = red_square id = topsquare></div>",null,encoding,word_square,,,0,topsquare,none,true,,,TERMITE,7,,,
html-keyboard-response,895,2754920,null,"<div style=""font-size:42px;"">TERMITE</div>",null,,word,TERMITE,,,,,,,,,,,,
html-keyboard-response,896,2756422,null,"",null,,word,TERMITE,,,,,,,,,,,,
html-keyboard-response,897,2756625,null,"<div style=""font-size:42px;"">MUMMY</div><img id = ""stim"" ><div class = red_square id = bottomsquare></div>",null,encoding,word_square,,,0,bottomsquare,none,true,,,MUMMY,7,,,
html-keyboard-response,898,2756932,null,"<div style=""font-size:42px;"">MUMMY</div>",null,,word,MUMMY,,,,,,,,,,,,
html-keyboard-response,899,2758434,null,"",null,,word,MUMMY,,,,,,,,,,,,
call-function,900,2758436,,"",,,,,,,,,,,,,,,,
html-keyboard-response,901,2758542,null,"",null,,,,,,,,,,,,,,,
math-period,902,2760481,3736.2000000029802,"",,,,,,,,,,,1,,,,,
html-keyboard-response,903,2760586,null,"",null,,,,,,,,,,,,,,,
math-period,904,2761547,1852.9999999925494,"",,,,,,,,,,,3,,,,,
html-keyboard-response,905,2761649,null,"",null,,,,,,,,,,,,,,,
math-period,906,2762435,1481.6999999955297,"",,,,,,,,,,,3,,,,,
html-keyboard-response,907,2762537,null,"",null,,,,,,,,,,,,,,,
math-period,908,2763532,1913.2999999970198,"",,,,,,,,,,,5,,,,,
html-keyboard-response,909,2763635,null,"",null,,,,,,,,,,,,,,,
math-period,910,2764558,1775.8999999985099,"",,,,,,,,,,,3,,,,,
html-keyboard-response,911,2764662,null,"",null,,,,,,,,,,,,,,,
math-period,912,2765910,2415,"",,,,,,,,,,,4,,,,,
html-keyboard-response,913,2766017,null,"",null,,,,,,,,,,,,,,,
math-period,914,2766761,1409.1000000014901,"",,,,,,,,,,,4,,,,,
html-keyboard-response,915,2766866,null,"",null,,,,,,,,,,,,,,,
math-period,916,2768613,3400.89999999851,"",,,,,,,,,,,1,,,,,
html-keyboard-response,917,2768720,null,"",null,,,,,,,,,,,,,,,
math-period,918,2769751,2010.7999999970198,"",,,,,,,,,,,3,,,,,
html-keyboard-response,919,2769852,null,"",null,,,,,,,,,,,,,,,
math-period,920,2771147,2525.89999999851,"",,,,,,,,,,,4,,,,,
html-keyboard-response,921,2771254,null,"",null,,,,,,,,,,,,,,,
math-period,922,2772165,1770.8999999985099,"",,,,,,,,,,,3,,,,,
html-keyboard-response,923,2772268,null,"",null,,,,,,,,,,,,,,,
math-period,924,2773895,3175.0000000074506,"",,,,,,,,,,,2,,,,,
html-keyboard-response,925,2774002,null,"",null,,,,,,,,,,,,,,,
math-period,926,2775027,1972.1999999955297,"",,,,,,,,,,,5,,,,,
html-keyboard-response,927,2775131,null,"",null,,,,,,,,,,,,,,,
math-period,928,2776016,1710.7000000104308,"",,,,,,,,,,,3,,,,,
html-keyboard-response,929,2776120,null,"",null,,,,,,,,,,,,,,,
math-period,930,2777064,1809.9000000059605,"",,,,,,,,,,,4,,,,,
html-keyboard-response,931,2777169,null,"",null,,,,,,,,,,,,,,,
math-period,932,2778243,2074.89999999851,"",,,,,,,,,,,1,,,,,
