trial_type,trial_index,time_elapsed,rt,stimulus,key_press,exp_phase,test_part,word,task,targ_cond,sq_pos,correctKeyCode,correct,value,response,Word,List,RecResp,serial_pos,colorChosen
pavlovia,0,2088,,"",,,,,,,,,,,,,,,,
external-html,1,7910,5811.099999904633,"",,,,,,,,,,,,,,,,
html-keyboard-response,2,9199,1286.5,"Welcome to the experiment. Press any key to begin.",32,,,,,,,,,,,,,,,
html-keyboard-response,3,13318,4117.199999809265,"<p>You will see a list of words and colored squares in the following task.<p><p>Press the spacebar whenever you see a red square.<p><p>Do not press a key if the square is green.<p><p>Press the spacebar to continue.</p>",32,,,,,,,,,,,,,,,
html-keyboard-response,4,18598,4778.200000047684,"<p>Please try to remember as many of the words as you can, and try to think about the meaning of each word as it appears.<p><p>After the detection and encoding task you will be asked to solve some math problems for 24 seconds.<p> Please solve as many problems as you can in the time given. <p><p><p>Press the spacebar to continue.</p>",32,,,,,,,,,,,,,,,
html-keyboard-response,5,19783,679,"After solving the math problems, you will be asked to type in as many words <p>from the previous list as you can remember for 75 seconds.<p> If you finish recalling before the 75 seconds are up,<p> just sit tight and try to think of any more words you could have missed. <p><p><p>Press the spacebar to continue.</p>",32,,,,,,,,,,,,,,,
html-keyboard-response,6,21292,997.7000000476837,"There will be 16 lists of words and recall, followed  by<p><p> a recognition phase. The experiment is expected to take up to 90 minutes.<p>We will begin with a brief practice session.<p>Press the spacebar to begin the practice.</p>",32,,,,,,,,,,,,,,,
html-keyboard-response,7,23818,null,"<div style=""font-size:60px;"">+</div>",null,,,,,,,,,,,,,,,
html-keyboard-response,8,24022,null,"<div style=""font-size:42px;"">HAPPY</div><img id = ""stim"" ><div class = green_square id = ""bottomsquare"" ></div>",null,practice,word_square,HAPPY,prac_response,0,Bottom,none,false,,,,,,,
html-keyboard-response,9,24335,null,"<div style=""font-size:42px;"">HAPPY</div>",null,,word,HAPPY,,,,,,,,,,,,
html-keyboard-response,10,25849,276.90000009536743,"",32,,word,HAPPY,,,,,,,,,,,,
html-keyboard-response,11,26052,null,"<div style=""font-size:42px;"">COLD</div><img id = ""stim"" ><div class = red_square id = ""bottomsquare"" ></div>",null,practice,word_square,COLD,prac_response,1,Bottom,32,true,,,,,,,
html-keyboard-response,12,26366,278.7999999523163,"<div style=""font-size:42px;"">COLD</div>",32,,word,COLD,,,,,,,,,,,,
html-keyboard-response,13,27882,null,"",null,,word,COLD,,,,,,,,,,,,
html-keyboard-response,14,28085,null,"<div style=""font-size:42px;"">HEAVY</div><img id = ""stim"" ><div class = red_square id = ""topsquare"" ></div>",null,practice,word_square,HEAVY,prac_response,1,Top,32,true,,,,,,,
html-keyboard-response,15,28397,null,"<div style=""font-size:42px;"">HEAVY</div>",null,,word,HEAVY,,,,,,,,,,,,
html-keyboard-response,16,29912,117,"",32,,word,HEAVY,,,,,,,,,,,,
html-keyboard-response,17,30116,null,"<div style=""font-size:42px;"">FUNNY</div><img id = ""stim"" ><div class = green_square id = ""topsquare"" ></div>",null,practice,word_square,FUNNY,prac_response,0,Top,none,true,,,,,,,
html-keyboard-response,18,30429,null,"<div style=""font-size:42px;"">FUNNY</div>",null,,word,FUNNY,,,,,,,,,,,,
html-keyboard-response,19,31945,null,"",null,,word,FUNNY,,,,,,,,,,,,
html-keyboard-response,20,32150,null,"<div style=""font-size:42px;"">SCARY</div><img id = ""stim"" ><div class = red_square id = ""bottomsquare"" ></div>",null,practice,word_square,SCARY,prac_response,1,Bottom,32,true,,,,,,,
html-keyboard-response,21,32464,null,"<div style=""font-size:42px;"">SCARY</div>",null,,word,SCARY,,,,,,,,,,,,
html-keyboard-response,22,33969,67.09999990463257,"",32,,word,SCARY,,,,,,,,,,,,
html-keyboard-response,23,34172,null,"<div style=""font-size:42px;"">PEACEFUL</div><img id = ""stim"" ><div class = red_square id = ""topsquare"" ></div>",null,practice,word_square,PEACEFUL,prac_response,1,Top,32,true,,,,,,,
html-keyboard-response,24,34484,null,"<div style=""font-size:42px;"">PEACEFUL</div>",null,,word,PEACEFUL,,,,,,,,,,,,
html-keyboard-response,25,35997,110.10000014305115,"",32,,word,PEACEFUL,,,,,,,,,,,,
html-keyboard-response,26,36202,null,"<div style=""font-size:42px;"">LITTLE</div><img id = ""stim"" ><div class = green_square id = ""bottomsquare"" ></div>",null,practice,word_square,LITTLE,prac_response,0,Bottom,none,false,,,,,,,
html-keyboard-response,27,36516,null,"<div style=""font-size:42px;"">LITTLE</div>",null,,word,LITTLE,,,,,,,,,,,,
html-keyboard-response,28,38032,558.2999999523163,"",32,,word,LITTLE,,,,,,,,,,,,
html-keyboard-response,29,38235,null,"<div style=""font-size:42px;"">TIRED</div><img id = ""stim"" ><div class = green_square id = ""topsquare"" ></div>",null,practice,word_square,TIRED,prac_response,0,Top,none,true,,,,,,,
html-keyboard-response,30,38547,null,"<div style=""font-size:42px;"">TIRED</div>",null,,word,TIRED,,,,,,,,,,,,
html-keyboard-response,31,40062,null,"",null,,word,TIRED,,,,,,,,,,,,
html-keyboard-response,32,40266,null,"<div style=""font-size:42px;"">ENTERTAINING</div><img id = ""stim"" ><div class = green_square id = ""bottomsquare"" ></div>",null,practice,word_square,ENTERTAINING,prac_response,0,Bottom,none,true,,,,,,,
html-keyboard-response,33,40574,null,"<div style=""font-size:42px;"">ENTERTAINING</div>",null,,word,ENTERTAINING,,,,,,,,,,,,
html-keyboard-response,34,42078,null,"",null,,word,ENTERTAINING,,,,,,,,,,,,
html-keyboard-response,35,42279,null,"<div style=""font-size:42px;"">GRATEFUL</div><img id = ""stim"" ><div class = red_square id = ""bottomsquare"" ></div>",null,practice,word_square,GRATEFUL,prac_response,1,Bottom,32,true,,,,,,,
html-keyboard-response,36,42592,null,"<div style=""font-size:42px;"">GRATEFUL</div>",null,,word,GRATEFUL,,,,,,,,,,,,
html-keyboard-response,37,44107,260.5,"",32,,word,GRATEFUL,,,,,,,,,,,,
html-keyboard-response,38,44310,null,"<div style=""font-size:42px;"">LOUD</div><img id = ""stim"" ><div class = green_square id = ""topsquare"" ></div>",null,practice,word_square,LOUD,prac_response,0,Top,none,true,,,,,,,
html-keyboard-response,39,44626,null,"<div style=""font-size:42px;"">LOUD</div>",null,,word,LOUD,,,,,,,,,,,,
html-keyboard-response,40,46141,null,"",null,,word,LOUD,,,,,,,,,,,,
html-keyboard-response,41,46347,null,"<div style=""font-size:42px;"">SMART</div><img id = ""stim"" ><div class = red_square id = ""topsquare"" ></div>",null,practice,word_square,SMART,prac_response,1,Top,32,true,,,,,,,
html-keyboard-response,42,46665,null,"<div style=""font-size:42px;"">SMART</div>",null,,word,SMART,,,,,,,,,,,,
html-keyboard-response,43,48177,72.90000009536743,"",32,,word,SMART,,,,,,,,,,,,
html-keyboard-response,44,48396,null,"<div style=""font-size:42px;"">SMOOTH</div><img id = ""stim"" ><div class = red_square id = ""bottomsquare"" ></div>",null,practice,word_square,SMOOTH,prac_response,1,Bottom,32,true,,,,,,,
html-keyboard-response,45,48709,null,"<div style=""font-size:42px;"">SMOOTH</div>",null,,word,SMOOTH,,,,,,,,,,,,
html-keyboard-response,46,50220,494.30000019073486,"",32,,word,SMOOTH,,,,,,,,,,,,
html-keyboard-response,47,50424,null,"<div style=""font-size:42px;"">DISHONEST</div><img id = ""stim"" ><div class = green_square id = ""bottomsquare"" ></div>",null,practice,word_square,DISHONEST,prac_response,0,Bottom,none,true,,,,,,,
html-keyboard-response,48,50736,null,"<div style=""font-size:42px;"">DISHONEST</div>",null,,word,DISHONEST,,,,,,,,,,,,
html-keyboard-response,49,52243,null,"",null,,word,DISHONEST,,,,,,,,,,,,
html-keyboard-response,50,52460,null,"<div style=""font-size:42px;"">WEALTHY</div><img id = ""stim"" ><div class = red_square id = ""topsquare"" ></div>",null,practice,word_square,WEALTHY,prac_response,1,Top,32,true,,,,,,,
html-keyboard-response,51,52774,null,"<div style=""font-size:42px;"">WEALTHY</div>",null,,word,WEALTHY,,,,,,,,,,,,
html-keyboard-response,52,54290,27.59999990463257,"",32,,word,WEALTHY,,,,,,,,,,,,
html-keyboard-response,53,54495,null,"<div style=""font-size:42px;"">BEAUTIFUL</div><img id = ""stim"" ><div class = green_square id = ""topsquare"" ></div>",null,practice,word_square,BEAUTIFUL,prac_response,0,Top,none,true,,,,,,,
html-keyboard-response,54,54809,null,"<div style=""font-size:42px;"">BEAUTIFUL</div>",null,,word,BEAUTIFUL,,,,,,,,,,,,
html-keyboard-response,55,56325,null,"",null,,word,BEAUTIFUL,,,,,,,,,,,,
html-keyboard-response,56,65525,9197.099999904633,"<p> Good job! You responded correctly to 88% of the trials. </p>
                  <p>Be sure to only press the spacebar if you see a red square, and please keep your accuracy above 80%.</p>
                  <p>We're going to try once more to make sure you understand the task. press any key to continue. </p>",32,,,,,,,,,,,,,,,
html-keyboard-response,57,72803,7277.700000047684,"<p>You will see a list of words and colored squares in the following task.<p><p>Press the spacebar whenever you see a red square.<p><p>Do not press a key if the square is green<p><p>Press the spacebar to continue.</p>",32,,,,,,,,,,,,,,,
html-keyboard-response,58,75328,null,"<div style=""font-size:60px;"">+</div>",null,,,,,,,,,,,,,,,
html-keyboard-response,59,75531,null,"<div style=""font-size:42px;"">HAPPY</div><img id = ""stim"" ><div class = green_square id = ""bottomsquare"" ></div>",null,practice2,word_square,HAPPY,prac_response,0,Bottom,none,true,,,,,,,
html-keyboard-response,60,75843,null,"<div style=""font-size:42px;"">HAPPY</div>",null,,word,HAPPY,,,,,,,,,,,,
html-keyboard-response,61,77348,null,"",null,,word,HAPPY,,,,,,,,,,,,
html-keyboard-response,62,77551,null,"<div style=""font-size:42px;"">COLD</div><img id = ""stim"" ><div class = red_square id = ""bottomsquare"" ></div>",null,practice2,word_square,,prac_response,1,Bottom,32,true,,,,,,,
html-keyboard-response,63,77865,null,"<div style=""font-size:42px;"">COLD</div>",null,,word,COLD,,,,,,,,,,,,
html-keyboard-response,64,79380,107.70000004768372,"",32,,word,COLD,,,,,,,,,,,,
html-keyboard-response,65,79584,null,"<div style=""font-size:42px;"">HEAVY</div><img id = ""stim"" ><div class = red_square id = ""topsquare"" ></div>",null,practice2,word_square,,prac_response,1,Top,32,true,,,,,,,
html-keyboard-response,66,79896,null,"<div style=""font-size:42px;"">HEAVY</div>",null,,word,HEAVY,,,,,,,,,,,,
html-keyboard-response,67,81413,92.10000014305115,"",32,,word,HEAVY,,,,,,,,,,,,
html-keyboard-response,68,81616,null,"<div style=""font-size:42px;"">FUNNY</div><img id = ""stim"" ><div class = green_square id = ""topsquare"" ></div>",null,practice2,word_square,,prac_response,0,Top,none,true,,,,,,,
html-keyboard-response,69,81930,null,"<div style=""font-size:42px;"">FUNNY</div>",null,,word,FUNNY,,,,,,,,,,,,
html-keyboard-response,70,83432,null,"",null,,word,FUNNY,,,,,,,,,,,,
html-keyboard-response,71,83637,null,"<div style=""font-size:42px;"">SCARY</div><img id = ""stim"" ><div class = red_square id = ""bottomsquare"" ></div>",null,practice2,word_square,,prac_response,1,Bottom,32,true,,,,,,,
html-keyboard-response,72,83946,213.20000004768372,"<div style=""font-size:42px;"">SCARY</div>",32,,word,SCARY,,,,,,,,,,,,
html-keyboard-response,73,85463,null,"",null,,word,SCARY,,,,,,,,,,,,
html-keyboard-response,74,85666,null,"<div style=""font-size:42px;"">PEACEFUL</div><img id = ""stim"" ><div class = red_square id = ""topsquare"" ></div>",null,practice2,word_square,,prac_response,1,Top,32,true,,,,,,,
html-keyboard-response,75,85980,null,"<div style=""font-size:42px;"">PEACEFUL</div>",null,,word,PEACEFUL,,,,,,,,,,,,
html-keyboard-response,76,87495,60.40000009536743,"",32,,word,PEACEFUL,,,,,,,,,,,,
html-keyboard-response,77,87698,null,"<div style=""font-size:42px;"">LITTLE</div><img id = ""stim"" ><div class = green_square id = ""bottomsquare"" ></div>",null,practice2,word_square,LITTLE,prac_response,0,Bottom,none,true,,,,,,,
html-keyboard-response,78,88009,null,"<div style=""font-size:42px;"">LITTLE</div>",null,,word,LITTLE,,,,,,,,,,,,
html-keyboard-response,79,89519,null,"",null,,word,LITTLE,,,,,,,,,,,,
html-keyboard-response,80,89723,null,"<div style=""font-size:42px;"">TIRED</div><img id = ""stim"" ><div class = green_square id = ""topsquare"" ></div>",null,practice2,word_square,,prac_response,0,Top,none,true,,,,,,,
html-keyboard-response,81,90037,null,"<div style=""font-size:42px;"">TIRED</div>",null,,word,TIRED,,,,,,,,,,,,
html-keyboard-response,82,91554,null,"",null,,word,TIRED,,,,,,,,,,,,
html-keyboard-response,83,91771,null,"<div style=""font-size:42px;"">ENTERTAINING</div><img id = ""stim"" ><div class = green_square id = ""bottomsquare"" ></div>",null,practice2,word_square,ENTERTAINING,prac_response,0,Bottom,none,true,,,,,,,
html-keyboard-response,84,92087,null,"<div style=""font-size:42px;"">ENTERTAINING</div>",null,,word,ENTERTAINING,,,,,,,,,,,,
html-keyboard-response,85,93603,null,"",null,,word,ENTERTAINING,,,,,,,,,,,,
html-keyboard-response,86,93807,null,"<div style=""font-size:42px;"">GRATEFUL</div><img id = ""stim"" ><div class = red_square id = ""bottomsquare"" ></div>",null,practice2,word_square,,prac_response,1,Bottom,32,true,,,,,,,
html-keyboard-response,87,94123,267.2999999523163,"<div style=""font-size:42px;"">GRATEFUL</div>",32,,word,GRATEFUL,,,,,,,,,,,,
html-keyboard-response,88,95638,null,"",null,,word,GRATEFUL,,,,,,,,,,,,
html-keyboard-response,89,95842,null,"<div style=""font-size:42px;"">LOUD</div><img id = ""stim"" ><div class = green_square id = ""topsquare"" ></div>",null,practice2,word_square,,prac_response,0,Top,none,true,,,,,,,
html-keyboard-response,90,96153,null,"<div style=""font-size:42px;"">LOUD</div>",null,,word,LOUD,,,,,,,,,,,,
html-keyboard-response,91,97669,null,"",null,,word,LOUD,,,,,,,,,,,,
html-keyboard-response,92,97871,null,"<div style=""font-size:42px;"">SMART</div><img id = ""stim"" ><div class = red_square id = ""topsquare"" ></div>",null,practice2,word_square,,prac_response,1,Top,32,true,,,,,,,
html-keyboard-response,93,98186,288.10000014305115,"<div style=""font-size:42px;"">SMART</div>",32,,word,SMART,,,,,,,,,,,,
html-keyboard-response,94,99688,null,"",null,,word,SMART,,,,,,,,,,,,
html-keyboard-response,95,99891,null,"<div style=""font-size:42px;"">SMOOTH</div><img id = ""stim"" ><div class = red_square id = ""bottomsquare"" ></div>",null,practice2,word_square,,prac_response,1,Bottom,32,true,,,,,,,
html-keyboard-response,96,100193,300.90000009536743,"<div style=""font-size:42px;"">SMOOTH</div>",32,,word,SMOOTH,,,,,,,,,,,,
html-keyboard-response,97,101705,null,"",null,,word,SMOOTH,,,,,,,,,,,,
html-keyboard-response,98,101910,null,"<div style=""font-size:42px;"">DISHONEST</div><img id = ""stim"" ><div class = green_square id = ""bottomsquare"" ></div>",null,practice2,word_square,DISHONEST,prac_response,0,Bottom,none,true,,,,,,,
html-keyboard-response,99,102226,null,"<div style=""font-size:42px;"">DISHONEST</div>",null,,word,DISHONEST,,,,,,,,,,,,
html-keyboard-response,100,103740,null,"",null,,word,DISHONEST,,,,,,,,,,,,
html-keyboard-response,101,103957,null,"<div style=""font-size:42px;"">WEALTHY</div><img id = ""stim"" ><div class = red_square id = ""topsquare"" ></div>",null,practice2,word_square,,prac_response,1,Top,32,true,,,,,,,
html-keyboard-response,102,104270,249.70000004768372,"<div style=""font-size:42px;"">WEALTHY</div>",32,,word,WEALTHY,,,,,,,,,,,,
html-keyboard-response,103,105775,null,"",null,,word,WEALTHY,,,,,,,,,,,,
html-keyboard-response,104,105978,null,"<div style=""font-size:42px;"">BEAUTIFUL</div><img id = ""stim"" ><div class = green_square id = ""topsquare"" ></div>",null,practice2,word_square,,prac_response,0,Top,none,true,,,,,,,
html-keyboard-response,105,106289,null,"<div style=""font-size:42px;"">BEAUTIFUL</div>",null,,word,BEAUTIFUL,,,,,,,,,,,,
html-keyboard-response,106,107806,null,"",null,,word,BEAUTIFUL,,,,,,,,,,,,
html-keyboard-response,107,110059,2251.7999999523163,"<p> Good job! You responded correctly to 100% of the trials. </p>
                    <p>Be sure to only press the spacebar if you see a red square, and please keep your accuracy above 80%.</p>
                    <p>Press any key to begin the math and recall sections. Thank you! </p>",32,,,,,,,,,,,,,,,
call-function,108,110061,,"",,,,,,,,,,,,,,,,
html-keyboard-response,109,110168,null,"",null,,,,,,,,,,,,,,,
math-period,110,117809,11746.799999952316,"",,,,,,,,,,,5numpad,,,,,
html-keyboard-response,111,117923,null,"",null,,,,,,,,,,,,,,,
math-period,112,120387,4157.100000143051,"",,,,,,,,,,,5,,,,,
html-keyboard-response,113,120503,null,"",null,,,,,,,,,,,,,,,
math-period,114,122232,3232.199999809265,"",,,,,,,,,,,2,,,,,
html-keyboard-response,115,122346,null,"",null,,,,,,,,,,,,,,,
math-period,116,125663,6459.5,"",,,,,,,,,,,1,,,,,
html-keyboard-response,117,125773,null,"",null,,,,,,,,,,,,,,,
math-period,118,129008,6142.60000038147,"",,,,,,,,,,,1,,,,,
html-keyboard-response,119,129119,null,"",null,,,,,,,,,,,,,,,
math-period,120,132504,6514.099999904633,"",,,,,,,,,,,2,,,,,
html-keyboard-response,121,132617,null,"",null,,,,,,,,,,,,,,,
math-period,122,134072,null,"",,,,,,,,,,,,,,,,
html-keyboard-response,123,135079,null,"Recall Period!",null,,,,,,,,,,,,,,,
call-function,124,135080,,"",,,,,,,,,,,,,,,,
html-keyboard-response,125,135187,null,"",null,,,,,,,,,,,,,,,
recall-period,126,142727,27291.699999809265,"",,,,,,,,,,,cold,,,,,
html-keyboard-response,127,142843,null,"",null,,,,,,,,,,,,,,,
recall-period,128,145575,13454.300000429153,"",,,,,,,,,,,smooth,,,,,
html-keyboard-response,129,145686,null,"",null,,,,,,,,,,,,,,,
recall-period,130,153397,43538.60000014305,"",,,,,,,,,,,happy,,,,,
html-keyboard-response,131,153509,null,"",null,,,,,,,,,,,,,,,
recall-period,132,160279,37520.20000076294,"",,,,,,,,,,,funny,,,,,
html-keyboard-response,133,160392,null,"",null,,,,,,,,,,,,,,,
recall-period,134,210092,null,"",,,,,,,,,,,,,,,,
html-keyboard-response,135,210610,null,"Time's Up!",null,,,,,,,,,,,,,,,
html-keyboard-response,136,217925,7313.099999904633,"<p>We will now begin the experiment!<p><p>Please try to remember all words from each list.<p><p>Press the spacebar whenever you see a red square.<p><p><p><p>Press the spacebar to begin.</p>",32,,,,,,,,,,,,,,,
html-keyboard-response,137,222039,3610.5999999046326,"<div style=""font-size:48px;"">Press any key to begin list 1 of 16 </div>",32,,,,,,,,,,,,,,,
html-keyboard-response,138,224570,null,"<div style=""font-size:60px;"">+</div>",null,,,,,,,,,,,,,,,
html-keyboard-response,139,224772,null,"<div style=""font-size:42px;"">BRACELET</div><img id = ""stim"" ><div class = red_square id = topsquare></div>",null,encoding,word_square,,,1,topsquare,32,true,,,BRACELET,0,,,
html-keyboard-response,140,225083,null,"<div style=""font-size:42px;"">BRACELET</div>",null,,word,BRACELET,,,,,,,,,,,,
html-keyboard-response,141,226599,505.59999990463257,"",32,,word,BRACELET,,,,,,,,,,,,
html-keyboard-response,142,226801,null,"<div style=""font-size:42px;"">PORTRAIT</div><img id = ""stim"" ><div class = green_square id = bottomsquare></div>",null,encoding,word_square,,,0,bottomsquare,none,true,,,PORTRAIT,0,,,
html-keyboard-response,143,227115,null,"<div style=""font-size:42px;"">PORTRAIT</div>",null,,word,PORTRAIT,,,,,,,,,,,,
html-keyboard-response,144,228629,null,"",null,,word,PORTRAIT,,,,,,,,,,,,
html-keyboard-response,145,228834,null,"<div style=""font-size:42px;"">LUMBER</div><img id = ""stim"" ><div class = green_square id = topsquare></div>",null,encoding,word_square,,,0,topsquare,none,true,,,LUMBER,0,,,
html-keyboard-response,146,229149,null,"<div style=""font-size:42px;"">LUMBER</div>",null,,word,LUMBER,,,,,,,,,,,,
html-keyboard-response,147,230662,null,"",null,,word,LUMBER,,,,,,,,,,,,
html-keyboard-response,148,230867,null,"<div style=""font-size:42px;"">RODENT</div><img id = ""stim"" ><div class = red_square id = bottomsquare></div>",null,encoding,word_square,,,1,bottomsquare,32,true,,,RODENT,0,,,
html-keyboard-response,149,231179,null,"<div style=""font-size:42px;"">RODENT</div>",null,,word,RODENT,,,,,,,,,,,,
html-keyboard-response,150,232693,211.90000009536743,"",32,,word,RODENT,,,,,,,,,,,,
html-keyboard-response,151,232897,null,"<div style=""font-size:42px;"">POSSUM</div><img id = ""stim"" ><div class = green_square id = bottomsquare></div>",null,encoding,word_square,,,0,bottomsquare,none,true,,,POSSUM,0,,,
html-keyboard-response,152,233211,null,"<div style=""font-size:42px;"">POSSUM</div>",null,,word,POSSUM,,,,,,,,,,,,
html-keyboard-response,153,234724,null,"",null,,word,POSSUM,,,,,,,,,,,,
html-keyboard-response,154,234941,null,"<div style=""font-size:42px;"">MOTHER</div><img id = ""stim"" ><div class = green_square id = topsquare></div>",null,encoding,word_square,,,0,topsquare,none,true,,,MOTHER,0,,,
html-keyboard-response,155,235254,null,"<div style=""font-size:42px;"">MOTHER</div>",null,,word,MOTHER,,,,,,,,,,,,
html-keyboard-response,156,236769,null,"",null,,word,MOTHER,,,,,,,,,,,,
html-keyboard-response,157,236971,null,"<div style=""font-size:42px;"">SPONGE</div><img id = ""stim"" ><div class = red_square id = topsquare></div>",null,encoding,word_square,,,1,topsquare,32,true,,,SPONGE,0,,,
html-keyboard-response,158,237285,null,"<div style=""font-size:42px;"">SPONGE</div>",null,,word,SPONGE,,,,,,,,,,,,
html-keyboard-response,159,238797,43.69999980926514,"",32,,word,SPONGE,,,,,,,,,,,,
html-keyboard-response,160,239001,null,"<div style=""font-size:42px;"">RIVER</div><img id = ""stim"" ><div class = red_square id = bottomsquare></div>",null,encoding,word_square,,,1,bottomsquare,32,true,,,RIVER,0,,,
html-keyboard-response,161,239315,null,"<div style=""font-size:42px;"">RIVER</div>",null,,word,RIVER,,,,,,,,,,,,
html-keyboard-response,162,240830,432.10000014305115,"",32,,word,RIVER,,,,,,,,,,,,
html-keyboard-response,163,241037,null,"<div style=""font-size:42px;"">DRAWING</div><img id = ""stim"" ><div class = green_square id = bottomsquare></div>",null,encoding,word_square,,,0,bottomsquare,none,true,,,DRAWING,0,,,
html-keyboard-response,164,241343,null,"<div style=""font-size:42px;"">DRAWING</div>",null,,word,DRAWING,,,,,,,,,,,,
html-keyboard-response,165,242856,null,"",null,,word,DRAWING,,,,,,,,,,,,
html-keyboard-response,166,243059,null,"<div style=""font-size:42px;"">COMPASS</div><img id = ""stim"" ><div class = green_square id = topsquare></div>",null,encoding,word_square,,,0,topsquare,none,true,,,COMPASS,0,,,
html-keyboard-response,167,243372,null,"<div style=""font-size:42px;"">COMPASS</div>",null,,word,COMPASS,,,,,,,,,,,,
html-keyboard-response,168,244877,null,"",null,,word,COMPASS,,,,,,,,,,,,
html-keyboard-response,169,245081,null,"<div style=""font-size:42px;"">THICKET</div><img id = ""stim"" ><div class = red_square id = topsquare></div>",null,encoding,word_square,,,1,topsquare,32,true,,,THICKET,0,,,
html-keyboard-response,170,245392,null,"<div style=""font-size:42px;"">THICKET</div>",null,,word,THICKET,,,,,,,,,,,,
html-keyboard-response,171,246906,45.59999990463257,"",32,,word,THICKET,,,,,,,,,,,,
html-keyboard-response,172,247110,null,"<div style=""font-size:42px;"">PANTS</div><img id = ""stim"" ><div class = red_square id = bottomsquare></div>",null,encoding,word_square,,,1,bottomsquare,32,true,,,PANTS,0,,,
html-keyboard-response,173,247423,null,"<div style=""font-size:42px;"">PANTS</div>",null,,word,PANTS,,,,,,,,,,,,
html-keyboard-response,174,248937,339.40000009536743,"",32,,word,PANTS,,,,,,,,,,,,
html-keyboard-response,175,249140,null,"<div style=""font-size:42px;"">LACE</div><img id = ""stim"" ><div class = green_square id = bottomsquare></div>",null,encoding,word_square,,,0,bottomsquare,none,true,,,LACE,0,,,
html-keyboard-response,176,249453,null,"<div style=""font-size:42px;"">LACE</div>",null,,word,LACE,,,,,,,,,,,,
html-keyboard-response,177,250968,null,"",null,,word,LACE,,,,,,,,,,,,
html-keyboard-response,178,251186,null,"<div style=""font-size:42px;"">FLASK</div><img id = ""stim"" ><div class = red_square id = topsquare></div>",null,encoding,word_square,,,1,topsquare,32,true,,,FLASK,0,,,
html-keyboard-response,179,251498,null,"<div style=""font-size:42px;"">FLASK</div>",null,,word,FLASK,,,,,,,,,,,,
html-keyboard-response,180,253002,202.09999990463257,"",32,,word,FLASK,,,,,,,,,,,,
html-keyboard-response,181,253205,null,"<div style=""font-size:42px;"">PIGEON</div><img id = ""stim"" ><div class = green_square id = topsquare></div>",null,encoding,word_square,,,0,topsquare,none,true,,,PIGEON,0,,,
html-keyboard-response,182,253521,null,"<div style=""font-size:42px;"">PIGEON</div>",null,,word,PIGEON,,,,,,,,,,,,
html-keyboard-response,183,255032,null,"",null,,word,PIGEON,,,,,,,,,,,,
html-keyboard-response,184,255240,null,"<div style=""font-size:42px;"">PERCH</div><img id = ""stim"" ><div class = red_square id = bottomsquare></div>",null,encoding,word_square,,,1,bottomsquare,32,true,,,PERCH,0,,,
html-keyboard-response,185,255553,null,"<div style=""font-size:42px;"">PERCH</div>",null,,word,PERCH,,,,,,,,,,,,
html-keyboard-response,186,257069,130,"",32,,word,PERCH,,,,,,,,,,,,
call-function,187,257071,,"",,,,,,,,,,,,,,,,
html-keyboard-response,188,257172,null,"",null,,,,,,,,,,,,,,,
math-period,189,260588,5428.299999713898,"",,,,,,,,,,,4,,,,,
html-keyboard-response,190,260699,null,"",null,,,,,,,,,,,,,,,
math-period,191,264635,6288.399999856949,"",,,,,,,,,,,2,,,,,
html-keyboard-response,192,264751,null,"",null,,,,,,,,,,,,,,,
math-period,193,266420,3191.2999999523163,"",,,,,,,,,,,2,,,,,
html-keyboard-response,194,266523,null,"",null,,,,,,,,,,,,,,,
math-period,195,269300,9241.999999761581,"",,,,,,,,,,,5,,,,,
html-keyboard-response,196,269413,null,"",null,,,,,,,,,,,,,,,
math-period,197,270818,2705,"",,,,,,,,,,,3,,,,,
html-keyboard-response,198,270925,null,"",null,,,,,,,,,,,,,,,
math-period,199,273743,5563.299999952316,"",,,,,,,,,,,2,,,,,
html-keyboard-response,200,273854,null,"",null,,,,,,,,,,,,,,,
math-period,201,276456,5089.999999761581,"",,,,,,,,,,,1,,,,,
html-keyboard-response,202,276558,null,"",null,,,,,,,,,,,,,,,
math-period,203,277879,2636.9000000953674,"",,,,,,,,,,,2,,,,,
html-keyboard-response,204,277996,null,"",null,,,,,,,,,,,,,,,
math-period,205,281084,10442.400000095367,"",,,,,,,,,,,6,,,,,
html-keyboard-response,206,282087,null,"Recall Period!",null,,,,,,,,,,,,,,,
call-function,207,282087,,"",,,,,,,,,,,,,,,,
html-keyboard-response,208,282196,null,"",null,,,,,,,,,,,,,,,
recall-period,209,287618,34654.50000023842,"",,,,,,,,,,,mother,,,,,
html-keyboard-response,210,287726,null,"",null,,,,,,,,,,,,,,,
recall-period,211,290434,16867.399999141693,"",,,,,,,,,,,river,,,,,
html-keyboard-response,212,290542,null,"",null,,,,,,,,,,,,,,,
recall-period,213,291605,2715.5000002384186,"",,,,,,,,,,,flask,,,,,
html-keyboard-response,214,291710,null,"",null,,,,,,,,,,,,,,,
recall-period,215,295659,32195.799998521805,"",,,,,,,,,,,drawing,,,,,
html-keyboard-response,216,295763,null,"",null,,,,,,,,,,,,,,,
recall-period,217,357097,null,"",,,,,,,,,,,,,,,,
html-keyboard-response,218,357614,null,"Time's Up!",null,,,,,,,,,,,,,,,
html-keyboard-response,219,361676,4060.5,"<p> Good job! You have responded correctly to 100% of the trials. </p>
                      <p>Be sure to only press the spacebar if you see a red square, and please keep your accuracy above 80%.</p>
                      <p> Press any key to continue the experiment. </p>",32,,,,,,,,,,,,,,,
html-keyboard-response,220,362580,903.1000001430511,"<div style=""font-size:48px;"">Press any key to begin list 2 of 16 </div>",32,,,,,,,,,,,,,,,
html-keyboard-response,221,365098,null,"<div style=""font-size:60px;"">+</div>",null,,,,,,,,,,,,,,,
html-keyboard-response,222,365301,null,"<div style=""font-size:42px;"">BALLOON</div><img id = ""stim"" ><div class = red_square id = bottomsquare></div>",null,encoding,word_square,,,1,bottomsquare,32,true,,,BALLOON,1,,,
html-keyboard-response,223,365612,null,"<div style=""font-size:42px;"">BALLOON</div>",null,,word,BALLOON,,,,,,,,,,,,
html-keyboard-response,224,367116,285.7999999523163,"",32,,word,BALLOON,,,,,,,,,,,,
html-keyboard-response,225,367318,null,"<div style=""font-size:42px;"">ROD</div><img id = ""stim"" ><div class = green_square id = topsquare></div>",null,encoding,word_square,,,0,topsquare,none,true,,,ROD,1,,,
html-keyboard-response,226,367628,null,"<div style=""font-size:42px;"">ROD</div>",null,,word,ROD,,,,,,,,,,,,
html-keyboard-response,227,369131,null,"",null,,word,ROD,,,,,,,,,,,,
html-keyboard-response,228,369348,null,"<div style=""font-size:42px;"">HAND</div><img id = ""stim"" ><div class = red_square id = topsquare></div>",null,encoding,word_square,,,1,topsquare,32,true,,,HAND,1,,,
html-keyboard-response,229,369660,null,"<div style=""font-size:42px;"">HAND</div>",null,,word,HAND,,,,,,,,,,,,
html-keyboard-response,230,371168,59.5,"",32,,word,HAND,,,,,,,,,,,,
html-keyboard-response,231,371371,null,"<div style=""font-size:42px;"">JUNGLE</div><img id = ""stim"" ><div class = green_square id = bottomsquare></div>",null,encoding,word_square,,,0,bottomsquare,none,true,,,JUNGLE,1,,,
html-keyboard-response,232,371685,null,"<div style=""font-size:42px;"">JUNGLE</div>",null,,word,JUNGLE,,,,,,,,,,,,
html-keyboard-response,233,373203,null,"",null,,word,JUNGLE,,,,,,,,,,,,
html-keyboard-response,234,373421,null,"<div style=""font-size:42px;"">PRIMATE</div><img id = ""stim"" ><div class = red_square id = bottomsquare></div>",null,encoding,word_square,,,1,bottomsquare,32,true,,,PRIMATE,1,,,
html-keyboard-response,235,373733,null,"<div style=""font-size:42px;"">PRIMATE</div>",null,,word,PRIMATE,,,,,,,,,,,,
html-keyboard-response,236,375247,102.89999985694885,"",32,,word,PRIMATE,,,,,,,,,,,,
html-keyboard-response,237,375450,null,"<div style=""font-size:42px;"">SODA</div><img id = ""stim"" ><div class = red_square id = topsquare></div>",null,encoding,word_square,,,1,topsquare,32,true,,,SODA,1,,,
html-keyboard-response,238,375764,null,"<div style=""font-size:42px;"">SODA</div>",null,,word,SODA,,,,,,,,,,,,
html-keyboard-response,239,377280,244.30000019073486,"",32,,word,SODA,,,,,,,,,,,,
html-keyboard-response,240,377485,null,"<div style=""font-size:42px;"">SIRLOIN</div><img id = ""stim"" ><div class = green_square id = topsquare></div>",null,encoding,word_square,,,0,topsquare,none,true,,,SIRLOIN,1,,,
html-keyboard-response,241,377795,null,"<div style=""font-size:42px;"">SIRLOIN</div>",null,,word,SIRLOIN,,,,,,,,,,,,
html-keyboard-response,242,379310,null,"",null,,word,SIRLOIN,,,,,,,,,,,,
html-keyboard-response,243,379525,null,"<div style=""font-size:42px;"">GLASSES</div><img id = ""stim"" ><div class = green_square id = bottomsquare></div>",null,encoding,word_square,,,0,bottomsquare,none,true,,,GLASSES,1,,,
html-keyboard-response,244,379838,null,"<div style=""font-size:42px;"">GLASSES</div>",null,,word,GLASSES,,,,,,,,,,,,
html-keyboard-response,245,381342,null,"",null,,word,GLASSES,,,,,,,,,,,,
html-keyboard-response,246,381559,null,"<div style=""font-size:42px;"">ADULT</div><img id = ""stim"" ><div class = red_square id = bottomsquare></div>",null,encoding,word_square,,,1,bottomsquare,32,true,,,ADULT,1,,,
html-keyboard-response,247,381867,306.10000014305115,"<div style=""font-size:42px;"">ADULT</div>",32,,word,ADULT,,,,,,,,,,,,
html-keyboard-response,248,383375,null,"",null,,word,ADULT,,,,,,,,,,,,
html-keyboard-response,249,383593,null,"<div style=""font-size:42px;"">SWATTER</div><img id = ""stim"" ><div class = red_square id = topsquare></div>",null,encoding,word_square,,,1,topsquare,32,true,,,SWATTER,1,,,
html-keyboard-response,250,383906,null,"<div style=""font-size:42px;"">SWATTER</div>",null,,word,SWATTER,,,,,,,,,,,,
html-keyboard-response,251,385416,296.40000009536743,"",32,,word,SWATTER,,,,,,,,,,,,
html-keyboard-response,252,385632,null,"<div style=""font-size:42px;"">ARM</div><img id = ""stim"" ><div class = green_square id = topsquare></div>",null,encoding,word_square,,,0,topsquare,none,true,,,ARM,1,,,
html-keyboard-response,253,385944,null,"<div style=""font-size:42px;"">ARM</div>",null,,word,ARM,,,,,,,,,,,,
html-keyboard-response,254,387446,null,"",null,,word,ARM,,,,,,,,,,,,
html-keyboard-response,255,387650,null,"<div style=""font-size:42px;"">COUCH</div><img id = ""stim"" ><div class = green_square id = bottomsquare></div>",null,encoding,word_square,,,0,bottomsquare,none,true,,,COUCH,1,,,
html-keyboard-response,256,387962,null,"<div style=""font-size:42px;"">COUCH</div>",null,,word,COUCH,,,,,,,,,,,,
html-keyboard-response,257,389465,null,"",null,,word,COUCH,,,,,,,,,,,,
html-keyboard-response,258,389682,null,"<div style=""font-size:42px;"">GODDESS</div><img id = ""stim"" ><div class = red_square id = bottomsquare></div>",null,encoding,word_square,,,1,bottomsquare,32,true,,,GODDESS,1,,,
html-keyboard-response,259,389994,null,"<div style=""font-size:42px;"">GODDESS</div>",null,,word,GODDESS,,,,,,,,,,,,
html-keyboard-response,260,391511,194.09999990463257,"",32,,word,GODDESS,,,,,,,,,,,,
html-keyboard-response,261,391717,null,"<div style=""font-size:42px;"">CREATURE</div><img id = ""stim"" ><div class = green_square id = topsquare></div>",null,encoding,word_square,,,0,topsquare,none,true,,,CREATURE,1,,,
html-keyboard-response,262,392030,null,"<div style=""font-size:42px;"">CREATURE</div>",null,,word,CREATURE,,,,,,,,,,,,
html-keyboard-response,263,393537,null,"",null,,word,CREATURE,,,,,,,,,,,,
html-keyboard-response,264,393740,null,"<div style=""font-size:42px;"">PUDDLE</div><img id = ""stim"" ><div class = green_square id = bottomsquare></div>",null,encoding,word_square,,,0,bottomsquare,none,true,,,PUDDLE,1,,,
html-keyboard-response,265,394043,null,"<div style=""font-size:42px;"">PUDDLE</div>",null,,word,PUDDLE,,,,,,,,,,,,
html-keyboard-response,266,395549,null,"",null,,word,PUDDLE,,,,,,,,,,,,
html-keyboard-response,267,395752,null,"<div style=""font-size:42px;"">SLIDE</div><img id = ""stim"" ><div class = red_square id = topsquare></div>",null,encoding,word_square,,,1,topsquare,32,true,,,SLIDE,1,,,
html-keyboard-response,268,396064,null,"<div style=""font-size:42px;"">SLIDE</div>",null,,word,SLIDE,,,,,,,,,,,,
html-keyboard-response,269,397565,297.09999990463257,"",32,,word,SLIDE,,,,,,,,,,,,
call-function,270,397567,,"",,,,,,,,,,,,,,,,
html-keyboard-response,271,397676,null,"",null,,,,,,,,,,,,,,,
math-period,272,400266,4392.400000095367,"",,,,,,,,,,,4,,,,,
html-keyboard-response,273,400381,null,"",null,,,,,,,,,,,,,,,
math-period,274,402113,2983.300000190735,"",,,,,,,,,,,5,,,,,
html-keyboard-response,275,402225,null,"",null,,,,,,,,,,,,,,,
math-period,276,405967,7359.199999809265,"",,,,,,,,,,,3,,,,,
html-keyboard-response,277,406071,null,"",null,,,,,,,,,,,,,,,
math-period,278,408040,3742.4000000953674,"",,,,,,,,,,,4,,,,,
html-keyboard-response,279,408156,null,"",null,,,,,,,,,,,,,,,
math-period,280,409704,2677.7999999523163,"",,,,,,,,,,,5,,,,,
html-keyboard-response,281,409815,null,"",null,,,,,,,,,,,,,,,
math-period,282,411088,2387.7000000476837,"",,,,,,,,,,,6,,,,,
html-keyboard-response,283,411190,null,"",null,,,,,,,,,,,,,,,
math-period,284,412720,2921.5999999046326,"",,,,,,,,,,,1,,,,,
html-keyboard-response,285,412834,null,"",null,,,,,,,,,,,,,,,
math-period,286,415090,4433.899999856949,"",,,,,,,,,,,1,,,,,
html-keyboard-response,287,415197,null,"",null,,,,,,,,,,,,,,,
math-period,288,417280,3633.800000190735,"",,,,,,,,,,,5,,,,,
html-keyboard-response,289,417388,null,"",null,,,,,,,,,,,,,,,
math-period,290,420447,4892.899999856949,"",,,,,,,,,,,2,,,,,
html-keyboard-response,291,420561,null,"",null,,,,,,,,,,,,,,,
math-period,292,421574,null,"",,,,,,,,,,,,,,,,
html-keyboard-response,293,422589,null,"Recall Period!",null,,,,,,,,,,,,,,,
call-function,294,422590,,"",,,,,,,,,,,,,,,,
html-keyboard-response,295,422698,null,"",null,,,,,,,,,,,,,,,
recall-period,296,426064,10051.399999856949,"",,,,,,,,,,,arm,,,,,
html-keyboard-response,297,426173,null,"",null,,,,,,,,,,,,,,,
recall-period,298,438520,200108.70000004768,"",,,,,,,,,,,hand,,,,,
html-keyboard-response,299,438625,null,"",null,,,,,,,,,,,,,,,
recall-period,300,441907,15265.70000052452,"",,,,,,,,,,,couch,,,,,
html-keyboard-response,301,442009,null,"",null,,,,,,,,,,,,,,,
recall-period,302,444694,10154.19999909401,"",,,,,,,,,,,goddess,,,,,
html-keyboard-response,303,444807,null,"",null,,,,,,,,,,,,,,,
recall-period,304,448414,12628.599999189377,"",,,,,,,,,,,creature,,,,,
html-keyboard-response,305,448525,null,"",null,,,,,,,,,,,,,,,
recall-period,306,449900,4337.10000038147,"",,,,,,,,,,,adult,,,,,
html-keyboard-response,307,450010,null,"",null,,,,,,,,,,,,,,,
recall-period,308,497604,null,"",,,,,,,,,,,,,,,,
html-keyboard-response,309,498119,null,"Time's Up!",null,,,,,,,,,,,,,,,
html-keyboard-response,310,504448,6328.099999904633,"<p> Good job! You have responded correctly to 100% of the trials. </p>
                      <p>Be sure to only press the spacebar if you see a red square, and please keep your accuracy above 80%.</p>
                      <p> Press any key to continue the experiment. </p>",32,,,,,,,,,,,,,,,
html-keyboard-response,311,505492,1042.8000001907349,"<div style=""font-size:48px;"">Press any key to begin list 3 of 16 </div>",32,,,,,,,,,,,,,,,
html-keyboard-response,312,508007,null,"<div style=""font-size:60px;"">+</div>",null,,,,,,,,,,,,,,,
html-keyboard-response,313,508226,null,"<div style=""font-size:42px;"">PUPPY</div><img id = ""stim"" ><div class = green_square id = bottomsquare></div>",null,encoding,word_square,,,0,bottomsquare,none,true,,,PUPPY,2,,,
html-keyboard-response,314,508537,null,"<div style=""font-size:42px;"">PUPPY</div>",null,,word,PUPPY,,,,,,,,,,,,
html-keyboard-response,315,510050,null,"",null,,word,PUPPY,,,,,,,,,,,,
html-keyboard-response,316,510255,null,"<div style=""font-size:42px;"">CATCHER</div><img id = ""stim"" ><div class = red_square id = topsquare></div>",null,encoding,word_square,,,1,topsquare,32,true,,,CATCHER,2,,,
html-keyboard-response,317,510566,null,"<div style=""font-size:42px;"">CATCHER</div>",null,,word,CATCHER,,,,,,,,,,,,
html-keyboard-response,318,512069,103.29999995231628,"",32,,word,CATCHER,,,,,,,,,,,,
html-keyboard-response,319,512273,null,"<div style=""font-size:42px;"">KNUCKLE</div><img id = ""stim"" ><div class = red_square id = bottomsquare></div>",null,encoding,word_square,,,1,bottomsquare,32,true,,,KNUCKLE,2,,,
html-keyboard-response,320,512587,null,"<div style=""font-size:42px;"">KNUCKLE</div>",null,,word,KNUCKLE,,,,,,,,,,,,
html-keyboard-response,321,514103,143.90000009536743,"",32,,word,KNUCKLE,,,,,,,,,,,,
html-keyboard-response,322,514307,null,"<div style=""font-size:42px;"">SENATE</div><img id = ""stim"" ><div class = green_square id = topsquare></div>",null,encoding,word_square,,,0,topsquare,none,true,,,SENATE,2,,,
html-keyboard-response,323,514619,null,"<div style=""font-size:42px;"">SENATE</div>",null,,word,SENATE,,,,,,,,,,,,
html-keyboard-response,324,516127,null,"",null,,word,SENATE,,,,,,,,,,,,
html-keyboard-response,325,516331,null,"<div style=""font-size:42px;"">EYELASH</div><img id = ""stim"" ><div class = red_square id = topsquare></div>",null,encoding,word_square,,,1,topsquare,32,true,,,EYELASH,2,,,
html-keyboard-response,326,516642,null,"<div style=""font-size:42px;"">EYELASH</div>",null,,word,EYELASH,,,,,,,,,,,,
html-keyboard-response,327,518158,196.79999995231628,"",32,,word,EYELASH,,,,,,,,,,,,
html-keyboard-response,328,518373,null,"<div style=""font-size:42px;"">SWAMP</div><img id = ""stim"" ><div class = red_square id = bottomsquare></div>",null,encoding,word_square,,,1,bottomsquare,32,true,,,SWAMP,2,,,
html-keyboard-response,329,518685,null,"<div style=""font-size:42px;"">SWAMP</div>",null,,word,SWAMP,,,,,,,,,,,,
html-keyboard-response,330,520210,213.20000004768372,"",32,,word,SWAMP,,,,,,,,,,,,
html-keyboard-response,331,520415,null,"<div style=""font-size:42px;"">BLOCKADE</div><img id = ""stim"" ><div class = green_square id = bottomsquare></div>",null,encoding,word_square,,,0,bottomsquare,none,true,,,BLOCKADE,2,,,
html-keyboard-response,332,520728,null,"<div style=""font-size:42px;"">BLOCKADE</div>",null,,word,BLOCKADE,,,,,,,,,,,,
html-keyboard-response,333,522237,null,"",null,,word,BLOCKADE,,,,,,,,,,,,
html-keyboard-response,334,522454,null,"<div style=""font-size:42px;"">CRICKET</div><img id = ""stim"" ><div class = green_square id = topsquare></div>",null,encoding,word_square,,,0,topsquare,none,true,,,CRICKET,2,,,
html-keyboard-response,335,522765,null,"<div style=""font-size:42px;"">CRICKET</div>",null,,word,CRICKET,,,,,,,,,,,,
html-keyboard-response,336,524270,null,"",null,,word,CRICKET,,,,,,,,,,,,
html-keyboard-response,337,524487,null,"<div style=""font-size:42px;"">BUTLER</div><img id = ""stim"" ><div class = red_square id = topsquare></div>",null,encoding,word_square,,,1,topsquare,32,true,,,BUTLER,2,,,
html-keyboard-response,338,524801,293,"<div style=""font-size:42px;"">BUTLER</div>",32,,word,BUTLER,,,,,,,,,,,,
html-keyboard-response,339,526311,null,"",null,,word,BUTLER,,,,,,,,,,,,
html-keyboard-response,340,526515,null,"<div style=""font-size:42px;"">PROTON</div><img id = ""stim"" ><div class = red_square id = bottomsquare></div>",null,encoding,word_square,,,1,bottomsquare,32,true,,,PROTON,2,,,
html-keyboard-response,341,526828,null,"<div style=""font-size:42px;"">PROTON</div>",null,,word,PROTON,,,,,,,,,,,,
html-keyboard-response,342,528341,646.7999999523163,"",32,,word,PROTON,,,,,,,,,,,,
html-keyboard-response,343,528557,null,"<div style=""font-size:42px;"">ACTOR</div><img id = ""stim"" ><div class = green_square id = bottomsquare></div>",null,encoding,word_square,,,0,bottomsquare,none,true,,,ACTOR,2,,,
html-keyboard-response,344,528871,null,"<div style=""font-size:42px;"">ACTOR</div>",null,,word,ACTOR,,,,,,,,,,,,
html-keyboard-response,345,530377,null,"",null,,word,ACTOR,,,,,,,,,,,,
html-keyboard-response,346,530580,null,"<div style=""font-size:42px;"">SAPPHIRE</div><img id = ""stim"" ><div class = green_square id = topsquare></div>",null,encoding,word_square,,,0,topsquare,none,true,,,SAPPHIRE,2,,,
html-keyboard-response,347,530894,null,"<div style=""font-size:42px;"">SAPPHIRE</div>",null,,word,SAPPHIRE,,,,,,,,,,,,
html-keyboard-response,348,532397,null,"",null,,word,SAPPHIRE,,,,,,,,,,,,
html-keyboard-response,349,532599,null,"<div style=""font-size:42px;"">STAR</div><img id = ""stim"" ><div class = red_square id = topsquare></div>",null,encoding,word_square,,,1,topsquare,32,true,,,STAR,2,,,
html-keyboard-response,350,532910,null,"<div style=""font-size:42px;"">STAR</div>",null,,word,STAR,,,,,,,,,,,,
html-keyboard-response,351,534424,622.5,"",32,,word,STAR,,,,,,,,,,,,
html-keyboard-response,352,534628,null,"<div style=""font-size:42px;"">COMET</div><img id = ""stim"" ><div class = green_square id = bottomsquare></div>",null,encoding,word_square,,,0,bottomsquare,none,true,,,COMET,2,,,
html-keyboard-response,353,534942,null,"<div style=""font-size:42px;"">COMET</div>",null,,word,COMET,,,,,,,,,,,,
html-keyboard-response,354,536450,null,"",null,,word,COMET,,,,,,,,,,,,
html-keyboard-response,355,536667,null,"<div style=""font-size:42px;"">BRAKE</div><img id = ""stim"" ><div class = red_square id = bottomsquare></div>",null,encoding,word_square,,,1,bottomsquare,32,true,,,BRAKE,2,,,
html-keyboard-response,356,536982,null,"<div style=""font-size:42px;"">BRAKE</div>",null,,word,BRAKE,,,,,,,,,,,,
html-keyboard-response,357,538494,155.09999990463257,"",32,,word,BRAKE,,,,,,,,,,,,
html-keyboard-response,358,538696,null,"<div style=""font-size:42px;"">TURNIP</div><img id = ""stim"" ><div class = green_square id = topsquare></div>",null,encoding,word_square,,,0,topsquare,none,true,,,TURNIP,2,,,
html-keyboard-response,359,539010,null,"<div style=""font-size:42px;"">TURNIP</div>",null,,word,TURNIP,,,,,,,,,,,,
html-keyboard-response,360,540517,null,"",null,,word,TURNIP,,,,,,,,,,,,
call-function,361,540518,,"",,,,,,,,,,,,,,,,
html-keyboard-response,362,540628,null,"",null,,,,,,,,,,,,,,,
math-period,363,548562,15492.299999952316,"",,,,,,,,,,,2,,,,,
html-keyboard-response,364,548667,null,"",null,,,,,,,,,,,,,,,
math-period,365,551244,5062.5,"",,,,,,,,,,,2,,,,,
html-keyboard-response,366,551346,null,"",null,,,,,,,,,,,,,,,
math-period,367,552514,2241.4999997615814,"",,,,,,,,,,,2,,,,,
html-keyboard-response,368,552624,null,"",null,,,,,,,,,,,,,,,
math-period,369,554970,7030.399999380112,"",,,,,,,,,,,6,,,,,
html-keyboard-response,370,555079,null,"",null,,,,,,,,,,,,,,,
math-period,371,557386,4517.899999856949,"",,,,,,,,,,,2,,,,,
html-keyboard-response,372,557488,null,"",null,,,,,,,,,,,,,,,
math-period,373,558602,2106.7999999523163,"",,,,,,,,,,,3,,,,,
html-keyboard-response,374,558711,null,"",null,,,,,,,,,,,,,,,
math-period,375,562578,7294.699999809265,"",,,,,,,,,,,0,,,,,
html-keyboard-response,376,562691,null,"",null,,,,,,,,,,,,,,,
math-period,377,564519,1808.0999999046326,"",,,,,,,,,,,2,,,,,
html-keyboard-response,378,565533,null,"Recall Period!",null,,,,,,,,,,,,,,,
call-function,379,565535,,"",,,,,,,,,,,,,,,,
html-keyboard-response,380,565643,null,"",null,,,,,,,,,,,,,,,
recall-period,381,568226,11495.399999141693,"",,,,,,,,,,,senate,,,,,
html-keyboard-response,382,568341,null,"",null,,,,,,,,,,,,,,,
recall-period,383,570178,7718.500000476837,"",,,,,,,,,,,proton,,,,,
html-keyboard-response,384,570281,null,"",null,,,,,,,,,,,,,,,
recall-period,385,574307,16162.200000047684,"",,,,,,,,,,,star,,,,,
html-keyboard-response,386,574415,null,"",null,,,,,,,,,,,,,,,
recall-period,387,579413,25769.20000052452,"",,,,,,,,,,,actor,,,,,
html-keyboard-response,388,579529,null,"",null,,,,,,,,,,,,,,,
recall-period,389,640538,null,"",,,,,,,,,,,,,,,,
html-keyboard-response,390,641055,null,"Time's Up!",null,,,,,,,,,,,,,,,
html-keyboard-response,391,644752,3695.2000000476837,"<p> Good job! You have responded correctly to 100% of the trials. </p>
                      <p>Be sure to only press the spacebar if you see a red square, and please keep your accuracy above 80%.</p>
                      <p> Press any key to continue the experiment. </p>",32,,,,,,,,,,,,,,,
html-keyboard-response,392,646320,1566.8999998569489,"<div style=""font-size:48px;"">Press any key to begin list 4 of 16 </div>",32,,,,,,,,,,,,,,,
html-keyboard-response,393,648843,null,"<div style=""font-size:60px;"">+</div>",null,,,,,,,,,,,,,,,
html-keyboard-response,394,649048,null,"<div style=""font-size:42px;"">JEANS</div><img id = ""stim"" ><div class = green_square id = topsquare></div>",null,encoding,word_square,,,0,topsquare,none,true,,,JEANS,3,,,
html-keyboard-response,395,649362,null,"<div style=""font-size:42px;"">JEANS</div>",null,,word,JEANS,,,,,,,,,,,,
html-keyboard-response,396,650865,null,"",null,,word,JEANS,,,,,,,,,,,,
html-keyboard-response,397,651071,null,"<div style=""font-size:42px;"">COOKBOOK</div><img id = ""stim"" ><div class = red_square id = bottomsquare></div>",null,encoding,word_square,,,1,bottomsquare,32,true,,,COOKBOOK,3,,,
html-keyboard-response,398,651383,null,"<div style=""font-size:42px;"">COOKBOOK</div>",null,,word,COOKBOOK,,,,,,,,,,,,
html-keyboard-response,399,652885,66.09999990463257,"",32,,word,COOKBOOK,,,,,,,,,,,,
html-keyboard-response,400,653088,null,"<div style=""font-size:42px;"">SCULPTURE</div><img id = ""stim"" ><div class = green_square id = bottomsquare></div>",null,encoding,word_square,,,0,bottomsquare,none,true,,,SCULPTURE,3,,,
html-keyboard-response,401,653390,null,"<div style=""font-size:42px;"">SCULPTURE</div>",null,,word,SCULPTURE,,,,,,,,,,,,
html-keyboard-response,402,654892,null,"",null,,word,SCULPTURE,,,,,,,,,,,,
html-keyboard-response,403,655108,null,"<div style=""font-size:42px;"">PITCHFORK</div><img id = ""stim"" ><div class = red_square id = topsquare></div>",null,encoding,word_square,,,1,topsquare,32,true,,,PITCHFORK,3,,,
html-keyboard-response,404,655409,null,"<div style=""font-size:42px;"">PITCHFORK</div>",null,,word,PITCHFORK,,,,,,,,,,,,
html-keyboard-response,405,656922,327.59999990463257,"",32,,word,PITCHFORK,,,,,,,,,,,,
html-keyboard-response,406,657128,null,"<div style=""font-size:42px;"">HAWK</div><img id = ""stim"" ><div class = green_square id = topsquare></div>",null,encoding,word_square,,,0,topsquare,none,false,,,HAWK,3,,,
html-keyboard-response,407,657438,null,"<div style=""font-size:42px;"">HAWK</div>",null,,word,HAWK,,,,,,,,,,,,
html-keyboard-response,408,658943,391.2000000476837,"",32,,word,HAWK,,,,,,,,,,,,
html-keyboard-response,409,659147,null,"<div style=""font-size:42px;"">SOFTBALL</div><img id = ""stim"" ><div class = green_square id = bottomsquare></div>",null,encoding,word_square,,,0,bottomsquare,none,true,,,SOFTBALL,3,,,
html-keyboard-response,410,659461,null,"<div style=""font-size:42px;"">SOFTBALL</div>",null,,word,SOFTBALL,,,,,,,,,,,,
html-keyboard-response,411,660964,null,"",null,,word,SOFTBALL,,,,,,,,,,,,
html-keyboard-response,412,661166,null,"<div style=""font-size:42px;"">KLEENEX</div><img id = ""stim"" ><div class = red_square id = bottomsquare></div>",null,encoding,word_square,,,1,bottomsquare,32,false,,,KLEENEX,3,,,
html-keyboard-response,413,661477,null,"<div style=""font-size:42px;"">KLEENEX</div>",null,,word,KLEENEX,,,,,,,,,,,,
html-keyboard-response,414,662979,null,"",null,,word,KLEENEX,,,,,,,,,,,,
html-keyboard-response,415,663182,null,"<div style=""font-size:42px;"">POISON</div><img id = ""stim"" ><div class = red_square id = topsquare></div>",null,encoding,word_square,,,1,topsquare,32,true,,,POISON,3,,,
html-keyboard-response,416,663484,null,"<div style=""font-size:42px;"">POISON</div>",null,,word,POISON,,,,,,,,,,,,
html-keyboard-response,417,664994,14.299999952316284,"",32,,word,POISON,,,,,,,,,,,,
html-keyboard-response,418,665197,null,"<div style=""font-size:42px;"">RATTLE</div><img id = ""stim"" ><div class = green_square id = topsquare></div>",null,encoding,word_square,,,0,topsquare,none,true,,,RATTLE,3,,,
html-keyboard-response,419,665508,null,"<div style=""font-size:42px;"">RATTLE</div>",null,,word,RATTLE,,,,,,,,,,,,
html-keyboard-response,420,667020,null,"",null,,word,RATTLE,,,,,,,,,,,,
html-keyboard-response,421,667224,null,"<div style=""font-size:42px;"">CARTON</div><img id = ""stim"" ><div class = green_square id = bottomsquare></div>",null,encoding,word_square,,,0,bottomsquare,none,true,,,CARTON,3,,,
html-keyboard-response,422,667537,null,"<div style=""font-size:42px;"">CARTON</div>",null,,word,CARTON,,,,,,,,,,,,
html-keyboard-response,423,669043,null,"",null,,word,CARTON,,,,,,,,,,,,
html-keyboard-response,424,669260,null,"<div style=""font-size:42px;"">HAYSTACK</div><img id = ""stim"" ><div class = red_square id = bottomsquare></div>",null,encoding,word_square,,,1,bottomsquare,32,true,,,HAYSTACK,3,,,
html-keyboard-response,425,669573,null,"<div style=""font-size:42px;"">HAYSTACK</div>",null,,word,HAYSTACK,,,,,,,,,,,,
html-keyboard-response,426,671089,171.20000004768372,"",32,,word,HAYSTACK,,,,,,,,,,,,
html-keyboard-response,427,671291,null,"<div style=""font-size:42px;"">TEACHER</div><img id = ""stim"" ><div class = red_square id = topsquare></div>",null,encoding,word_square,,,1,topsquare,32,true,,,TEACHER,3,,,
html-keyboard-response,428,671602,291.90000009536743,"<div style=""font-size:42px;"">TEACHER</div>",32,,word,TEACHER,,,,,,,,,,,,
html-keyboard-response,429,673106,null,"",null,,word,TEACHER,,,,,,,,,,,,
html-keyboard-response,430,673308,null,"<div style=""font-size:42px;"">STUDENT</div><img id = ""stim"" ><div class = green_square id = topsquare></div>",null,encoding,word_square,,,0,topsquare,none,true,,,STUDENT,3,,,
html-keyboard-response,431,673619,null,"<div style=""font-size:42px;"">STUDENT</div>",null,,word,STUDENT,,,,,,,,,,,,
html-keyboard-response,432,675122,null,"",null,,word,STUDENT,,,,,,,,,,,,
html-keyboard-response,433,675324,null,"<div style=""font-size:42px;"">SERVER</div><img id = ""stim"" ><div class = red_square id = bottomsquare></div>",null,encoding,word_square,,,1,bottomsquare,32,true,,,SERVER,3,,,
html-keyboard-response,434,675634,null,"<div style=""font-size:42px;"">SERVER</div>",null,,word,SERVER,,,,,,,,,,,,
html-keyboard-response,435,677140,117.90000009536743,"",32,,word,SERVER,,,,,,,,,,,,
html-keyboard-response,436,677357,null,"<div style=""font-size:42px;"">MAJOR</div><img id = ""stim"" ><div class = red_square id = topsquare></div>",null,encoding,word_square,,,1,topsquare,32,true,,,MAJOR,3,,,
html-keyboard-response,437,677667,null,"<div style=""font-size:42px;"">MAJOR</div>",null,,word,MAJOR,,,,,,,,,,,,
html-keyboard-response,438,679174,266.60000014305115,"",32,,word,MAJOR,,,,,,,,,,,,
html-keyboard-response,439,679376,null,"<div style=""font-size:42px;"">SAND</div><img id = ""stim"" ><div class = green_square id = bottomsquare></div>",null,encoding,word_square,,,0,bottomsquare,none,true,,,SAND,3,,,
html-keyboard-response,440,679690,null,"<div style=""font-size:42px;"">SAND</div>",null,,word,SAND,,,,,,,,,,,,
html-keyboard-response,441,681211,null,"",null,,word,SAND,,,,,,,,,,,,
call-function,442,681214,,"",,,,,,,,,,,,,,,,
html-keyboard-response,443,681320,null,"",null,,,,,,,,,,,,,,,
math-period,444,685184,11886.5,"",,,,,,,,,,,2,,,,,
html-keyboard-response,445,685290,null,"",null,,,,,,,,,,,,,,,
math-period,446,687116,3477.399999856949,"",,,,,,,,,,,1,,,,,
html-keyboard-response,447,687221,null,"",null,,,,,,,,,,,,,,,
math-period,448,688399,2210.399999856949,"",,,,,,,,,,,3,,,,,
html-keyboard-response,449,688508,null,"",null,,,,,,,,,,,,,,,
math-period,450,690806,6750.300000190735,"",,,,,,,,,,,6,,,,,
html-keyboard-response,451,690920,null,"",null,,,,,,,,,,,,,,,
math-period,452,693342,4403.599999904633,"",,,,,,,,,,,2,,,,,
html-keyboard-response,453,693458,null,"",null,,,,,,,,,,,,,,,
math-period,454,695447,3836.9999997615814,"",,,,,,,,,,,2,,,,,
html-keyboard-response,455,695559,null,"",null,,,,,,,,,,,,,,,
math-period,456,696912,2606.7000000476837,"",,,,,,,,,,,1,,,,,
html-keyboard-response,457,697014,null,"",null,,,,,,,,,,,,,,,
math-period,458,700206,6055.299999952316,"",,,,,,,,,,,0,,,,,
html-keyboard-response,459,700313,null,"",null,,,,,,,,,,,,,,,
math-period,460,702110,3482.800000190735,"",,,,,,,,,,,2,,,,,
html-keyboard-response,461,702216,null,"",null,,,,,,,,,,,,,,,
math-period,462,704175,3379.699999809265,"",,,,,,,,,,,5,,,,,
html-keyboard-response,463,704290,null,"",null,,,,,,,,,,,,,,,
math-period,464,705226,null,"",,,,,,,,,,,,,,,,
html-keyboard-response,465,706241,null,"Recall Period!",null,,,,,,,,,,,,,,,
call-function,466,706242,,"",,,,,,,,,,,,,,,,
html-keyboard-response,467,706351,null,"",null,,,,,,,,,,,,,,,
recall-period,468,711047,29598.899998903275,"",,,,,,,,,,,teacher,,,,,
html-keyboard-response,469,711162,null,"",null,,,,,,,,,,,,,,,
recall-period,470,712871,7424.600000858307,"",,,,,,,,,,,student,,,,,
html-keyboard-response,471,712985,null,"",null,,,,,,,,,,,,,,,
recall-period,472,714256,3009.5999999046326,"",,,,,,,,,,,jean,,,,,
html-keyboard-response,473,714361,null,"",null,,,,,,,,,,,,,,,
recall-period,474,715750,4832.999999523163,"",,,,,,,,,,,sand,,,,,
html-keyboard-response,475,715860,null,"",null,,,,,,,,,,,,,,,
recall-period,476,781254,null,"",,,,,,,,,,,,,,,,
html-keyboard-response,477,781767,null,"Time's Up!",null,,,,,,,,,,,,,,,
html-keyboard-response,478,804150,22380.5,"<p> Good job! You have responded correctly to 97% of the trials. </p>
                      <p>Be sure to only press the spacebar if you see a red square, and please keep your accuracy above 80%.</p>
                      <p> Press any key to continue the experiment. </p>",32,,,,,,,,,,,,,,,
html-keyboard-response,479,805524,1372.7000000476837,"<div style=""font-size:48px;"">Press any key to begin list 5 of 16 </div>",32,,,,,,,,,,,,,,,
html-keyboard-response,480,808042,null,"<div style=""font-size:60px;"">+</div>",null,,,,,,,,,,,,,,,
html-keyboard-response,481,808257,null,"<div style=""font-size:42px;"">BLUEJAY</div><img id = ""stim"" ><div class = red_square id = topsquare></div>",null,encoding,word_square,,,1,topsquare,32,true,,,BLUEJAY,4,,,
html-keyboard-response,482,808569,null,"<div style=""font-size:42px;"">BLUEJAY</div>",null,,word,BLUEJAY,,,,,,,,,,,,
html-keyboard-response,483,810085,251.19999980926514,"",32,,word,BLUEJAY,,,,,,,,,,,,
html-keyboard-response,484,810304,null,"<div style=""font-size:42px;"">LODGE</div><img id = ""stim"" ><div class = green_square id = bottomsquare></div>",null,encoding,word_square,,,0,bottomsquare,none,true,,,LODGE,4,,,
html-keyboard-response,485,810620,null,"<div style=""font-size:42px;"">LODGE</div>",null,,word,LODGE,,,,,,,,,,,,
html-keyboard-response,486,812125,null,"",null,,word,LODGE,,,,,,,,,,,,
html-keyboard-response,487,812342,null,"<div style=""font-size:42px;"">CABIN</div><img id = ""stim"" ><div class = green_square id = topsquare></div>",null,encoding,word_square,,,0,topsquare,none,true,,,CABIN,4,,,
html-keyboard-response,488,812654,null,"<div style=""font-size:42px;"">CABIN</div>",null,,word,CABIN,,,,,,,,,,,,
html-keyboard-response,489,814160,null,"",null,,word,CABIN,,,,,,,,,,,,
html-keyboard-response,490,814375,null,"<div style=""font-size:42px;"">TOASTER</div><img id = ""stim"" ><div class = red_square id = bottomsquare></div>",null,encoding,word_square,,,1,bottomsquare,32,true,,,TOASTER,4,,,
html-keyboard-response,491,814688,null,"<div style=""font-size:42px;"">TOASTER</div>",null,,word,TOASTER,,,,,,,,,,,,
html-keyboard-response,492,816201,197.70000004768372,"",32,,word,TOASTER,,,,,,,,,,,,
html-keyboard-response,493,816406,null,"<div style=""font-size:42px;"">GARLIC</div><img id = ""stim"" ><div class = green_square id = bottomsquare></div>",null,encoding,word_square,,,0,bottomsquare,none,true,,,GARLIC,4,,,
html-keyboard-response,494,816718,null,"<div style=""font-size:42px;"">GARLIC</div>",null,,word,GARLIC,,,,,,,,,,,,
html-keyboard-response,495,818224,null,"",null,,word,GARLIC,,,,,,,,,,,,
html-keyboard-response,496,818428,null,"<div style=""font-size:42px;"">FLIPPER</div><img id = ""stim"" ><div class = green_square id = topsquare></div>",null,encoding,word_square,,,0,topsquare,none,true,,,FLIPPER,4,,,
html-keyboard-response,497,818742,null,"<div style=""font-size:42px;"">FLIPPER</div>",null,,word,FLIPPER,,,,,,,,,,,,
html-keyboard-response,498,820259,null,"",null,,word,FLIPPER,,,,,,,,,,,,
html-keyboard-response,499,820462,null,"<div style=""font-size:42px;"">MAMMAL</div><img id = ""stim"" ><div class = red_square id = topsquare></div>",null,encoding,word_square,,,1,topsquare,32,true,,,MAMMAL,4,,,
html-keyboard-response,500,820774,null,"<div style=""font-size:42px;"">MAMMAL</div>",null,,word,MAMMAL,,,,,,,,,,,,
html-keyboard-response,501,822286,125.80000019073486,"",32,,word,MAMMAL,,,,,,,,,,,,
html-keyboard-response,502,822488,null,"<div style=""font-size:42px;"">FLUTE</div><img id = ""stim"" ><div class = green_square id = bottomsquare></div>",null,encoding,word_square,,,0,bottomsquare,none,true,,,FLUTE,4,,,
html-keyboard-response,503,822800,null,"<div style=""font-size:42px;"">FLUTE</div>",null,,word,FLUTE,,,,,,,,,,,,
html-keyboard-response,504,824316,null,"",null,,word,FLUTE,,,,,,,,,,,,
html-keyboard-response,505,824523,null,"<div style=""font-size:42px;"">SCARECROW</div><img id = ""stim"" ><div class = green_square id = topsquare></div>",null,encoding,word_square,,,0,topsquare,none,true,,,SCARECROW,4,,,
html-keyboard-response,506,824839,null,"<div style=""font-size:42px;"">SCARECROW</div>",null,,word,SCARECROW,,,,,,,,,,,,
html-keyboard-response,507,826342,null,"",null,,word,SCARECROW,,,,,,,,,,,,
html-keyboard-response,508,826548,null,"<div style=""font-size:42px;"">SQUID</div><img id = ""stim"" ><div class = red_square id = bottomsquare></div>",null,encoding,word_square,,,1,bottomsquare,32,true,,,SQUID,4,,,
html-keyboard-response,509,826861,null,"<div style=""font-size:42px;"">SQUID</div>",null,,word,SQUID,,,,,,,,,,,,
html-keyboard-response,510,828368,221.59999990463257,"",32,,word,SQUID,,,,,,,,,,,,
html-keyboard-response,511,828576,null,"<div style=""font-size:42px;"">CLERK</div><img id = ""stim"" ><div class = red_square id = topsquare></div>",null,encoding,word_square,,,1,topsquare,32,true,,,CLERK,4,,,
html-keyboard-response,512,828892,null,"<div style=""font-size:42px;"">CLERK</div>",null,,word,CLERK,,,,,,,,,,,,
html-keyboard-response,513,830396,338.69999980926514,"",32,,word,CLERK,,,,,,,,,,,,
html-keyboard-response,514,830600,null,"<div style=""font-size:42px;"">SHAMPOO</div><img id = ""stim"" ><div class = red_square id = bottomsquare></div>",null,encoding,word_square,,,1,bottomsquare,32,true,,,SHAMPOO,4,,,
html-keyboard-response,515,830915,null,"<div style=""font-size:42px;"">SHAMPOO</div>",null,,word,SHAMPOO,,,,,,,,,,,,
html-keyboard-response,516,832431,61.89999985694885,"",32,,word,SHAMPOO,,,,,,,,,,,,
html-keyboard-response,517,832646,null,"<div style=""font-size:42px;"">YOLK</div><img id = ""stim"" ><div class = green_square id = bottomsquare></div>",null,encoding,word_square,,,0,bottomsquare,none,true,,,YOLK,4,,,
html-keyboard-response,518,832958,null,"<div style=""font-size:42px;"">YOLK</div>",null,,word,YOLK,,,,,,,,,,,,
html-keyboard-response,519,834474,null,"",null,,word,YOLK,,,,,,,,,,,,
html-keyboard-response,520,834678,null,"<div style=""font-size:42px;"">CUPBOARD</div><img id = ""stim"" ><div class = red_square id = topsquare></div>",null,encoding,word_square,,,1,topsquare,32,true,,,CUPBOARD,4,,,
html-keyboard-response,521,834989,null,"<div style=""font-size:42px;"">CUPBOARD</div>",null,,word,CUPBOARD,,,,,,,,,,,,
html-keyboard-response,522,836503,286.09999990463257,"",32,,word,CUPBOARD,,,,,,,,,,,,
html-keyboard-response,523,836720,null,"<div style=""font-size:42px;"">SHIRT</div><img id = ""stim"" ><div class = green_square id = topsquare></div>",null,encoding,word_square,,,0,topsquare,none,true,,,SHIRT,4,,,
html-keyboard-response,524,837023,null,"<div style=""font-size:42px;"">SHIRT</div>",null,,word,SHIRT,,,,,,,,,,,,
html-keyboard-response,525,838529,null,"",null,,word,SHIRT,,,,,,,,,,,,
html-keyboard-response,526,838734,null,"<div style=""font-size:42px;"">YACHT</div><img id = ""stim"" ><div class = red_square id = bottomsquare></div>",null,encoding,word_square,,,1,bottomsquare,32,true,,,YACHT,4,,,
html-keyboard-response,527,839049,null,"<div style=""font-size:42px;"">YACHT</div>",null,,word,YACHT,,,,,,,,,,,,
html-keyboard-response,528,840562,385.7000000476837,"",32,,word,YACHT,,,,,,,,,,,,
call-function,529,840564,,"",,,,,,,,,,,,,,,,
html-keyboard-response,530,840671,null,"",null,,,,,,,,,,,,,,,
math-period,531,844971,7311.5,"",,,,,,,,,,,2,,,,,
html-keyboard-response,532,845075,null,"",null,,,,,,,,,,,,,,,
math-period,533,847953,5685.899999856949,"",,,,,,,,,,,1,,,,,
html-keyboard-response,534,848061,null,"",null,,,,,,,,,,,,,,,
math-period,535,849515,2503.7000000476837,"",,,,,,,,,,,5,,,,,
html-keyboard-response,536,849618,null,"",null,,,,,,,,,,,,,,,
math-period,537,851226,3140.5,"",,,,,,,,,,,1,,,,,
html-keyboard-response,538,851337,null,"",null,,,,,,,,,,,,,,,
math-period,539,852467,2172.5999999046326,"",,,,,,,,,,,2,,,,,
html-keyboard-response,540,852573,null,"",null,,,,,,,,,,,,,,,
math-period,541,854694,3699.7000000476837,"",,,,,,,,,,,5,,,,,
html-keyboard-response,542,854798,null,"",null,,,,,,,,,,,,,,,
math-period,543,857673,5391.5,"",,,,,,,,,,,0,,,,,
html-keyboard-response,544,857780,null,"",null,,,,,,,,,,,,,,,
math-period,545,859610,3579.2999999523163,"",,,,,,,,,,,3,,,,,
html-keyboard-response,546,859722,null,"",null,,,,,,,,,,,,,,,
math-period,547,861539,3132.7999997138977,"",,,,,,,,,,,5,,,,,
html-keyboard-response,548,861647,null,"",null,,,,,,,,,,,,,,,
math-period,549,863985,4300.299999952316,"",,,,,,,,,,,3,,,,,
html-keyboard-response,550,864094,null,"",null,,,,,,,,,,,,,,,
math-period,551,864580,null,"",,,,,,,,,,,,,,,,
html-keyboard-response,552,865593,null,"Recall Period!",null,,,,,,,,,,,,,,,
call-function,553,865595,,"",,,,,,,,,,,,,,,,
html-keyboard-response,554,865704,null,"",null,,,,,,,,,,,,,,,
recall-period,555,878025,70281.49999976158,"",,,,,,,,,,,squid,,,,,
html-keyboard-response,556,878138,null,"",null,,,,,,,,,,,,,,,
recall-period,557,879378,4025.399999856949,"",,,,,,,,,,,mammal,,,,,
html-keyboard-response,558,879484,null,"",null,,,,,,,,,,,,,,,
recall-period,559,883426,20918.900000095367,"",,,,,,,,,,,scarescrow ,,,,,
html-keyboard-response,560,883533,null,"",null,,,,,,,,,,,,,,,
recall-period,561,891874,63580.69999885559,"",,,,,,,,,,,bluejean,,,,,
html-keyboard-response,562,891979,null,"",null,,,,,,,,,,,,,,,
recall-period,563,940601,null,"",,,,,,,,,,,,,,,,
html-keyboard-response,564,941111,null,"Time's Up!",null,,,,,,,,,,,,,,,
html-keyboard-response,565,943223,2110.2000000476837,"<p> Good job! You have responded correctly to 98% of the trials. </p>
                      <p>Be sure to only press the spacebar if you see a red square, and please keep your accuracy above 80%.</p>
                      <p> Press any key to continue the experiment. </p>",32,,,,,,,,,,,,,,,
html-keyboard-response,566,945631,2406.7000000476837,"<div style=""font-size:48px;"">Press any key to begin list 6 of 16 </div>",32,,,,,,,,,,,,,,,
html-keyboard-response,567,948135,null,"<div style=""font-size:60px;"">+</div>",null,,,,,,,,,,,,,,,
html-keyboard-response,568,948339,null,"<div style=""font-size:42px;"">TOILET</div><img id = ""stim"" ><div class = red_square id = bottomsquare></div>",null,encoding,word_square,,,1,bottomsquare,32,true,,,TOILET,5,,,
html-keyboard-response,569,948656,null,"<div style=""font-size:42px;"">TOILET</div>",null,,word,TOILET,,,,,,,,,,,,
html-keyboard-response,570,950170,135.20000004768372,"",32,,word,TOILET,,,,,,,,,,,,
html-keyboard-response,571,950372,null,"<div style=""font-size:42px;"">SPOOL</div><img id = ""stim"" ><div class = green_square id = topsquare></div>",null,encoding,word_square,,,0,topsquare,none,true,,,SPOOL,5,,,
html-keyboard-response,572,950683,null,"<div style=""font-size:42px;"">SPOOL</div>",null,,word,SPOOL,,,,,,,,,,,,
html-keyboard-response,573,952201,null,"",null,,word,SPOOL,,,,,,,,,,,,
html-keyboard-response,574,952420,null,"<div style=""font-size:42px;"">MARKER</div><img id = ""stim"" ><div class = red_square id = topsquare></div>",null,encoding,word_square,,,1,topsquare,32,true,,,MARKER,5,,,
html-keyboard-response,575,952734,null,"<div style=""font-size:42px;"">MARKER</div>",null,,word,MARKER,,,,,,,,,,,,
html-keyboard-response,576,954244,31.700000047683716,"",32,,word,MARKER,,,,,,,,,,,,
html-keyboard-response,577,954446,null,"<div style=""font-size:42px;"">CATTLE</div><img id = ""stim"" ><div class = green_square id = bottomsquare></div>",null,encoding,word_square,,,0,bottomsquare,none,true,,,CATTLE,5,,,
html-keyboard-response,578,954760,null,"<div style=""font-size:42px;"">CATTLE</div>",null,,word,CATTLE,,,,,,,,,,,,
html-keyboard-response,579,956274,null,"",null,,word,CATTLE,,,,,,,,,,,,
html-keyboard-response,580,956476,null,"<div style=""font-size:42px;"">SPOON</div><img id = ""stim"" ><div class = red_square id = bottomsquare></div>",null,encoding,word_square,,,1,bottomsquare,32,true,,,SPOON,5,,,
html-keyboard-response,581,956788,null,"<div style=""font-size:42px;"">SPOON</div>",null,,word,SPOON,,,,,,,,,,,,
html-keyboard-response,582,958300,243.29999995231628,"",32,,word,SPOON,,,,,,,,,,,,
html-keyboard-response,583,958506,null,"<div style=""font-size:42px;"">LASER</div><img id = ""stim"" ><div class = red_square id = topsquare></div>",null,encoding,word_square,,,1,topsquare,32,true,,,LASER,5,,,
html-keyboard-response,584,958816,null,"<div style=""font-size:42px;"">LASER</div>",null,,word,LASER,,,,,,,,,,,,
html-keyboard-response,585,960332,389.59999990463257,"",32,,word,LASER,,,,,,,,,,,,
html-keyboard-response,586,960535,null,"<div style=""font-size:42px;"">ICEBERG</div><img id = ""stim"" ><div class = red_square id = bottomsquare></div>",null,encoding,word_square,,,1,bottomsquare,32,true,,,ICEBERG,5,,,
html-keyboard-response,587,960850,null,"<div style=""font-size:42px;"">ICEBERG</div>",null,,word,ICEBERG,,,,,,,,,,,,
html-keyboard-response,588,962368,478.80000019073486,"",32,,word,ICEBERG,,,,,,,,,,,,
html-keyboard-response,589,962573,null,"<div style=""font-size:42px;"">SCARF</div><img id = ""stim"" ><div class = green_square id = topsquare></div>",null,encoding,word_square,,,0,topsquare,none,false,,,SCARF,5,,,
html-keyboard-response,590,962884,null,"<div style=""font-size:42px;"">SCARF</div>",null,,word,SCARF,,,,,,,,,,,,
html-keyboard-response,591,964400,353.10000014305115,"",32,,word,SCARF,,,,,,,,,,,,
html-keyboard-response,592,964617,null,"<div style=""font-size:42px;"">JAR</div><img id = ""stim"" ><div class = green_square id = bottomsquare></div>",null,encoding,word_square,,,0,bottomsquare,none,true,,,JAR,5,,,
html-keyboard-response,593,964930,null,"<div style=""font-size:42px;"">JAR</div>",null,,word,JAR,,,,,,,,,,,,
html-keyboard-response,594,966439,null,"",null,,word,JAR,,,,,,,,,,,,
html-keyboard-response,595,966644,null,"<div style=""font-size:42px;"">BRIDE</div><img id = ""stim"" ><div class = red_square id = topsquare></div>",null,encoding,word_square,,,1,topsquare,32,true,,,BRIDE,5,,,
html-keyboard-response,596,966957,null,"<div style=""font-size:42px;"">BRIDE</div>",null,,word,BRIDE,,,,,,,,,,,,
html-keyboard-response,597,968471,497.10000014305115,"",32,,word,BRIDE,,,,,,,,,,,,
html-keyboard-response,598,968674,null,"<div style=""font-size:42px;"">PIRATE</div><img id = ""stim"" ><div class = green_square id = topsquare></div>",null,encoding,word_square,,,0,topsquare,none,true,,,PIRATE,5,,,
html-keyboard-response,599,968988,null,"<div style=""font-size:42px;"">PIRATE</div>",null,,word,PIRATE,,,,,,,,,,,,
html-keyboard-response,600,970498,null,"",null,,word,PIRATE,,,,,,,,,,,,
html-keyboard-response,601,970700,null,"<div style=""font-size:42px;"">WASHER</div><img id = ""stim"" ><div class = green_square id = bottomsquare></div>",null,encoding,word_square,,,0,bottomsquare,none,true,,,WASHER,5,,,
html-keyboard-response,602,971012,null,"<div style=""font-size:42px;"">WASHER</div>",null,,word,WASHER,,,,,,,,,,,,
html-keyboard-response,603,972517,null,"",null,,word,WASHER,,,,,,,,,,,,
html-keyboard-response,604,972720,null,"<div style=""font-size:42px;"">CANDY</div><img id = ""stim"" ><div class = red_square id = bottomsquare></div>",null,encoding,word_square,,,1,bottomsquare,32,true,,,CANDY,5,,,
html-keyboard-response,605,973034,null,"<div style=""font-size:42px;"">CANDY</div>",null,,word,CANDY,,,,,,,,,,,,
html-keyboard-response,606,974543,372.5,"",32,,word,CANDY,,,,,,,,,,,,
html-keyboard-response,607,974748,null,"<div style=""font-size:42px;"">MATCH</div><img id = ""stim"" ><div class = green_square id = topsquare></div>",null,encoding,word_square,,,0,topsquare,none,true,,,MATCH,5,,,
html-keyboard-response,608,975062,null,"<div style=""font-size:42px;"">MATCH</div>",null,,word,MATCH,,,,,,,,,,,,
html-keyboard-response,609,976570,null,"",null,,word,MATCH,,,,,,,,,,,,
html-keyboard-response,610,976774,null,"<div style=""font-size:42px;"">SPRINKLE</div><img id = ""stim"" ><div class = green_square id = bottomsquare></div>",null,encoding,word_square,,,0,bottomsquare,none,true,,,SPRINKLE,5,,,
html-keyboard-response,611,977085,null,"<div style=""font-size:42px;"">SPRINKLE</div>",null,,word,SPRINKLE,,,,,,,,,,,,
html-keyboard-response,612,978600,null,"",null,,word,SPRINKLE,,,,,,,,,,,,
html-keyboard-response,613,978804,null,"<div style=""font-size:42px;"">APRON</div><img id = ""stim"" ><div class = red_square id = topsquare></div>",null,encoding,word_square,,,1,topsquare,32,true,,,APRON,5,,,
html-keyboard-response,614,979116,null,"<div style=""font-size:42px;"">APRON</div>",null,,word,APRON,,,,,,,,,,,,
html-keyboard-response,615,980631,829.0999999046326,"",32,,word,APRON,,,,,,,,,,,,
call-function,616,980632,,"",,,,,,,,,,,,,,,,
html-keyboard-response,617,980738,null,"",null,,,,,,,,,,,,,,,
math-period,618,982663,3046.100000143051,"",,,,,,,,,,,3,,,,,
html-keyboard-response,619,982770,null,"",null,,,,,,,,,,,,,,,
math-period,620,984078,2493,"",,,,,,,,,,,5,,,,,
html-keyboard-response,621,984186,null,"",null,,,,,,,,,,,,,,,
math-period,622,986110,6546.999999523163,"",,,,,,,,,,,4,,,,,
html-keyboard-response,623,986218,null,"",null,,,,,,,,,,,,,,,
math-period,624,988133,6471.200000286102,"",,,,,,,,,,,5,,,,,
html-keyboard-response,625,988246,null,"",null,,,,,,,,,,,,,,,
math-period,626,993061,9525.799999952316,"",,,,,,,,,,,3,,,,,
html-keyboard-response,627,993169,null,"",null,,,,,,,,,,,,,,,
math-period,628,994117,1750.7000000476837,"",,,,,,,,,,,3,,,,,
html-keyboard-response,629,994224,null,"",null,,,,,,,,,,,,,,,
math-period,630,995774,2719.800000190735,"",,,,,,,,,,,5,,,,,
html-keyboard-response,631,995885,null,"",null,,,,,,,,,,,,,,,
math-period,632,997255,2231.300000190735,"",,,,,,,,,,,4,,,,,
html-keyboard-response,633,997359,null,"",null,,,,,,,,,,,,,,,
math-period,634,998925,2691.2999997138977,"",,,,,,,,,,,5,,,,,
html-keyboard-response,635,999029,null,"",null,,,,,,,,,,,,,,,
math-period,636,1000324,2212.0999999046326,"",,,,,,,,,,,5,,,,,
html-keyboard-response,637,1000436,null,"",null,,,,,,,,,,,,,,,
math-period,638,1003118,4942.599999904633,"",,,,,,,,,,,0,,,,,
html-keyboard-response,639,1003221,null,"",null,,,,,,,,,,,,,,,
math-period,640,1004637,2443.899999856949,"",,,,,,,,,,,4,,,,,
html-keyboard-response,641,1005639,null,"Recall Period!",null,,,,,,,,,,,,,,,
call-function,642,1005640,,"",,,,,,,,,,,,,,,,
html-keyboard-response,643,1005750,null,"",null,,,,,,,,,,,,,,,
recall-period,644,1009645,19905.000000476837,"",,,,,,,,,,,spoon,,,,,
html-keyboard-response,645,1009760,null,"",null,,,,,,,,,,,,,,,
recall-period,646,1011469,6471.700000047684,"",,,,,,,,,,,toilet,,,,,
html-keyboard-response,647,1011581,null,"",null,,,,,,,,,,,,,,,
recall-period,648,1018971,39214.89999938011,"",,,,,,,,,,,candy,,,,,
html-keyboard-response,649,1019086,null,"",null,,,,,,,,,,,,,,,
recall-period,650,1080650,null,"",,,,,,,,,,,,,,,,
html-keyboard-response,651,1081166,null,"Time's Up!",null,,,,,,,,,,,,,,,
html-keyboard-response,652,1097459,16290.799999952316,"<p> Good job! You have responded correctly to 97% of the trials. </p>
                      <p>Be sure to only press the spacebar if you see a red square, and please keep your accuracy above 80%.</p>
                      <p> Press any key to continue the experiment. </p>",32,,,,,,,,,,,,,,,
html-keyboard-response,653,1098162,702.5,"<div style=""font-size:48px;"">Press any key to begin list 7 of 16 </div>",32,,,,,,,,,,,,,,,
html-keyboard-response,654,1100682,null,"<div style=""font-size:60px;"">+</div>",null,,,,,,,,,,,,,,,
html-keyboard-response,655,1100884,null,"<div style=""font-size:42px;"">COIN</div><img id = ""stim"" ><div class = green_square id = bottomsquare></div>",null,encoding,word_square,,,0,bottomsquare,none,true,,,COIN,6,,,
html-keyboard-response,656,1101195,null,"<div style=""font-size:42px;"">COIN</div>",null,,word,COIN,,,,,,,,,,,,
html-keyboard-response,657,1102712,null,"",null,,word,COIN,,,,,,,,,,,,
html-keyboard-response,658,1102929,null,"<div style=""font-size:42px;"">CORAL</div><img id = ""stim"" ><div class = red_square id = topsquare></div>",null,encoding,word_square,,,1,topsquare,32,false,,,CORAL,6,,,
html-keyboard-response,659,1103241,null,"<div style=""font-size:42px;"">CORAL</div>",null,,word,CORAL,,,,,,,,,,,,
html-keyboard-response,660,1104755,null,"",null,,word,CORAL,,,,,,,,,,,,
html-keyboard-response,661,1104958,null,"<div style=""font-size:42px;"">CHISEL</div><img id = ""stim"" ><div class = red_square id = bottomsquare></div>",null,encoding,word_square,,,1,bottomsquare,32,true,,,CHISEL,6,,,
html-keyboard-response,662,1105271,null,"<div style=""font-size:42px;"">CHISEL</div>",null,,word,CHISEL,,,,,,,,,,,,
html-keyboard-response,663,1106784,482.5,"",32,,word,CHISEL,,,,,,,,,,,,
html-keyboard-response,664,1106987,null,"<div style=""font-size:42px;"">EUROPE</div><img id = ""stim"" ><div class = green_square id = topsquare></div>",null,encoding,word_square,,,0,topsquare,none,true,,,EUROPE,6,,,
html-keyboard-response,665,1107302,null,"<div style=""font-size:42px;"">EUROPE</div>",null,,word,EUROPE,,,,,,,,,,,,
html-keyboard-response,666,1108814,null,"",null,,word,EUROPE,,,,,,,,,,,,
html-keyboard-response,667,1109019,null,"<div style=""font-size:42px;"">ARTIST</div><img id = ""stim"" ><div class = red_square id = topsquare></div>",null,encoding,word_square,,,1,topsquare,32,true,,,ARTIST,6,,,
html-keyboard-response,668,1109332,null,"<div style=""font-size:42px;"">ARTIST</div>",null,,word,ARTIST,,,,,,,,,,,,
html-keyboard-response,669,1110838,909.7000000476837,"",32,,word,ARTIST,,,,,,,,,,,,
html-keyboard-response,670,1111052,null,"<div style=""font-size:42px;"">CRYSTAL</div><img id = ""stim"" ><div class = red_square id = bottomsquare></div>",null,encoding,word_square,,,1,bottomsquare,32,false,,,CRYSTAL,6,,,
html-keyboard-response,671,1111365,null,"<div style=""font-size:42px;"">CRYSTAL</div>",null,,word,CRYSTAL,,,,,,,,,,,,
html-keyboard-response,672,1112872,null,"",null,,word,CRYSTAL,,,,,,,,,,,,
html-keyboard-response,673,1113075,null,"<div style=""font-size:42px;"">FRIES</div><img id = ""stim"" ><div class = green_square id = bottomsquare></div>",null,encoding,word_square,,,0,bottomsquare,none,true,,,FRIES,6,,,
html-keyboard-response,674,1113389,null,"<div style=""font-size:42px;"">FRIES</div>",null,,word,FRIES,,,,,,,,,,,,
html-keyboard-response,675,1114904,null,"",null,,word,FRIES,,,,,,,,,,,,
html-keyboard-response,676,1115107,null,"<div style=""font-size:42px;"">TWIG</div><img id = ""stim"" ><div class = red_square id = topsquare></div>",null,encoding,word_square,,,1,topsquare,32,true,,,TWIG,6,,,
html-keyboard-response,677,1115424,null,"<div style=""font-size:42px;"">TWIG</div>",null,,word,TWIG,,,,,,,,,,,,
html-keyboard-response,678,1116927,58.799999952316284,"",32,,word,TWIG,,,,,,,,,,,,
html-keyboard-response,679,1117145,null,"<div style=""font-size:42px;"">NOTEBOOK</div><img id = ""stim"" ><div class = red_square id = bottomsquare></div>",null,encoding,word_square,,,1,bottomsquare,32,true,,,NOTEBOOK,6,,,
html-keyboard-response,680,1117459,null,"<div style=""font-size:42px;"">NOTEBOOK</div>",null,,word,NOTEBOOK,,,,,,,,,,,,
html-keyboard-response,681,1118973,189.10000014305115,"",32,,word,NOTEBOOK,,,,,,,,,,,,
html-keyboard-response,682,1119190,null,"<div style=""font-size:42px;"">COBBLER</div><img id = ""stim"" ><div class = green_square id = topsquare></div>",null,encoding,word_square,,,0,topsquare,none,true,,,COBBLER,6,,,
html-keyboard-response,683,1119501,null,"<div style=""font-size:42px;"">COBBLER</div>",null,,word,COBBLER,,,,,,,,,,,,
html-keyboard-response,684,1121017,null,"",null,,word,COBBLER,,,,,,,,,,,,
html-keyboard-response,685,1121221,null,"<div style=""font-size:42px;"">LILY</div><img id = ""stim"" ><div class = green_square id = bottomsquare></div>",null,encoding,word_square,,,0,bottomsquare,none,true,,,LILY,6,,,
html-keyboard-response,686,1121533,null,"<div style=""font-size:42px;"">LILY</div>",null,,word,LILY,,,,,,,,,,,,
html-keyboard-response,687,1123042,null,"",null,,word,LILY,,,,,,,,,,,,
html-keyboard-response,688,1123246,null,"<div style=""font-size:42px;"">SLOPE</div><img id = ""stim"" ><div class = green_square id = topsquare></div>",null,encoding,word_square,,,0,topsquare,none,true,,,SLOPE,6,,,
html-keyboard-response,689,1123563,null,"<div style=""font-size:42px;"">SLOPE</div>",null,,word,SLOPE,,,,,,,,,,,,
html-keyboard-response,690,1125079,null,"",null,,word,SLOPE,,,,,,,,,,,,
html-keyboard-response,691,1125283,null,"<div style=""font-size:42px;"">CASHIER</div><img id = ""stim"" ><div class = red_square id = topsquare></div>",null,encoding,word_square,,,1,topsquare,32,true,,,CASHIER,6,,,
html-keyboard-response,692,1125593,null,"<div style=""font-size:42px;"">CASHIER</div>",null,,word,CASHIER,,,,,,,,,,,,
html-keyboard-response,693,1127101,320.10000014305115,"",32,,word,CASHIER,,,,,,,,,,,,
html-keyboard-response,694,1127318,null,"<div style=""font-size:42px;"">FATHER</div><img id = ""stim"" ><div class = green_square id = bottomsquare></div>",null,encoding,word_square,,,0,bottomsquare,none,true,,,FATHER,6,,,
html-keyboard-response,695,1127633,null,"<div style=""font-size:42px;"">FATHER</div>",null,,word,FATHER,,,,,,,,,,,,
html-keyboard-response,696,1129150,null,"",null,,word,FATHER,,,,,,,,,,,,
html-keyboard-response,697,1129353,null,"<div style=""font-size:42px;"">CHIPMUNK</div><img id = ""stim"" ><div class = red_square id = bottomsquare></div>",null,encoding,word_square,,,1,bottomsquare,32,true,,,CHIPMUNK,6,,,
html-keyboard-response,698,1129665,null,"<div style=""font-size:42px;"">CHIPMUNK</div>",null,,word,CHIPMUNK,,,,,,,,,,,,
html-keyboard-response,699,1131170,528.7999999523163,"",32,,word,CHIPMUNK,,,,,,,,,,,,
html-keyboard-response,700,1131375,null,"<div style=""font-size:42px;"">PISTOL</div><img id = ""stim"" ><div class = green_square id = topsquare></div>",null,encoding,word_square,,,0,topsquare,none,false,,,PISTOL,6,,,
html-keyboard-response,701,1131686,null,"<div style=""font-size:42px;"">PISTOL</div>",null,,word,PISTOL,,,,,,,,,,,,
html-keyboard-response,702,1133200,457,"",32,,word,PISTOL,,,,,,,,,,,,
call-function,703,1133202,,"",,,,,,,,,,,,,,,,
html-keyboard-response,704,1133303,null,"",null,,,,,,,,,,,,,,,
math-period,705,1137689,13810.799999713898,"",,,,,,,,,,,0,,,,,
html-keyboard-response,706,1137794,null,"",null,,,,,,,,,,,,,,,
math-period,707,1140681,5235.499999761581,"",,,,,,,,,,,5,,,,,
html-keyboard-response,708,1140796,null,"",null,,,,,,,,,,,,,,,
math-period,709,1142360,2697.199999809265,"",,,,,,,,,,,6,,,,,
html-keyboard-response,710,1142471,null,"",null,,,,,,,,,,,,,,,
math-period,711,1144145,2842.5000002384186,"",,,,,,,,,,,4,,,,,
html-keyboard-response,712,1144260,null,"",null,,,,,,,,,,,,,,,
math-period,713,1145316,2006.4000000953674,"",,,,,,,,,,,6,,,,,
html-keyboard-response,714,1145435,null,"",null,,,,,,,,,,,,,,,
math-period,715,1147977,4640.899999856949,"",,,,,,,,,,,1,,,,,
html-keyboard-response,716,1148084,null,"",null,,,,,,,,,,,,,,,
math-period,717,1151484,6660.400000095367,"",,,,,,,,,,,1,,,,,
html-keyboard-response,718,1151590,null,"",null,,,,,,,,,,,,,,,
math-period,719,1153683,4053.2000000476837,"",,,,,,,,,,,1,,,,,
html-keyboard-response,720,1153796,null,"",null,,,,,,,,,,,,,,,
math-period,721,1155049,2068.800000190735,"",,,,,,,,,,,4,,,,,
html-keyboard-response,722,1155161,null,"",null,,,,,,,,,,,,,,,
math-period,723,1157207,null,"",,,,,,,,,,,,,,,,
html-keyboard-response,724,1158212,null,"Recall Period!",null,,,,,,,,,,,,,,,
call-function,725,1158212,,"",,,,,,,,,,,,,,,,
html-keyboard-response,726,1158322,null,"",null,,,,,,,,,,,,,,,
recall-period,727,1160658,12414.999999523163,"",,,,,,,,,,,chisel,,,,,
html-keyboard-response,728,1160760,null,"",null,,,,,,,,,,,,,,,
recall-period,729,1161808,4018.199999332428,"",,,,,,,,,,,father,,,,,
html-keyboard-response,730,1161925,null,"",null,,,,,,,,,,,,,,,
recall-period,731,1163081,5111.799999952316,"",,,,,,,,,,,coral,,,,,
html-keyboard-response,732,1163189,null,"",null,,,,,,,,,,,,,,,
recall-period,733,1165504,9117.700000047684,"",,,,,,,,,,,coin,,,,,
html-keyboard-response,734,1165615,null,"",null,,,,,,,,,,,,,,,
recall-period,735,1166985,6238.299999952316,"",,,,,,,,,,,artist,,,,,
html-keyboard-response,736,1167097,null,"",null,,,,,,,,,,,,,,,
recall-period,737,1172352,27098.89999985695,"",,,,,,,,,,,notebook,,,,,
html-keyboard-response,738,1172470,null,"",null,,,,,,,,,,,,,,,
recall-period,739,1179744,44859.100001096725,"",,,,,,,,,,,frie,,,,,
html-keyboard-response,740,1179848,null,"",null,,,,,,,,,,,,,,,
recall-period,741,1233218,6488.700000047684,"",,,,,,,,,,, ,,,,,
html-keyboard-response,742,1233737,null,"Time's Up!",null,,,,,,,,,,,,,,,
html-keyboard-response,743,1237649,3910.399999856949,"<p> Good job! You have responded correctly to 95% of the trials. </p>
                      <p>Be sure to only press the spacebar if you see a red square, and please keep your accuracy above 80%.</p>
                      <p> Press any key to continue the experiment. </p>",32,,,,,,,,,,,,,,,
html-keyboard-response,744,1238894,1242.7000000476837,"<div style=""font-size:48px;"">Press any key to begin list 8 of 16 </div>",32,,,,,,,,,,,,,,,
html-keyboard-response,745,1241405,null,"<div style=""font-size:60px;"">+</div>",null,,,,,,,,,,,,,,,
html-keyboard-response,746,1241608,null,"<div style=""font-size:42px;"">ROCKET</div><img id = ""stim"" ><div class = green_square id = topsquare></div>",null,encoding,word_square,,,0,topsquare,none,false,,,ROCKET,7,,,
html-keyboard-response,747,1241924,null,"<div style=""font-size:42px;"">ROCKET</div>",null,,word,ROCKET,,,,,,,,,,,,
html-keyboard-response,748,1243435,578.1000001430511,"",32,,word,ROCKET,,,,,,,,,,,,
html-keyboard-response,749,1243638,null,"<div style=""font-size:42px;"">LAKE</div><img id = ""stim"" ><div class = red_square id = bottomsquare></div>",null,encoding,word_square,,,1,bottomsquare,32,true,,,LAKE,7,,,
html-keyboard-response,750,1243955,null,"<div style=""font-size:42px;"">LAKE</div>",null,,word,LAKE,,,,,,,,,,,,
html-keyboard-response,751,1245460,456.90000009536743,"",32,,word,LAKE,,,,,,,,,,,,
html-keyboard-response,752,1245678,null,"<div style=""font-size:42px;"">CABLE</div><img id = ""stim"" ><div class = green_square id = bottomsquare></div>",null,encoding,word_square,,,0,bottomsquare,none,true,,,CABLE,7,,,
html-keyboard-response,753,1245993,null,"<div style=""font-size:42px;"">CABLE</div>",null,,word,CABLE,,,,,,,,,,,,
html-keyboard-response,754,1247506,null,"",null,,word,CABLE,,,,,,,,,,,,
html-keyboard-response,755,1247723,null,"<div style=""font-size:42px;"">STOCKING</div><img id = ""stim"" ><div class = red_square id = topsquare></div>",null,encoding,word_square,,,1,topsquare,32,true,,,STOCKING,7,,,
html-keyboard-response,756,1248036,null,"<div style=""font-size:42px;"">STOCKING</div>",null,,word,STOCKING,,,,,,,,,,,,
html-keyboard-response,757,1249545,595.0999999046326,"",32,,word,STOCKING,,,,,,,,,,,,
html-keyboard-response,758,1249748,null,"<div style=""font-size:42px;"">BRUNETTE</div><img id = ""stim"" ><div class = green_square id = topsquare></div>",null,encoding,word_square,,,0,topsquare,none,true,,,BRUNETTE,7,,,
html-keyboard-response,759,1250053,null,"<div style=""font-size:42px;"">BRUNETTE</div>",null,,word,BRUNETTE,,,,,,,,,,,,
html-keyboard-response,760,1251568,null,"",null,,word,BRUNETTE,,,,,,,,,,,,
html-keyboard-response,761,1251786,null,"<div style=""font-size:42px;"">GALLON</div><img id = ""stim"" ><div class = green_square id = bottomsquare></div>",null,encoding,word_square,,,0,bottomsquare,none,true,,,GALLON,7,,,
html-keyboard-response,762,1252099,null,"<div style=""font-size:42px;"">GALLON</div>",null,,word,GALLON,,,,,,,,,,,,
html-keyboard-response,763,1253614,null,"",null,,word,GALLON,,,,,,,,,,,,
html-keyboard-response,764,1253819,null,"<div style=""font-size:42px;"">MILK</div><img id = ""stim"" ><div class = green_square id = topsquare></div>",null,encoding,word_square,,,0,topsquare,none,true,,,MILK,7,,,
html-keyboard-response,765,1254132,null,"<div style=""font-size:42px;"">MILK</div>",null,,word,MILK,,,,,,,,,,,,
html-keyboard-response,766,1255645,null,"",null,,word,MILK,,,,,,,,,,,,
html-keyboard-response,767,1255849,null,"<div style=""font-size:42px;"">DONKEY</div><img id = ""stim"" ><div class = red_square id = bottomsquare></div>",null,encoding,word_square,,,1,bottomsquare,32,true,,,DONKEY,7,,,
html-keyboard-response,768,1256161,277.40000009536743,"<div style=""font-size:42px;"">DONKEY</div>",32,,word,DONKEY,,,,,,,,,,,,
html-keyboard-response,769,1257665,null,"",null,,word,DONKEY,,,,,,,,,,,,
html-keyboard-response,770,1257882,null,"<div style=""font-size:42px;"">CRATER</div><img id = ""stim"" ><div class = red_square id = topsquare></div>",null,encoding,word_square,,,1,topsquare,32,false,,,CRATER,7,,,
html-keyboard-response,771,1258199,null,"<div style=""font-size:42px;"">CRATER</div>",null,,word,CRATER,,,,,,,,,,,,
html-keyboard-response,772,1259711,null,"",null,,word,CRATER,,,,,,,,,,,,
html-keyboard-response,773,1259917,null,"<div style=""font-size:42px;"">FOX</div><img id = ""stim"" ><div class = green_square id = bottomsquare></div>",null,encoding,word_square,,,0,bottomsquare,none,true,,,FOX,7,,,
html-keyboard-response,774,1260230,null,"<div style=""font-size:42px;"">FOX</div>",null,,word,FOX,,,,,,,,,,,,
html-keyboard-response,775,1261744,null,"",null,,word,FOX,,,,,,,,,,,,
html-keyboard-response,776,1261948,null,"<div style=""font-size:42px;"">RELISH</div><img id = ""stim"" ><div class = red_square id = bottomsquare></div>",null,encoding,word_square,,,1,bottomsquare,32,true,,,RELISH,7,,,
html-keyboard-response,777,1262265,212.5,"<div style=""font-size:42px;"">RELISH</div>",32,,word,RELISH,,,,,,,,,,,,
html-keyboard-response,778,1263767,null,"",null,,word,RELISH,,,,,,,,,,,,
html-keyboard-response,779,1263972,null,"<div style=""font-size:42px;"">FEMALE</div><img id = ""stim"" ><div class = red_square id = topsquare></div>",null,encoding,word_square,,,1,topsquare,32,true,,,FEMALE,7,,,
html-keyboard-response,780,1264286,null,"<div style=""font-size:42px;"">FEMALE</div>",null,,word,FEMALE,,,,,,,,,,,,
html-keyboard-response,781,1265792,566.7000000476837,"",32,,word,FEMALE,,,,,,,,,,,,
html-keyboard-response,782,1265997,null,"<div style=""font-size:42px;"">KETCHUP</div><img id = ""stim"" ><div class = green_square id = topsquare></div>",null,encoding,word_square,,,0,topsquare,none,true,,,KETCHUP,7,,,
html-keyboard-response,783,1266312,null,"<div style=""font-size:42px;"">KETCHUP</div>",null,,word,KETCHUP,,,,,,,,,,,,
html-keyboard-response,784,1267829,null,"",null,,word,KETCHUP,,,,,,,,,,,,
html-keyboard-response,785,1268047,null,"<div style=""font-size:42px;"">MISSILE</div><img id = ""stim"" ><div class = red_square id = bottomsquare></div>",null,encoding,word_square,,,1,bottomsquare,32,true,,,MISSILE,7,,,
html-keyboard-response,786,1268362,null,"<div style=""font-size:42px;"">MISSILE</div>",null,,word,MISSILE,,,,,,,,,,,,
html-keyboard-response,787,1269867,92.89999985694885,"",32,,word,MISSILE,,,,,,,,,,,,
html-keyboard-response,788,1270073,null,"<div style=""font-size:42px;"">SATURN</div><img id = ""stim"" ><div class = red_square id = topsquare></div>",null,encoding,word_square,,,1,topsquare,32,false,,,SATURN,7,,,
html-keyboard-response,789,1270388,null,"<div style=""font-size:42px;"">SATURN</div>",null,,word,SATURN,,,,,,,,,,,,
html-keyboard-response,790,1271907,null,"",null,,word,SATURN,,,,,,,,,,,,
html-keyboard-response,791,1272112,null,"<div style=""font-size:42px;"">ELBOW</div><img id = ""stim"" ><div class = green_square id = bottomsquare></div>",null,encoding,word_square,,,0,bottomsquare,none,true,,,ELBOW,7,,,
html-keyboard-response,792,1272429,null,"<div style=""font-size:42px;"">ELBOW</div>",null,,word,ELBOW,,,,,,,,,,,,
html-keyboard-response,793,1273937,null,"",null,,word,ELBOW,,,,,,,,,,,,
call-function,794,1273940,,"",,,,,,,,,,,,,,,,
html-keyboard-response,795,1274048,null,"",null,,,,,,,,,,,,,,,
math-period,796,1277574,6931.200000286102,"",,,,,,,,,,,1,,,,,
html-keyboard-response,797,1277683,null,"",null,,,,,,,,,,,,,,,
math-period,798,1280894,9716.499999761581,"",,,,,,,,,,,4,,,,,
html-keyboard-response,799,1280997,null,"",null,,,,,,,,,,,,,,,
math-period,800,1282805,3520.4000000953674,"",,,,,,,,,,,2,,,,,
html-keyboard-response,801,1282922,null,"",null,,,,,,,,,,,,,,,
math-period,802,1284807,3245.800000190735,"",,,,,,,,,,,5,,,,,
html-keyboard-response,803,1284920,null,"",null,,,,,,,,,,,,,,,
math-period,804,1286021,2094.100000143051,"",,,,,,,,,,,3,,,,,
html-keyboard-response,805,1286124,null,"",null,,,,,,,,,,,,,,,
math-period,806,1287742,2667.800000190735,"",,,,,,,,,,,5,,,,,
html-keyboard-response,807,1287854,null,"",null,,,,,,,,,,,,,,,
math-period,808,1289220,2497.899999856949,"",,,,,,,,,,,4,,,,,
html-keyboard-response,809,1289324,null,"",null,,,,,,,,,,,,,,,
math-period,810,1291271,3610.5000002384186,"",,,,,,,,,,,5,,,,,
html-keyboard-response,811,1291388,null,"",null,,,,,,,,,,,,,,,
math-period,812,1292933,2760.300000190735,"",,,,,,,,,,,2,,,,,
html-keyboard-response,813,1293037,null,"",null,,,,,,,,,,,,,,,
math-period,814,1294838,3219.2000002861023,"",,,,,,,,,,,4,,,,,
html-keyboard-response,815,1294943,null,"",null,,,,,,,,,,,,,,,
math-period,816,1296460,2549.199999809265,"",,,,,,,,,,,6,,,,,
html-keyboard-response,817,1296564,null,"",null,,,,,,,,,,,,,,,
math-period,818,1297596,1918,"",,,,,,,,,,,3,,,,,
html-keyboard-response,819,1297706,null,"",null,,,,,,,,,,,,,,,
math-period,820,1297942,null,"",,,,,,,,,,,,,,,,
html-keyboard-response,821,1298957,null,"Recall Period!",null,,,,,,,,,,,,,,,
call-function,822,1298959,,"",,,,,,,,,,,,,,,,
html-keyboard-response,823,1299067,null,"",null,,,,,,,,,,,,,,,
recall-period,824,1302346,16763.299998998642,"",,,,,,,,,,,rocket,,,,,
html-keyboard-response,825,1302451,null,"",null,,,,,,,,,,,,,,,
recall-period,826,1303927,4622.800000190735,"",,,,,,,,,,,fox,,,,,
html-keyboard-response,827,1304039,null,"",null,,,,,,,,,,,,,,,
recall-period,828,1310326,51383.10000061989,"",,,,,,,,,,,misile ,,,,,
html-keyboard-response,829,1310441,null,"",null,,,,,,,,,,,,,,,
recall-period,830,1312257,5635.10000038147,"",,,,,,,,,,,milk,,,,,
html-keyboard-response,831,1312375,null,"",null,,,,,,,,,,,,,,,
recall-period,832,1315501,8665.299999952316,"",,,,,,,,,,,gallon,,,,,
html-keyboard-response,833,1315617,null,"",null,,,,,,,,,,,,,,,
recall-period,834,1316931,5642.199999332428,"",,,,,,,,,,,cable,,,,,
html-keyboard-response,835,1317042,null,"",null,,,,,,,,,,,,,,,
recall-period,836,1373976,null,"",,,,,,,,,,,,,,,,
html-keyboard-response,837,1374481,null,"Time's Up!",null,,,,,,,,,,,,,,,
html-keyboard-response,838,1376165,1679.4000000953674,"<p> Good job! You have responded correctly to 93% of the trials. </p>
                      <p>Be sure to only press the spacebar if you see a red square, and please keep your accuracy above 80%.</p>
                      <p> Press any key to continue the experiment. </p>",32,,,,,,,,,,,,,,,
html-keyboard-response,839,1377292,1125,"<div style=""font-size:48px;"">Press any key to begin list 9 of 16 </div>",32,,,,,,,,,,,,,,,
html-keyboard-response,840,1379806,null,"<div style=""font-size:60px;"">+</div>",null,,,,,,,,,,,,,,,
html-keyboard-response,841,1380012,null,"<div style=""font-size:42px;"">GYMNAST</div><img id = ""stim"" ><div class = red_square id = topsquare></div>",null,encoding,word_square,,,1,topsquare,32,true,,,GYMNAST,8,,,
html-keyboard-response,842,1380328,null,"<div style=""font-size:42px;"">GYMNAST</div>",null,,word,GYMNAST,,,,,,,,,,,,
html-keyboard-response,843,1381831,22.799999952316284,"",32,,word,GYMNAST,,,,,,,,,,,,
html-keyboard-response,844,1382036,null,"<div style=""font-size:42px;"">BIBLE</div><img id = ""stim"" ><div class = green_square id = bottomsquare></div>",null,encoding,word_square,,,0,bottomsquare,none,true,,,BIBLE,8,,,
html-keyboard-response,845,1382351,null,"<div style=""font-size:42px;"">BIBLE</div>",null,,word,BIBLE,,,,,,,,,,,,
html-keyboard-response,846,1383853,null,"",null,,word,BIBLE,,,,,,,,,,,,
html-keyboard-response,847,1384059,null,"<div style=""font-size:42px;"">TRUCK</div><img id = ""stim"" ><div class = red_square id = bottomsquare></div>",null,encoding,word_square,,,1,bottomsquare,32,true,,,TRUCK,8,,,
html-keyboard-response,848,1384374,null,"<div style=""font-size:42px;"">TRUCK</div>",null,,word,TRUCK,,,,,,,,,,,,
html-keyboard-response,849,1385888,140.09999990463257,"",32,,word,TRUCK,,,,,,,,,,,,
html-keyboard-response,850,1386094,null,"<div style=""font-size:42px;"">SEAL</div><img id = ""stim"" ><div class = red_square id = topsquare></div>",null,encoding,word_square,,,1,topsquare,32,true,,,SEAL,8,,,
html-keyboard-response,851,1386411,null,"<div style=""font-size:42px;"">SEAL</div>",null,,word,SEAL,,,,,,,,,,,,
html-keyboard-response,852,1387918,613.5,"",32,,word,SEAL,,,,,,,,,,,,
html-keyboard-response,853,1388121,null,"<div style=""font-size:42px;"">ZEBRA</div><img id = ""stim"" ><div class = green_square id = topsquare></div>",null,encoding,word_square,,,0,topsquare,none,true,,,ZEBRA,8,,,
html-keyboard-response,854,1388437,null,"<div style=""font-size:42px;"">ZEBRA</div>",null,,word,ZEBRA,,,,,,,,,,,,
html-keyboard-response,855,1389940,null,"",null,,word,ZEBRA,,,,,,,,,,,,
html-keyboard-response,856,1390145,null,"<div style=""font-size:42px;"">CABOOSE</div><img id = ""stim"" ><div class = green_square id = bottomsquare></div>",null,encoding,word_square,,,0,bottomsquare,none,true,,,CABOOSE,8,,,
html-keyboard-response,857,1390462,null,"<div style=""font-size:42px;"">CABOOSE</div>",null,,word,CABOOSE,,,,,,,,,,,,
html-keyboard-response,858,1391968,null,"",null,,word,CABOOSE,,,,,,,,,,,,
html-keyboard-response,859,1392185,null,"<div style=""font-size:42px;"">AUTHOR</div><img id = ""stim"" ><div class = red_square id = bottomsquare></div>",null,encoding,word_square,,,1,bottomsquare,32,true,,,AUTHOR,8,,,
html-keyboard-response,860,1392501,257,"<div style=""font-size:42px;"">AUTHOR</div>",32,,word,AUTHOR,,,,,,,,,,,,
html-keyboard-response,861,1394005,null,"",null,,word,AUTHOR,,,,,,,,,,,,
html-keyboard-response,862,1394208,null,"<div style=""font-size:42px;"">NOVEL</div><img id = ""stim"" ><div class = green_square id = topsquare></div>",null,encoding,word_square,,,0,topsquare,none,true,,,NOVEL,8,,,
html-keyboard-response,863,1394525,null,"<div style=""font-size:42px;"">NOVEL</div>",null,,word,NOVEL,,,,,,,,,,,,
html-keyboard-response,864,1396029,null,"",null,,word,NOVEL,,,,,,,,,,,,
html-keyboard-response,865,1396248,null,"<div style=""font-size:42px;"">MOTOR</div><img id = ""stim"" ><div class = green_square id = bottomsquare></div>",null,encoding,word_square,,,0,bottomsquare,none,true,,,MOTOR,8,,,
html-keyboard-response,866,1396561,null,"<div style=""font-size:42px;"">MOTOR</div>",null,,word,MOTOR,,,,,,,,,,,,
html-keyboard-response,867,1398065,null,"",null,,word,MOTOR,,,,,,,,,,,,
html-keyboard-response,868,1398274,null,"<div style=""font-size:42px;"">DOORBELL</div><img id = ""stim"" ><div class = red_square id = topsquare></div>",null,encoding,word_square,,,1,topsquare,32,true,,,DOORBELL,8,,,
html-keyboard-response,869,1398591,null,"<div style=""font-size:42px;"">DOORBELL</div>",null,,word,DOORBELL,,,,,,,,,,,,
html-keyboard-response,870,1400106,42.90000009536743,"",32,,word,DOORBELL,,,,,,,,,,,,
html-keyboard-response,871,1400314,null,"<div style=""font-size:42px;"">SCHOOL</div><img id = ""stim"" ><div class = red_square id = bottomsquare></div>",null,encoding,word_square,,,1,bottomsquare,32,true,,,SCHOOL,8,,,
html-keyboard-response,872,1400631,null,"<div style=""font-size:42px;"">SCHOOL</div>",null,,word,SCHOOL,,,,,,,,,,,,
html-keyboard-response,873,1402146,205.90000009536743,"",32,,word,SCHOOL,,,,,,,,,,,,
html-keyboard-response,874,1402352,null,"<div style=""font-size:42px;"">AGENT</div><img id = ""stim"" ><div class = green_square id = topsquare></div>",null,encoding,word_square,,,0,topsquare,none,true,,,AGENT,8,,,
html-keyboard-response,875,1402669,null,"<div style=""font-size:42px;"">AGENT</div>",null,,word,AGENT,,,,,,,,,,,,
html-keyboard-response,876,1404182,null,"",null,,word,AGENT,,,,,,,,,,,,
html-keyboard-response,877,1404398,null,"<div style=""font-size:42px;"">CLOTHES</div><img id = ""stim"" ><div class = green_square id = bottomsquare></div>",null,encoding,word_square,,,0,bottomsquare,none,true,,,CLOTHES,8,,,
html-keyboard-response,878,1404711,null,"<div style=""font-size:42px;"">CLOTHES</div>",null,,word,CLOTHES,,,,,,,,,,,,
html-keyboard-response,879,1406229,null,"",null,,word,CLOTHES,,,,,,,,,,,,
html-keyboard-response,880,1406435,null,"<div style=""font-size:42px;"">SPOUSE</div><img id = ""stim"" ><div class = red_square id = topsquare></div>",null,encoding,word_square,,,1,topsquare,32,true,,,SPOUSE,8,,,
html-keyboard-response,881,1406749,null,"<div style=""font-size:42px;"">SPOUSE</div>",null,,word,SPOUSE,,,,,,,,,,,,
html-keyboard-response,882,1408251,221.40000009536743,"",32,,word,SPOUSE,,,,,,,,,,,,
html-keyboard-response,883,1408454,null,"<div style=""font-size:42px;"">HELMET</div><img id = ""stim"" ><div class = red_square id = bottomsquare></div>",null,encoding,word_square,,,1,bottomsquare,32,false,,,HELMET,8,,,
html-keyboard-response,884,1408767,null,"<div style=""font-size:42px;"">HELMET</div>",null,,word,HELMET,,,,,,,,,,,,
html-keyboard-response,885,1410281,null,"",null,,word,HELMET,,,,,,,,,,,,
