trial_type,trial_index,time_elapsed,rt,stimulus,key_press,exp_phase,test_part,word,task,targ_cond,sq_pos,correctKeyCode,correct,value,response,Word,List,RecResp,serial_pos,colorChosen
pavlovia,0,3121,,"",,,,,,,,,,,,,,,,
external-html,1,19170,15658.100000143051,"",,,,,,,,,,,,,,,,
html-keyboard-response,2,20962,1788.5,"Welcome to the experiment. Press any key to begin.",75,,,,,,,,,,,,,,,
html-keyboard-response,3,37090,16126.900000095367,"<p>You will see a list of words and colored squares in the following task.<p><p>Press the spacebar whenever you see a GREEN square.<p><p>Do not press a key if the square is RED.<p><p>Press the spacebar to continue.</p>",32,,,,,,,,,,,,,,,
html-keyboard-response,4,43584,5981.599999904633,"<p>Please try to remember as many of the words as you can, and try to think about the meaning of each word as it appears.<p><p>After the detection and encoding task you will be asked to solve some math problems for 24 seconds.<p> Please solve as many problems as you can in the time given. <p><p><p>Press the spacebar to continue.</p>",32,,,,,,,,,,,,,,,
html-keyboard-response,5,53599,9500.199999809265,"After solving the math problems, you will be asked to type in as many words <p>from the previous list as you can remember for 75 seconds.<p> If you finish recalling before the 75 seconds are up,<p> just sit tight and try to think of any more words you could have missed. <p><p><p>Press the spacebar to continue.</p>",32,,,,,,,,,,,,,,,
html-keyboard-response,6,58545,4437,"There will be 16 lists of words and recall, followed  by<p><p> a recognition phase. The experiment is expected to take up to 90 minutes.<p>We will begin with a brief practice session.<p>Press the spacebar to begin the practice.</p>",32,,,,,,,,,,,,,,,
html-keyboard-response,7,61057,null,"<div style=""font-size:60px;"">+</div>",null,,,,,,,,,,,,,,,
html-keyboard-response,8,61262,null,"<div style=""font-size:42px;"">HAPPY</div><img id = ""stim"" ><div class = red_square id = ""bottomsquare"" ></div>",null,practice,word_square,HAPPY,prac_response,0,Bottom,none,true,,,,,,,
html-keyboard-response,9,61564,null,"<div style=""font-size:42px;"">HAPPY</div>",null,,word,HAPPY,,,,,,,,,,,,
html-keyboard-response,10,63069,null,"",null,,word,HAPPY,,,,,,,,,,,,
html-keyboard-response,11,63274,null,"<div style=""font-size:42px;"">COLD</div><img id = ""stim"" ><div class = green_square id = ""bottomsquare"" ></div>",null,practice,word_square,COLD,prac_response,1,Bottom,32,true,,,,,,,
html-keyboard-response,12,63578,null,"<div style=""font-size:42px;"">COLD</div>",null,,word,COLD,,,,,,,,,,,,
html-keyboard-response,13,65089,73.89999985694885,"",32,,word,COLD,,,,,,,,,,,,
html-keyboard-response,14,65296,null,"<div style=""font-size:42px;"">HEAVY</div><img id = ""stim"" ><div class = green_square id = ""topsquare"" ></div>",null,practice,word_square,HEAVY,prac_response,1,Top,32,true,,,,,,,
html-keyboard-response,15,65600,null,"<div style=""font-size:42px;"">HEAVY</div>",null,,word,HEAVY,,,,,,,,,,,,
html-keyboard-response,16,67113,40.200000047683716,"",32,,word,HEAVY,,,,,,,,,,,,
html-keyboard-response,17,67319,null,"<div style=""font-size:42px;"">FUNNY</div><img id = ""stim"" ><div class = red_square id = ""topsquare"" ></div>",null,practice,word_square,FUNNY,prac_response,0,Top,none,true,,,,,,,
html-keyboard-response,18,67621,null,"<div style=""font-size:42px;"">FUNNY</div>",null,,word,FUNNY,,,,,,,,,,,,
html-keyboard-response,19,69135,null,"",null,,word,FUNNY,,,,,,,,,,,,
html-keyboard-response,20,69341,null,"<div style=""font-size:42px;"">SCARY</div><img id = ""stim"" ><div class = green_square id = ""bottomsquare"" ></div>",null,practice,word_square,SCARY,prac_response,1,Bottom,32,true,,,,,,,
html-keyboard-response,21,69642,123.5,"<div style=""font-size:42px;"">SCARY</div>",32,,word,SCARY,,,,,,,,,,,,
html-keyboard-response,22,71153,null,"",null,,word,SCARY,,,,,,,,,,,,
html-keyboard-response,23,71360,null,"<div style=""font-size:42px;"">PEACEFUL</div><img id = ""stim"" ><div class = green_square id = ""topsquare"" ></div>",null,practice,word_square,PEACEFUL,prac_response,1,Top,32,true,,,,,,,
html-keyboard-response,24,71661,213.40000009536743,"<div style=""font-size:42px;"">PEACEFUL</div>",32,,word,PEACEFUL,,,,,,,,,,,,
html-keyboard-response,25,73166,null,"",null,,word,PEACEFUL,,,,,,,,,,,,
html-keyboard-response,26,73373,null,"<div style=""font-size:42px;"">LITTLE</div><img id = ""stim"" ><div class = red_square id = ""bottomsquare"" ></div>",null,practice,word_square,LITTLE,prac_response,0,Bottom,none,true,,,,,,,
html-keyboard-response,27,73690,null,"<div style=""font-size:42px;"">LITTLE</div>",null,,word,LITTLE,,,,,,,,,,,,
html-keyboard-response,28,75196,null,"",null,,word,LITTLE,,,,,,,,,,,,
html-keyboard-response,29,75402,null,"<div style=""font-size:42px;"">TIRED</div><img id = ""stim"" ><div class = red_square id = ""topsquare"" ></div>",null,practice,word_square,TIRED,prac_response,0,Top,none,true,,,,,,,
html-keyboard-response,30,75706,null,"<div style=""font-size:42px;"">TIRED</div>",null,,word,TIRED,,,,,,,,,,,,
html-keyboard-response,31,77213,null,"",null,,word,TIRED,,,,,,,,,,,,
html-keyboard-response,32,77417,null,"<div style=""font-size:42px;"">ENTERTAINING</div><img id = ""stim"" ><div class = red_square id = ""bottomsquare"" ></div>",null,practice,word_square,ENTERTAINING,prac_response,0,Bottom,none,true,,,,,,,
html-keyboard-response,33,77719,null,"<div style=""font-size:42px;"">ENTERTAINING</div>",null,,word,ENTERTAINING,,,,,,,,,,,,
html-keyboard-response,34,79229,null,"",null,,word,ENTERTAINING,,,,,,,,,,,,
html-keyboard-response,35,79434,null,"<div style=""font-size:42px;"">GRATEFUL</div><img id = ""stim"" ><div class = green_square id = ""bottomsquare"" ></div>",null,practice,word_square,GRATEFUL,prac_response,1,Bottom,32,true,,,,,,,
html-keyboard-response,36,79750,null,"<div style=""font-size:42px;"">GRATEFUL</div>",null,,word,GRATEFUL,,,,,,,,,,,,
html-keyboard-response,37,81258,26.799999952316284,"",32,,word,GRATEFUL,,,,,,,,,,,,
html-keyboard-response,38,81466,null,"<div style=""font-size:42px;"">LOUD</div><img id = ""stim"" ><div class = red_square id = ""topsquare"" ></div>",null,practice,word_square,LOUD,prac_response,0,Top,none,true,,,,,,,
html-keyboard-response,39,81780,null,"<div style=""font-size:42px;"">LOUD</div>",null,,word,LOUD,,,,,,,,,,,,
html-keyboard-response,40,83288,null,"",null,,word,LOUD,,,,,,,,,,,,
html-keyboard-response,41,83496,null,"<div style=""font-size:42px;"">SMART</div><img id = ""stim"" ><div class = green_square id = ""topsquare"" ></div>",null,practice,word_square,SMART,prac_response,1,Top,32,true,,,,,,,
html-keyboard-response,42,83797,193.09999990463257,"<div style=""font-size:42px;"">SMART</div>",32,,word,SMART,,,,,,,,,,,,
html-keyboard-response,43,85301,null,"",null,,word,SMART,,,,,,,,,,,,
html-keyboard-response,44,85507,null,"<div style=""font-size:42px;"">SMOOTH</div><img id = ""stim"" ><div class = green_square id = ""bottomsquare"" ></div>",null,practice,word_square,SMOOTH,prac_response,1,Bottom,32,true,,,,,,,
html-keyboard-response,45,85808,201.5,"<div style=""font-size:42px;"">SMOOTH</div>",32,,word,SMOOTH,,,,,,,,,,,,
html-keyboard-response,46,87313,null,"",null,,word,SMOOTH,,,,,,,,,,,,
html-keyboard-response,47,87519,null,"<div style=""font-size:42px;"">DISHONEST</div><img id = ""stim"" ><div class = red_square id = ""bottomsquare"" ></div>",null,practice,word_square,DISHONEST,prac_response,0,Bottom,none,true,,,,,,,
html-keyboard-response,48,87821,null,"<div style=""font-size:42px;"">DISHONEST</div>",null,,word,DISHONEST,,,,,,,,,,,,
html-keyboard-response,49,89330,null,"",null,,word,DISHONEST,,,,,,,,,,,,
html-keyboard-response,50,89537,null,"<div style=""font-size:42px;"">WEALTHY</div><img id = ""stim"" ><div class = green_square id = ""topsquare"" ></div>",null,practice,word_square,WEALTHY,prac_response,1,Top,32,true,,,,,,,
html-keyboard-response,51,89838,272.69999980926514,"<div style=""font-size:42px;"">WEALTHY</div>",32,,word,WEALTHY,,,,,,,,,,,,
html-keyboard-response,52,91350,null,"",null,,word,WEALTHY,,,,,,,,,,,,
html-keyboard-response,53,91556,null,"<div style=""font-size:42px;"">BEAUTIFUL</div><img id = ""stim"" ><div class = red_square id = ""topsquare"" ></div>",null,practice,word_square,BEAUTIFUL,prac_response,0,Top,none,true,,,,,,,
html-keyboard-response,54,91860,null,"<div style=""font-size:42px;"">BEAUTIFUL</div>",null,,word,BEAUTIFUL,,,,,,,,,,,,
html-keyboard-response,55,93373,null,"",null,,word,BEAUTIFUL,,,,,,,,,,,,
html-keyboard-response,56,101698,8323.5,"<p> Good job! You responded correctly to 100% of the trials. </p>
                  <p>Be sure to only press the spacebar if you see a GREEN square, and please keep your accuracy above 80%.</p>
                  <p>We're going to try once more to make sure you understand the task. press any key to continue. </p>",32,,,,,,,,,,,,,,,
html-keyboard-response,57,103718,2019.2999999523163,"<p>You will see a list of words and colored squares in the following task.<p><p>Press the spacebar whenever you see a GREEN square.<p><p>Do not press a key if the square is RED<p><p>Press the spacebar to continue.</p>",32,,,,,,,,,,,,,,,
html-keyboard-response,58,106237,null,"<div style=""font-size:60px;"">+</div>",null,,,,,,,,,,,,,,,
html-keyboard-response,59,106445,null,"<div style=""font-size:42px;"">HAPPY</div><img id = ""stim"" ><div class = red_square id = ""bottomsquare"" ></div>",null,practice2,word_square,HAPPY,prac_response,0,Bottom,none,true,,,,,,,
html-keyboard-response,60,106747,null,"<div style=""font-size:42px;"">HAPPY</div>",null,,word,HAPPY,,,,,,,,,,,,
html-keyboard-response,61,108254,null,"",null,,word,HAPPY,,,,,,,,,,,,
html-keyboard-response,62,108462,null,"<div style=""font-size:42px;"">COLD</div><img id = ""stim"" ><div class = green_square id = ""bottomsquare"" ></div>",null,practice2,word_square,,prac_response,1,Bottom,32,true,,,,,,,
html-keyboard-response,63,108763,224.89999985694885,"<div style=""font-size:42px;"">COLD</div>",32,,word,COLD,,,,,,,,,,,,
html-keyboard-response,64,110275,null,"",null,,word,COLD,,,,,,,,,,,,
html-keyboard-response,65,110482,null,"<div style=""font-size:42px;"">HEAVY</div><img id = ""stim"" ><div class = green_square id = ""topsquare"" ></div>",null,practice2,word_square,,prac_response,1,Top,32,true,,,,,,,
html-keyboard-response,66,110785,144.79999995231628,"<div style=""font-size:42px;"">HEAVY</div>",32,,word,HEAVY,,,,,,,,,,,,
html-keyboard-response,67,112297,null,"",null,,word,HEAVY,,,,,,,,,,,,
html-keyboard-response,68,112502,null,"<div style=""font-size:42px;"">FUNNY</div><img id = ""stim"" ><div class = red_square id = ""topsquare"" ></div>",null,practice2,word_square,,prac_response,0,Top,none,true,,,,,,,
html-keyboard-response,69,112805,null,"<div style=""font-size:42px;"">FUNNY</div>",null,,word,FUNNY,,,,,,,,,,,,
html-keyboard-response,70,114307,null,"",null,,word,FUNNY,,,,,,,,,,,,
html-keyboard-response,71,114513,null,"<div style=""font-size:42px;"">SCARY</div><img id = ""stim"" ><div class = green_square id = ""bottomsquare"" ></div>",null,practice2,word_square,,prac_response,1,Bottom,32,true,,,,,,,
html-keyboard-response,72,114828,129.59999990463257,"<div style=""font-size:42px;"">SCARY</div>",32,,word,SCARY,,,,,,,,,,,,
html-keyboard-response,73,116334,null,"",null,,word,SCARY,,,,,,,,,,,,
html-keyboard-response,74,116539,null,"<div style=""font-size:42px;"">PEACEFUL</div><img id = ""stim"" ><div class = green_square id = ""topsquare"" ></div>",null,practice2,word_square,,prac_response,1,Top,32,true,,,,,,,
html-keyboard-response,75,116854,146.30000019073486,"<div style=""font-size:42px;"">PEACEFUL</div>",32,,word,PEACEFUL,,,,,,,,,,,,
html-keyboard-response,76,118368,null,"",null,,word,PEACEFUL,,,,,,,,,,,,
html-keyboard-response,77,118573,null,"<div style=""font-size:42px;"">LITTLE</div><img id = ""stim"" ><div class = red_square id = ""bottomsquare"" ></div>",null,practice2,word_square,LITTLE,prac_response,0,Bottom,none,true,,,,,,,
html-keyboard-response,78,118876,null,"<div style=""font-size:42px;"">LITTLE</div>",null,,word,LITTLE,,,,,,,,,,,,
html-keyboard-response,79,120387,null,"",null,,word,LITTLE,,,,,,,,,,,,
html-keyboard-response,80,120593,null,"<div style=""font-size:42px;"">TIRED</div><img id = ""stim"" ><div class = red_square id = ""topsquare"" ></div>",null,practice2,word_square,,prac_response,0,Top,none,true,,,,,,,
html-keyboard-response,81,120897,null,"<div style=""font-size:42px;"">TIRED</div>",null,,word,TIRED,,,,,,,,,,,,
html-keyboard-response,82,122408,null,"",null,,word,TIRED,,,,,,,,,,,,
html-keyboard-response,83,122615,null,"<div style=""font-size:42px;"">ENTERTAINING</div><img id = ""stim"" ><div class = red_square id = ""bottomsquare"" ></div>",null,practice2,word_square,ENTERTAINING,prac_response,0,Bottom,none,true,,,,,,,
html-keyboard-response,84,122917,null,"<div style=""font-size:42px;"">ENTERTAINING</div>",null,,word,ENTERTAINING,,,,,,,,,,,,
html-keyboard-response,85,124422,null,"",null,,word,ENTERTAINING,,,,,,,,,,,,
html-keyboard-response,86,124628,null,"<div style=""font-size:42px;"">GRATEFUL</div><img id = ""stim"" ><div class = green_square id = ""bottomsquare"" ></div>",null,practice2,word_square,,prac_response,1,Bottom,32,true,,,,,,,
html-keyboard-response,87,124929,125.5,"<div style=""font-size:42px;"">GRATEFUL</div>",32,,word,GRATEFUL,,,,,,,,,,,,
html-keyboard-response,88,126442,null,"",null,,word,GRATEFUL,,,,,,,,,,,,
html-keyboard-response,89,126648,null,"<div style=""font-size:42px;"">LOUD</div><img id = ""stim"" ><div class = red_square id = ""topsquare"" ></div>",null,practice2,word_square,,prac_response,0,Top,none,true,,,,,,,
html-keyboard-response,90,126965,null,"<div style=""font-size:42px;"">LOUD</div>",null,,word,LOUD,,,,,,,,,,,,
html-keyboard-response,91,128478,null,"",null,,word,LOUD,,,,,,,,,,,,
html-keyboard-response,92,128680,null,"<div style=""font-size:42px;"">SMART</div><img id = ""stim"" ><div class = green_square id = ""topsquare"" ></div>",null,practice2,word_square,,prac_response,1,Top,32,true,,,,,,,
html-keyboard-response,93,128981,155.5,"<div style=""font-size:42px;"">SMART</div>",32,,word,SMART,,,,,,,,,,,,
html-keyboard-response,94,130483,null,"",null,,word,SMART,,,,,,,,,,,,
html-keyboard-response,95,130690,null,"<div style=""font-size:42px;"">SMOOTH</div><img id = ""stim"" ><div class = green_square id = ""bottomsquare"" ></div>",null,practice2,word_square,,prac_response,1,Bottom,32,true,,,,,,,
html-keyboard-response,96,131005,155.29999995231628,"<div style=""font-size:42px;"">SMOOTH</div>",32,,word,SMOOTH,,,,,,,,,,,,
html-keyboard-response,97,132512,null,"",null,,word,SMOOTH,,,,,,,,,,,,
html-keyboard-response,98,132718,null,"<div style=""font-size:42px;"">DISHONEST</div><img id = ""stim"" ><div class = red_square id = ""bottomsquare"" ></div>",null,practice2,word_square,DISHONEST,prac_response,0,Bottom,none,true,,,,,,,
html-keyboard-response,99,133021,null,"<div style=""font-size:42px;"">DISHONEST</div>",null,,word,DISHONEST,,,,,,,,,,,,
html-keyboard-response,100,134531,null,"",null,,word,DISHONEST,,,,,,,,,,,,
html-keyboard-response,101,134738,null,"<div style=""font-size:42px;"">WEALTHY</div><img id = ""stim"" ><div class = green_square id = ""topsquare"" ></div>",null,practice2,word_square,,prac_response,1,Top,32,true,,,,,,,
html-keyboard-response,102,135040,147.29999995231628,"<div style=""font-size:42px;"">WEALTHY</div>",32,,word,WEALTHY,,,,,,,,,,,,
html-keyboard-response,103,136552,null,"",null,,word,WEALTHY,,,,,,,,,,,,
html-keyboard-response,104,136758,null,"<div style=""font-size:42px;"">BEAUTIFUL</div><img id = ""stim"" ><div class = red_square id = ""topsquare"" ></div>",null,practice2,word_square,,prac_response,0,Top,none,false,,,,,,,
html-keyboard-response,105,137074,null,"<div style=""font-size:42px;"">BEAUTIFUL</div>",null,,word,BEAUTIFUL,,,,,,,,,,,,
html-keyboard-response,106,138583,null,"",null,,word,BEAUTIFUL,,,,,,,,,,,,
html-keyboard-response,107,140388,1803.3999998569489,"<p> Good job! You responded correctly to 100% of the trials. </p>
                    <p>Be sure to only press the spacebar if you see a GREEN square, and please keep your accuracy above 80%.</p>
                    <p>Press any key to begin the math and recall sections. Thank you! </p>",32,,,,,,,,,,,,,,,
call-function,108,140388,,"",,,,,,,,,,,,,,,,
html-keyboard-response,109,140490,null,"",null,,,,,,,,,,,,,,,
math-period,110,143796,5405.100000143051,"",,,,,,,,,,,3,,,,,
html-keyboard-response,111,143911,null,"",null,,,,,,,,,,,,,,,
math-period,112,147522,6698.10000038147,"",,,,,,,,,,,1,,,,,
html-keyboard-response,113,147633,null,"",null,,,,,,,,,,,,,,,
math-period,114,149236,2806.7000000476837,"",,,,,,,,,,,6,,,,,
html-keyboard-response,115,149344,null,"",null,,,,,,,,,,,,,,,
math-period,116,152312,5514.60000038147,"",,,,,,,,,,,2,,,,,
html-keyboard-response,117,152413,null,"",null,,,,,,,,,,,,,,,
math-period,118,155414,5709.5,"",,,,,,,,,,,0,,,,,
html-keyboard-response,119,155517,null,"",null,,,,,,,,,,,,,,,
math-period,120,157950,7171.89999961853,"",,,,,,,,,,,3,,,,,
html-keyboard-response,121,158055,null,"",null,,,,,,,,,,,,,,,
math-period,122,159859,3191.7000000476837,"",,,,,,,,,,,5,,,,,
html-keyboard-response,123,159971,null,"",null,,,,,,,,,,,,,,,
math-period,124,161328,2338.399999856949,"",,,,,,,,,,,5,,,,,
html-keyboard-response,125,161431,null,"",null,,,,,,,,,,,,,,,
math-period,126,162914,2593.2000000476837,"",,,,,,,,,,,6,,,,,
html-keyboard-response,127,163019,null,"",null,,,,,,,,,,,,,,,
math-period,128,164205,2017.8000001907349,"",,,,,,,,,,,2,,,,,
html-keyboard-response,129,164319,null,"",null,,,,,,,,,,,,,,,
math-period,130,164400,null,"",,,,,,,,,,,,,,,,
html-keyboard-response,131,165416,null,"Recall Period!",null,,,,,,,,,,,,,,,
call-function,132,165417,,"",,,,,,,,,,,,,,,,
html-keyboard-response,133,165528,null,"",null,,,,,,,,,,,,,,,
recall-period,134,171659,42248.20000100136,"",,,,,,,,,,,grateful,,,,,
html-keyboard-response,135,171774,null,"",null,,,,,,,,,,,,,,,
recall-period,136,173489,7695.400000095367,"",,,,,,,,,,,happy,,,,,
html-keyboard-response,137,173590,null,"",null,,,,,,,,,,,,,,,
recall-period,138,176130,19059.099999904633,"",,,,,,,,,,,dishonest,,,,,
html-keyboard-response,139,176241,null,"",null,,,,,,,,,,,,,,,
recall-period,140,179267,15858.700000047684,"",,,,,,,,,,,angry,,,,,
html-keyboard-response,141,179375,null,"",null,,,,,,,,,,,,,,,
recall-period,142,180613,5084.099999427795,"",,,,,,,,,,,wealthy,,,,,
html-keyboard-response,143,180730,null,"",null,,,,,,,,,,,,,,,
recall-period,144,184616,17887.00000023842,"",,,,,,,,,,,cold,,,,,
html-keyboard-response,145,184720,null,"",null,,,,,,,,,,,,,,,
recall-period,146,193833,86678.10000038147,"",,,,,,,,,,,dishonest,,,,,
html-keyboard-response,147,193939,null,"",null,,,,,,,,,,,,,,,
recall-period,148,198234,18043.10000014305,"",,,,,,,,,,,warm,,,,,
html-keyboard-response,149,198336,null,"",null,,,,,,,,,,,,,,,
recall-period,150,240424,null,"",,,,,,,,,,,,,,,,
html-keyboard-response,151,240933,null,"Time's Up!",null,,,,,,,,,,,,,,,
html-keyboard-response,152,321801,80866.70000004768,"<p>We will now begin the experiment!<p><p>Please try to remember all words from each list.<p><p>Press the spacebar whenever you see a GREEN square.<p><p><p><p>Press the spacebar to begin.</p>",173,,,,,,,,,,,,,,,
html-keyboard-response,153,325252,2941.100000143051,"<div style=""font-size:48px;"">Press any key to begin list 1 of 16 </div>",32,,,,,,,,,,,,,,,
html-keyboard-response,154,327768,null,"<div style=""font-size:60px;"">+</div>",null,,,,,,,,,,,,,,,
html-keyboard-response,155,327974,null,"<div style=""font-size:42px;"">SKETCH</div><img id = ""stim"" ><div class = green_square id = topsquare></div>",null,encoding,word_square,,,1,topsquare,32,true,,,SKETCH,0,,,
html-keyboard-response,156,328276,null,"<div style=""font-size:42px;"">SKETCH</div>",null,,word,SKETCH,,,,,,,,,,,,
html-keyboard-response,157,329786,126.30000019073486,"",32,,word,SKETCH,,,,,,,,,,,,
html-keyboard-response,158,329993,null,"<div style=""font-size:42px;"">SCALLOP</div><img id = ""stim"" ><div class = green_square id = bottomsquare></div>",null,encoding,word_square,,,1,bottomsquare,32,true,,,SCALLOP,0,,,
html-keyboard-response,159,330295,206.79999995231628,"<div style=""font-size:42px;"">SCALLOP</div>",32,,word,SCALLOP,,,,,,,,,,,,
html-keyboard-response,160,331804,null,"",null,,word,SCALLOP,,,,,,,,,,,,
html-keyboard-response,161,332010,null,"<div style=""font-size:42px;"">COD</div><img id = ""stim"" ><div class = green_square id = topsquare></div>",null,encoding,word_square,,,1,topsquare,32,true,,,COD,0,,,
html-keyboard-response,162,332312,null,"<div style=""font-size:42px;"">COD</div>",null,,word,COD,,,,,,,,,,,,
html-keyboard-response,163,333824,46.90000009536743,"",32,,word,COD,,,,,,,,,,,,
html-keyboard-response,164,334032,null,"<div style=""font-size:42px;"">DRESS</div><img id = ""stim"" ><div class = green_square id = bottomsquare></div>",null,encoding,word_square,,,1,bottomsquare,32,true,,,DRESS,0,,,
html-keyboard-response,165,334334,null,"<div style=""font-size:42px;"">DRESS</div>",null,,word,DRESS,,,,,,,,,,,,
html-keyboard-response,166,335851,46.69999980926514,"",32,,word,DRESS,,,,,,,,,,,,
html-keyboard-response,167,336056,null,"<div style=""font-size:42px;"">SILK</div><img id = ""stim"" ><div class = red_square id = bottomsquare></div>",null,encoding,word_square,,,0,bottomsquare,none,true,,,SILK,0,,,
html-keyboard-response,168,336372,null,"<div style=""font-size:42px;"">SILK</div>",null,,word,SILK,,,,,,,,,,,,
html-keyboard-response,169,337881,null,"",null,,word,SILK,,,,,,,,,,,,
html-keyboard-response,170,338087,null,"<div style=""font-size:42px;"">CANYON</div><img id = ""stim"" ><div class = green_square id = topsquare></div>",null,encoding,word_square,,,1,topsquare,32,true,,,CANYON,0,,,
html-keyboard-response,171,338390,151.5,"<div style=""font-size:42px;"">CANYON</div>",32,,word,CANYON,,,,,,,,,,,,
html-keyboard-response,172,339899,null,"",null,,word,CANYON,,,,,,,,,,,,
html-keyboard-response,173,340106,null,"<div style=""font-size:42px;"">JOURNAL</div><img id = ""stim"" ><div class = red_square id = topsquare></div>",null,encoding,word_square,,,0,topsquare,none,true,,,JOURNAL,0,,,
html-keyboard-response,174,340409,null,"<div style=""font-size:42px;"">JOURNAL</div>",null,,word,JOURNAL,,,,,,,,,,,,
html-keyboard-response,175,341919,null,"",null,,word,JOURNAL,,,,,,,,,,,,
html-keyboard-response,176,342127,null,"<div style=""font-size:42px;"">NOVEL</div><img id = ""stim"" ><div class = red_square id = bottomsquare></div>",null,encoding,word_square,,,0,bottomsquare,none,true,,,NOVEL,0,,,
html-keyboard-response,177,342429,null,"<div style=""font-size:42px;"">NOVEL</div>",null,,word,NOVEL,,,,,,,,,,,,
html-keyboard-response,178,343938,null,"",null,,word,NOVEL,,,,,,,,,,,,
html-keyboard-response,179,344145,null,"<div style=""font-size:42px;"">CIGAR</div><img id = ""stim"" ><div class = green_square id = bottomsquare></div>",null,encoding,word_square,,,1,bottomsquare,32,true,,,CIGAR,0,,,
html-keyboard-response,180,344461,150.09999990463257,"<div style=""font-size:42px;"">CIGAR</div>",32,,word,CIGAR,,,,,,,,,,,,
html-keyboard-response,181,345969,null,"",null,,word,CIGAR,,,,,,,,,,,,
html-keyboard-response,182,346177,null,"<div style=""font-size:42px;"">RADISH</div><img id = ""stim"" ><div class = red_square id = topsquare></div>",null,encoding,word_square,,,0,topsquare,none,true,,,RADISH,0,,,
html-keyboard-response,183,346480,null,"<div style=""font-size:42px;"">RADISH</div>",null,,word,RADISH,,,,,,,,,,,,
html-keyboard-response,184,347991,null,"",null,,word,RADISH,,,,,,,,,,,,
html-keyboard-response,185,348197,null,"<div style=""font-size:42px;"">LIVER</div><img id = ""stim"" ><div class = red_square id = bottomsquare></div>",null,encoding,word_square,,,0,bottomsquare,none,true,,,LIVER,0,,,
html-keyboard-response,186,348501,null,"<div style=""font-size:42px;"">LIVER</div>",null,,word,LIVER,,,,,,,,,,,,
html-keyboard-response,187,350002,null,"",null,,word,LIVER,,,,,,,,,,,,
html-keyboard-response,188,350208,null,"<div style=""font-size:42px;"">ASIA</div><img id = ""stim"" ><div class = green_square id = topsquare></div>",null,encoding,word_square,,,1,topsquare,32,true,,,ASIA,0,,,
html-keyboard-response,189,350512,190.5,"<div style=""font-size:42px;"">ASIA</div>",32,,word,ASIA,,,,,,,,,,,,
html-keyboard-response,190,352026,null,"",null,,word,ASIA,,,,,,,,,,,,
html-keyboard-response,191,352234,null,"<div style=""font-size:42px;"">RABBIT</div><img id = ""stim"" ><div class = red_square id = topsquare></div>",null,encoding,word_square,,,0,topsquare,none,true,,,RABBIT,0,,,
html-keyboard-response,192,352535,174.10000014305115,"<div style=""font-size:42px;"">RABBIT</div>",32,,word,RABBIT,,,,,,,,,,,,
html-keyboard-response,193,354045,null,"",null,,word,RABBIT,,,,,,,,,,,,
html-keyboard-response,194,354253,null,"<div style=""font-size:42px;"">CHISEL</div><img id = ""stim"" ><div class = green_square id = bottomsquare></div>",null,encoding,word_square,,,1,bottomsquare,32,true,,,CHISEL,0,,,
html-keyboard-response,195,354555,152.10000014305115,"<div style=""font-size:42px;"">CHISEL</div>",32,,word,CHISEL,,,,,,,,,,,,
html-keyboard-response,196,356071,null,"",null,,word,CHISEL,,,,,,,,,,,,
html-keyboard-response,197,356279,null,"<div style=""font-size:42px;"">CAMEL</div><img id = ""stim"" ><div class = red_square id = bottomsquare></div>",null,encoding,word_square,,,0,bottomsquare,none,true,,,CAMEL,0,,,
html-keyboard-response,198,356582,null,"<div style=""font-size:42px;"">CAMEL</div>",null,,word,CAMEL,,,,,,,,,,,,
html-keyboard-response,199,358090,null,"",null,,word,CAMEL,,,,,,,,,,,,
html-keyboard-response,200,358296,null,"<div style=""font-size:42px;"">SUMMIT</div><img id = ""stim"" ><div class = red_square id = topsquare></div>",null,encoding,word_square,,,0,topsquare,none,true,,,SUMMIT,0,,,
html-keyboard-response,201,358613,null,"<div style=""font-size:42px;"">SUMMIT</div>",null,,word,SUMMIT,,,,,,,,,,,,
html-keyboard-response,202,360120,null,"",null,,word,SUMMIT,,,,,,,,,,,,
call-function,203,360120,,"",,,,,,,,,,,,,,,,
html-keyboard-response,204,360231,null,"",null,,,,,,,,,,,,,,,
math-period,205,361942,3009.800000190735,"",,,,,,,,,,,6,,,,,
html-keyboard-response,206,362047,null,"",null,,,,,,,,,,,,,,,
math-period,207,363689,2726.800000190735,"",,,,,,,,,,,4,,,,,
html-keyboard-response,208,363794,null,"",null,,,,,,,,,,,,,,,
math-period,209,365234,2372.100000143051,"",,,,,,,,,,,4,,,,,
html-keyboard-response,210,365341,null,"",null,,,,,,,,,,,,,,,
math-period,211,368809,6506.099999904633,"",,,,,,,,,,,1,,,,,
html-keyboard-response,212,368914,null,"",null,,,,,,,,,,,,,,,
math-period,213,370369,2479.600000143051,"",,,,,,,,,,,4,,,,,
html-keyboard-response,214,370471,null,"",null,,,,,,,,,,,,,,,
math-period,215,371996,2354.2999999523163,"",,,,,,,,,,,3,,,,,
html-keyboard-response,216,372109,null,"",null,,,,,,,,,,,,,,,
math-period,217,374565,4486.900000095367,"",,,,,,,,,,,3,,,,,
html-keyboard-response,218,374671,null,"",null,,,,,,,,,,,,,,,
math-period,219,375958,2176.0000002384186,"",,,,,,,,,,,4,,,,,
html-keyboard-response,220,376074,null,"",null,,,,,,,,,,,,,,,
math-period,221,377811,2975.2000000476837,"",,,,,,,,,,,3,,,,,
html-keyboard-response,222,377921,null,"",null,,,,,,,,,,,,,,,
math-period,223,380949,10219.500000238419,"",,,,,,,,,,,2,,,,,
html-keyboard-response,224,381051,null,"",null,,,,,,,,,,,,,,,
math-period,225,382655,2426.4000000953674,"",,,,,,,,,,,6,,,,,
html-keyboard-response,226,382768,null,"",null,,,,,,,,,,,,,,,
math-period,227,384122,null,"",,,,,,,,,,,,,,,,
html-keyboard-response,228,385126,null,"Recall Period!",null,,,,,,,,,,,,,,,
call-function,229,385126,,"",,,,,,,,,,,,,,,,
html-keyboard-response,230,385237,null,"",null,,,,,,,,,,,,,,,
recall-period,231,387655,9432.299999952316,"",,,,,,,,,,,silk,,,,,
html-keyboard-response,232,387758,null,"",null,,,,,,,,,,,,,,,
recall-period,233,390062,10390.900000810623,"",,,,,,,,,,,summit,,,,,
html-keyboard-response,234,390164,null,"",null,,,,,,,,,,,,,,,
recall-period,235,391473,2888.6000003814697,"",,,,,,,,,,,asia,,,,,
html-keyboard-response,236,391582,null,"",null,,,,,,,,,,,,,,,
recall-period,237,395181,24017.799999713898,"",,,,,,,,,,,scallop,,,,,
html-keyboard-response,238,395286,null,"",null,,,,,,,,,,,,,,,
recall-period,239,460132,null,"",,,,,,,,,,,,,,,,
html-keyboard-response,240,460642,null,"Time's Up!",null,,,,,,,,,,,,,,,
html-keyboard-response,241,463471,2827.9000000953674,"<p> Good job! You have responded correctly to 100% of the trials. </p>
                      <p>Be sure to only press the spacebar if you see a GREEN square, and please keep your accuracy above 80%.</p>
                      <p> Press any key to continue the experiment. </p>",32,,,,,,,,,,,,,,,
html-keyboard-response,242,467483,4011.0999999046326,"<div style=""font-size:48px;"">Press any key to begin list 2 of 16 </div>",32,,,,,,,,,,,,,,,
html-keyboard-response,243,469994,null,"<div style=""font-size:60px;"">+</div>",null,,,,,,,,,,,,,,,
html-keyboard-response,244,470199,null,"<div style=""font-size:42px;"">GOBLIN</div><img id = ""stim"" ><div class = red_square id = topsquare></div>",null,encoding,word_square,,,0,topsquare,none,true,,,GOBLIN,1,,,
html-keyboard-response,245,470502,null,"<div style=""font-size:42px;"">GOBLIN</div>",null,,word,GOBLIN,,,,,,,,,,,,
html-keyboard-response,246,472011,null,"",null,,word,GOBLIN,,,,,,,,,,,,
html-keyboard-response,247,472219,null,"<div style=""font-size:42px;"">PUPIL</div><img id = ""stim"" ><div class = red_square id = bottomsquare></div>",null,encoding,word_square,,,0,bottomsquare,none,true,,,PUPIL,1,,,
html-keyboard-response,248,472522,null,"<div style=""font-size:42px;"">PUPIL</div>",null,,word,PUPIL,,,,,,,,,,,,
html-keyboard-response,249,474025,null,"",null,,word,PUPIL,,,,,,,,,,,,
html-keyboard-response,250,474233,null,"<div style=""font-size:42px;"">SEASHORE</div><img id = ""stim"" ><div class = green_square id = bottomsquare></div>",null,encoding,word_square,,,1,bottomsquare,32,true,,,SEASHORE,1,,,
html-keyboard-response,251,474534,null,"<div style=""font-size:42px;"">SEASHORE</div>",null,,word,SEASHORE,,,,,,,,,,,,
html-keyboard-response,252,476047,112.29999995231628,"",32,,word,SEASHORE,,,,,,,,,,,,
html-keyboard-response,253,476255,null,"<div style=""font-size:42px;"">THICKET</div><img id = ""stim"" ><div class = red_square id = topsquare></div>",null,encoding,word_square,,,0,topsquare,none,true,,,THICKET,1,,,
html-keyboard-response,254,476557,null,"<div style=""font-size:42px;"">THICKET</div>",null,,word,THICKET,,,,,,,,,,,,
html-keyboard-response,255,478066,null,"",null,,word,THICKET,,,,,,,,,,,,
html-keyboard-response,256,478272,null,"<div style=""font-size:42px;"">BUREAU</div><img id = ""stim"" ><div class = green_square id = topsquare></div>",null,encoding,word_square,,,1,topsquare,32,true,,,BUREAU,1,,,
html-keyboard-response,257,478575,193.70000004768372,"<div style=""font-size:42px;"">BUREAU</div>",32,,word,BUREAU,,,,,,,,,,,,
html-keyboard-response,258,480088,null,"",null,,word,BUREAU,,,,,,,,,,,,
html-keyboard-response,259,480294,null,"<div style=""font-size:42px;"">DRESSER</div><img id = ""stim"" ><div class = red_square id = bottomsquare></div>",null,encoding,word_square,,,0,bottomsquare,none,true,,,DRESSER,1,,,
html-keyboard-response,260,480597,null,"<div style=""font-size:42px;"">DRESSER</div>",null,,word,DRESSER,,,,,,,,,,,,
html-keyboard-response,261,482107,null,"",null,,word,DRESSER,,,,,,,,,,,,
html-keyboard-response,262,482313,null,"<div style=""font-size:42px;"">HATCHET</div><img id = ""stim"" ><div class = red_square id = topsquare></div>",null,encoding,word_square,,,0,topsquare,none,true,,,HATCHET,1,,,
html-keyboard-response,263,482616,null,"<div style=""font-size:42px;"">HATCHET</div>",null,,word,HATCHET,,,,,,,,,,,,
html-keyboard-response,264,484127,null,"",null,,word,HATCHET,,,,,,,,,,,,
html-keyboard-response,265,484334,null,"<div style=""font-size:42px;"">SPOON</div><img id = ""stim"" ><div class = green_square id = bottomsquare></div>",null,encoding,word_square,,,1,bottomsquare,32,true,,,SPOON,1,,,
html-keyboard-response,266,484636,114.79999995231628,"<div style=""font-size:42px;"">SPOON</div>",32,,word,SPOON,,,,,,,,,,,,
html-keyboard-response,267,486145,null,"",null,,word,SPOON,,,,,,,,,,,,
html-keyboard-response,268,486352,null,"<div style=""font-size:42px;"">SIDEWALK</div><img id = ""stim"" ><div class = red_square id = bottomsquare></div>",null,encoding,word_square,,,0,bottomsquare,none,true,,,SIDEWALK,1,,,
html-keyboard-response,269,486654,null,"<div style=""font-size:42px;"">SIDEWALK</div>",null,,word,SIDEWALK,,,,,,,,,,,,
html-keyboard-response,270,488159,null,"",null,,word,SIDEWALK,,,,,,,,,,,,
html-keyboard-response,271,488365,null,"<div style=""font-size:42px;"">HIKER</div><img id = ""stim"" ><div class = red_square id = topsquare></div>",null,encoding,word_square,,,0,topsquare,none,true,,,HIKER,1,,,
html-keyboard-response,272,488667,null,"<div style=""font-size:42px;"">HIKER</div>",null,,word,HIKER,,,,,,,,,,,,
html-keyboard-response,273,490173,null,"",null,,word,HIKER,,,,,,,,,,,,
html-keyboard-response,274,490378,null,"<div style=""font-size:42px;"">MONSTER</div><img id = ""stim"" ><div class = green_square id = topsquare></div>",null,encoding,word_square,,,1,topsquare,32,true,,,MONSTER,1,,,
html-keyboard-response,275,490680,null,"<div style=""font-size:42px;"">MONSTER</div>",null,,word,MONSTER,,,,,,,,,,,,
html-keyboard-response,276,492191,19.600000143051147,"",32,,word,MONSTER,,,,,,,,,,,,
html-keyboard-response,277,492397,null,"<div style=""font-size:42px;"">GALLON</div><img id = ""stim"" ><div class = red_square id = bottomsquare></div>",null,encoding,word_square,,,0,bottomsquare,none,true,,,GALLON,1,,,
html-keyboard-response,278,492701,null,"<div style=""font-size:42px;"">GALLON</div>",null,,word,GALLON,,,,,,,,,,,,
html-keyboard-response,279,494209,null,"",null,,word,GALLON,,,,,,,,,,,,
html-keyboard-response,280,494413,null,"<div style=""font-size:42px;"">MOUNTAIN</div><img id = ""stim"" ><div class = green_square id = bottomsquare></div>",null,encoding,word_square,,,1,bottomsquare,32,true,,,MOUNTAIN,1,,,
html-keyboard-response,281,494729,null,"<div style=""font-size:42px;"">MOUNTAIN</div>",null,,word,MOUNTAIN,,,,,,,,,,,,
html-keyboard-response,282,496237,289.5,"",32,,word,MOUNTAIN,,,,,,,,,,,,
html-keyboard-response,283,496444,null,"<div style=""font-size:42px;"">TEACHER</div><img id = ""stim"" ><div class = green_square id = topsquare></div>",null,encoding,word_square,,,1,topsquare,32,false,,,TEACHER,1,,,
html-keyboard-response,284,496761,null,"<div style=""font-size:42px;"">TEACHER</div>",null,,word,TEACHER,,,,,,,,,,,,
html-keyboard-response,285,498271,null,"",null,,word,TEACHER,,,,,,,,,,,,
html-keyboard-response,286,498476,null,"<div style=""font-size:42px;"">RELISH</div><img id = ""stim"" ><div class = green_square id = bottomsquare></div>",null,encoding,word_square,,,1,bottomsquare,32,true,,,RELISH,1,,,
html-keyboard-response,287,498779,156.30000019073486,"<div style=""font-size:42px;"">RELISH</div>",32,,word,RELISH,,,,,,,,,,,,
html-keyboard-response,288,500295,212.5,"",32,,word,RELISH,,,,,,,,,,,,
html-keyboard-response,289,500503,null,"<div style=""font-size:42px;"">CRYSTAL</div><img id = ""stim"" ><div class = green_square id = topsquare></div>",null,encoding,word_square,,,1,topsquare,32,true,,,CRYSTAL,1,,,
html-keyboard-response,290,500804,233,"<div style=""font-size:42px;"">CRYSTAL</div>",32,,word,CRYSTAL,,,,,,,,,,,,
html-keyboard-response,291,502313,null,"",null,,word,CRYSTAL,,,,,,,,,,,,
call-function,292,502313,,"",,,,,,,,,,,,,,,,
html-keyboard-response,293,502423,null,"",null,,,,,,,,,,,,,,,
math-period,294,505416,4590.299999713898,"",,,,,,,,,,,6numpad,,,,,
html-keyboard-response,295,505524,null,"",null,,,,,,,,,,,,,,,
math-period,296,506798,2307.100000143051,"",,,,,,,,,,,3,,,,,
html-keyboard-response,297,506908,null,"",null,,,,,,,,,,,,,,,
math-period,298,508685,3350.4000000953674,"",,,,,,,,,,,1,,,,,
html-keyboard-response,299,508793,null,"",null,,,,,,,,,,,,,,,
math-period,300,510043,2380.300000190735,"",,,,,,,,,,,5,,,,,
html-keyboard-response,301,510145,null,"",null,,,,,,,,,,,,,,,
math-period,302,513111,5809.400000095367,"",,,,,,,,,,,3,,,,,
html-keyboard-response,303,513225,null,"",null,,,,,,,,,,,,,,,
math-period,304,515256,3960.5,"",,,,,,,,,,,2,,,,,
html-keyboard-response,305,515357,null,"",null,,,,,,,,,,,,,,,
math-period,306,517220,3600.5,"",,,,,,,,,,,5,,,,,
html-keyboard-response,307,517323,null,"",null,,,,,,,,,,,,,,,
math-period,308,520624,6454.499999761581,"",,,,,,,,,,,2,,,,,
html-keyboard-response,309,520725,null,"",null,,,,,,,,,,,,,,,
math-period,310,522590,3631.699999809265,"",,,,,,,,,,,1,,,,,
html-keyboard-response,311,522695,null,"",null,,,,,,,,,,,,,,,
math-period,312,523853,2219.300000190735,"",,,,,,,,,,,3,,,,,
html-keyboard-response,313,523963,null,"",null,,,,,,,,,,,,,,,
math-period,314,524924,1807.7000000476837,"",,,,,,,,,,,3,,,,,
html-keyboard-response,315,525027,null,"",null,,,,,,,,,,,,,,,
math-period,316,526073,1957.4999997615814,"",,,,,,,,,,,5,,,,,
html-keyboard-response,317,526174,null,"",null,,,,,,,,,,,,,,,
math-period,318,526317,null,"",,,,,,,,,,,,,,,,
html-keyboard-response,319,527330,null,"Recall Period!",null,,,,,,,,,,,,,,,
call-function,320,527330,,"",,,,,,,,,,,,,,,,
html-keyboard-response,321,527442,null,"",null,,,,,,,,,,,,,,,
recall-period,322,530547,19240.39999961853,"",,,,,,,,,,,hatchet,,,,,
html-keyboard-response,323,530653,null,"",null,,,,,,,,,,,,,,,
recall-period,324,531721,4358.999999284744,"",,,,,,,,,,,monster,,,,,
html-keyboard-response,325,531834,null,"",null,,,,,,,,,,,,,,,
recall-period,326,532698,3172.9000000953674,"",,,,,,,,,,,mallet,,,,,
html-keyboard-response,327,532801,null,"",null,,,,,,,,,,,,,,,
recall-period,328,533838,5724.799999713898,"",,,,,,,,,,,teacher,,,,,
html-keyboard-response,329,533950,null,"",null,,,,,,,,,,,,,,,
recall-period,330,537813,31490.900000095367,"",,,,,,,,,,,mountain,,,,,
html-keyboard-response,331,537928,null,"",null,,,,,,,,,,,,,,,
recall-period,332,543037,28883.49999976158,"",,,,,,,,,,,drill,,,,,
html-keyboard-response,333,543139,null,"",null,,,,,,,,,,,,,,,
recall-period,334,602337,null,"",,,,,,,,,,,,,,,,
html-keyboard-response,335,602844,null,"Time's Up!",null,,,,,,,,,,,,,,,
html-keyboard-response,336,606016,3171.4000000953674,"<p> Good job! You have responded correctly to 97% of the trials. </p>
                      <p>Be sure to only press the spacebar if you see a GREEN square, and please keep your accuracy above 80%.</p>
                      <p> Press any key to continue the experiment. </p>",32,,,,,,,,,,,,,,,
html-keyboard-response,337,608888,2870.5999999046326,"<div style=""font-size:48px;"">Press any key to begin list 3 of 16 </div>",32,,,,,,,,,,,,,,,
html-keyboard-response,338,611398,null,"<div style=""font-size:60px;"">+</div>",null,,,,,,,,,,,,,,,
html-keyboard-response,339,611605,null,"<div style=""font-size:42px;"">BEAVER</div><img id = ""stim"" ><div class = red_square id = bottomsquare></div>",null,encoding,word_square,,,0,bottomsquare,none,true,,,BEAVER,2,,,
html-keyboard-response,340,611921,null,"<div style=""font-size:42px;"">BEAVER</div>",null,,word,BEAVER,,,,,,,,,,,,
html-keyboard-response,341,613429,null,"",null,,word,BEAVER,,,,,,,,,,,,
html-keyboard-response,342,613633,null,"<div style=""font-size:42px;"">SQUIRREL</div><img id = ""stim"" ><div class = red_square id = topsquare></div>",null,encoding,word_square,,,0,topsquare,none,true,,,SQUIRREL,2,,,
html-keyboard-response,343,613950,null,"<div style=""font-size:42px;"">SQUIRREL</div>",null,,word,SQUIRREL,,,,,,,,,,,,
html-keyboard-response,344,615462,null,"",null,,word,SQUIRREL,,,,,,,,,,,,
html-keyboard-response,345,615669,null,"<div style=""font-size:42px;"">POND</div><img id = ""stim"" ><div class = red_square id = bottomsquare></div>",null,encoding,word_square,,,0,bottomsquare,none,true,,,POND,2,,,
html-keyboard-response,346,615974,null,"<div style=""font-size:42px;"">POND</div>",null,,word,POND,,,,,,,,,,,,
html-keyboard-response,347,617478,null,"",null,,word,POND,,,,,,,,,,,,
html-keyboard-response,348,617686,null,"<div style=""font-size:42px;"">SCARECROW</div><img id = ""stim"" ><div class = red_square id = topsquare></div>",null,encoding,word_square,,,0,topsquare,none,true,,,SCARECROW,2,,,
html-keyboard-response,349,617989,null,"<div style=""font-size:42px;"">SCARECROW</div>",null,,word,SCARECROW,,,,,,,,,,,,
html-keyboard-response,350,619494,null,"",null,,word,SCARECROW,,,,,,,,,,,,
html-keyboard-response,351,619699,null,"<div style=""font-size:42px;"">BLOCKADE</div><img id = ""stim"" ><div class = green_square id = topsquare></div>",null,encoding,word_square,,,1,topsquare,32,true,,,BLOCKADE,2,,,
html-keyboard-response,352,620001,115.09999990463257,"<div style=""font-size:42px;"">BLOCKADE</div>",32,,word,BLOCKADE,,,,,,,,,,,,
html-keyboard-response,353,621514,null,"",null,,word,BLOCKADE,,,,,,,,,,,,
html-keyboard-response,354,621720,null,"<div style=""font-size:42px;"">BUILDING</div><img id = ""stim"" ><div class = red_square id = bottomsquare></div>",null,encoding,word_square,,,0,bottomsquare,none,true,,,BUILDING,2,,,
html-keyboard-response,355,622037,null,"<div style=""font-size:42px;"">BUILDING</div>",null,,word,BUILDING,,,,,,,,,,,,
html-keyboard-response,356,623545,null,"",null,,word,BUILDING,,,,,,,,,,,,
html-keyboard-response,357,623751,null,"<div style=""font-size:42px;"">SLACKS</div><img id = ""stim"" ><div class = green_square id = bottomsquare></div>",null,encoding,word_square,,,1,bottomsquare,32,true,,,SLACKS,2,,,
html-keyboard-response,358,624054,null,"<div style=""font-size:42px;"">SLACKS</div>",null,,word,SLACKS,,,,,,,,,,,,
html-keyboard-response,359,625566,105.29999995231628,"",32,,word,SLACKS,,,,,,,,,,,,
html-keyboard-response,360,625772,null,"<div style=""font-size:42px;"">OINTMENT</div><img id = ""stim"" ><div class = green_square id = topsquare></div>",null,encoding,word_square,,,1,topsquare,32,true,,,OINTMENT,2,,,
html-keyboard-response,361,626089,null,"<div style=""font-size:42px;"">OINTMENT</div>",null,,word,OINTMENT,,,,,,,,,,,,
html-keyboard-response,362,627597,744.4000000953674,"",32,,word,OINTMENT,,,,,,,,,,,,
html-keyboard-response,363,627804,null,"<div style=""font-size:42px;"">MAMMAL</div><img id = ""stim"" ><div class = red_square id = topsquare></div>",null,encoding,word_square,,,0,topsquare,none,true,,,MAMMAL,2,,,
html-keyboard-response,364,628108,null,"<div style=""font-size:42px;"">MAMMAL</div>",null,,word,MAMMAL,,,,,,,,,,,,
html-keyboard-response,365,629619,null,"",null,,word,MAMMAL,,,,,,,,,,,,
html-keyboard-response,366,629822,null,"<div style=""font-size:42px;"">CREATURE</div><img id = ""stim"" ><div class = green_square id = bottomsquare></div>",null,encoding,word_square,,,1,bottomsquare,32,true,,,CREATURE,2,,,
html-keyboard-response,367,630124,176.09999990463257,"<div style=""font-size:42px;"">CREATURE</div>",32,,word,CREATURE,,,,,,,,,,,,
html-keyboard-response,368,631637,null,"",null,,word,CREATURE,,,,,,,,,,,,
html-keyboard-response,369,631844,null,"<div style=""font-size:42px;"">LION</div><img id = ""stim"" ><div class = green_square id = topsquare></div>",null,encoding,word_square,,,1,topsquare,32,true,,,LION,2,,,
html-keyboard-response,370,632146,null,"<div style=""font-size:42px;"">LION</div>",null,,word,LION,,,,,,,,,,,,
html-keyboard-response,371,633650,91.5,"",32,,word,LION,,,,,,,,,,,,
html-keyboard-response,372,633858,null,"<div style=""font-size:42px;"">BARLEY</div><img id = ""stim"" ><div class = red_square id = bottomsquare></div>",null,encoding,word_square,,,0,bottomsquare,none,true,,,BARLEY,2,,,
html-keyboard-response,373,634161,null,"<div style=""font-size:42px;"">BARLEY</div>",null,,word,BARLEY,,,,,,,,,,,,
html-keyboard-response,374,635672,null,"",null,,word,BARLEY,,,,,,,,,,,,
html-keyboard-response,375,635877,null,"<div style=""font-size:42px;"">PORPOISE</div><img id = ""stim"" ><div class = green_square id = bottomsquare></div>",null,encoding,word_square,,,1,bottomsquare,32,true,,,PORPOISE,2,,,
html-keyboard-response,376,636180,97,"<div style=""font-size:42px;"">PORPOISE</div>",32,,word,PORPOISE,,,,,,,,,,,,
html-keyboard-response,377,637695,null,"",null,,word,PORPOISE,,,,,,,,,,,,
html-keyboard-response,378,637902,null,"<div style=""font-size:42px;"">LOVER</div><img id = ""stim"" ><div class = red_square id = topsquare></div>",null,encoding,word_square,,,0,topsquare,none,true,,,LOVER,2,,,
html-keyboard-response,379,638216,null,"<div style=""font-size:42px;"">LOVER</div>",null,,word,LOVER,,,,,,,,,,,,
html-keyboard-response,380,639723,null,"",null,,word,LOVER,,,,,,,,,,,,
html-keyboard-response,381,639929,null,"<div style=""font-size:42px;"">PARTNER</div><img id = ""stim"" ><div class = green_square id = topsquare></div>",null,encoding,word_square,,,1,topsquare,32,true,,,PARTNER,2,,,
html-keyboard-response,382,640232,216.20000004768372,"<div style=""font-size:42px;"">PARTNER</div>",32,,word,PARTNER,,,,,,,,,,,,
html-keyboard-response,383,641736,null,"",null,,word,PARTNER,,,,,,,,,,,,
html-keyboard-response,384,641942,null,"<div style=""font-size:42px;"">LEOPARD</div><img id = ""stim"" ><div class = green_square id = bottomsquare></div>",null,encoding,word_square,,,1,bottomsquare,32,true,,,LEOPARD,2,,,
html-keyboard-response,385,642244,179.40000009536743,"<div style=""font-size:42px;"">LEOPARD</div>",32,,word,LEOPARD,,,,,,,,,,,,
html-keyboard-response,386,643754,null,"",null,,word,LEOPARD,,,,,,,,,,,,
call-function,387,643754,,"",,,,,,,,,,,,,,,,
html-keyboard-response,388,643866,null,"",null,,,,,,,,,,,,,,,
math-period,389,645588,3264.2000002861023,"",,,,,,,,,,,6,,,,,
html-keyboard-response,390,645694,null,"",null,,,,,,,,,,,,,,,
math-period,391,647610,3700.0999999046326,"",,,,,,,,,,,2,,,,,
html-keyboard-response,392,647710,null,"",null,,,,,,,,,,,,,,,
math-period,393,648896,2255.4999997615814,"",,,,,,,,,,,1,,,,,
html-keyboard-response,394,648999,null,"",null,,,,,,,,,,,,,,,
math-period,395,650545,2917.7999997138977,"",,,,,,,,,,,1,,,,,
html-keyboard-response,396,650649,null,"",null,,,,,,,,,,,,,,,
math-period,397,652183,2928.7999999523163,"",,,,,,,,,,,1,,,,,
html-keyboard-response,398,652297,null,"",null,,,,,,,,,,,,,,,
math-period,399,654026,3308.699999809265,"",,,,,,,,,,,1,,,,,
html-keyboard-response,400,654134,null,"",null,,,,,,,,,,,,,,,
math-period,401,655103,1787.0999999046326,"",,,,,,,,,,,1,,,,,
html-keyboard-response,402,655210,null,"",null,,,,,,,,,,,,,,,
math-period,403,657632,4700.999999761581,"",,,,,,,,,,,2,,,,,
html-keyboard-response,404,657735,null,"",null,,,,,,,,,,,,,,,
math-period,405,658667,1718.7999997138977,"",,,,,,,,,,,3,,,,,
html-keyboard-response,406,658768,null,"",null,,,,,,,,,,,,,,,
math-period,407,659672,1676.7999999523163,"",,,,,,,,,,,2,,,,,
html-keyboard-response,408,659774,null,"",null,,,,,,,,,,,,,,,
math-period,409,660583,1478.2000000476837,"",,,,,,,,,,,2,,,,,
html-keyboard-response,410,660698,null,"",null,,,,,,,,,,,,,,,
math-period,411,661898,2218.9000000953674,"",,,,,,,,,,,5,,,,,
html-keyboard-response,412,662006,null,"",null,,,,,,,,,,,,,,,
math-period,413,664603,5065.199999809265,"",,,,,,,,,,,3,,,,,
html-keyboard-response,414,664710,null,"",null,,,,,,,,,,,,,,,
math-period,415,665708,1884.2000000476837,"",,,,,,,,,,,3,,,,,
html-keyboard-response,416,665809,null,"",null,,,,,,,,,,,,,,,
math-period,417,667278,2817.5,"",,,,,,,,,,,1,,,,,
html-keyboard-response,418,667384,null,"",null,,,,,,,,,,,,,,,
math-period,419,667766,null,"",,,,,,,,,,,,,,,,
html-keyboard-response,420,668781,null,"Recall Period!",null,,,,,,,,,,,,,,,
call-function,421,668782,,"",,,,,,,,,,,,,,,,
html-keyboard-response,422,668890,null,"",null,,,,,,,,,,,,,,,
recall-period,423,670828,10596.500000476837,"",,,,,,,,,,,beaver,,,,,
html-keyboard-response,424,670928,null,"",null,,,,,,,,,,,,,,,
recall-period,425,672341,7097.199999332428,"",,,,,,,,,,,squirrel,,,,,
html-keyboard-response,426,672455,null,"",null,,,,,,,,,,,,,,,
recall-period,427,674221,4166.099999904633,"",,,,,,,,,,,pond,,,,,
html-keyboard-response,428,674326,null,"",null,,,,,,,,,,,,,,,
recall-period,429,731492,510295.00000071526,"",,,,,,,,,,,squirrel,,,,,
html-keyboard-response,430,731603,null,"",null,,,,,,,,,,,,,,,
recall-period,431,743785,null,"",,,,,,,,,,,,,,,,
html-keyboard-response,432,744291,null,"Time's Up!",null,,,,,,,,,,,,,,,
html-keyboard-response,433,747595,3303.7999999523163,"<p> Good job! You have responded correctly to 98% of the trials. </p>
                      <p>Be sure to only press the spacebar if you see a GREEN square, and please keep your accuracy above 80%.</p>
                      <p> Press any key to continue the experiment. </p>",32,,,,,,,,,,,,,,,
html-keyboard-response,434,748507,911.2999999523163,"<div style=""font-size:48px;"">Press any key to begin list 4 of 16 </div>",32,,,,,,,,,,,,,,,
html-keyboard-response,435,751021,null,"<div style=""font-size:60px;"">+</div>",null,,,,,,,,,,,,,,,
html-keyboard-response,436,751228,null,"<div style=""font-size:42px;"">SISTER</div><img id = ""stim"" ><div class = green_square id = bottomsquare></div>",null,encoding,word_square,,,1,bottomsquare,32,true,,,SISTER,3,,,
html-keyboard-response,437,751529,null,"<div style=""font-size:42px;"">SISTER</div>",null,,word,SISTER,,,,,,,,,,,,
html-keyboard-response,438,753035,340.2999999523163,"",32,,word,SISTER,,,,,,,,,,,,
html-keyboard-response,439,753244,null,"<div style=""font-size:42px;"">LOUNGE</div><img id = ""stim"" ><div class = green_square id = topsquare></div>",null,encoding,word_square,,,1,topsquare,32,true,,,LOUNGE,3,,,
html-keyboard-response,440,753546,196.90000009536743,"<div style=""font-size:42px;"">LOUNGE</div>",32,,word,LOUNGE,,,,,,,,,,,,
html-keyboard-response,441,755052,null,"",null,,word,LOUNGE,,,,,,,,,,,,
html-keyboard-response,442,755260,null,"<div style=""font-size:42px;"">LIST</div><img id = ""stim"" ><div class = red_square id = topsquare></div>",null,encoding,word_square,,,0,topsquare,none,true,,,LIST,3,,,
html-keyboard-response,443,755562,null,"<div style=""font-size:42px;"">LIST</div>",null,,word,LIST,,,,,,,,,,,,
html-keyboard-response,444,757064,null,"",null,,word,LIST,,,,,,,,,,,,
html-keyboard-response,445,757271,null,"<div style=""font-size:42px;"">SUBWAY</div><img id = ""stim"" ><div class = green_square id = bottomsquare></div>",null,encoding,word_square,,,1,bottomsquare,32,true,,,SUBWAY,3,,,
html-keyboard-response,446,757577,160.39999985694885,"<div style=""font-size:42px;"">SUBWAY</div>",32,,word,SUBWAY,,,,,,,,,,,,
html-keyboard-response,447,759091,null,"",null,,word,SUBWAY,,,,,,,,,,,,
html-keyboard-response,448,759299,null,"<div style=""font-size:42px;"">SHORTS</div><img id = ""stim"" ><div class = red_square id = bottomsquare></div>",null,encoding,word_square,,,0,bottomsquare,none,true,,,SHORTS,3,,,
html-keyboard-response,449,759602,null,"<div style=""font-size:42px;"">SHORTS</div>",null,,word,SHORTS,,,,,,,,,,,,
html-keyboard-response,450,761103,null,"",null,,word,SHORTS,,,,,,,,,,,,
html-keyboard-response,451,761309,null,"<div style=""font-size:42px;"">WASHER</div><img id = ""stim"" ><div class = green_square id = topsquare></div>",null,encoding,word_square,,,1,topsquare,32,true,,,WASHER,3,,,
html-keyboard-response,452,761612,153.70000004768372,"<div style=""font-size:42px;"">WASHER</div>",32,,word,WASHER,,,,,,,,,,,,
html-keyboard-response,453,763128,null,"",null,,word,WASHER,,,,,,,,,,,,
html-keyboard-response,454,763336,null,"<div style=""font-size:42px;"">LEG</div><img id = ""stim"" ><div class = green_square id = bottomsquare></div>",null,encoding,word_square,,,1,bottomsquare,32,true,,,LEG,3,,,
html-keyboard-response,455,763652,183.09999990463257,"<div style=""font-size:42px;"">LEG</div>",32,,word,LEG,,,,,,,,,,,,
html-keyboard-response,456,765159,null,"",null,,word,LEG,,,,,,,,,,,,
html-keyboard-response,457,765366,null,"<div style=""font-size:42px;"">BANK</div><img id = ""stim"" ><div class = red_square id = topsquare></div>",null,encoding,word_square,,,0,topsquare,none,true,,,BANK,3,,,
html-keyboard-response,458,765668,null,"<div style=""font-size:42px;"">BANK</div>",null,,word,BANK,,,,,,,,,,,,
html-keyboard-response,459,767169,null,"",null,,word,BANK,,,,,,,,,,,,
html-keyboard-response,460,767376,null,"<div style=""font-size:42px;"">BISON</div><img id = ""stim"" ><div class = green_square id = topsquare></div>",null,encoding,word_square,,,1,topsquare,32,true,,,BISON,3,,,
html-keyboard-response,461,767678,159.90000009536743,"<div style=""font-size:42px;"">BISON</div>",32,,word,BISON,,,,,,,,,,,,
html-keyboard-response,462,769194,null,"",null,,word,BISON,,,,,,,,,,,,
html-keyboard-response,463,769400,null,"<div style=""font-size:42px;"">SEAL</div><img id = ""stim"" ><div class = green_square id = bottomsquare></div>",null,encoding,word_square,,,1,bottomsquare,32,true,,,SEAL,3,,,
html-keyboard-response,464,769713,117.90000009536743,"<div style=""font-size:42px;"">SEAL</div>",32,,word,SEAL,,,,,,,,,,,,
html-keyboard-response,465,771217,null,"",null,,word,SEAL,,,,,,,,,,,,
html-keyboard-response,466,771422,null,"<div style=""font-size:42px;"">BEAST</div><img id = ""stim"" ><div class = red_square id = bottomsquare></div>",null,encoding,word_square,,,0,bottomsquare,none,true,,,BEAST,3,,,
html-keyboard-response,467,771724,null,"<div style=""font-size:42px;"">BEAST</div>",null,,word,BEAST,,,,,,,,,,,,
html-keyboard-response,468,773230,null,"",null,,word,BEAST,,,,,,,,,,,,
html-keyboard-response,469,773437,null,"<div style=""font-size:42px;"">SNACK</div><img id = ""stim"" ><div class = green_square id = topsquare></div>",null,encoding,word_square,,,1,topsquare,32,true,,,SNACK,3,,,
html-keyboard-response,470,773753,139.70000004768372,"<div style=""font-size:42px;"">SNACK</div>",32,,word,SNACK,,,,,,,,,,,,
html-keyboard-response,471,775257,null,"",null,,word,SNACK,,,,,,,,,,,,
html-keyboard-response,472,775464,null,"<div style=""font-size:42px;"">BOUILLON</div><img id = ""stim"" ><div class = red_square id = topsquare></div>",null,encoding,word_square,,,0,topsquare,none,true,,,BOUILLON,3,,,
html-keyboard-response,473,775780,null,"<div style=""font-size:42px;"">BOUILLON</div>",null,,word,BOUILLON,,,,,,,,,,,,
html-keyboard-response,474,777285,null,"",null,,word,BOUILLON,,,,,,,,,,,,
html-keyboard-response,475,777491,null,"<div style=""font-size:42px;"">APPLE</div><img id = ""stim"" ><div class = red_square id = bottomsquare></div>",null,encoding,word_square,,,0,bottomsquare,none,true,,,APPLE,3,,,
html-keyboard-response,476,777795,null,"<div style=""font-size:42px;"">APPLE</div>",null,,word,APPLE,,,,,,,,,,,,
html-keyboard-response,477,779300,null,"",null,,word,APPLE,,,,,,,,,,,,
html-keyboard-response,478,779503,null,"<div style=""font-size:42px;"">WAITER</div><img id = ""stim"" ><div class = red_square id = topsquare></div>",null,encoding,word_square,,,0,topsquare,none,true,,,WAITER,3,,,
html-keyboard-response,479,779806,null,"<div style=""font-size:42px;"">WAITER</div>",null,,word,WAITER,,,,,,,,,,,,
html-keyboard-response,480,781311,null,"",null,,word,WAITER,,,,,,,,,,,,
html-keyboard-response,481,781517,null,"<div style=""font-size:42px;"">DAGGER</div><img id = ""stim"" ><div class = red_square id = bottomsquare></div>",null,encoding,word_square,,,0,bottomsquare,none,true,,,DAGGER,3,,,
html-keyboard-response,482,781830,null,"<div style=""font-size:42px;"">DAGGER</div>",null,,word,DAGGER,,,,,,,,,,,,
html-keyboard-response,483,783332,null,"",null,,word,DAGGER,,,,,,,,,,,,
call-function,484,783333,,"",,,,,,,,,,,,,,,,
html-keyboard-response,485,783443,null,"",null,,,,,,,,,,,,,,,
math-period,486,785380,3695.100000143051,"",,,,,,,,,,,3,,,,,
html-keyboard-response,487,785493,null,"",null,,,,,,,,,,,,,,,
math-period,488,786410,1732.0999999046326,"",,,,,,,,,,,3,,,,,
html-keyboard-response,489,786519,null,"",null,,,,,,,,,,,,,,,
math-period,490,787538,1899.2999997138977,"",,,,,,,,,,,5,,,,,
html-keyboard-response,491,787645,null,"",null,,,,,,,,,,,,,,,
math-period,492,788680,1905,"",,,,,,,,,,,4,,,,,
html-keyboard-response,493,788789,null,"",null,,,,,,,,,,,,,,,
math-period,494,790484,3307.5,"",,,,,,,,,,,1,,,,,
html-keyboard-response,495,790596,null,"",null,,,,,,,,,,,,,,,
math-period,496,791799,3411.7000000476837,"",,,,,,,,,,,56,,,,,
html-keyboard-response,497,791908,null,"",null,,,,,,,,,,,,,,,
math-period,498,796981,10054.200000047684,"",,,,,,,,,,,1,,,,,
html-keyboard-response,499,797097,null,"",null,,,,,,,,,,,,,,,
math-period,500,798715,3155.4999997615814,"",,,,,,,,,,,1,,,,,
html-keyboard-response,501,798825,null,"",null,,,,,,,,,,,,,,,
math-period,502,800559,3314.300000190735,"",,,,,,,,,,,4,,,,,
html-keyboard-response,503,800669,null,"",null,,,,,,,,,,,,,,,
math-period,504,801982,2521.5,"",,,,,,,,,,,2,,,,,
html-keyboard-response,505,802096,null,"",null,,,,,,,,,,,,,,,
math-period,506,802970,1642.099999666214,"",,,,,,,,,,,3,,,,,
html-keyboard-response,507,803076,null,"",null,,,,,,,,,,,,,,,
math-period,508,804357,2491.4000000953674,"",,,,,,,,,,,2,,,,,
html-keyboard-response,509,804472,null,"",null,,,,,,,,,,,,,,,
math-period,510,805737,2448.4000000953674,"",,,,,,,,,,,3,,,,,
html-keyboard-response,511,805850,null,"",null,,,,,,,,,,,,,,,
math-period,512,806868,1940.5,"",,,,,,,,,,,4,,,,,
html-keyboard-response,513,806978,null,"",null,,,,,,,,,,,,,,,
math-period,514,807342,null,"",,,,,,,,,,,,,,,,
html-keyboard-response,515,808351,null,"Recall Period!",null,,,,,,,,,,,,,,,
call-function,516,808352,,"",,,,,,,,,,,,,,,,
html-keyboard-response,517,808452,null,"",null,,,,,,,,,,,,,,,
recall-period,518,809848,7459.700000047684,"",,,,,,,,,,,washer,,,,,
html-keyboard-response,519,809964,null,"",null,,,,,,,,,,,,,,,
recall-period,520,814379,38327.30000042915,"",,,,,,,,,,,leg,,,,,
html-keyboard-response,521,814482,null,"",null,,,,,,,,,,,,,,,
recall-period,522,815277,1919.4000000953674,"",,,,,,,,,,,bank,,,,,
html-keyboard-response,523,815379,null,"",null,,,,,,,,,,,,,,,
recall-period,524,816211,2132.199999332428,"",,,,,,,,,,,snack,,,,,
html-keyboard-response,525,816315,null,"",null,,,,,,,,,,,,,,,
recall-period,526,883363,null,"",,,,,,,,,,,,,,,,
html-keyboard-response,527,883870,null,"Time's Up!",null,,,,,,,,,,,,,,,
html-keyboard-response,528,1069766,185894,"<p> Good job! You have responded correctly to 98% of the trials. </p>
                      <p>Be sure to only press the spacebar if you see a GREEN square, and please keep your accuracy above 80%.</p>
                      <p> Press any key to continue the experiment. </p>",32,,,,,,,,,,,,,,,
html-keyboard-response,529,1070398,631.7999999523163,"<div style=""font-size:48px;"">Press any key to begin list 5 of 16 </div>",32,,,,,,,,,,,,,,,
html-keyboard-response,530,1072914,null,"<div style=""font-size:60px;"">+</div>",null,,,,,,,,,,,,,,,
html-keyboard-response,531,1073120,null,"<div style=""font-size:42px;"">STAKE</div><img id = ""stim"" ><div class = green_square id = topsquare></div>",null,encoding,word_square,,,1,topsquare,32,true,,,STAKE,4,,,
html-keyboard-response,532,1073424,141.19999980926514,"<div style=""font-size:42px;"">STAKE</div>",32,,word,STAKE,,,,,,,,,,,,
html-keyboard-response,533,1074933,null,"",null,,word,STAKE,,,,,,,,,,,,
html-keyboard-response,534,1075140,null,"<div style=""font-size:42px;"">LUMBER</div><img id = ""stim"" ><div class = red_square id = bottomsquare></div>",null,encoding,word_square,,,0,bottomsquare,none,true,,,LUMBER,4,,,
html-keyboard-response,535,1075442,122.20000004768372,"<div style=""font-size:42px;"">LUMBER</div>",32,,word,LUMBER,,,,,,,,,,,,
html-keyboard-response,536,1076949,null,"",null,,word,LUMBER,,,,,,,,,,,,
html-keyboard-response,537,1077153,null,"<div style=""font-size:42px;"">ELK</div><img id = ""stim"" ><div class = red_square id = topsquare></div>",null,encoding,word_square,,,0,topsquare,none,true,,,ELK,4,,,
html-keyboard-response,538,1077455,null,"<div style=""font-size:42px;"">ELK</div>",null,,word,ELK,,,,,,,,,,,,
html-keyboard-response,539,1078969,null,"",null,,word,ELK,,,,,,,,,,,,
html-keyboard-response,540,1079176,null,"<div style=""font-size:42px;"">FLASK</div><img id = ""stim"" ><div class = green_square id = bottomsquare></div>",null,encoding,word_square,,,1,bottomsquare,32,true,,,FLASK,4,,,
html-keyboard-response,541,1079478,152.79999995231628,"<div style=""font-size:42px;"">FLASK</div>",32,,word,FLASK,,,,,,,,,,,,
html-keyboard-response,542,1080994,null,"",null,,word,FLASK,,,,,,,,,,,,
html-keyboard-response,543,1081201,null,"<div style=""font-size:42px;"">FIST</div><img id = ""stim"" ><div class = red_square id = bottomsquare></div>",null,encoding,word_square,,,0,bottomsquare,none,true,,,FIST,4,,,
html-keyboard-response,544,1081515,null,"<div style=""font-size:42px;"">FIST</div>",null,,word,FIST,,,,,,,,,,,,
html-keyboard-response,545,1083023,null,"",null,,word,FIST,,,,,,,,,,,,
html-keyboard-response,546,1083229,null,"<div style=""font-size:42px;"">RIVER</div><img id = ""stim"" ><div class = green_square id = topsquare></div>",null,encoding,word_square,,,1,topsquare,32,true,,,RIVER,4,,,
html-keyboard-response,547,1083530,243.09999990463257,"<div style=""font-size:42px;"">RIVER</div>",32,,word,RIVER,,,,,,,,,,,,
html-keyboard-response,548,1085038,null,"",null,,word,RIVER,,,,,,,,,,,,
html-keyboard-response,549,1085243,null,"<div style=""font-size:42px;"">CANAL</div><img id = ""stim"" ><div class = green_square id = bottomsquare></div>",null,encoding,word_square,,,1,bottomsquare,32,true,,,CANAL,4,,,
html-keyboard-response,550,1085559,null,"<div style=""font-size:42px;"">CANAL</div>",null,,word,CANAL,,,,,,,,,,,,
html-keyboard-response,551,1087065,217.39999985694885,"",32,,word,CANAL,,,,,,,,,,,,
html-keyboard-response,552,1087271,null,"<div style=""font-size:42px;"">LAKE</div><img id = ""stim"" ><div class = red_square id = topsquare></div>",null,encoding,word_square,,,0,topsquare,none,true,,,LAKE,4,,,
html-keyboard-response,553,1087586,null,"<div style=""font-size:42px;"">LAKE</div>",null,,word,LAKE,,,,,,,,,,,,
html-keyboard-response,554,1089088,null,"",null,,word,LAKE,,,,,,,,,,,,
html-keyboard-response,555,1089295,null,"<div style=""font-size:42px;"">BISCUIT</div><img id = ""stim"" ><div class = green_square id = topsquare></div>",null,encoding,word_square,,,1,topsquare,32,true,,,BISCUIT,4,,,
html-keyboard-response,556,1089602,194.29999995231628,"<div style=""font-size:42px;"">BISCUIT</div>",32,,word,BISCUIT,,,,,,,,,,,,
html-keyboard-response,557,1091113,null,"",null,,word,BISCUIT,,,,,,,,,,,,
html-keyboard-response,558,1091319,null,"<div style=""font-size:42px;"">ADULT</div><img id = ""stim"" ><div class = red_square id = bottomsquare></div>",null,encoding,word_square,,,0,bottomsquare,none,true,,,ADULT,4,,,
html-keyboard-response,559,1091623,null,"<div style=""font-size:42px;"">ADULT</div>",null,,word,ADULT,,,,,,,,,,,,
html-keyboard-response,560,1093132,null,"",null,,word,ADULT,,,,,,,,,,,,
html-keyboard-response,561,1093340,null,"<div style=""font-size:42px;"">SCOTCH</div><img id = ""stim"" ><div class = red_square id = topsquare></div>",null,encoding,word_square,,,0,topsquare,none,true,,,SCOTCH,4,,,
html-keyboard-response,562,1093642,null,"<div style=""font-size:42px;"">SCOTCH</div>",null,,word,SCOTCH,,,,,,,,,,,,
html-keyboard-response,563,1095149,null,"",null,,word,SCOTCH,,,,,,,,,,,,
html-keyboard-response,564,1095356,null,"<div style=""font-size:42px;"">SALAD</div><img id = ""stim"" ><div class = green_square id = bottomsquare></div>",null,encoding,word_square,,,1,bottomsquare,32,true,,,SALAD,4,,,
html-keyboard-response,565,1095657,237.30000019073486,"<div style=""font-size:42px;"">SALAD</div>",32,,word,SALAD,,,,,,,,,,,,
html-keyboard-response,566,1097159,null,"",null,,word,SALAD,,,,,,,,,,,,
html-keyboard-response,567,1097366,null,"<div style=""font-size:42px;"">ATOM</div><img id = ""stim"" ><div class = green_square id = topsquare></div>",null,encoding,word_square,,,1,topsquare,32,true,,,ATOM,4,,,
html-keyboard-response,568,1097668,null,"<div style=""font-size:42px;"">ATOM</div>",null,,word,ATOM,,,,,,,,,,,,
html-keyboard-response,569,1099174,38.59999990463257,"",32,,word,ATOM,,,,,,,,,,,,
html-keyboard-response,570,1099379,null,"<div style=""font-size:42px;"">CHEMIST</div><img id = ""stim"" ><div class = green_square id = bottomsquare></div>",null,encoding,word_square,,,1,bottomsquare,32,true,,,CHEMIST,4,,,
html-keyboard-response,571,1099680,225.09999990463257,"<div style=""font-size:42px;"">CHEMIST</div>",32,,word,CHEMIST,,,,,,,,,,,,
html-keyboard-response,572,1101188,null,"",null,,word,CHEMIST,,,,,,,,,,,,
html-keyboard-response,573,1101393,null,"<div style=""font-size:42px;"">ROOSTER</div><img id = ""stim"" ><div class = red_square id = bottomsquare></div>",null,encoding,word_square,,,0,bottomsquare,none,true,,,ROOSTER,4,,,
html-keyboard-response,574,1101696,null,"<div style=""font-size:42px;"">ROOSTER</div>",null,,word,ROOSTER,,,,,,,,,,,,
html-keyboard-response,575,1103206,null,"",null,,word,ROOSTER,,,,,,,,,,,,
html-keyboard-response,576,1103413,null,"<div style=""font-size:42px;"">GIRAFFE</div><img id = ""stim"" ><div class = red_square id = topsquare></div>",null,encoding,word_square,,,0,topsquare,none,true,,,GIRAFFE,4,,,
html-keyboard-response,577,1103714,null,"<div style=""font-size:42px;"">GIRAFFE</div>",null,,word,GIRAFFE,,,,,,,,,,,,
html-keyboard-response,578,1105223,null,"",null,,word,GIRAFFE,,,,,,,,,,,,
call-function,579,1105224,,"",,,,,,,,,,,,,,,,
html-keyboard-response,580,1105324,null,"",null,,,,,,,,,,,,,,,
math-period,581,1107661,4529.799999952316,"",,,,,,,,,,,1,,,,,
html-keyboard-response,582,1107778,null,"",null,,,,,,,,,,,,,,,
math-period,583,1108583,1508.9000000953674,"",,,,,,,,,,,1,,,,,
html-keyboard-response,584,1108698,null,"",null,,,,,,,,,,,,,,,
math-period,585,1109748,1947.5999999046326,"",,,,,,,,,,,5,,,,,
html-keyboard-response,586,1109858,null,"",null,,,,,,,,,,,,,,,
math-period,587,1112125,4455.199999809265,"",,,,,,,,,,,0,,,,,
html-keyboard-response,588,1112236,null,"",null,,,,,,,,,,,,,,,
math-period,589,1114357,4088.0999999046326,"",,,,,,,,,,,3,,,,,
html-keyboard-response,590,1114464,null,"",null,,,,,,,,,,,,,,,
math-period,591,1116253,3508,"",,,,,,,,,,,1,,,,,
html-keyboard-response,592,1116356,null,"",null,,,,,,,,,,,,,,,
math-period,593,1118684,4557.900000095367,"",,,,,,,,,,,0,,,,,
html-keyboard-response,594,1118796,null,"",null,,,,,,,,,,,,,,,
math-period,595,1120134,2513.3999996185303,"",,,,,,,,,,,3,,,,,
html-keyboard-response,596,1120237,null,"",null,,,,,,,,,,,,,,,
math-period,597,1121340,2080.399999856949,"",,,,,,,,,,,3,,,,,
html-keyboard-response,598,1121452,null,"",null,,,,,,,,,,,,,,,
math-period,599,1122727,2314.7000000476837,"",,,,,,,,,,,5,,,,,
html-keyboard-response,600,1122837,null,"",null,,,,,,,,,,,,,,,
math-period,601,1124027,2249.199999809265,"",,,,,,,,,,,3,,,,,
html-keyboard-response,602,1124141,null,"",null,,,,,,,,,,,,,,,
math-period,603,1125494,2569.699999809265,"",,,,,,,,,,,3,,,,,
html-keyboard-response,604,1125603,null,"",null,,,,,,,,,,,,,,,
math-period,605,1126680,2049.7999999523163,"",,,,,,,,,,,4,,,,,
html-keyboard-response,606,1126788,null,"",null,,,,,,,,,,,,,,,
math-period,607,1128410,3102.899999856949,"",,,,,,,,,,,2,,,,,
html-keyboard-response,608,1128517,null,"",null,,,,,,,,,,,,,,,
math-period,609,1129227,null,"",,,,,,,,,,,,,,,,
html-keyboard-response,610,1130229,null,"Recall Period!",null,,,,,,,,,,,,,,,
call-function,611,1130230,,"",,,,,,,,,,,,,,,,
html-keyboard-response,612,1130340,null,"",null,,,,,,,,,,,,,,,
recall-period,613,1131462,3346.4000000953674,"",,,,,,,,,,,elk,,,,,
html-keyboard-response,614,1131571,null,"",null,,,,,,,,,,,,,,,
recall-period,615,1132421,2179.199999332428,"",,,,,,,,,,,flash,,,,,
html-keyboard-response,616,1132524,null,"",null,,,,,,,,,,,,,,,
recall-period,617,1133534,2178.800000190735,"",,,,,,,,,,,fist,,,,,
html-keyboard-response,618,1133639,null,"",null,,,,,,,,,,,,,,,
recall-period,619,1134900,5680.5,"",,,,,,,,,,,lizard,,,,,
html-keyboard-response,620,1135007,null,"",null,,,,,,,,,,,,,,,
recall-period,621,1135666,1806.9999995231628,"",,,,,,,,,,,lake,,,,,
html-keyboard-response,622,1135782,null,"",null,,,,,,,,,,,,,,,
recall-period,623,1205230,28538,"",,,,,,,,,,,undefined,,,,,
html-keyboard-response,624,1205739,null,"Time's Up!",null,,,,,,,,,,,,,,,
html-keyboard-response,625,1217796,12055.400000095367,"<p> Good job! You have responded correctly to 99% of the trials. </p>
                      <p>Be sure to only press the spacebar if you see a GREEN square, and please keep your accuracy above 80%.</p>
                      <p> Press any key to continue the experiment. </p>",175,,,,,,,,,,,,,,,
html-keyboard-response,626,1217800,3.1000001430511475,"<div style=""font-size:48px;"">Press any key to begin list 6 of 16 </div>",175,,,,,,,,,,,,,,,
html-keyboard-response,627,1220322,null,"<div style=""font-size:60px;"">+</div>",null,,,,,,,,,,,,,,,
html-keyboard-response,628,1220527,null,"<div style=""font-size:42px;"">SHEPHERD</div><img id = ""stim"" ><div class = red_square id = topsquare></div>",null,encoding,word_square,,,0,topsquare,none,true,,,SHEPHERD,5,,,
html-keyboard-response,629,1220828,null,"<div style=""font-size:42px;"">SHEPHERD</div>",null,,word,SHEPHERD,,,,,,,,,,,,
html-keyboard-response,630,1222331,null,"",null,,word,SHEPHERD,,,,,,,,,,,,
html-keyboard-response,631,1222538,null,"<div style=""font-size:42px;"">SHARK</div><img id = ""stim"" ><div class = red_square id = bottomsquare></div>",null,encoding,word_square,,,0,bottomsquare,none,true,,,SHARK,5,,,
html-keyboard-response,632,1222839,null,"<div style=""font-size:42px;"">SHARK</div>",null,,word,SHARK,,,,,,,,,,,,
html-keyboard-response,633,1224347,null,"",null,,word,SHARK,,,,,,,,,,,,
html-keyboard-response,634,1224553,null,"<div style=""font-size:42px;"">PRIMATE</div><img id = ""stim"" ><div class = green_square id = bottomsquare></div>",null,encoding,word_square,,,1,bottomsquare,32,true,,,PRIMATE,5,,,
html-keyboard-response,635,1224854,271.2000000476837,"<div style=""font-size:42px;"">PRIMATE</div>",32,,word,PRIMATE,,,,,,,,,,,,
html-keyboard-response,636,1226356,null,"",null,,word,PRIMATE,,,,,,,,,,,,
html-keyboard-response,637,1226562,null,"<div style=""font-size:42px;"">NURSE</div><img id = ""stim"" ><div class = green_square id = topsquare></div>",null,encoding,word_square,,,1,topsquare,32,true,,,NURSE,5,,,
html-keyboard-response,638,1226863,null,"<div style=""font-size:42px;"">NURSE</div>",null,,word,NURSE,,,,,,,,,,,,
html-keyboard-response,639,1228368,183.20000004768372,"",32,,word,NURSE,,,,,,,,,,,,
html-keyboard-response,640,1228575,null,"<div style=""font-size:42px;"">MARKER</div><img id = ""stim"" ><div class = green_square id = bottomsquare></div>",null,encoding,word_square,,,1,bottomsquare,32,true,,,MARKER,5,,,
html-keyboard-response,641,1228879,null,"<div style=""font-size:42px;"">MARKER</div>",null,,word,MARKER,,,,,,,,,,,,
html-keyboard-response,642,1230380,243.59999990463257,"",32,,word,MARKER,,,,,,,,,,,,
html-keyboard-response,643,1230588,null,"<div style=""font-size:42px;"">SCOUT</div><img id = ""stim"" ><div class = red_square id = topsquare></div>",null,encoding,word_square,,,0,topsquare,none,true,,,SCOUT,5,,,
html-keyboard-response,644,1230904,null,"<div style=""font-size:42px;"">SCOUT</div>",null,,word,SCOUT,,,,,,,,,,,,
html-keyboard-response,645,1232415,null,"",null,,word,SCOUT,,,,,,,,,,,,
html-keyboard-response,646,1232621,null,"<div style=""font-size:42px;"">FEAST</div><img id = ""stim"" ><div class = red_square id = bottomsquare></div>",null,encoding,word_square,,,0,bottomsquare,none,true,,,FEAST,5,,,
html-keyboard-response,647,1232924,null,"<div style=""font-size:42px;"">FEAST</div>",null,,word,FEAST,,,,,,,,,,,,
html-keyboard-response,648,1234432,null,"",null,,word,FEAST,,,,,,,,,,,,
html-keyboard-response,649,1234640,null,"<div style=""font-size:42px;"">SALMON</div><img id = ""stim"" ><div class = green_square id = topsquare></div>",null,encoding,word_square,,,1,topsquare,32,true,,,SALMON,5,,,
html-keyboard-response,650,1234943,null,"<div style=""font-size:42px;"">SALMON</div>",null,,word,SALMON,,,,,,,,,,,,
html-keyboard-response,651,1236450,270,"",32,,word,SALMON,,,,,,,,,,,,
html-keyboard-response,652,1236655,null,"<div style=""font-size:42px;"">LAGOON</div><img id = ""stim"" ><div class = red_square id = topsquare></div>",null,encoding,word_square,,,0,topsquare,none,true,,,LAGOON,5,,,
html-keyboard-response,653,1236970,null,"<div style=""font-size:42px;"">LAGOON</div>",null,,word,LAGOON,,,,,,,,,,,,
html-keyboard-response,654,1238476,null,"",null,,word,LAGOON,,,,,,,,,,,,
html-keyboard-response,655,1238682,null,"<div style=""font-size:42px;"">BUCKET</div><img id = ""stim"" ><div class = green_square id = bottomsquare></div>",null,encoding,word_square,,,1,bottomsquare,32,true,,,BUCKET,5,,,
html-keyboard-response,656,1238985,261.90000009536743,"<div style=""font-size:42px;"">BUCKET</div>",32,,word,BUCKET,,,,,,,,,,,,
html-keyboard-response,657,1240495,null,"",null,,word,BUCKET,,,,,,,,,,,,
html-keyboard-response,658,1240702,null,"<div style=""font-size:42px;"">LIGHTNING</div><img id = ""stim"" ><div class = green_square id = topsquare></div>",null,encoding,word_square,,,1,topsquare,32,true,,,LIGHTNING,5,,,
html-keyboard-response,659,1241004,null,"<div style=""font-size:42px;"">LIGHTNING</div>",null,,word,LIGHTNING,,,,,,,,,,,,
html-keyboard-response,660,1242517,31.199999809265137,"",32,,word,LIGHTNING,,,,,,,,,,,,
html-keyboard-response,661,1242721,null,"<div style=""font-size:42px;"">DONKEY</div><img id = ""stim"" ><div class = red_square id = bottomsquare></div>",null,encoding,word_square,,,0,bottomsquare,none,true,,,DONKEY,5,,,
html-keyboard-response,662,1243024,null,"<div style=""font-size:42px;"">DONKEY</div>",null,,word,DONKEY,,,,,,,,,,,,
html-keyboard-response,663,1244525,null,"",null,,word,DONKEY,,,,,,,,,,,,
html-keyboard-response,664,1244733,null,"<div style=""font-size:42px;"">HORSE</div><img id = ""stim"" ><div class = green_square id = bottomsquare></div>",null,encoding,word_square,,,1,bottomsquare,32,true,,,HORSE,5,,,
html-keyboard-response,665,1245048,178,"<div style=""font-size:42px;"">HORSE</div>",32,,word,HORSE,,,,,,,,,,,,
html-keyboard-response,666,1246550,null,"",null,,word,HORSE,,,,,,,,,,,,
html-keyboard-response,667,1246756,null,"<div style=""font-size:42px;"">DWARF</div><img id = ""stim"" ><div class = red_square id = topsquare></div>",null,encoding,word_square,,,0,topsquare,none,true,,,DWARF,5,,,
html-keyboard-response,668,1247072,null,"<div style=""font-size:42px;"">DWARF</div>",null,,word,DWARF,,,,,,,,,,,,
html-keyboard-response,669,1248581,null,"",null,,word,DWARF,,,,,,,,,,,,
html-keyboard-response,670,1248788,null,"<div style=""font-size:42px;"">NOTEBOOK</div><img id = ""stim"" ><div class = red_square id = bottomsquare></div>",null,encoding,word_square,,,0,bottomsquare,none,true,,,NOTEBOOK,5,,,
html-keyboard-response,671,1249091,null,"<div style=""font-size:42px;"">NOTEBOOK</div>",null,,word,NOTEBOOK,,,,,,,,,,,,
html-keyboard-response,672,1250598,null,"",null,,word,NOTEBOOK,,,,,,,,,,,,
html-keyboard-response,673,1250804,null,"<div style=""font-size:42px;"">BUSH</div><img id = ""stim"" ><div class = green_square id = topsquare></div>",null,encoding,word_square,,,1,topsquare,32,true,,,BUSH,5,,,
html-keyboard-response,674,1251106,91.29999995231628,"<div style=""font-size:42px;"">BUSH</div>",32,,word,BUSH,,,,,,,,,,,,
html-keyboard-response,675,1252612,null,"",null,,word,BUSH,,,,,,,,,,,,
call-function,676,1252613,,"",,,,,,,,,,,,,,,,
html-keyboard-response,677,1252714,null,"",null,,,,,,,,,,,,,,,
math-period,678,1254335,3079.600000143051,"",,,,,,,,,,,5,,,,,
html-keyboard-response,679,1254451,null,"",null,,,,,,,,,,,,,,,
math-period,680,1255490,1966.4000000953674,"",,,,,,,,,,,4,,,,,
html-keyboard-response,681,1255594,null,"",null,,,,,,,,,,,,,,,
math-period,682,1257021,2748.4999997615814,"",,,,,,,,,,,3,,,,,
html-keyboard-response,683,1257122,null,"",null,,,,,,,,,,,,,,,
math-period,684,1258084,1801,"",,,,,,,,,,,5,,,,,
html-keyboard-response,685,1258186,null,"",null,,,,,,,,,,,,,,,
math-period,686,1259986,3538.399999856949,"",,,,,,,,,,,1,,,,,
html-keyboard-response,687,1260097,null,"",null,,,,,,,,,,,,,,,
math-period,688,1261662,3018.2000002861023,"",,,,,,,,,,,2,,,,,
html-keyboard-response,689,1261763,null,"",null,,,,,,,,,,,,,,,
math-period,690,1262936,2250.0999999046326,"",,,,,,,,,,,3,,,,,
html-keyboard-response,691,1263046,null,"",null,,,,,,,,,,,,,,,
math-period,692,1266144,6001.399999856949,"",,,,,,,,,,,1,,,,,
html-keyboard-response,693,1266251,null,"",null,,,,,,,,,,,,,,,
math-period,694,1268623,4657.899999856949,"",,,,,,,,,,,2,,,,,
html-keyboard-response,695,1268733,null,"",null,,,,,,,,,,,,,,,
math-period,696,1270287,2934.300000190735,"",,,,,,,,,,,1,,,,,
html-keyboard-response,697,1270397,null,"",null,,,,,,,,,,,,,,,
math-period,698,1271616,2314.199999809265,"",,,,,,,,,,,3,,,,,
html-keyboard-response,699,1271730,null,"",null,,,,,,,,,,,,,,,
math-period,700,1272554,1559.8000001907349,"",,,,,,,,,,,2,,,,,
html-keyboard-response,701,1272655,null,"",null,,,,,,,,,,,,,,,
math-period,702,1273573,1769.7000000476837,"",,,,,,,,,,,3,,,,,
html-keyboard-response,703,1273676,null,"",null,,,,,,,,,,,,,,,
math-period,704,1274601,2602.7999997138977,"",,,,,,,,,,,54,,,,,
html-keyboard-response,705,1274707,null,"",null,,,,,,,,,,,,,,,
math-period,706,1276441,3339.600000143051,"",,,,,,,,,,,4,,,,,
html-keyboard-response,707,1276550,null,"",null,,,,,,,,,,,,,,,
math-period,708,1276613,null,"",,,,,,,,,,,,,,,,
html-keyboard-response,709,1277626,null,"Recall Period!",null,,,,,,,,,,,,,,,
call-function,710,1277626,,"",,,,,,,,,,,,,,,,
html-keyboard-response,711,1277738,null,"",null,,,,,,,,,,,,,,,
recall-period,712,1280485,19384.69999885559,"",,,,,,,,,,,primate,,,,,
html-keyboard-response,713,1280595,null,"",null,,,,,,,,,,,,,,,
recall-period,714,1281913,4654.299999713898,"",,,,,,,,,,,nurse,,,,,
html-keyboard-response,715,1282020,null,"",null,,,,,,,,,,,,,,,
recall-period,716,1282846,1781.1999998092651,"",,,,,,,,,,,mark,,,,,
html-keyboard-response,717,1282959,null,"",null,,,,,,,,,,,,,,,
recall-period,718,1285339,12311.299999952316,"",,,,,,,,,,,scout,,,,,
html-keyboard-response,719,1285452,null,"",null,,,,,,,,,,,,,,,
recall-period,720,1352632,null,"",,,,,,,,,,,,,,,,
html-keyboard-response,721,1353143,null,"Time's Up!",null,,,,,,,,,,,,,,,
html-keyboard-response,722,1395360,42216.5,"<p> Good job! You have responded correctly to 99% of the trials. </p>
                      <p>Be sure to only press the spacebar if you see a GREEN square, and please keep your accuracy above 80%.</p>
                      <p> Press any key to continue the experiment. </p>",32,,,,,,,,,,,,,,,
html-keyboard-response,723,1396192,831,"<div style=""font-size:48px;"">Press any key to begin list 7 of 16 </div>",32,,,,,,,,,,,,,,,
html-keyboard-response,724,1398701,null,"<div style=""font-size:60px;"">+</div>",null,,,,,,,,,,,,,,,
html-keyboard-response,725,1398906,null,"<div style=""font-size:42px;"">MARINE</div><img id = ""stim"" ><div class = red_square id = bottomsquare></div>",null,encoding,word_square,,,0,bottomsquare,none,true,,,MARINE,6,,,
html-keyboard-response,726,1399222,null,"<div style=""font-size:42px;"">MARINE</div>",null,,word,MARINE,,,,,,,,,,,,
html-keyboard-response,727,1400727,null,"",null,,word,MARINE,,,,,,,,,,,,
html-keyboard-response,728,1400934,null,"<div style=""font-size:42px;"">JOINT</div><img id = ""stim"" ><div class = green_square id = topsquare></div>",null,encoding,word_square,,,1,topsquare,32,true,,,JOINT,6,,,
html-keyboard-response,729,1401250,151.90000009536743,"<div style=""font-size:42px;"">JOINT</div>",32,,word,JOINT,,,,,,,,,,,,
html-keyboard-response,730,1402756,null,"",null,,word,JOINT,,,,,,,,,,,,
html-keyboard-response,731,1402961,null,"<div style=""font-size:42px;"">VESSEL</div><img id = ""stim"" ><div class = green_square id = bottomsquare></div>",null,encoding,word_square,,,1,bottomsquare,32,true,,,VESSEL,6,,,
html-keyboard-response,732,1403264,180,"<div style=""font-size:42px;"">VESSEL</div>",32,,word,VESSEL,,,,,,,,,,,,
html-keyboard-response,733,1404782,null,"",null,,word,VESSEL,,,,,,,,,,,,
html-keyboard-response,734,1404990,null,"<div style=""font-size:42px;"">COWBOY</div><img id = ""stim"" ><div class = red_square id = topsquare></div>",null,encoding,word_square,,,0,topsquare,none,true,,,COWBOY,6,,,
html-keyboard-response,735,1405306,null,"<div style=""font-size:42px;"">COWBOY</div>",null,,word,COWBOY,,,,,,,,,,,,
html-keyboard-response,736,1406808,null,"",null,,word,COWBOY,,,,,,,,,,,,
html-keyboard-response,737,1407014,null,"<div style=""font-size:42px;"">CONVICT</div><img id = ""stim"" ><div class = green_square id = topsquare></div>",null,encoding,word_square,,,1,topsquare,32,true,,,CONVICT,6,,,
html-keyboard-response,738,1407315,146.69999980926514,"<div style=""font-size:42px;"">CONVICT</div>",32,,word,CONVICT,,,,,,,,,,,,
html-keyboard-response,739,1408822,null,"",null,,word,CONVICT,,,,,,,,,,,,
html-keyboard-response,740,1409027,null,"<div style=""font-size:42px;"">COOK</div><img id = ""stim"" ><div class = red_square id = bottomsquare></div>",null,encoding,word_square,,,0,bottomsquare,none,true,,,COOK,6,,,
html-keyboard-response,741,1409343,null,"<div style=""font-size:42px;"">COOK</div>",null,,word,COOK,,,,,,,,,,,,
html-keyboard-response,742,1410848,null,"",null,,word,COOK,,,,,,,,,,,,
html-keyboard-response,743,1411056,null,"<div style=""font-size:42px;"">FROG</div><img id = ""stim"" ><div class = red_square id = topsquare></div>",null,encoding,word_square,,,0,topsquare,none,true,,,FROG,6,,,
html-keyboard-response,744,1411360,null,"<div style=""font-size:42px;"">FROG</div>",null,,word,FROG,,,,,,,,,,,,
html-keyboard-response,745,1412866,null,"",null,,word,FROG,,,,,,,,,,,,
html-keyboard-response,746,1413070,null,"<div style=""font-size:42px;"">PREACHER</div><img id = ""stim"" ><div class = green_square id = bottomsquare></div>",null,encoding,word_square,,,1,bottomsquare,32,true,,,PREACHER,6,,,
html-keyboard-response,747,1413372,null,"<div style=""font-size:42px;"">PREACHER</div>",null,,word,PREACHER,,,,,,,,,,,,
html-keyboard-response,748,1414884,0.10000014305114746,"",32,,word,PREACHER,,,,,,,,,,,,
html-keyboard-response,749,1415087,null,"<div style=""font-size:42px;"">LAUNDRY</div><img id = ""stim"" ><div class = red_square id = bottomsquare></div>",null,encoding,word_square,,,0,bottomsquare,none,true,,,LAUNDRY,6,,,
html-keyboard-response,750,1415389,null,"<div style=""font-size:42px;"">LAUNDRY</div>",null,,word,LAUNDRY,,,,,,,,,,,,
html-keyboard-response,751,1416891,null,"",null,,word,LAUNDRY,,,,,,,,,,,,
html-keyboard-response,752,1417094,null,"<div style=""font-size:42px;"">TWISTER</div><img id = ""stim"" ><div class = green_square id = topsquare></div>",null,encoding,word_square,,,1,topsquare,32,true,,,TWISTER,6,,,
html-keyboard-response,753,1417395,248.89999985694885,"<div style=""font-size:42px;"">TWISTER</div>",32,,word,TWISTER,,,,,,,,,,,,
html-keyboard-response,754,1418900,null,"",null,,word,TWISTER,,,,,,,,,,,,
html-keyboard-response,755,1419107,null,"<div style=""font-size:42px;"">STAR</div><img id = ""stim"" ><div class = green_square id = bottomsquare></div>",null,encoding,word_square,,,1,bottomsquare,32,true,,,STAR,6,,,
html-keyboard-response,756,1419408,249.79999995231628,"<div style=""font-size:42px;"">STAR</div>",32,,word,STAR,,,,,,,,,,,,
html-keyboard-response,757,1420917,null,"",null,,word,STAR,,,,,,,,,,,,
html-keyboard-response,758,1421123,null,"<div style=""font-size:42px;"">MARS</div><img id = ""stim"" ><div class = red_square id = topsquare></div>",null,encoding,word_square,,,0,topsquare,none,true,,,MARS,6,,,
html-keyboard-response,759,1421424,null,"<div style=""font-size:42px;"">MARS</div>",null,,word,MARS,,,,,,,,,,,,
html-keyboard-response,760,1422929,null,"",null,,word,MARS,,,,,,,,,,,,
html-keyboard-response,761,1423136,null,"<div style=""font-size:42px;"">SADDLE</div><img id = ""stim"" ><div class = red_square id = bottomsquare></div>",null,encoding,word_square,,,0,bottomsquare,none,true,,,SADDLE,6,,,
html-keyboard-response,762,1423439,null,"<div style=""font-size:42px;"">SADDLE</div>",null,,word,SADDLE,,,,,,,,,,,,
html-keyboard-response,763,1424947,null,"",null,,word,SADDLE,,,,,,,,,,,,
html-keyboard-response,764,1425153,null,"<div style=""font-size:42px;"">CYCLONE</div><img id = ""stim"" ><div class = red_square id = topsquare></div>",null,encoding,word_square,,,0,topsquare,none,true,,,CYCLONE,6,,,
html-keyboard-response,765,1425455,null,"<div style=""font-size:42px;"">CYCLONE</div>",null,,word,CYCLONE,,,,,,,,,,,,
html-keyboard-response,766,1426961,null,"",null,,word,CYCLONE,,,,,,,,,,,,
html-keyboard-response,767,1427168,null,"<div style=""font-size:42px;"">SHEARS</div><img id = ""stim"" ><div class = green_square id = topsquare></div>",null,encoding,word_square,,,1,topsquare,32,true,,,SHEARS,6,,,
html-keyboard-response,768,1427471,157.79999995231628,"<div style=""font-size:42px;"">SHEARS</div>",32,,word,SHEARS,,,,,,,,,,,,
html-keyboard-response,769,1428982,null,"",null,,word,SHEARS,,,,,,,,,,,,
html-keyboard-response,770,1429189,null,"<div style=""font-size:42px;"">CLAM</div><img id = ""stim"" ><div class = green_square id = bottomsquare></div>",null,encoding,word_square,,,1,bottomsquare,32,true,,,CLAM,6,,,
html-keyboard-response,771,1429493,null,"<div style=""font-size:42px;"">CLAM</div>",null,,word,CLAM,,,,,,,,,,,,
html-keyboard-response,772,1431001,124.29999995231628,"",32,,word,CLAM,,,,,,,,,,,,
call-function,773,1431001,,"",,,,,,,,,,,,,,,,
html-keyboard-response,774,1431112,null,"",null,,,,,,,,,,,,,,,
math-period,775,1432978,3245.300000190735,"",,,,,,,,,,,4,,,,,
html-keyboard-response,776,1433082,null,"",null,,,,,,,,,,,,,,,
math-period,777,1433929,1556.5,"",,,,,,,,,,,5,,,,,
html-keyboard-response,778,1434031,null,"",null,,,,,,,,,,,,,,,
math-period,779,1435202,2237.2000000476837,"",,,,,,,,,,,2,,,,,
html-keyboard-response,780,1435312,null,"",null,,,,,,,,,,,,,,,
math-period,781,1436369,1961.4000000953674,"",,,,,,,,,,,3,,,,,
html-keyboard-response,782,1436472,null,"",null,,,,,,,,,,,,,,,
math-period,783,1437913,2744.9000000953674,"",,,,,,,,,,,2,,,,,
html-keyboard-response,784,1438017,null,"",null,,,,,,,,,,,,,,,
math-period,785,1438951,1739.6999998092651,"",,,,,,,,,,,3,,,,,
html-keyboard-response,786,1439052,null,"",null,,,,,,,,,,,,,,,
math-period,787,1440382,2554.7000002861023,"",,,,,,,,,,,1,,,,,
html-keyboard-response,788,1440491,null,"",null,,,,,,,,,,,,,,,
math-period,789,1441797,2463.5000002384186,"",,,,,,,,,,,1,,,,,
html-keyboard-response,790,1441904,null,"",null,,,,,,,,,,,,,,,
math-period,791,1443277,2572.199999809265,"",,,,,,,,,,,4,,,,,
html-keyboard-response,792,1443380,null,"",null,,,,,,,,,,,,,,,
math-period,793,1444537,2215.600000143051,"",,,,,,,,,,,1,,,,,
html-keyboard-response,794,1444649,null,"",null,,,,,,,,,,,,,,,
math-period,795,1445581,1717.5999999046326,"",,,,,,,,,,,3,,,,,
html-keyboard-response,796,1445695,null,"",null,,,,,,,,,,,,,,,
math-period,797,1447282,3070.9999997615814,"",,,,,,,,,,,2,,,,,
html-keyboard-response,798,1447387,null,"",null,,,,,,,,,,,,,,,
math-period,799,1448396,1883,"",,,,,,,,,,,3,,,,,
html-keyboard-response,800,1448500,null,"",null,,,,,,,,,,,,,,,
math-period,801,1449430,1727.0000002384186,"",,,,,,,,,,,3,,,,,
html-keyboard-response,802,1449544,null,"",null,,,,,,,,,,,,,,,
math-period,803,1450533,1869.4000000953674,"",,,,,,,,,,,3,,,,,
html-keyboard-response,804,1450641,null,"",null,,,,,,,,,,,,,,,
math-period,805,1452427,5138.299999475479,"",,,,,,,,,,,5,,,,,
html-keyboard-response,806,1452536,null,"",null,,,,,,,,,,,,,,,
math-period,807,1455003,6455.200000286102,"",,,,,,,,,,,4,,,,,
html-keyboard-response,808,1456015,null,"Recall Period!",null,,,,,,,,,,,,,,,
call-function,809,1456016,,"",,,,,,,,,,,,,,,,
html-keyboard-response,810,1456126,null,"",null,,,,,,,,,,,,,,,
recall-period,811,1458845,14055.699999809265,"",,,,,,,,,,,joint,,,,,
html-keyboard-response,812,1458957,null,"",null,,,,,,,,,,,,,,,
recall-period,813,1461692,14310.700000047684,"",,,,,,,,,,,flash,,,,,
html-keyboard-response,814,1461799,null,"",null,,,,,,,,,,,,,,,
recall-period,815,1464537,15955.5,"",,,,,,,,,,,pester,,,,,
html-keyboard-response,816,1464650,null,"",null,,,,,,,,,,,,,,,
recall-period,817,1469817,20063.800000190735,"",,,,,,,,,,,rat,,,,,
html-keyboard-response,818,1469919,null,"",null,,,,,,,,,,,,,,,
recall-period,819,1474690,33564.599999666214,"",,,,,,,,,,,sewer,,,,,
html-keyboard-response,820,1474806,null,"",null,,,,,,,,,,,,,,,
recall-period,821,1482004,55832.90000009537,"",,,,,,,,,,,vermin,,,,,
html-keyboard-response,822,1482108,null,"",null,,,,,,,,,,,,,,,
recall-period,823,1531026,null,"",,,,,,,,,,,,,,,,
html-keyboard-response,824,1531535,null,"Time's Up!",null,,,,,,,,,,,,,,,
html-keyboard-response,825,1533857,2320.4000000953674,"<p> Good job! You have responded correctly to 99% of the trials. </p>
                      <p>Be sure to only press the spacebar if you see a GREEN square, and please keep your accuracy above 80%.</p>
                      <p> Press any key to continue the experiment. </p>",32,,,,,,,,,,,,,,,
html-keyboard-response,826,1535210,1352.2999999523163,"<div style=""font-size:48px;"">Press any key to begin list 8 of 16 </div>",32,,,,,,,,,,,,,,,
html-keyboard-response,827,1537731,null,"<div style=""font-size:60px;"">+</div>",null,,,,,,,,,,,,,,,
html-keyboard-response,828,1537937,null,"<div style=""font-size:42px;"">CABIN</div><img id = ""stim"" ><div class = green_square id = bottomsquare></div>",null,encoding,word_square,,,1,bottomsquare,32,true,,,CABIN,7,,,
html-keyboard-response,829,1538253,null,"<div style=""font-size:42px;"">CABIN</div>",null,,word,CABIN,,,,,,,,,,,,
html-keyboard-response,830,1539761,43.700000047683716,"",32,,word,CABIN,,,,,,,,,,,,
html-keyboard-response,831,1539965,null,"<div style=""font-size:42px;"">HOOK</div><img id = ""stim"" ><div class = green_square id = topsquare></div>",null,encoding,word_square,,,1,topsquare,32,true,,,HOOK,7,,,
html-keyboard-response,832,1540269,182.89999985694885,"<div style=""font-size:42px;"">HOOK</div>",32,,word,HOOK,,,,,,,,,,,,
html-keyboard-response,833,1541773,null,"",null,,word,HOOK,,,,,,,,,,,,
html-keyboard-response,834,1541980,null,"<div style=""font-size:42px;"">ANGEL</div><img id = ""stim"" ><div class = red_square id = topsquare></div>",null,encoding,word_square,,,0,topsquare,none,true,,,ANGEL,7,,,
html-keyboard-response,835,1542282,null,"<div style=""font-size:42px;"">ANGEL</div>",null,,word,ANGEL,,,,,,,,,,,,
html-keyboard-response,836,1543798,null,"",null,,word,ANGEL,,,,,,,,,,,,
html-keyboard-response,837,1544004,null,"<div style=""font-size:42px;"">TRIBE</div><img id = ""stim"" ><div class = red_square id = bottomsquare></div>",null,encoding,word_square,,,0,bottomsquare,none,true,,,TRIBE,7,,,
html-keyboard-response,838,1544305,null,"<div style=""font-size:42px;"">TRIBE</div>",null,,word,TRIBE,,,,,,,,,,,,
html-keyboard-response,839,1545817,null,"",null,,word,TRIBE,,,,,,,,,,,,
html-keyboard-response,840,1546023,null,"<div style=""font-size:42px;"">HANDBAG</div><img id = ""stim"" ><div class = red_square id = topsquare></div>",null,encoding,word_square,,,0,topsquare,none,true,,,HANDBAG,7,,,
html-keyboard-response,841,1546324,null,"<div style=""font-size:42px;"">HANDBAG</div>",null,,word,HANDBAG,,,,,,,,,,,,
html-keyboard-response,842,1547829,null,"",null,,word,HANDBAG,,,,,,,,,,,,
html-keyboard-response,843,1548035,null,"<div style=""font-size:42px;"">ICEBERG</div><img id = ""stim"" ><div class = green_square id = bottomsquare></div>",null,encoding,word_square,,,1,bottomsquare,32,true,,,ICEBERG,7,,,
html-keyboard-response,844,1548338,183.70000004768372,"<div style=""font-size:42px;"">ICEBERG</div>",32,,word,ICEBERG,,,,,,,,,,,,
html-keyboard-response,845,1549855,null,"",null,,word,ICEBERG,,,,,,,,,,,,
html-keyboard-response,846,1550062,null,"<div style=""font-size:42px;"">CURTAIN</div><img id = ""stim"" ><div class = green_square id = topsquare></div>",null,encoding,word_square,,,1,topsquare,32,true,,,CURTAIN,7,,,
html-keyboard-response,847,1550365,148.39999985694885,"<div style=""font-size:42px;"">CURTAIN</div>",32,,word,CURTAIN,,,,,,,,,,,,
html-keyboard-response,848,1551872,null,"",null,,word,CURTAIN,,,,,,,,,,,,
html-keyboard-response,849,1552077,null,"<div style=""font-size:42px;"">WINDOW</div><img id = ""stim"" ><div class = red_square id = bottomsquare></div>",null,encoding,word_square,,,0,bottomsquare,none,true,,,WINDOW,7,,,
html-keyboard-response,850,1552392,null,"<div style=""font-size:42px;"">WINDOW</div>",null,,word,WINDOW,,,,,,,,,,,,
html-keyboard-response,851,1553899,null,"",null,,word,WINDOW,,,,,,,,,,,,
html-keyboard-response,852,1554105,null,"<div style=""font-size:42px;"">ARM</div><img id = ""stim"" ><div class = green_square id = bottomsquare></div>",null,encoding,word_square,,,1,bottomsquare,32,true,,,ARM,7,,,
html-keyboard-response,853,1554408,123.59999990463257,"<div style=""font-size:42px;"">ARM</div>",32,,word,ARM,,,,,,,,,,,,
html-keyboard-response,854,1555923,null,"",null,,word,ARM,,,,,,,,,,,,
html-keyboard-response,855,1556130,null,"<div style=""font-size:42px;"">TROUT</div><img id = ""stim"" ><div class = red_square id = topsquare></div>",null,encoding,word_square,,,0,topsquare,none,true,,,TROUT,7,,,
html-keyboard-response,856,1556432,null,"<div style=""font-size:42px;"">TROUT</div>",null,,word,TROUT,,,,,,,,,,,,
html-keyboard-response,857,1557942,null,"",null,,word,TROUT,,,,,,,,,,,,
html-keyboard-response,858,1558149,null,"<div style=""font-size:42px;"">MARROW</div><img id = ""stim"" ><div class = red_square id = bottomsquare></div>",null,encoding,word_square,,,0,bottomsquare,none,true,,,MARROW,7,,,
html-keyboard-response,859,1558450,null,"<div style=""font-size:42px;"">MARROW</div>",null,,word,MARROW,,,,,,,,,,,,
html-keyboard-response,860,1559967,null,"",null,,word,MARROW,,,,,,,,,,,,
html-keyboard-response,861,1560174,null,"<div style=""font-size:42px;"">BODY</div><img id = ""stim"" ><div class = green_square id = topsquare></div>",null,encoding,word_square,,,1,topsquare,32,true,,,BODY,7,,,
html-keyboard-response,862,1560490,286.59999990463257,"<div style=""font-size:42px;"">BODY</div>",32,,word,BODY,,,,,,,,,,,,
html-keyboard-response,863,1561997,null,"",null,,word,BODY,,,,,,,,,,,,
html-keyboard-response,864,1562203,null,"<div style=""font-size:42px;"">KNIFE</div><img id = ""stim"" ><div class = red_square id = topsquare></div>",null,encoding,word_square,,,0,topsquare,none,true,,,KNIFE,7,,,
html-keyboard-response,865,1562505,null,"<div style=""font-size:42px;"">KNIFE</div>",null,,word,KNIFE,,,,,,,,,,,,
html-keyboard-response,866,1564010,null,"",null,,word,KNIFE,,,,,,,,,,,,
html-keyboard-response,867,1564216,null,"<div style=""font-size:42px;"">PEOPLE</div><img id = ""stim"" ><div class = green_square id = bottomsquare></div>",null,encoding,word_square,,,1,bottomsquare,32,true,,,PEOPLE,7,,,
html-keyboard-response,868,1564519,173.5,"<div style=""font-size:42px;"">PEOPLE</div>",32,,word,PEOPLE,,,,,,,,,,,,
html-keyboard-response,869,1566020,null,"",null,,word,PEOPLE,,,,,,,,,,,,
html-keyboard-response,870,1566227,null,"<div style=""font-size:42px;"">KLEENEX</div><img id = ""stim"" ><div class = green_square id = topsquare></div>",null,encoding,word_square,,,1,topsquare,32,true,,,KLEENEX,7,,,
html-keyboard-response,871,1566529,292.7000000476837,"<div style=""font-size:42px;"">KLEENEX</div>",32,,word,KLEENEX,,,,,,,,,,,,
html-keyboard-response,872,1568045,null,"",null,,word,KLEENEX,,,,,,,,,,,,
html-keyboard-response,873,1568251,null,"<div style=""font-size:42px;"">SERGEANT</div><img id = ""stim"" ><div class = red_square id = bottomsquare></div>",null,encoding,word_square,,,0,bottomsquare,none,true,,,SERGEANT,7,,,
html-keyboard-response,874,1568555,null,"<div style=""font-size:42px;"">SERGEANT</div>",null,,word,SERGEANT,,,,,,,,,,,,
html-keyboard-response,875,1570070,null,"",null,,word,SERGEANT,,,,,,,,,,,,
call-function,876,1570070,,"",,,,,,,,,,,,,,,,
html-keyboard-response,877,1570172,null,"",null,,,,,,,,,,,,,,,
math-period,878,1571855,2932.099999666214,"",,,,,,,,,,,3,,,,,
html-keyboard-response,879,1571968,null,"",null,,,,,,,,,,,,,,,
math-period,880,1573012,1839.1000001430511,"",,,,,,,,,,,5,,,,,
html-keyboard-response,881,1573127,null,"",null,,,,,,,,,,,,,,,
math-period,882,1574342,2039,"",,,,,,,,,,,4,,,,,
html-keyboard-response,883,1574443,null,"",null,,,,,,,,,,,,,,,
math-period,884,1575787,2492.699999809265,"",,,,,,,,,,,4,,,,,
html-keyboard-response,885,1575898,null,"",null,,,,,,,,,,,,,,,
math-period,886,1577073,2028.5,"",,,,,,,,,,,6,,,,,
html-keyboard-response,887,1577184,null,"",null,,,,,,,,,,,,,,,
math-period,888,1578540,2555,"",,,,,,,,,,,2,,,,,
html-keyboard-response,889,1578655,null,"",null,,,,,,,,,,,,,,,
math-period,890,1580309,2966.7000002861023,"",,,,,,,,,,,4,,,,,
html-keyboard-response,891,1580414,null,"",null,,,,,,,,,,,,,,,
math-period,892,1581388,1771.1000001430511,"",,,,,,,,,,,4,,,,,
html-keyboard-response,893,1581493,null,"",null,,,,,,,,,,,,,,,
math-period,894,1582407,1649.5,"",,,,,,,,,,,3,,,,,
html-keyboard-response,895,1582520,null,"",null,,,,,,,,,,,,,,,
math-period,896,1583920,2612.4000000953674,"",,,,,,,,,,,2,,,,,
html-keyboard-response,897,1584026,null,"",null,,,,,,,,,,,,,,,
math-period,898,1585112,1960.7999997138977,"",,,,,,,,,,,4,,,,,
html-keyboard-response,899,1585220,null,"",null,,,,,,,,,,,,,,,
math-period,900,1586922,3251.7000000476837,"",,,,,,,,,,,2,,,,,
html-keyboard-response,901,1587025,null,"",null,,,,,,,,,,,,,,,
math-period,902,1588629,3088.5999999046326,"",,,,,,,,,,,1,,,,,
html-keyboard-response,903,1588735,null,"",null,,,,,,,,,,,,,,,
math-period,904,1592725,7805.599999904633,"",,,,,,,,,,,4,,,,,
html-keyboard-response,905,1592832,null,"",null,,,,,,,,,,,,,,,
math-period,906,1594010,2153.199999809265,"",,,,,,,,,,,4,,,,,
html-keyboard-response,907,1594112,null,"",null,,,,,,,,,,,,,,,
math-period,908,1594114,null,"",,,,,,,,,,,,,,,,
html-keyboard-response,909,1595116,null,"Recall Period!",null,,,,,,,,,,,,,,,
call-function,910,1595116,,"",,,,,,,,,,,,,,,,
html-keyboard-response,911,1595227,null,"",null,,,,,,,,,,,,,,,
recall-period,912,1596498,5052.900000095367,"",,,,,,,,,,,cabin,,,,,
html-keyboard-response,913,1596610,null,"",null,,,,,,,,,,,,,,,
recall-period,914,1597709,3230.599999666214,"",,,,,,,,,,,hook,,,,,
html-keyboard-response,915,1597818,null,"",null,,,,,,,,,,,,,,,
recall-period,916,1598665,2415.800000190735,"",,,,,,,,,,,angel,,,,,
html-keyboard-response,917,1598771,null,"",null,,,,,,,,,,,,,,,
recall-period,918,1599383,1053.8000004291534,"",,,,,,,,,,,arm,,,,,
html-keyboard-response,919,1599498,null,"",null,,,,,,,,,,,,,,,
recall-period,920,1600388,1984.0999999046326,"",,,,,,,,,,,body,,,,,
html-keyboard-response,921,1600500,null,"",null,,,,,,,,,,,,,,,
recall-period,922,1670121,null,"",,,,,,,,,,,,,,,,
html-keyboard-response,923,1670632,null,"Time's Up!",null,,,,,,,,,,,,,,,
html-keyboard-response,924,1675689,5056.199999809265,"<p> Good job! You have responded correctly to 99% of the trials. </p>
                      <p>Be sure to only press the spacebar if you see a GREEN square, and please keep your accuracy above 80%.</p>
                      <p> Press any key to continue the experiment. </p>",32,,,,,,,,,,,,,,,
html-keyboard-response,925,1676763,1073.0999999046326,"<div style=""font-size:48px;"">Press any key to begin list 9 of 16 </div>",32,,,,,,,,,,,,,,,
html-keyboard-response,926,1679276,null,"<div style=""font-size:60px;"">+</div>",null,,,,,,,,,,,,,,,
html-keyboard-response,927,1679481,null,"<div style=""font-size:42px;"">PORT</div><img id = ""stim"" ><div class = green_square id = topsquare></div>",null,encoding,word_square,,,1,topsquare,32,true,,,PORT,8,,,
html-keyboard-response,928,1679782,252.90000009536743,"<div style=""font-size:42px;"">PORT</div>",32,,word,PORT,,,,,,,,,,,,
html-keyboard-response,929,1681289,null,"",null,,word,PORT,,,,,,,,,,,,
html-keyboard-response,930,1681497,null,"<div style=""font-size:42px;"">CAPE</div><img id = ""stim"" ><div class = red_square id = bottomsquare></div>",null,encoding,word_square,,,0,bottomsquare,none,true,,,CAPE,8,,,
html-keyboard-response,931,1681799,null,"<div style=""font-size:42px;"">CAPE</div>",null,,word,CAPE,,,,,,,,,,,,
html-keyboard-response,932,1683311,null,"",null,,word,CAPE,,,,,,,,,,,,
