trial_type,trial_index,time_elapsed,rt,stimulus,key_press,exp_phase,test_part,word,task,targ_cond,sq_pos,correctKeyCode,correct,value,response,Word,List,RecResp,serial_pos,colorChosen
pavlovia,0,2838,,"",,,,,,,,,,,,,,,,
external-html,1,63611,60537.59999990463,"",,,,,,,,,,,,,,,,
html-keyboard-response,2,67522,3908.7000000476837,"Welcome to the experiment. Press any key to begin.",39,,,,,,,,,,,,,,,
html-keyboard-response,3,93553,26030.599999904633,"<p>You will see a list of words and colored squares in the following task.<p><p>Press the spacebar whenever you see a GREEN square.<p><p>Do not press a key if the square is RED.<p><p>Press the spacebar to continue.</p>",39,,,,,,,,,,,,,,,
html-keyboard-response,4,104777,10721.899999856949,"<p>Please try to remember as many of the words as you can, and try to think about the meaning of each word as it appears.<p><p>After the detection and encoding task you will be asked to solve some math problems for 24 seconds.<p> Please solve as many problems as you can in the time given. <p><p><p>Press the spacebar to continue.</p>",39,,,,,,,,,,,,,,,
html-keyboard-response,5,117481,12194,"After solving the math problems, you will be asked to type in as many words <p>from the previous list as you can remember for 75 seconds.<p> If you finish recalling before the 75 seconds are up,<p> just sit tight and try to think of any more words you could have missed. <p><p><p>Press the spacebar to continue.</p>",32,,,,,,,,,,,,,,,
html-keyboard-response,6,127776,9778.400000095367,"There will be 16 lists of words and recall, followed  by<p><p> a recognition phase. The experiment is expected to take up to 90 minutes.<p>We will begin with a brief practice session.<p>Press the spacebar to begin the practice.</p>",32,,,,,,,,,,,,,,,
html-keyboard-response,7,130293,null,"<div style=""font-size:60px;"">+</div>",null,,,,,,,,,,,,,,,
html-keyboard-response,8,130497,null,"<div style=""font-size:42px;"">HAPPY</div><img id = ""stim"" ><div class = red_square id = ""bottomsquare"" ></div>",null,practice,word_square,HAPPY,prac_response,0,Bottom,none,true,,,,,,,
html-keyboard-response,9,130814,null,"<div style=""font-size:42px;"">HAPPY</div>",null,,word,HAPPY,,,,,,,,,,,,
html-keyboard-response,10,132323,null,"",null,,word,HAPPY,,,,,,,,,,,,
html-keyboard-response,11,132528,null,"<div style=""font-size:42px;"">COLD</div><img id = ""stim"" ><div class = green_square id = ""bottomsquare"" ></div>",null,practice,word_square,COLD,prac_response,1,Bottom,32,true,,,,,,,
html-keyboard-response,12,132830,247.20000004768372,"<div style=""font-size:42px;"">COLD</div>",32,,word,COLD,,,,,,,,,,,,
html-keyboard-response,13,134336,null,"",null,,word,COLD,,,,,,,,,,,,
html-keyboard-response,14,134540,null,"<div style=""font-size:42px;"">HEAVY</div><img id = ""stim"" ><div class = green_square id = ""topsquare"" ></div>",null,practice,word_square,HEAVY,prac_response,1,Top,32,true,,,,,,,
html-keyboard-response,15,134857,194.89999985694885,"<div style=""font-size:42px;"">HEAVY</div>",32,,word,HEAVY,,,,,,,,,,,,
html-keyboard-response,16,136370,null,"",null,,word,HEAVY,,,,,,,,,,,,
html-keyboard-response,17,136586,null,"<div style=""font-size:42px;"">FUNNY</div><img id = ""stim"" ><div class = red_square id = ""topsquare"" ></div>",null,practice,word_square,FUNNY,prac_response,0,Top,none,false,,,,,,,
html-keyboard-response,18,136902,null,"<div style=""font-size:42px;"">FUNNY</div>",null,,word,FUNNY,,,,,,,,,,,,
html-keyboard-response,19,138414,169,"",32,,word,FUNNY,,,,,,,,,,,,
html-keyboard-response,20,138619,null,"<div style=""font-size:42px;"">SCARY</div><img id = ""stim"" ><div class = green_square id = ""bottomsquare"" ></div>",null,practice,word_square,SCARY,prac_response,1,Bottom,32,true,,,,,,,
html-keyboard-response,21,138935,null,"<div style=""font-size:42px;"">SCARY</div>",null,,word,SCARY,,,,,,,,,,,,
html-keyboard-response,22,140449,128,"",32,,word,SCARY,,,,,,,,,,,,
html-keyboard-response,23,140655,null,"<div style=""font-size:42px;"">PEACEFUL</div><img id = ""stim"" ><div class = green_square id = ""topsquare"" ></div>",null,practice,word_square,PEACEFUL,prac_response,1,Top,32,true,,,,,,,
html-keyboard-response,24,140971,239.60000014305115,"<div style=""font-size:42px;"">PEACEFUL</div>",32,,word,PEACEFUL,,,,,,,,,,,,
html-keyboard-response,25,142478,null,"",null,,word,PEACEFUL,,,,,,,,,,,,
html-keyboard-response,26,142685,null,"<div style=""font-size:42px;"">LITTLE</div><img id = ""stim"" ><div class = red_square id = ""bottomsquare"" ></div>",null,practice,word_square,LITTLE,prac_response,0,Bottom,none,false,,,,,,,
html-keyboard-response,27,143002,null,"<div style=""font-size:42px;"">LITTLE</div>",null,,word,LITTLE,,,,,,,,,,,,
html-keyboard-response,28,144518,100.70000004768372,"",32,,word,LITTLE,,,,,,,,,,,,
html-keyboard-response,29,144723,null,"<div style=""font-size:42px;"">TIRED</div><img id = ""stim"" ><div class = red_square id = ""topsquare"" ></div>",null,practice,word_square,TIRED,prac_response,0,Top,none,true,,,,,,,
html-keyboard-response,30,145038,null,"<div style=""font-size:42px;"">TIRED</div>",null,,word,TIRED,,,,,,,,,,,,
html-keyboard-response,31,146544,null,"",null,,word,TIRED,,,,,,,,,,,,
html-keyboard-response,32,146750,null,"<div style=""font-size:42px;"">ENTERTAINING</div><img id = ""stim"" ><div class = red_square id = ""bottomsquare"" ></div>",null,practice,word_square,ENTERTAINING,prac_response,0,Bottom,none,true,,,,,,,
html-keyboard-response,33,147068,null,"<div style=""font-size:42px;"">ENTERTAINING</div>",null,,word,ENTERTAINING,,,,,,,,,,,,
html-keyboard-response,34,148574,null,"",null,,word,ENTERTAINING,,,,,,,,,,,,
html-keyboard-response,35,148779,null,"<div style=""font-size:42px;"">GRATEFUL</div><img id = ""stim"" ><div class = green_square id = ""bottomsquare"" ></div>",null,practice,word_square,GRATEFUL,prac_response,1,Bottom,32,true,,,,,,,
html-keyboard-response,36,149092,171.40000009536743,"<div style=""font-size:42px;"">GRATEFUL</div>",32,,word,GRATEFUL,,,,,,,,,,,,
html-keyboard-response,37,150608,null,"",null,,word,GRATEFUL,,,,,,,,,,,,
html-keyboard-response,38,150810,null,"<div style=""font-size:42px;"">LOUD</div><img id = ""stim"" ><div class = red_square id = ""topsquare"" ></div>",null,practice,word_square,LOUD,prac_response,0,Top,none,true,,,,,,,
html-keyboard-response,39,151128,null,"<div style=""font-size:42px;"">LOUD</div>",null,,word,LOUD,,,,,,,,,,,,
html-keyboard-response,40,152638,null,"",null,,word,LOUD,,,,,,,,,,,,
html-keyboard-response,41,152843,null,"<div style=""font-size:42px;"">SMART</div><img id = ""stim"" ><div class = green_square id = ""topsquare"" ></div>",null,practice,word_square,SMART,prac_response,1,Top,32,true,,,,,,,
html-keyboard-response,42,153159,188.69999980926514,"<div style=""font-size:42px;"">SMART</div>",32,,word,SMART,,,,,,,,,,,,
html-keyboard-response,43,154665,null,"",null,,word,SMART,,,,,,,,,,,,
html-keyboard-response,44,154870,null,"<div style=""font-size:42px;"">SMOOTH</div><img id = ""stim"" ><div class = green_square id = ""bottomsquare"" ></div>",null,practice,word_square,SMOOTH,prac_response,1,Bottom,32,true,,,,,,,
html-keyboard-response,45,155187,160.79999995231628,"<div style=""font-size:42px;"">SMOOTH</div>",32,,word,SMOOTH,,,,,,,,,,,,
html-keyboard-response,46,156697,null,"",null,,word,SMOOTH,,,,,,,,,,,,
html-keyboard-response,47,156903,null,"<div style=""font-size:42px;"">DISHONEST</div><img id = ""stim"" ><div class = red_square id = ""bottomsquare"" ></div>",null,practice,word_square,DISHONEST,prac_response,0,Bottom,none,false,,,,,,,
html-keyboard-response,48,157207,null,"<div style=""font-size:42px;"">DISHONEST</div>",null,,word,DISHONEST,,,,,,,,,,,,
html-keyboard-response,49,158712,127.60000014305115,"",32,,word,DISHONEST,,,,,,,,,,,,
html-keyboard-response,50,158917,null,"<div style=""font-size:42px;"">WEALTHY</div><img id = ""stim"" ><div class = green_square id = ""topsquare"" ></div>",null,practice,word_square,WEALTHY,prac_response,1,Top,32,true,,,,,,,
html-keyboard-response,51,159219,234.79999995231628,"<div style=""font-size:42px;"">WEALTHY</div>",32,,word,WEALTHY,,,,,,,,,,,,
html-keyboard-response,52,160722,null,"",null,,word,WEALTHY,,,,,,,,,,,,
html-keyboard-response,53,160928,null,"<div style=""font-size:42px;"">BEAUTIFUL</div><img id = ""stim"" ><div class = red_square id = ""topsquare"" ></div>",null,practice,word_square,BEAUTIFUL,prac_response,0,Top,none,true,,,,,,,
html-keyboard-response,54,161233,null,"<div style=""font-size:42px;"">BEAUTIFUL</div>",null,,word,BEAUTIFUL,,,,,,,,,,,,
html-keyboard-response,55,162739,null,"",null,,word,BEAUTIFUL,,,,,,,,,,,,
html-keyboard-response,56,170906,8163.700000047684,"<p> Good job! You responded correctly to 81% of the trials. </p>
                  <p>Be sure to only press the spacebar if you see a GREEN square, and please keep your accuracy above 80%.</p>
                  <p>We're going to try once more to make sure you understand the task. press any key to continue. </p>",32,,,,,,,,,,,,,,,
html-keyboard-response,57,174881,3974.2999999523163,"<p>You will see a list of words and colored squares in the following task.<p><p>Press the spacebar whenever you see a GREEN square.<p><p>Do not press a key if the square is RED<p><p>Press the spacebar to continue.</p>",32,,,,,,,,,,,,,,,
html-keyboard-response,58,177408,null,"<div style=""font-size:60px;"">+</div>",null,,,,,,,,,,,,,,,
html-keyboard-response,59,177615,null,"<div style=""font-size:42px;"">HAPPY</div><img id = ""stim"" ><div class = red_square id = ""bottomsquare"" ></div>",null,practice2,word_square,HAPPY,prac_response,0,Bottom,none,true,,,,,,,
html-keyboard-response,60,177929,null,"<div style=""font-size:42px;"">HAPPY</div>",null,,word,HAPPY,,,,,,,,,,,,
html-keyboard-response,61,179445,null,"",null,,word,HAPPY,,,,,,,,,,,,
html-keyboard-response,62,179650,null,"<div style=""font-size:42px;"">COLD</div><img id = ""stim"" ><div class = green_square id = ""bottomsquare"" ></div>",null,practice2,word_square,,prac_response,1,Bottom,32,true,,,,,,,
html-keyboard-response,63,179968,null,"<div style=""font-size:42px;"">COLD</div>",null,,word,COLD,,,,,,,,,,,,
html-keyboard-response,64,181472,0.09999990463256836,"",32,,word,COLD,,,,,,,,,,,,
html-keyboard-response,65,181677,null,"<div style=""font-size:42px;"">HEAVY</div><img id = ""stim"" ><div class = green_square id = ""topsquare"" ></div>",null,practice2,word_square,,prac_response,1,Top,32,true,,,,,,,
html-keyboard-response,66,181994,202.79999995231628,"<div style=""font-size:42px;"">HEAVY</div>",32,,word,HEAVY,,,,,,,,,,,,
html-keyboard-response,67,183502,null,"",null,,word,HEAVY,,,,,,,,,,,,
html-keyboard-response,68,183708,null,"<div style=""font-size:42px;"">FUNNY</div><img id = ""stim"" ><div class = red_square id = ""topsquare"" ></div>",null,practice2,word_square,,prac_response,0,Top,none,true,,,,,,,
html-keyboard-response,69,184012,null,"<div style=""font-size:42px;"">FUNNY</div>",null,,word,FUNNY,,,,,,,,,,,,
html-keyboard-response,70,185518,null,"",null,,word,FUNNY,,,,,,,,,,,,
html-keyboard-response,71,185724,null,"<div style=""font-size:42px;"">SCARY</div><img id = ""stim"" ><div class = green_square id = ""bottomsquare"" ></div>",null,practice2,word_square,,prac_response,1,Bottom,32,true,,,,,,,
html-keyboard-response,72,186042,83.59999990463257,"<div style=""font-size:42px;"">SCARY</div>",32,,word,SCARY,,,,,,,,,,,,
html-keyboard-response,73,187548,null,"",null,,word,SCARY,,,,,,,,,,,,
html-keyboard-response,74,187754,null,"<div style=""font-size:42px;"">PEACEFUL</div><img id = ""stim"" ><div class = green_square id = ""topsquare"" ></div>",null,practice2,word_square,,prac_response,1,Top,32,true,,,,,,,
html-keyboard-response,75,188071,109.59999990463257,"<div style=""font-size:42px;"">PEACEFUL</div>",32,,word,PEACEFUL,,,,,,,,,,,,
html-keyboard-response,76,189578,null,"",null,,word,PEACEFUL,,,,,,,,,,,,
html-keyboard-response,77,189783,null,"<div style=""font-size:42px;"">LITTLE</div><img id = ""stim"" ><div class = red_square id = ""bottomsquare"" ></div>",null,practice2,word_square,LITTLE,prac_response,0,Bottom,none,true,,,,,,,
html-keyboard-response,78,190100,null,"<div style=""font-size:42px;"">LITTLE</div>",null,,word,LITTLE,,,,,,,,,,,,
html-keyboard-response,79,191603,null,"",null,,word,LITTLE,,,,,,,,,,,,
html-keyboard-response,80,191808,null,"<div style=""font-size:42px;"">TIRED</div><img id = ""stim"" ><div class = red_square id = ""topsquare"" ></div>",null,practice2,word_square,,prac_response,0,Top,none,true,,,,,,,
html-keyboard-response,81,192111,null,"<div style=""font-size:42px;"">TIRED</div>",null,,word,TIRED,,,,,,,,,,,,
html-keyboard-response,82,193615,null,"",null,,word,TIRED,,,,,,,,,,,,
html-keyboard-response,83,193822,null,"<div style=""font-size:42px;"">ENTERTAINING</div><img id = ""stim"" ><div class = red_square id = ""bottomsquare"" ></div>",null,practice2,word_square,ENTERTAINING,prac_response,0,Bottom,none,true,,,,,,,
html-keyboard-response,84,194137,null,"<div style=""font-size:42px;"">ENTERTAINING</div>",null,,word,ENTERTAINING,,,,,,,,,,,,
html-keyboard-response,85,195650,null,"",null,,word,ENTERTAINING,,,,,,,,,,,,
html-keyboard-response,86,195868,null,"<div style=""font-size:42px;"">GRATEFUL</div><img id = ""stim"" ><div class = green_square id = ""bottomsquare"" ></div>",null,practice2,word_square,,prac_response,1,Bottom,32,true,,,,,,,
html-keyboard-response,87,196182,140.29999995231628,"<div style=""font-size:42px;"">GRATEFUL</div>",32,,word,GRATEFUL,,,,,,,,,,,,
html-keyboard-response,88,197688,null,"",null,,word,GRATEFUL,,,,,,,,,,,,
html-keyboard-response,89,197893,null,"<div style=""font-size:42px;"">LOUD</div><img id = ""stim"" ><div class = red_square id = ""topsquare"" ></div>",null,practice2,word_square,,prac_response,0,Top,none,true,,,,,,,
html-keyboard-response,90,198209,null,"<div style=""font-size:42px;"">LOUD</div>",null,,word,LOUD,,,,,,,,,,,,
html-keyboard-response,91,199712,null,"",null,,word,LOUD,,,,,,,,,,,,
html-keyboard-response,92,199918,null,"<div style=""font-size:42px;"">SMART</div><img id = ""stim"" ><div class = green_square id = ""topsquare"" ></div>",null,practice2,word_square,,prac_response,1,Top,32,true,,,,,,,
html-keyboard-response,93,200220,153.5,"<div style=""font-size:42px;"">SMART</div>",32,,word,SMART,,,,,,,,,,,,
html-keyboard-response,94,201729,null,"",null,,word,SMART,,,,,,,,,,,,
html-keyboard-response,95,201936,null,"<div style=""font-size:42px;"">SMOOTH</div><img id = ""stim"" ><div class = green_square id = ""bottomsquare"" ></div>",null,practice2,word_square,,prac_response,1,Bottom,32,true,,,,,,,
html-keyboard-response,96,202240,302.69999980926514,"<div style=""font-size:42px;"">SMOOTH</div>",32,,word,SMOOTH,,,,,,,,,,,,
html-keyboard-response,97,203756,null,"",null,,word,SMOOTH,,,,,,,,,,,,
html-keyboard-response,98,203962,null,"<div style=""font-size:42px;"">DISHONEST</div><img id = ""stim"" ><div class = red_square id = ""bottomsquare"" ></div>",null,practice2,word_square,DISHONEST,prac_response,0,Bottom,none,true,,,,,,,
html-keyboard-response,99,204277,null,"<div style=""font-size:42px;"">DISHONEST</div>",null,,word,DISHONEST,,,,,,,,,,,,
html-keyboard-response,100,205783,null,"",null,,word,DISHONEST,,,,,,,,,,,,
html-keyboard-response,101,205989,null,"<div style=""font-size:42px;"">WEALTHY</div><img id = ""stim"" ><div class = green_square id = ""topsquare"" ></div>",null,practice2,word_square,,prac_response,1,Top,32,true,,,,,,,
html-keyboard-response,102,206292,233.40000009536743,"<div style=""font-size:42px;"">WEALTHY</div>",32,,word,WEALTHY,,,,,,,,,,,,
html-keyboard-response,103,207803,null,"",null,,word,WEALTHY,,,,,,,,,,,,
html-keyboard-response,104,208008,null,"<div style=""font-size:42px;"">BEAUTIFUL</div><img id = ""stim"" ><div class = red_square id = ""topsquare"" ></div>",null,practice2,word_square,,prac_response,0,Top,none,false,,,,,,,
html-keyboard-response,105,208311,null,"<div style=""font-size:42px;"">BEAUTIFUL</div>",null,,word,BEAUTIFUL,,,,,,,,,,,,
html-keyboard-response,106,209815,null,"",null,,word,BEAUTIFUL,,,,,,,,,,,,
html-keyboard-response,107,218386,8568.099999904633,"<p> Good job! You responded correctly to 100% of the trials. </p>
                    <p>Be sure to only press the spacebar if you see a GREEN square, and please keep your accuracy above 80%.</p>
                    <p>Press any key to begin the math and recall sections. Thank you! </p>",32,,,,,,,,,,,,,,,
call-function,108,218387,,"",,,,,,,,,,,,,,,,
html-keyboard-response,109,218496,null,"",null,,,,,,,,,,,,,,,
math-period,110,223665,9413.999999761581,"",,,,,,,,,,,2,,,,,
html-keyboard-response,111,223772,null,"",null,,,,,,,,,,,,,,,
math-period,112,226506,4862.700000047684,"",,,,,,,,,,,5,,,,,
html-keyboard-response,113,226619,null,"",null,,,,,,,,,,,,,,,
math-period,114,230841,5737.5,"",,,,,,,,,,,3,,,,,
html-keyboard-response,115,230949,null,"",null,,,,,,,,,,,,,,,
math-period,116,234609,6244.899999856949,"",,,,,,,,,,,1,,,,,
html-keyboard-response,117,234714,null,"",null,,,,,,,,,,,,,,,
math-period,118,237257,4436.400000095367,"",,,,,,,,,,,2,,,,,
html-keyboard-response,119,237364,null,"",null,,,,,,,,,,,,,,,
math-period,120,239257,3279.699999809265,"",,,,,,,,,,,5,,,,,
html-keyboard-response,121,239365,null,"",null,,,,,,,,,,,,,,,
math-period,122,241113,2974.2000002861023,"",,,,,,,,,,,3,,,,,
html-keyboard-response,123,241217,null,"",null,,,,,,,,,,,,,,,
math-period,124,242389,1151.3999998569489,"",,,,,,,,,,,2,,,,,
html-keyboard-response,125,243392,null,"Recall Period!",null,,,,,,,,,,,,,,,
call-function,126,243392,,"",,,,,,,,,,,,,,,,
html-keyboard-response,127,243495,null,"",null,,,,,,,,,,,,,,,
recall-period,128,250369,49053.99999976158,"",,,,,,,,,,,smart,,,,,
html-keyboard-response,129,250473,null,"",null,,,,,,,,,,,,,,,
recall-period,130,252202,10742.79999923706,"",,,,,,,,,,,dishonest,,,,,
html-keyboard-response,131,252316,null,"",null,,,,,,,,,,,,,,,
recall-period,132,253920,5694.499999523163,"",,,,,,,,,,,wealthy,,,,,
html-keyboard-response,133,254025,null,"",null,,,,,,,,,,,,,,,
recall-period,134,255322,4018.1000003814697,"",,,,,,,,,,,loud,,,,,
html-keyboard-response,135,255430,null,"",null,,,,,,,,,,,,,,,
recall-period,136,257321,5874.500000238419,"",,,,,,,,,,,smooth,,,,,
html-keyboard-response,137,257430,null,"",null,,,,,,,,,,,,,,,
recall-period,138,259050,9644.200000047684,"",,,,,,,,,,,entertaining,,,,,
html-keyboard-response,139,259159,null,"",null,,,,,,,,,,,,,,,
recall-period,140,265466,35203.99999976158,"",,,,,,,,,,,funny,,,,,
html-keyboard-response,141,265576,null,"",null,,,,,,,,,,,,,,,
recall-period,142,318404,null,"",,,,,,,,,,,,,,,,
html-keyboard-response,143,318913,null,"Time's Up!",null,,,,,,,,,,,,,,,
html-keyboard-response,144,325544,6629,"<p>We will now begin the experiment!<p><p>Please try to remember all words from each list.<p><p>Press the spacebar whenever you see a GREEN square.<p><p><p><p>Press the spacebar to begin.</p>",32,,,,,,,,,,,,,,,
html-keyboard-response,145,329072,3021.5,"<div style=""font-size:48px;"">Press any key to begin list 1 of 16 </div>",32,,,,,,,,,,,,,,,
html-keyboard-response,146,331600,null,"<div style=""font-size:60px;"">+</div>",null,,,,,,,,,,,,,,,
html-keyboard-response,147,331808,null,"<div style=""font-size:42px;"">ALMOND</div><img id = ""stim"" ><div class = green_square id = topsquare></div>",null,encoding,word_square,,,1,topsquare,32,true,,,ALMOND,0,,,
html-keyboard-response,148,332113,302.7000000476837,"<div style=""font-size:42px;"">ALMOND</div>",32,,word,ALMOND,,,,,,,,,,,,
html-keyboard-response,149,333629,null,"",null,,word,ALMOND,,,,,,,,,,,,
html-keyboard-response,150,333835,null,"<div style=""font-size:42px;"">RIFLE</div><img id = ""stim"" ><div class = green_square id = bottomsquare></div>",null,encoding,word_square,,,1,bottomsquare,32,true,,,RIFLE,0,,,
html-keyboard-response,151,334138,292,"<div style=""font-size:42px;"">RIFLE</div>",32,,word,RIFLE,,,,,,,,,,,,
html-keyboard-response,152,335643,null,"",null,,word,RIFLE,,,,,,,,,,,,
html-keyboard-response,153,335849,null,"<div style=""font-size:42px;"">JOKER</div><img id = ""stim"" ><div class = red_square id = bottomsquare></div>",null,encoding,word_square,,,0,bottomsquare,none,true,,,JOKER,0,,,
html-keyboard-response,154,336151,230.79999995231628,"<div style=""font-size:42px;"">JOKER</div>",32,,word,JOKER,,,,,,,,,,,,
html-keyboard-response,155,337655,null,"",null,,word,JOKER,,,,,,,,,,,,
html-keyboard-response,156,337860,null,"<div style=""font-size:42px;"">TUBA</div><img id = ""stim"" ><div class = green_square id = topsquare></div>",null,encoding,word_square,,,1,topsquare,32,true,,,TUBA,0,,,
html-keyboard-response,157,338162,283.09999990463257,"<div style=""font-size:42px;"">TUBA</div>",32,,word,TUBA,,,,,,,,,,,,
html-keyboard-response,158,339677,null,"",null,,word,TUBA,,,,,,,,,,,,
html-keyboard-response,159,339884,null,"<div style=""font-size:42px;"">RECORD</div><img id = ""stim"" ><div class = red_square id = topsquare></div>",null,encoding,word_square,,,0,topsquare,none,true,,,RECORD,0,,,
html-keyboard-response,160,340202,null,"<div style=""font-size:42px;"">RECORD</div>",null,,word,RECORD,,,,,,,,,,,,
html-keyboard-response,161,341705,null,"",null,,word,RECORD,,,,,,,,,,,,
html-keyboard-response,162,341908,null,"<div style=""font-size:42px;"">GRAVEL</div><img id = ""stim"" ><div class = red_square id = bottomsquare></div>",null,encoding,word_square,,,0,bottomsquare,none,false,,,GRAVEL,0,,,
html-keyboard-response,163,342224,null,"<div style=""font-size:42px;"">GRAVEL</div>",null,,word,GRAVEL,,,,,,,,,,,,
html-keyboard-response,164,343727,136,"",32,,word,GRAVEL,,,,,,,,,,,,
html-keyboard-response,165,343932,null,"<div style=""font-size:42px;"">BELT</div><img id = ""stim"" ><div class = green_square id = bottomsquare></div>",null,encoding,word_square,,,1,bottomsquare,32,true,,,BELT,0,,,
html-keyboard-response,166,344247,211.60000014305115,"<div style=""font-size:42px;"">BELT</div>",32,,word,BELT,,,,,,,,,,,,
html-keyboard-response,167,345757,null,"",null,,word,BELT,,,,,,,,,,,,
html-keyboard-response,168,345962,null,"<div style=""font-size:42px;"">MAGNET</div><img id = ""stim"" ><div class = red_square id = topsquare></div>",null,encoding,word_square,,,0,topsquare,none,true,,,MAGNET,0,,,
html-keyboard-response,169,346275,null,"<div style=""font-size:42px;"">MAGNET</div>",null,,word,MAGNET,,,,,,,,,,,,
html-keyboard-response,170,347792,null,"",null,,word,MAGNET,,,,,,,,,,,,
html-keyboard-response,171,347999,null,"<div style=""font-size:42px;"">EXPERT</div><img id = ""stim"" ><div class = green_square id = topsquare></div>",null,encoding,word_square,,,1,topsquare,32,true,,,EXPERT,0,,,
html-keyboard-response,172,348301,296.39999985694885,"<div style=""font-size:42px;"">EXPERT</div>",32,,word,EXPERT,,,,,,,,,,,,
html-keyboard-response,173,349811,null,"",null,,word,EXPERT,,,,,,,,,,,,
html-keyboard-response,174,350018,null,"<div style=""font-size:42px;"">TEACHER</div><img id = ""stim"" ><div class = green_square id = bottomsquare></div>",null,encoding,word_square,,,1,bottomsquare,32,true,,,TEACHER,0,,,
html-keyboard-response,175,350332,141.70000004768372,"<div style=""font-size:42px;"">TEACHER</div>",32,,word,TEACHER,,,,,,,,,,,,
html-keyboard-response,176,351835,null,"",null,,word,TEACHER,,,,,,,,,,,,
html-keyboard-response,177,352039,null,"<div style=""font-size:42px;"">INMATE</div><img id = ""stim"" ><div class = green_square id = topsquare></div>",null,encoding,word_square,,,1,topsquare,32,true,,,INMATE,0,,,
html-keyboard-response,178,352354,null,"<div style=""font-size:42px;"">INMATE</div>",null,,word,INMATE,,,,,,,,,,,,
html-keyboard-response,179,353856,60.5,"",32,,word,INMATE,,,,,,,,,,,,
html-keyboard-response,180,354062,null,"<div style=""font-size:42px;"">FRIES</div><img id = ""stim"" ><div class = red_square id = bottomsquare></div>",null,encoding,word_square,,,0,bottomsquare,none,true,,,FRIES,0,,,
html-keyboard-response,181,354379,null,"<div style=""font-size:42px;"">FRIES</div>",null,,word,FRIES,,,,,,,,,,,,
html-keyboard-response,182,355886,null,"",null,,word,FRIES,,,,,,,,,,,,
html-keyboard-response,183,356092,null,"<div style=""font-size:42px;"">CLOTHES</div><img id = ""stim"" ><div class = red_square id = topsquare></div>",null,encoding,word_square,,,0,topsquare,none,true,,,CLOTHES,0,,,
html-keyboard-response,184,356409,null,"<div style=""font-size:42px;"">CLOTHES</div>",null,,word,CLOTHES,,,,,,,,,,,,
html-keyboard-response,185,357926,null,"",null,,word,CLOTHES,,,,,,,,,,,,
html-keyboard-response,186,358133,null,"<div style=""font-size:42px;"">PISTOL</div><img id = ""stim"" ><div class = green_square id = bottomsquare></div>",null,encoding,word_square,,,1,bottomsquare,32,true,,,PISTOL,0,,,
html-keyboard-response,187,358436,null,"<div style=""font-size:42px;"">PISTOL</div>",null,,word,PISTOL,,,,,,,,,,,,
html-keyboard-response,188,359941,235.79999995231628,"",32,,word,PISTOL,,,,,,,,,,,,
html-keyboard-response,189,360148,null,"<div style=""font-size:42px;"">DIAMOND</div><img id = ""stim"" ><div class = red_square id = bottomsquare></div>",null,encoding,word_square,,,0,bottomsquare,none,true,,,DIAMOND,0,,,
html-keyboard-response,190,360466,null,"<div style=""font-size:42px;"">DIAMOND</div>",null,,word,DIAMOND,,,,,,,,,,,,
html-keyboard-response,191,361970,null,"",null,,word,DIAMOND,,,,,,,,,,,,
html-keyboard-response,192,362176,null,"<div style=""font-size:42px;"">AIRPORT</div><img id = ""stim"" ><div class = red_square id = topsquare></div>",null,encoding,word_square,,,0,topsquare,none,true,,,AIRPORT,0,,,
html-keyboard-response,193,362494,null,"<div style=""font-size:42px;"">AIRPORT</div>",null,,word,AIRPORT,,,,,,,,,,,,
html-keyboard-response,194,364002,null,"",null,,word,AIRPORT,,,,,,,,,,,,
call-function,195,364002,,"",,,,,,,,,,,,,,,,
html-keyboard-response,196,364104,null,"",null,,,,,,,,,,,,,,,
math-period,197,371992,32299.099999666214,"",,,,,,,,,,,undefined0,,,,,
html-keyboard-response,198,372102,null,"",null,,,,,,,,,,,,,,,
math-period,199,373889,3249.2000000476837,"",,,,,,,,,,,1,,,,,
html-keyboard-response,200,374001,null,"",null,,,,,,,,,,,,,,,
math-period,201,375960,3316.0000002384186,"",,,,,,,,,,,5,,,,,
html-keyboard-response,202,376068,null,"",null,,,,,,,,,,,,,,,
math-period,203,379585,11891,"",,,,,,,,,,,4,,,,,
html-keyboard-response,204,379693,null,"",null,,,,,,,,,,,,,,,
math-period,205,381649,3452.9000000953674,"",,,,,,,,,,,1,,,,,
html-keyboard-response,206,381757,null,"",null,,,,,,,,,,,,,,,
math-period,207,387473,11655.900000333786,"",,,,,,,,,,,4,,,,,
html-keyboard-response,208,387589,null,"",null,,,,,,,,,,,,,,,
math-period,209,388019,null,"",,,,,,,,,,,,,,,,
html-keyboard-response,210,389031,null,"Recall Period!",null,,,,,,,,,,,,,,,
call-function,211,389032,,"",,,,,,,,,,,,,,,,
html-keyboard-response,212,389133,null,"",null,,,,,,,,,,,,,,,
recall-period,213,391882,15986.10000038147,"",,,,,,,,,,,diamond,,,,,
html-keyboard-response,214,391994,null,"",null,,,,,,,,,,,,,,,
recall-period,215,394289,9523.600000619888,"",,,,,,,,,,,gravel,,,,,
html-keyboard-response,216,394397,null,"",null,,,,,,,,,,,,,,,
recall-period,217,395777,4933.499999523163,"",,,,,,,,,,,pistol,,,,,
html-keyboard-response,218,395881,null,"",null,,,,,,,,,,,,,,,
recall-period,219,397481,6551.900000333786,"",,,,,,,,,,,airport,,,,,
html-keyboard-response,220,397583,null,"",null,,,,,,,,,,,,,,,
recall-period,221,398488,2291.600000143051,"",,,,,,,,,,,tuba,,,,,
html-keyboard-response,222,398597,null,"",null,,,,,,,,,,,,,,,
recall-period,223,401800,18219.099999904633,"",,,,,,,,,,,almond,,,,,
html-keyboard-response,224,401917,null,"",null,,,,,,,,,,,,,,,
recall-period,225,412256,45290.09999990463,"",,,,,,,,,,,tuba,,,,,
html-keyboard-response,226,412372,null,"",null,,,,,,,,,,,,,,,
recall-period,227,464046,null,"",,,,,,,,,,,,,,,,
html-keyboard-response,228,464551,null,"Time's Up!",null,,,,,,,,,,,,,,,
html-keyboard-response,229,469305,4753.199999809265,"<p> Good job! You have responded correctly to 94% of the trials. </p>
                      <p>Be sure to only press the spacebar if you see a GREEN square, and please keep your accuracy above 80%.</p>
                      <p> Press any key to continue the experiment. </p>",32,,,,,,,,,,,,,,,
html-keyboard-response,230,470650,1342.5,"<div style=""font-size:48px;"">Press any key to begin list 2 of 16 </div>",32,,,,,,,,,,,,,,,
html-keyboard-response,231,473156,null,"<div style=""font-size:60px;"">+</div>",null,,,,,,,,,,,,,,,
html-keyboard-response,232,473362,null,"<div style=""font-size:42px;"">RAILROAD</div><img id = ""stim"" ><div class = red_square id = topsquare></div>",null,encoding,word_square,,,0,topsquare,none,false,,,RAILROAD,1,,,
html-keyboard-response,233,473677,null,"<div style=""font-size:42px;"">RAILROAD</div>",null,,word,RAILROAD,,,,,,,,,,,,
html-keyboard-response,234,475180,1,"",32,,word,RAILROAD,,,,,,,,,,,,
html-keyboard-response,235,475386,null,"<div style=""font-size:42px;"">TUTU</div><img id = ""stim"" ><div class = red_square id = bottomsquare></div>",null,encoding,word_square,,,0,bottomsquare,none,true,,,TUTU,1,,,
html-keyboard-response,236,475688,null,"<div style=""font-size:42px;"">TUTU</div>",null,,word,TUTU,,,,,,,,,,,,
html-keyboard-response,237,477193,null,"",null,,word,TUTU,,,,,,,,,,,,
html-keyboard-response,238,477399,null,"<div style=""font-size:42px;"">DRESS</div><img id = ""stim"" ><div class = green_square id = bottomsquare></div>",null,encoding,word_square,,,1,bottomsquare,32,true,,,DRESS,1,,,
html-keyboard-response,239,477715,160.09999990463257,"<div style=""font-size:42px;"">DRESS</div>",32,,word,DRESS,,,,,,,,,,,,
html-keyboard-response,240,479233,null,"",null,,word,DRESS,,,,,,,,,,,,
html-keyboard-response,241,479450,null,"<div style=""font-size:42px;"">PRIMATE</div><img id = ""stim"" ><div class = red_square id = topsquare></div>",null,encoding,word_square,,,0,topsquare,none,true,,,PRIMATE,1,,,
html-keyboard-response,242,479767,null,"<div style=""font-size:42px;"">PRIMATE</div>",null,,word,PRIMATE,,,,,,,,,,,,
html-keyboard-response,243,481272,null,"",null,,word,PRIMATE,,,,,,,,,,,,
html-keyboard-response,244,481479,null,"<div style=""font-size:42px;"">RACKET</div><img id = ""stim"" ><div class = red_square id = bottomsquare></div>",null,encoding,word_square,,,0,bottomsquare,none,true,,,RACKET,1,,,
html-keyboard-response,245,481795,null,"<div style=""font-size:42px;"">RACKET</div>",null,,word,RACKET,,,,,,,,,,,,
html-keyboard-response,246,483301,null,"",null,,word,RACKET,,,,,,,,,,,,
html-keyboard-response,247,483505,null,"<div style=""font-size:42px;"">STAIRS</div><img id = ""stim"" ><div class = green_square id = topsquare></div>",null,encoding,word_square,,,1,topsquare,32,true,,,STAIRS,1,,,
html-keyboard-response,248,483819,175.29999995231628,"<div style=""font-size:42px;"">STAIRS</div>",32,,word,STAIRS,,,,,,,,,,,,
html-keyboard-response,249,485327,null,"",null,,word,STAIRS,,,,,,,,,,,,
html-keyboard-response,250,485531,null,"<div style=""font-size:42px;"">MONEY</div><img id = ""stim"" ><div class = green_square id = bottomsquare></div>",null,encoding,word_square,,,1,bottomsquare,32,true,,,MONEY,1,,,
html-keyboard-response,251,485846,null,"<div style=""font-size:42px;"">MONEY</div>",null,,word,MONEY,,,,,,,,,,,,
html-keyboard-response,252,487353,224.70000004768372,"",32,,word,MONEY,,,,,,,,,,,,
html-keyboard-response,253,487558,null,"<div style=""font-size:42px;"">STALLION</div><img id = ""stim"" ><div class = green_square id = topsquare></div>",null,encoding,word_square,,,1,topsquare,32,true,,,STALLION,1,,,
html-keyboard-response,254,487876,null,"<div style=""font-size:42px;"">STALLION</div>",null,,word,STALLION,,,,,,,,,,,,
html-keyboard-response,255,489380,532.1999998092651,"",32,,word,STALLION,,,,,,,,,,,,
html-keyboard-response,256,489585,null,"<div style=""font-size:42px;"">MARROW</div><img id = ""stim"" ><div class = red_square id = topsquare></div>",null,encoding,word_square,,,0,topsquare,none,true,,,MARROW,1,,,
html-keyboard-response,257,489902,null,"<div style=""font-size:42px;"">MARROW</div>",null,,word,MARROW,,,,,,,,,,,,
html-keyboard-response,258,491407,null,"",null,,word,MARROW,,,,,,,,,,,,
html-keyboard-response,259,491626,null,"<div style=""font-size:42px;"">BACKBONE</div><img id = ""stim"" ><div class = green_square id = bottomsquare></div>",null,encoding,word_square,,,1,bottomsquare,32,true,,,BACKBONE,1,,,
html-keyboard-response,260,491929,221.5,"<div style=""font-size:42px;"">BACKBONE</div>",32,,word,BACKBONE,,,,,,,,,,,,
html-keyboard-response,261,493445,null,"",null,,word,BACKBONE,,,,,,,,,,,,
html-keyboard-response,262,493650,null,"<div style=""font-size:42px;"">POND</div><img id = ""stim"" ><div class = red_square id = bottomsquare></div>",null,encoding,word_square,,,0,bottomsquare,none,true,,,POND,1,,,
html-keyboard-response,263,493967,null,"<div style=""font-size:42px;"">POND</div>",null,,word,POND,,,,,,,,,,,,
html-keyboard-response,264,495480,null,"",null,,word,POND,,,,,,,,,,,,
html-keyboard-response,265,495684,null,"<div style=""font-size:42px;"">JUGGLER</div><img id = ""stim"" ><div class = red_square id = topsquare></div>",null,encoding,word_square,,,0,topsquare,none,true,,,JUGGLER,1,,,
html-keyboard-response,266,495996,null,"<div style=""font-size:42px;"">JUGGLER</div>",null,,word,JUGGLER,,,,,,,,,,,,
html-keyboard-response,267,497513,null,"",null,,word,JUGGLER,,,,,,,,,,,,
html-keyboard-response,268,497721,null,"<div style=""font-size:42px;"">GYMNAST</div><img id = ""stim"" ><div class = green_square id = topsquare></div>",null,encoding,word_square,,,1,topsquare,32,true,,,GYMNAST,1,,,
html-keyboard-response,269,498038,null,"<div style=""font-size:42px;"">GYMNAST</div>",null,,word,GYMNAST,,,,,,,,,,,,
html-keyboard-response,270,499545,26.09999990463257,"",32,,word,GYMNAST,,,,,,,,,,,,
html-keyboard-response,271,499751,null,"<div style=""font-size:42px;"">COMET</div><img id = ""stim"" ><div class = red_square id = bottomsquare></div>",null,encoding,word_square,,,0,bottomsquare,none,true,,,COMET,1,,,
html-keyboard-response,272,500067,null,"<div style=""font-size:42px;"">COMET</div>",null,,word,COMET,,,,,,,,,,,,
html-keyboard-response,273,501583,null,"",null,,word,COMET,,,,,,,,,,,,
html-keyboard-response,274,501790,null,"<div style=""font-size:42px;"">GIRL</div><img id = ""stim"" ><div class = green_square id = bottomsquare></div>",null,encoding,word_square,,,1,bottomsquare,32,true,,,GIRL,1,,,
html-keyboard-response,275,502106,129.40000009536743,"<div style=""font-size:42px;"">GIRL</div>",32,,word,GIRL,,,,,,,,,,,,
html-keyboard-response,276,503609,null,"",null,,word,GIRL,,,,,,,,,,,,
html-keyboard-response,277,503814,null,"<div style=""font-size:42px;"">MAPLE</div><img id = ""stim"" ><div class = green_square id = topsquare></div>",null,encoding,word_square,,,1,topsquare,32,true,,,MAPLE,1,,,
html-keyboard-response,278,504132,null,"<div style=""font-size:42px;"">MAPLE</div>",null,,word,MAPLE,,,,,,,,,,,,
html-keyboard-response,279,505638,171.09999990463257,"",32,,word,MAPLE,,,,,,,,,,,,
call-function,280,505639,,"",,,,,,,,,,,,,,,,
html-keyboard-response,281,505741,null,"",null,,,,,,,,,,,,,,,
math-period,282,510377,8940.600000143051,"",,,,,,,,,,,3,,,,,
html-keyboard-response,283,510485,null,"",null,,,,,,,,,,,,,,,
math-period,284,512370,3253,"",,,,,,,,,,,1,,,,,
html-keyboard-response,285,512480,null,"",null,,,,,,,,,,,,,,,
math-period,286,514002,2742.899999856949,"",,,,,,,,,,,2,,,,,
html-keyboard-response,287,514106,null,"",null,,,,,,,,,,,,,,,
math-period,288,516073,2618.5,"",,,,,,,,,,,3,,,,,
html-keyboard-response,289,516185,null,"",null,,,,,,,,,,,,,,,
math-period,290,517873,2878.2999999523163,"",,,,,,,,,,,4,,,,,
html-keyboard-response,291,517981,null,"",null,,,,,,,,,,,,,,,
math-period,292,519962,3663.2999997138977,"",,,,,,,,,,,3,,,,,
html-keyboard-response,293,520072,null,"",null,,,,,,,,,,,,,,,
math-period,294,521801,3199.7999997138977,"",,,,,,,,,,,3,,,,,
html-keyboard-response,295,521908,null,"",null,,,,,,,,,,,,,,,
math-period,296,522849,1645.3000001907349,"",,,,,,,,,,,3,,,,,
html-keyboard-response,297,522950,null,"",null,,,,,,,,,,,,,,,
math-period,298,524569,2928.7000000476837,"",,,,,,,,,,,5,,,,,
html-keyboard-response,299,524670,null,"",null,,,,,,,,,,,,,,,
math-period,300,525841,1924,"",,,,,,,,,,,3,,,,,
html-keyboard-response,301,525950,null,"",null,,,,,,,,,,,,,,,
math-period,302,529650,null,"",,,,,,,,,,,,,,,,
html-keyboard-response,303,530658,null,"Recall Period!",null,,,,,,,,,,,,,,,
call-function,304,530659,,"",,,,,,,,,,,,,,,,
html-keyboard-response,305,530760,null,"",null,,,,,,,,,,,,,,,
recall-period,306,533889,20328.200001001358,"",,,,,,,,,,,backbone,,,,,
html-keyboard-response,307,534000,null,"",null,,,,,,,,,,,,,,,
recall-period,308,534865,2671.300000190735,"",,,,,,,,,,,pond,,,,,
html-keyboard-response,309,534972,null,"",null,,,,,,,,,,,,,,,
recall-period,310,538961,26780.80000114441,"",,,,,,,,,,,juggler,,,,,
html-keyboard-response,311,539068,null,"",null,,,,,,,,,,,,,,,
recall-period,312,540969,9308.29999947548,"",,,,,,,,,,,gymnast,,,,,
html-keyboard-response,313,541073,null,"",null,,,,,,,,,,,,,,,
recall-period,314,544993,28484.100000858307,"",,,,,,,,,,,stallion,,,,,
html-keyboard-response,315,545097,null,"",null,,,,,,,,,,,,,,,
recall-period,316,545937,3180.100000143051,"",,,,,,,,,,,money,,,,,
html-keyboard-response,317,546054,null,"",null,,,,,,,,,,,,,,,
recall-period,318,546936,2710.599999189377,"",,,,,,,,,,,stairs,,,,,
html-keyboard-response,319,547044,null,"",null,,,,,,,,,,,,,,,
recall-period,320,550489,21359.400000095367,"",,,,,,,,,,,railroad,,,,,
html-keyboard-response,321,550603,null,"",null,,,,,,,,,,,,,,,
recall-period,322,557209,30956.400000333786,"",,,,,,,,,,,tutu,,,,,
html-keyboard-response,323,557316,null,"",null,,,,,,,,,,,,,,,
recall-period,324,558336,2694.2000000476837,"",,,,,,,,,,,dress,,,,,
html-keyboard-response,325,558448,null,"",null,,,,,,,,,,,,,,,
recall-period,326,559745,6563.699999570847,"",,,,,,,,,,,primate,,,,,
html-keyboard-response,327,559857,null,"",null,,,,,,,,,,,,,,,
recall-period,328,561073,4385.800000667572,"",,,,,,,,,,,racket,,,,,
html-keyboard-response,329,561177,null,"",null,,,,,,,,,,,,,,,
recall-period,330,605670,null,"",,,,,,,,,,,,,,,,
html-keyboard-response,331,606176,null,"Time's Up!",null,,,,,,,,,,,,,,,
html-keyboard-response,332,612753,6574.799999952316,"<p> Good job! You have responded correctly to 94% of the trials. </p>
                      <p>Be sure to only press the spacebar if you see a GREEN square, and please keep your accuracy above 80%.</p>
                      <p> Press any key to continue the experiment. </p>",32,,,,,,,,,,,,,,,
html-keyboard-response,333,613497,742.1000001430511,"<div style=""font-size:48px;"">Press any key to begin list 3 of 16 </div>",32,,,,,,,,,,,,,,,
html-keyboard-response,334,616017,null,"<div style=""font-size:60px;"">+</div>",null,,,,,,,,,,,,,,,
html-keyboard-response,335,616234,null,"<div style=""font-size:42px;"">LAVA</div><img id = ""stim"" ><div class = red_square id = bottomsquare></div>",null,encoding,word_square,,,0,bottomsquare,none,true,,,LAVA,2,,,
html-keyboard-response,336,616549,null,"<div style=""font-size:42px;"">LAVA</div>",null,,word,LAVA,,,,,,,,,,,,
html-keyboard-response,337,618053,null,"",null,,word,LAVA,,,,,,,,,,,,
html-keyboard-response,338,618259,null,"<div style=""font-size:42px;"">HOUND</div><img id = ""stim"" ><div class = red_square id = topsquare></div>",null,encoding,word_square,,,0,topsquare,none,true,,,HOUND,2,,,
html-keyboard-response,339,618576,null,"<div style=""font-size:42px;"">HOUND</div>",null,,word,HOUND,,,,,,,,,,,,
html-keyboard-response,340,620083,null,"",null,,word,HOUND,,,,,,,,,,,,
html-keyboard-response,341,620290,null,"<div style=""font-size:42px;"">FOSSIL</div><img id = ""stim"" ><div class = green_square id = topsquare></div>",null,encoding,word_square,,,1,topsquare,32,true,,,FOSSIL,2,,,
html-keyboard-response,342,620592,253.39999985694885,"<div style=""font-size:42px;"">FOSSIL</div>",32,,word,FOSSIL,,,,,,,,,,,,
html-keyboard-response,343,622109,null,"",null,,word,FOSSIL,,,,,,,,,,,,
html-keyboard-response,344,622317,null,"<div style=""font-size:42px;"">DUSTPAN</div><img id = ""stim"" ><div class = red_square id = bottomsquare></div>",null,encoding,word_square,,,0,bottomsquare,none,true,,,DUSTPAN,2,,,
html-keyboard-response,345,622635,null,"<div style=""font-size:42px;"">DUSTPAN</div>",null,,word,DUSTPAN,,,,,,,,,,,,
html-keyboard-response,346,624139,null,"",null,,word,DUSTPAN,,,,,,,,,,,,
html-keyboard-response,347,624344,null,"<div style=""font-size:42px;"">RAISIN</div><img id = ""stim"" ><div class = green_square id = bottomsquare></div>",null,encoding,word_square,,,1,bottomsquare,32,false,,,RAISIN,2,,,
html-keyboard-response,348,624662,null,"<div style=""font-size:42px;"">RAISIN</div>",null,,word,RAISIN,,,,,,,,,,,,
html-keyboard-response,349,626164,null,"",null,,word,RAISIN,,,,,,,,,,,,
html-keyboard-response,350,626369,null,"<div style=""font-size:42px;"">PLIERS</div><img id = ""stim"" ><div class = green_square id = topsquare></div>",null,encoding,word_square,,,1,topsquare,32,true,,,PLIERS,2,,,
html-keyboard-response,351,626686,null,"<div style=""font-size:42px;"">PLIERS</div>",null,,word,PLIERS,,,,,,,,,,,,
html-keyboard-response,352,628195,312,"",32,,word,PLIERS,,,,,,,,,,,,
html-keyboard-response,353,628401,null,"<div style=""font-size:42px;"">CHAUFFEUR</div><img id = ""stim"" ><div class = red_square id = topsquare></div>",null,encoding,word_square,,,0,topsquare,none,true,,,CHAUFFEUR,2,,,
html-keyboard-response,354,628714,null,"<div style=""font-size:42px;"">CHAUFFEUR</div>",null,,word,CHAUFFEUR,,,,,,,,,,,,
html-keyboard-response,355,630218,null,"",null,,word,CHAUFFEUR,,,,,,,,,,,,
html-keyboard-response,356,630424,null,"<div style=""font-size:42px;"">GIFT</div><img id = ""stim"" ><div class = green_square id = bottomsquare></div>",null,encoding,word_square,,,1,bottomsquare,32,true,,,GIFT,2,,,
html-keyboard-response,357,630739,null,"<div style=""font-size:42px;"">GIFT</div>",null,,word,GIFT,,,,,,,,,,,,
html-keyboard-response,358,632257,499.39999985694885,"",32,,word,GIFT,,,,,,,,,,,,
html-keyboard-response,359,632461,null,"<div style=""font-size:42px;"">FRAME</div><img id = ""stim"" ><div class = red_square id = bottomsquare></div>",null,encoding,word_square,,,0,bottomsquare,none,true,,,FRAME,2,,,
html-keyboard-response,360,632779,null,"<div style=""font-size:42px;"">FRAME</div>",null,,word,FRAME,,,,,,,,,,,,
html-keyboard-response,361,634296,null,"",null,,word,FRAME,,,,,,,,,,,,
html-keyboard-response,362,634500,null,"<div style=""font-size:42px;"">SOFTBALL</div><img id = ""stim"" ><div class = red_square id = topsquare></div>",null,encoding,word_square,,,0,topsquare,none,true,,,SOFTBALL,2,,,
html-keyboard-response,363,634817,null,"<div style=""font-size:42px;"">SOFTBALL</div>",null,,word,SOFTBALL,,,,,,,,,,,,
html-keyboard-response,364,636320,null,"",null,,word,SOFTBALL,,,,,,,,,,,,
html-keyboard-response,365,636523,null,"<div style=""font-size:42px;"">LACE</div><img id = ""stim"" ><div class = red_square id = bottomsquare></div>",null,encoding,word_square,,,0,bottomsquare,none,true,,,LACE,2,,,
html-keyboard-response,366,636840,null,"<div style=""font-size:42px;"">LACE</div>",null,,word,LACE,,,,,,,,,,,,
html-keyboard-response,367,638346,null,"",null,,word,LACE,,,,,,,,,,,,
html-keyboard-response,368,638553,null,"<div style=""font-size:42px;"">SNORKEL</div><img id = ""stim"" ><div class = green_square id = topsquare></div>",null,encoding,word_square,,,1,topsquare,32,true,,,SNORKEL,2,,,
html-keyboard-response,369,638864,126.10000014305115,"<div style=""font-size:42px;"">SNORKEL</div>",32,,word,SNORKEL,,,,,,,,,,,,
html-keyboard-response,370,640373,null,"",null,,word,SNORKEL,,,,,,,,,,,,
html-keyboard-response,371,640578,null,"<div style=""font-size:42px;"">CRICKET</div><img id = ""stim"" ><div class = green_square id = bottomsquare></div>",null,encoding,word_square,,,1,bottomsquare,32,true,,,CRICKET,2,,,
html-keyboard-response,372,640895,null,"<div style=""font-size:42px;"">CRICKET</div>",null,,word,CRICKET,,,,,,,,,,,,
html-keyboard-response,373,642399,454.7000000476837,"",32,,word,CRICKET,,,,,,,,,,,,
html-keyboard-response,374,642605,null,"<div style=""font-size:42px;"">HEART</div><img id = ""stim"" ><div class = red_square id = topsquare></div>",null,encoding,word_square,,,0,topsquare,none,true,,,HEART,2,,,
html-keyboard-response,375,642909,null,"<div style=""font-size:42px;"">HEART</div>",null,,word,HEART,,,,,,,,,,,,
html-keyboard-response,376,644413,null,"",null,,word,HEART,,,,,,,,,,,,
html-keyboard-response,377,644617,null,"<div style=""font-size:42px;"">DONOR</div><img id = ""stim"" ><div class = green_square id = topsquare></div>",null,encoding,word_square,,,1,topsquare,32,true,,,DONOR,2,,,
html-keyboard-response,378,644935,null,"<div style=""font-size:42px;"">DONOR</div>",null,,word,DONOR,,,,,,,,,,,,
html-keyboard-response,379,646443,103.09999990463257,"",32,,word,DONOR,,,,,,,,,,,,
html-keyboard-response,380,646647,null,"<div style=""font-size:42px;"">PORTRAIT</div><img id = ""stim"" ><div class = green_square id = bottomsquare></div>",null,encoding,word_square,,,1,bottomsquare,32,true,,,PORTRAIT,2,,,
html-keyboard-response,381,646963,null,"<div style=""font-size:42px;"">PORTRAIT</div>",null,,word,PORTRAIT,,,,,,,,,,,,
html-keyboard-response,382,648470,948.3999998569489,"",32,,word,PORTRAIT,,,,,,,,,,,,
call-function,383,648471,,"",,,,,,,,,,,,,,,,
html-keyboard-response,384,648580,null,"",null,,,,,,,,,,,,,,,
math-period,385,653753,7622.399999856949,"",,,,,,,,,,,3,,,,,
html-keyboard-response,386,653855,null,"",null,,,,,,,,,,,,,,,
math-period,387,656993,9088.900000333786,"",,,,,,,,,,,3,,,,,
html-keyboard-response,388,657101,null,"",null,,,,,,,,,,,,,,,
math-period,389,659200,4003.4999997615814,"",,,,,,,,,,,0,,,,,
html-keyboard-response,390,659302,null,"",null,,,,,,,,,,,,,,,
math-period,391,660872,2768.600000143051,"",,,,,,,,,,,2,,,,,
html-keyboard-response,392,660980,null,"",null,,,,,,,,,,,,,,,
math-period,393,661849,1478.8000001907349,"",,,,,,,,,,,2,,,,,
html-keyboard-response,394,661959,null,"",null,,,,,,,,,,,,,,,
math-period,395,662929,1704.0999999046326,"",,,,,,,,,,,2,,,,,
html-keyboard-response,396,663034,null,"",null,,,,,,,,,,,,,,,
math-period,397,666090,5041.399999856949,"",,,,,,,,,,,4,,,,,
html-keyboard-response,398,666202,null,"",null,,,,,,,,,,,,,,,
math-period,399,667984,2881.4000000953674,"",,,,,,,,,,,3,,,,,
html-keyboard-response,400,668091,null,"",null,,,,,,,,,,,,,,,
math-period,401,671232,5991.700000047684,"",,,,,,,,,,,2,,,,,
html-keyboard-response,402,671340,null,"",null,,,,,,,,,,,,,,,
math-period,403,672097,1343.1999998092651,"",,,,,,,,,,,2,,,,,
html-keyboard-response,404,672212,null,"",null,,,,,,,,,,,,,,,
math-period,405,672480,null,"",,,,,,,,,,,,,,,,
html-keyboard-response,406,673496,null,"Recall Period!",null,,,,,,,,,,,,,,,
call-function,407,673497,,"",,,,,,,,,,,,,,,,
html-keyboard-response,408,673608,null,"",null,,,,,,,,,,,,,,,
recall-period,409,675536,11001.000000953674,"",,,,,,,,,,,softball,,,,,
html-keyboard-response,410,675644,null,"",null,,,,,,,,,,,,,,,
recall-period,411,676272,2032.2000005245209,"",,,,,,,,,,,lace,,,,,
html-keyboard-response,412,676379,null,"",null,,,,,,,,,,,,,,,
recall-period,413,678914,13628.499999284744,"",,,,,,,,,,,donor,,,,,
html-keyboard-response,414,679024,null,"",null,,,,,,,,,,,,,,,
recall-period,415,679962,3039.200000524521,"",,,,,,,,,,,heart,,,,,
html-keyboard-response,416,680063,null,"",null,,,,,,,,,,,,,,,
recall-period,417,686432,31717.700000286102,"",,,,,,,,,,,fram,,,,,
html-keyboard-response,418,686548,null,"",null,,,,,,,,,,,,,,,
recall-period,419,690081,28309.999999284744,"",,,,,,,,,,,portrait,,,,,
html-keyboard-response,420,690192,null,"",null,,,,,,,,,,,,,,,
recall-period,421,701465,99101.19999980927,"",,,,,,,,,,,raisin,,,,,
html-keyboard-response,422,701582,null,"",null,,,,,,,,,,,,,,,
recall-period,423,704640,15031.099999189377,"",,,,,,,,,,,chauffeur,,,,,
html-keyboard-response,424,704749,null,"",null,,,,,,,,,,,,,,,
recall-period,425,708256,22354.099999427795,"",,,,,,,,,,,dustpan,,,,,
html-keyboard-response,426,708360,null,"",null,,,,,,,,,,,,,,,
recall-period,427,713089,32622.89999961853,"",,,,,,,,,,,snorkel,,,,,
html-keyboard-response,428,713199,null,"",null,,,,,,,,,,,,,,,
recall-period,429,748499,null,"",,,,,,,,,,,,,,,,
html-keyboard-response,430,749011,null,"Time's Up!",null,,,,,,,,,,,,,,,
html-keyboard-response,431,750769,1756.7999999523163,"<p> Good job! You have responded correctly to 94% of the trials. </p>
                      <p>Be sure to only press the spacebar if you see a GREEN square, and please keep your accuracy above 80%.</p>
                      <p> Press any key to continue the experiment. </p>",32,,,,,,,,,,,,,,,
html-keyboard-response,432,751569,798.2000000476837,"<div style=""font-size:48px;"">Press any key to begin list 4 of 16 </div>",32,,,,,,,,,,,,,,,
html-keyboard-response,433,754090,null,"<div style=""font-size:60px;"">+</div>",null,,,,,,,,,,,,,,,
html-keyboard-response,434,754294,null,"<div style=""font-size:42px;"">NICKEL</div><img id = ""stim"" ><div class = green_square id = bottomsquare></div>",null,encoding,word_square,,,1,bottomsquare,32,true,,,NICKEL,3,,,
html-keyboard-response,435,754608,null,"<div style=""font-size:42px;"">NICKEL</div>",null,,word,NICKEL,,,,,,,,,,,,
html-keyboard-response,436,756114,190.70000004768372,"",32,,word,NICKEL,,,,,,,,,,,,
html-keyboard-response,437,756318,null,"<div style=""font-size:42px;"">FLEET</div><img id = ""stim"" ><div class = green_square id = topsquare></div>",null,encoding,word_square,,,1,topsquare,32,true,,,FLEET,3,,,
html-keyboard-response,438,756620,265.5,"<div style=""font-size:42px;"">FLEET</div>",32,,word,FLEET,,,,,,,,,,,,
html-keyboard-response,439,758136,null,"",null,,word,FLEET,,,,,,,,,,,,
html-keyboard-response,440,758339,null,"<div style=""font-size:42px;"">CASTLE</div><img id = ""stim"" ><div class = red_square id = topsquare></div>",null,encoding,word_square,,,0,topsquare,none,true,,,CASTLE,3,,,
html-keyboard-response,441,758654,null,"<div style=""font-size:42px;"">CASTLE</div>",null,,word,CASTLE,,,,,,,,,,,,
html-keyboard-response,442,760158,null,"",null,,word,CASTLE,,,,,,,,,,,,
html-keyboard-response,443,760362,null,"<div style=""font-size:42px;"">GAZELLE</div><img id = ""stim"" ><div class = green_square id = bottomsquare></div>",null,encoding,word_square,,,1,bottomsquare,32,true,,,GAZELLE,3,,,
html-keyboard-response,444,760678,null,"<div style=""font-size:42px;"">GAZELLE</div>",null,,word,GAZELLE,,,,,,,,,,,,
html-keyboard-response,445,762182,48.40000009536743,"",32,,word,GAZELLE,,,,,,,,,,,,
html-keyboard-response,446,762388,null,"<div style=""font-size:42px;"">HONEY</div><img id = ""stim"" ><div class = green_square id = topsquare></div>",null,encoding,word_square,,,1,topsquare,32,true,,,HONEY,3,,,
html-keyboard-response,447,762703,null,"<div style=""font-size:42px;"">HONEY</div>",null,,word,HONEY,,,,,,,,,,,,
html-keyboard-response,448,764218,224.29999995231628,"",32,,word,HONEY,,,,,,,,,,,,
html-keyboard-response,449,764434,null,"<div style=""font-size:42px;"">WAX</div><img id = ""stim"" ><div class = red_square id = bottomsquare></div>",null,encoding,word_square,,,0,bottomsquare,none,true,,,WAX,3,,,
html-keyboard-response,450,764750,null,"<div style=""font-size:42px;"">WAX</div>",null,,word,WAX,,,,,,,,,,,,
html-keyboard-response,451,766267,null,"",null,,word,WAX,,,,,,,,,,,,
html-keyboard-response,452,766474,null,"<div style=""font-size:42px;"">DAUGHTER</div><img id = ""stim"" ><div class = red_square id = topsquare></div>",null,encoding,word_square,,,0,topsquare,none,true,,,DAUGHTER,3,,,
html-keyboard-response,453,766788,null,"<div style=""font-size:42px;"">DAUGHTER</div>",null,,word,DAUGHTER,,,,,,,,,,,,
html-keyboard-response,454,768292,null,"",null,,word,DAUGHTER,,,,,,,,,,,,
html-keyboard-response,455,768497,null,"<div style=""font-size:42px;"">CREATURE</div><img id = ""stim"" ><div class = red_square id = bottomsquare></div>",null,encoding,word_square,,,0,bottomsquare,none,true,,,CREATURE,3,,,
html-keyboard-response,456,768812,null,"<div style=""font-size:42px;"">CREATURE</div>",null,,word,CREATURE,,,,,,,,,,,,
html-keyboard-response,457,770321,null,"",null,,word,CREATURE,,,,,,,,,,,,
html-keyboard-response,458,770525,null,"<div style=""font-size:42px;"">ELK</div><img id = ""stim"" ><div class = green_square id = bottomsquare></div>",null,encoding,word_square,,,1,bottomsquare,32,true,,,ELK,3,,,
html-keyboard-response,459,770842,null,"<div style=""font-size:42px;"">ELK</div>",null,,word,ELK,,,,,,,,,,,,
html-keyboard-response,460,772359,77.29999995231628,"",32,,word,ELK,,,,,,,,,,,,
html-keyboard-response,461,772562,null,"<div style=""font-size:42px;"">SLACKS</div><img id = ""stim"" ><div class = red_square id = topsquare></div>",null,encoding,word_square,,,0,topsquare,none,true,,,SLACKS,3,,,
html-keyboard-response,462,772878,null,"<div style=""font-size:42px;"">SLACKS</div>",null,,word,SLACKS,,,,,,,,,,,,
html-keyboard-response,463,774381,null,"",null,,word,SLACKS,,,,,,,,,,,,
html-keyboard-response,464,774589,null,"<div style=""font-size:42px;"">WORKER</div><img id = ""stim"" ><div class = green_square id = topsquare></div>",null,encoding,word_square,,,1,topsquare,32,true,,,WORKER,3,,,
html-keyboard-response,465,774891,266.7000000476837,"<div style=""font-size:42px;"">WORKER</div>",32,,word,WORKER,,,,,,,,,,,,
html-keyboard-response,466,776408,null,"",null,,word,WORKER,,,,,,,,,,,,
html-keyboard-response,467,776613,null,"<div style=""font-size:42px;"">BRIDE</div><img id = ""stim"" ><div class = green_square id = bottomsquare></div>",null,encoding,word_square,,,1,bottomsquare,32,true,,,BRIDE,3,,,
html-keyboard-response,468,776930,null,"<div style=""font-size:42px;"">BRIDE</div>",null,,word,BRIDE,,,,,,,,,,,,
html-keyboard-response,469,778436,1348.0999999046326,"",32,,word,BRIDE,,,,,,,,,,,,
html-keyboard-response,470,778640,null,"<div style=""font-size:42px;"">BANK</div><img id = ""stim"" ><div class = red_square id = bottomsquare></div>",null,encoding,word_square,,,0,bottomsquare,none,true,,,BANK,3,,,
html-keyboard-response,471,778958,null,"<div style=""font-size:42px;"">BANK</div>",null,,word,BANK,,,,,,,,,,,,
html-keyboard-response,472,780462,null,"",null,,word,BANK,,,,,,,,,,,,
html-keyboard-response,473,780667,null,"<div style=""font-size:42px;"">ATLAS</div><img id = ""stim"" ><div class = green_square id = topsquare></div>",null,encoding,word_square,,,1,topsquare,32,true,,,ATLAS,3,,,
html-keyboard-response,474,780983,124.70000004768372,"<div style=""font-size:42px;"">ATLAS</div>",32,,word,ATLAS,,,,,,,,,,,,
html-keyboard-response,475,782488,null,"",null,,word,ATLAS,,,,,,,,,,,,
html-keyboard-response,476,782693,null,"<div style=""font-size:42px;"">WORLD</div><img id = ""stim"" ><div class = red_square id = topsquare></div>",null,encoding,word_square,,,0,topsquare,none,true,,,WORLD,3,,,
html-keyboard-response,477,783011,null,"<div style=""font-size:42px;"">WORLD</div>",null,,word,WORLD,,,,,,,,,,,,
html-keyboard-response,478,784516,null,"",null,,word,WORLD,,,,,,,,,,,,
html-keyboard-response,479,784723,null,"<div style=""font-size:42px;"">LAPEL</div><img id = ""stim"" ><div class = red_square id = bottomsquare></div>",null,encoding,word_square,,,0,bottomsquare,none,true,,,LAPEL,3,,,
html-keyboard-response,480,785039,null,"<div style=""font-size:42px;"">LAPEL</div>",null,,word,LAPEL,,,,,,,,,,,,
html-keyboard-response,481,786543,null,"",null,,word,LAPEL,,,,,,,,,,,,
call-function,482,786544,,"",,,,,,,,,,,,,,,,
html-keyboard-response,483,786655,null,"",null,,,,,,,,,,,,,,,
math-period,484,788721,3456,"",,,,,,,,,,,3,,,,,
html-keyboard-response,485,788826,null,"",null,,,,,,,,,,,,,,,
math-period,486,790321,2747.0999999046326,"",,,,,,,,,,,5,,,,,
html-keyboard-response,487,790424,null,"",null,,,,,,,,,,,,,,,
math-period,488,792321,3446,"",,,,,,,,,,,2,,,,,
html-keyboard-response,489,792431,null,"",null,,,,,,,,,,,,,,,
math-period,490,794184,2751.5999999046326,"",,,,,,,,,,,1,,,,,
html-keyboard-response,491,794295,null,"",null,,,,,,,,,,,,,,,
math-period,492,795985,2959.4000000953674,"",,,,,,,,,,,2,,,,,
html-keyboard-response,493,796089,null,"",null,,,,,,,,,,,,,,,
math-period,494,797889,3293.399999856949,"",,,,,,,,,,,5,,,,,
html-keyboard-response,495,797998,null,"",null,,,,,,,,,,,,,,,
math-period,496,799065,1698,"",,,,,,,,,,,3,,,,,
html-keyboard-response,497,799168,null,"",null,,,,,,,,,,,,,,,
math-period,498,801089,3813.4000000953674,"",,,,,,,,,,,1,,,,,
html-keyboard-response,499,801191,null,"",null,,,,,,,,,,,,,,,
math-period,500,802937,3120.099999666214,"",,,,,,,,,,,5,,,,,
html-keyboard-response,501,803045,null,"",null,,,,,,,,,,,,,,,
math-period,502,804521,2685.0000002384186,"",,,,,,,,,,,1,,,,,
html-keyboard-response,503,804629,null,"",null,,,,,,,,,,,,,,,
math-period,504,805593,1660.3999998569489,"",,,,,,,,,,,3,,,,,
html-keyboard-response,505,805707,null,"",null,,,,,,,,,,,,,,,
math-period,506,807193,2697.8999996185303,"",,,,,,,,,,,1,,,,,
html-keyboard-response,507,807305,null,"",null,,,,,,,,,,,,,,,
math-period,508,808985,2892.2999999523163,"",,,,,,,,,,,5,,,,,
html-keyboard-response,509,809097,null,"",null,,,,,,,,,,,,,,,
math-period,510,810177,1836,"",,,,,,,,,,,3,,,,,
html-keyboard-response,511,810283,null,"",null,,,,,,,,,,,,,,,
math-period,512,810549,null,"",,,,,,,,,,,,,,,,
html-keyboard-response,513,811560,null,"Recall Period!",null,,,,,,,,,,,,,,,
call-function,514,811561,,"",,,,,,,,,,,,,,,,
html-keyboard-response,515,811672,null,"",null,,,,,,,,,,,,,,,
recall-period,516,812841,3260.299999475479,"",,,,,,,,,,,elk,,,,,
html-keyboard-response,517,812954,null,"",null,,,,,,,,,,,,,,,
recall-period,518,814025,2696.8999993801117,"",,,,,,,,,,,slack,,,,,
html-keyboard-response,519,814127,null,"",null,,,,,,,,,,,,,,,
recall-period,520,815025,3391.5999999046326,"",,,,,,,,,,,worker,,,,,
html-keyboard-response,521,815128,null,"",null,,,,,,,,,,,,,,,
recall-period,522,816096,3572.7000000476837,"",,,,,,,,,,,bride,,,,,
html-keyboard-response,523,816200,null,"",null,,,,,,,,,,,,,,,
recall-period,524,818633,13614.599999904633,"",,,,,,,,,,,atlas,,,,,
html-keyboard-response,525,818737,null,"",null,,,,,,,,,,,,,,,
recall-period,526,820657,3956.9999997615814,"",,,,,,,,,,,world,,,,,
html-keyboard-response,527,820764,null,"",null,,,,,,,,,,,,,,,
recall-period,528,823552,14231.89999961853,"",,,,,,,,,,,nickle,,,,,
html-keyboard-response,529,823661,null,"",null,,,,,,,,,,,,,,,
recall-period,530,825584,8760.000001192093,"",,,,,,,,,,,fleet,,,,,
html-keyboard-response,531,825700,null,"",null,,,,,,,,,,,,,,,
recall-period,532,827969,13060.000000476837,"",,,,,,,,,,,castle,,,,,
html-keyboard-response,533,828079,null,"",null,,,,,,,,,,,,,,,
recall-period,534,829681,6296.100000858307,"",,,,,,,,,,,giraffe,,,,,
html-keyboard-response,535,829794,null,"",null,,,,,,,,,,,,,,,
recall-period,536,886572,null,"",,,,,,,,,,,,,,,,
html-keyboard-response,537,887078,null,"Time's Up!",null,,,,,,,,,,,,,,,
html-keyboard-response,538,892560,5481,"<p> Good job! You have responded correctly to 95% of the trials. </p>
                      <p>Be sure to only press the spacebar if you see a GREEN square, and please keep your accuracy above 80%.</p>
                      <p> Press any key to continue the experiment. </p>",32,,,,,,,,,,,,,,,
html-keyboard-response,539,894208,1646,"<div style=""font-size:48px;"">Press any key to begin list 5 of 16 </div>",32,,,,,,,,,,,,,,,
html-keyboard-response,540,896722,null,"<div style=""font-size:60px;"">+</div>",null,,,,,,,,,,,,,,,
html-keyboard-response,541,896940,null,"<div style=""font-size:42px;"">BALLOON</div><img id = ""stim"" ><div class = green_square id = topsquare></div>",null,encoding,word_square,,,1,topsquare,32,false,,,BALLOON,4,,,
html-keyboard-response,542,897258,null,"<div style=""font-size:42px;"">BALLOON</div>",null,,word,BALLOON,,,,,,,,,,,,
html-keyboard-response,543,898761,null,"",null,,word,BALLOON,,,,,,,,,,,,
html-keyboard-response,544,898967,null,"<div style=""font-size:42px;"">MARKET</div><img id = ""stim"" ><div class = green_square id = bottomsquare></div>",null,encoding,word_square,,,1,bottomsquare,32,true,,,MARKET,4,,,
html-keyboard-response,545,899280,159,"<div style=""font-size:42px;"">MARKET</div>",32,,word,MARKET,,,,,,,,,,,,
html-keyboard-response,546,900795,null,"",null,,word,MARKET,,,,,,,,,,,,
html-keyboard-response,547,901003,null,"<div style=""font-size:42px;"">SCALPEL</div><img id = ""stim"" ><div class = red_square id = bottomsquare></div>",null,encoding,word_square,,,0,bottomsquare,none,true,,,SCALPEL,4,,,
html-keyboard-response,548,901318,null,"<div style=""font-size:42px;"">SCALPEL</div>",null,,word,SCALPEL,,,,,,,,,,,,
html-keyboard-response,549,902823,null,"",null,,word,SCALPEL,,,,,,,,,,,,
html-keyboard-response,550,903031,null,"<div style=""font-size:42px;"">GLASSES</div><img id = ""stim"" ><div class = red_square id = topsquare></div>",null,encoding,word_square,,,0,topsquare,none,true,,,GLASSES,4,,,
html-keyboard-response,551,903348,null,"<div style=""font-size:42px;"">GLASSES</div>",null,,word,GLASSES,,,,,,,,,,,,
html-keyboard-response,552,904852,null,"",null,,word,GLASSES,,,,,,,,,,,,
html-keyboard-response,553,905058,null,"<div style=""font-size:42px;"">COBRA</div><img id = ""stim"" ><div class = green_square id = topsquare></div>",null,encoding,word_square,,,1,topsquare,32,true,,,COBRA,4,,,
html-keyboard-response,554,905375,181.30000019073486,"<div style=""font-size:42px;"">COBRA</div>",32,,word,COBRA,,,,,,,,,,,,
html-keyboard-response,555,906882,null,"",null,,word,COBRA,,,,,,,,,,,,
html-keyboard-response,556,907087,null,"<div style=""font-size:42px;"">SALT</div><img id = ""stim"" ><div class = red_square id = bottomsquare></div>",null,encoding,word_square,,,0,bottomsquare,none,true,,,SALT,4,,,
html-keyboard-response,557,907402,null,"<div style=""font-size:42px;"">SALT</div>",null,,word,SALT,,,,,,,,,,,,
html-keyboard-response,558,908909,null,"",null,,word,SALT,,,,,,,,,,,,
html-keyboard-response,559,909114,null,"<div style=""font-size:42px;"">PARSLEY</div><img id = ""stim"" ><div class = green_square id = bottomsquare></div>",null,encoding,word_square,,,1,bottomsquare,32,true,,,PARSLEY,4,,,
html-keyboard-response,560,909416,null,"<div style=""font-size:42px;"">PARSLEY</div>",null,,word,PARSLEY,,,,,,,,,,,,
html-keyboard-response,561,910924,126.20000004768372,"",32,,word,PARSLEY,,,,,,,,,,,,
html-keyboard-response,562,911127,null,"<div style=""font-size:42px;"">OZONE</div><img id = ""stim"" ><div class = green_square id = topsquare></div>",null,encoding,word_square,,,1,topsquare,32,true,,,OZONE,4,,,
html-keyboard-response,563,911431,null,"<div style=""font-size:42px;"">OZONE</div>",null,,word,OZONE,,,,,,,,,,,,
html-keyboard-response,564,912941,176.19999980926514,"",32,,word,OZONE,,,,,,,,,,,,
html-keyboard-response,565,913146,null,"<div style=""font-size:42px;"">SIRLOIN</div><img id = ""stim"" ><div class = red_square id = topsquare></div>",null,encoding,word_square,,,0,topsquare,none,true,,,SIRLOIN,4,,,
html-keyboard-response,566,913463,null,"<div style=""font-size:42px;"">SIRLOIN</div>",null,,word,SIRLOIN,,,,,,,,,,,,
html-keyboard-response,567,914969,null,"",null,,word,SIRLOIN,,,,,,,,,,,,
html-keyboard-response,568,915174,null,"<div style=""font-size:42px;"">PIANO</div><img id = ""stim"" ><div class = green_square id = bottomsquare></div>",null,encoding,word_square,,,1,bottomsquare,32,true,,,PIANO,4,,,
html-keyboard-response,569,915492,null,"<div style=""font-size:42px;"">PIANO</div>",null,,word,PIANO,,,,,,,,,,,,
html-keyboard-response,570,916999,2.299999952316284,"",32,,word,PIANO,,,,,,,,,,,,
html-keyboard-response,571,917205,null,"<div style=""font-size:42px;"">KIDNEY</div><img id = ""stim"" ><div class = red_square id = bottomsquare></div>",null,encoding,word_square,,,0,bottomsquare,none,true,,,KIDNEY,4,,,
html-keyboard-response,572,917522,null,"<div style=""font-size:42px;"">KIDNEY</div>",null,,word,KIDNEY,,,,,,,,,,,,
html-keyboard-response,573,919027,null,"",null,,word,KIDNEY,,,,,,,,,,,,
html-keyboard-response,574,919233,null,"<div style=""font-size:42px;"">ADULT</div><img id = ""stim"" ><div class = red_square id = topsquare></div>",null,encoding,word_square,,,0,topsquare,none,false,,,ADULT,4,,,
html-keyboard-response,575,919551,null,"<div style=""font-size:42px;"">ADULT</div>",null,,word,ADULT,,,,,,,,,,,,
html-keyboard-response,576,921056,200,"",32,,word,ADULT,,,,,,,,,,,,
html-keyboard-response,577,921259,null,"<div style=""font-size:42px;"">BUTLER</div><img id = ""stim"" ><div class = green_square id = topsquare></div>",null,encoding,word_square,,,1,topsquare,32,true,,,BUTLER,4,,,
html-keyboard-response,578,921573,115.79999995231628,"<div style=""font-size:42px;"">BUTLER</div>",32,,word,BUTLER,,,,,,,,,,,,
html-keyboard-response,579,923083,null,"",null,,word,BUTLER,,,,,,,,,,,,
html-keyboard-response,580,923288,null,"<div style=""font-size:42px;"">CANYON</div><img id = ""stim"" ><div class = green_square id = bottomsquare></div>",null,encoding,word_square,,,1,bottomsquare,32,true,,,CANYON,4,,,
html-keyboard-response,581,923604,null,"<div style=""font-size:42px;"">CANYON</div>",null,,word,CANYON,,,,,,,,,,,,
html-keyboard-response,582,925110,954.3999998569489,"",32,,word,CANYON,,,,,,,,,,,,
html-keyboard-response,583,925314,null,"<div style=""font-size:42px;"">CIGAR</div><img id = ""stim"" ><div class = red_square id = bottomsquare></div>",null,encoding,word_square,,,0,bottomsquare,none,true,,,CIGAR,4,,,
html-keyboard-response,584,925632,null,"<div style=""font-size:42px;"">CIGAR</div>",null,,word,CIGAR,,,,,,,,,,,,
html-keyboard-response,585,927141,null,"",null,,word,CIGAR,,,,,,,,,,,,
html-keyboard-response,586,927345,null,"<div style=""font-size:42px;"">SPICE</div><img id = ""stim"" ><div class = red_square id = topsquare></div>",null,encoding,word_square,,,0,topsquare,none,true,,,SPICE,4,,,
html-keyboard-response,587,927663,null,"<div style=""font-size:42px;"">SPICE</div>",null,,word,SPICE,,,,,,,,,,,,
html-keyboard-response,588,929178,null,"",null,,word,SPICE,,,,,,,,,,,,
call-function,589,929179,,"",,,,,,,,,,,,,,,,
html-keyboard-response,590,929280,null,"",null,,,,,,,,,,,,,,,
math-period,591,930881,2548.899999856949,"",,,,,,,,,,,2,,,,,
html-keyboard-response,592,930997,null,"",null,,,,,,,,,,,,,,,
math-period,593,933537,4867.900000095367,"",,,,,,,,,,,0,,,,,
html-keyboard-response,594,933640,null,"",null,,,,,,,,,,,,,,,
math-period,595,935577,3430.9000000953674,"",,,,,,,,,,,6,,,,,
html-keyboard-response,596,935679,null,"",null,,,,,,,,,,,,,,,
math-period,597,936961,2358.600000143051,"",,,,,,,,,,,3,,,,,
html-keyboard-response,598,937074,null,"",null,,,,,,,,,,,,,,,
math-period,599,938439,2470.699999809265,"",,,,,,,,,,,2,,,,,
html-keyboard-response,600,938555,null,"",null,,,,,,,,,,,,,,,
math-period,601,939825,2415.5,"",,,,,,,,,,,4,,,,,
html-keyboard-response,602,939928,null,"",null,,,,,,,,,,,,,,,
math-period,603,941368,2707.7999999523163,"",,,,,,,,,,,3,,,,,
html-keyboard-response,604,941479,null,"",null,,,,,,,,,,,,,,,
math-period,605,943232,3367,"",,,,,,,,,,,0,,,,,
html-keyboard-response,606,943348,null,"",null,,,,,,,,,,,,,,,
math-period,607,944145,1451.6000001430511,"",,,,,,,,,,,3,,,,,
html-keyboard-response,608,944254,null,"",null,,,,,,,,,,,,,,,
math-period,609,946082,3379.699999809265,"",,,,,,,,,,,4,,,,,
html-keyboard-response,610,946183,null,"",null,,,,,,,,,,,,,,,
math-period,611,947009,1487.1999998092651,"",,,,,,,,,,,3,,,,,
html-keyboard-response,612,947113,null,"",null,,,,,,,,,,,,,,,
math-period,613,948761,3131.599999666214,"",,,,,,,,,,,1,,,,,
html-keyboard-response,614,948864,null,"",null,,,,,,,,,,,,,,,
math-period,615,950266,2693.5999999046326,"",,,,,,,,,,,4,,,,,
html-keyboard-response,616,950381,null,"",null,,,,,,,,,,,,,,,
math-period,617,951785,2651.899999856949,"",,,,,,,,,,,5,,,,,
html-keyboard-response,618,951901,null,"",null,,,,,,,,,,,,,,,
math-period,619,952633,1290.8000001907349,"",,,,,,,,,,,3,,,,,
html-keyboard-response,620,952735,null,"",null,,,,,,,,,,,,,,,
math-period,621,953195,null,"",,,,,,,,,,,,,,,,
html-keyboard-response,622,954208,null,"Recall Period!",null,,,,,,,,,,,,,,,
call-function,623,954209,,"",,,,,,,,,,,,,,,,
html-keyboard-response,624,954319,null,"",null,,,,,,,,,,,,,,,
recall-period,625,962337,121271.59999775887,"",,,,,,,,,,,scalpel,,,,,
html-keyboard-response,626,962440,null,"",null,,,,,,,,,,,,,,,
recall-period,627,965977,18170.39999961853,"",,,,,,,,,,,adult,,,,,
html-keyboard-response,628,966086,null,"",null,,,,,,,,,,,,,,,
recall-period,629,969057,15883.399999380112,"",,,,,,,,,,,kidney,,,,,
html-keyboard-response,630,969160,null,"",null,,,,,,,,,,,,,,,
recall-period,631,970489,7004.900000333786,"",,,,,,,,,,,butler,,,,,
html-keyboard-response,632,970605,null,"",null,,,,,,,,,,,,,,,
recall-period,633,971873,4185.700000762939,"",,,,,,,,,,,piano,,,,,
html-keyboard-response,634,971976,null,"",null,,,,,,,,,,,,,,,
recall-period,635,973320,4108.700000286102,"",,,,,,,,,,,cigar,,,,,
html-keyboard-response,636,973426,null,"",null,,,,,,,,,,,,,,,
recall-period,637,975465,7744.099999427795,"",,,,,,,,,,,cobra,,,,,
html-keyboard-response,638,975567,null,"",null,,,,,,,,,,,,,,,
recall-period,639,1029217,null,"",,,,,,,,,,,,,,,,
html-keyboard-response,640,1029722,null,"Time's Up!",null,,,,,,,,,,,,,,,
html-keyboard-response,641,1033641,3917.699999809265,"<p> Good job! You have responded correctly to 94% of the trials. </p>
                      <p>Be sure to only press the spacebar if you see a GREEN square, and please keep your accuracy above 80%.</p>
                      <p> Press any key to continue the experiment. </p>",32,,,,,,,,,,,,,,,
html-keyboard-response,642,1035280,1637.3000001907349,"<div style=""font-size:48px;"">Press any key to begin list 6 of 16 </div>",32,,,,,,,,,,,,,,,
html-keyboard-response,643,1037809,null,"<div style=""font-size:60px;"">+</div>",null,,,,,,,,,,,,,,,
html-keyboard-response,644,1038016,null,"<div style=""font-size:42px;"">BEAKER</div><img id = ""stim"" ><div class = red_square id = topsquare></div>",null,encoding,word_square,,,0,topsquare,none,true,,,BEAKER,5,,,
html-keyboard-response,645,1038334,null,"<div style=""font-size:42px;"">BEAKER</div>",null,,word,BEAKER,,,,,,,,,,,,
html-keyboard-response,646,1039847,null,"",null,,word,BEAKER,,,,,,,,,,,,
html-keyboard-response,647,1040052,null,"<div style=""font-size:42px;"">BOUQUET</div><img id = ""stim"" ><div class = red_square id = bottomsquare></div>",null,encoding,word_square,,,0,bottomsquare,none,true,,,BOUQUET,5,,,
html-keyboard-response,648,1040366,null,"<div style=""font-size:42px;"">BOUQUET</div>",null,,word,BOUQUET,,,,,,,,,,,,
html-keyboard-response,649,1041868,null,"",null,,word,BOUQUET,,,,,,,,,,,,
html-keyboard-response,650,1042076,null,"<div style=""font-size:42px;"">TWIG</div><img id = ""stim"" ><div class = green_square id = bottomsquare></div>",null,encoding,word_square,,,1,bottomsquare,32,true,,,TWIG,5,,,
html-keyboard-response,651,1042393,null,"<div style=""font-size:42px;"">TWIG</div>",null,,word,TWIG,,,,,,,,,,,,
html-keyboard-response,652,1043898,37.40000009536743,"",32,,word,TWIG,,,,,,,,,,,,
html-keyboard-response,653,1044103,null,"<div style=""font-size:42px;"">SHRUB</div><img id = ""stim"" ><div class = green_square id = topsquare></div>",null,encoding,word_square,,,1,topsquare,32,true,,,SHRUB,5,,,
html-keyboard-response,654,1044405,272.7000000476837,"<div style=""font-size:42px;"">SHRUB</div>",32,,word,SHRUB,,,,,,,,,,,,
html-keyboard-response,655,1045908,null,"",null,,word,SHRUB,,,,,,,,,,,,
html-keyboard-response,656,1046115,null,"<div style=""font-size:42px;"">BASKET</div><img id = ""stim"" ><div class = red_square id = topsquare></div>",null,encoding,word_square,,,0,topsquare,none,true,,,BASKET,5,,,
html-keyboard-response,657,1046429,null,"<div style=""font-size:42px;"">BASKET</div>",null,,word,BASKET,,,,,,,,,,,,
html-keyboard-response,658,1047935,null,"",null,,word,BASKET,,,,,,,,,,,,
html-keyboard-response,659,1048141,null,"<div style=""font-size:42px;"">FEMALE</div><img id = ""stim"" ><div class = red_square id = bottomsquare></div>",null,encoding,word_square,,,0,bottomsquare,none,true,,,FEMALE,5,,,
html-keyboard-response,660,1048458,null,"<div style=""font-size:42px;"">FEMALE</div>",null,,word,FEMALE,,,,,,,,,,,,
html-keyboard-response,661,1049966,null,"",null,,word,FEMALE,,,,,,,,,,,,
html-keyboard-response,662,1050172,null,"<div style=""font-size:42px;"">CABOOSE</div><img id = ""stim"" ><div class = green_square id = bottomsquare></div>",null,encoding,word_square,,,1,bottomsquare,32,true,,,CABOOSE,5,,,
html-keyboard-response,663,1050489,null,"<div style=""font-size:42px;"">CABOOSE</div>",null,,word,CABOOSE,,,,,,,,,,,,
html-keyboard-response,664,1051995,574.2999999523163,"",32,,word,CABOOSE,,,,,,,,,,,,
html-keyboard-response,665,1052201,null,"<div style=""font-size:42px;"">NEUTRON</div><img id = ""stim"" ><div class = red_square id = topsquare></div>",null,encoding,word_square,,,0,topsquare,none,true,,,NEUTRON,5,,,
html-keyboard-response,666,1052515,null,"<div style=""font-size:42px;"">NEUTRON</div>",null,,word,NEUTRON,,,,,,,,,,,,
html-keyboard-response,667,1054018,null,"",null,,word,NEUTRON,,,,,,,,,,,,
html-keyboard-response,668,1054226,null,"<div style=""font-size:42px;"">FIREMAN</div><img id = ""stim"" ><div class = green_square id = topsquare></div>",null,encoding,word_square,,,1,topsquare,32,true,,,FIREMAN,5,,,
html-keyboard-response,669,1054542,150,"<div style=""font-size:42px;"">FIREMAN</div>",32,,word,FIREMAN,,,,,,,,,,,,
html-keyboard-response,670,1056050,null,"",null,,word,FIREMAN,,,,,,,,,,,,
html-keyboard-response,671,1056255,null,"<div style=""font-size:42px;"">HAMMOCK</div><img id = ""stim"" ><div class = green_square id = bottomsquare></div>",null,encoding,word_square,,,1,bottomsquare,32,false,,,HAMMOCK,5,,,
html-keyboard-response,672,1056569,null,"<div style=""font-size:42px;"">HAMMOCK</div>",null,,word,HAMMOCK,,,,,,,,,,,,
html-keyboard-response,673,1058074,null,"",null,,word,HAMMOCK,,,,,,,,,,,,
html-keyboard-response,674,1058277,null,"<div style=""font-size:42px;"">CRAB</div><img id = ""stim"" ><div class = red_square id = bottomsquare></div>",null,encoding,word_square,,,0,bottomsquare,none,true,,,CRAB,5,,,
html-keyboard-response,675,1058592,null,"<div style=""font-size:42px;"">CRAB</div>",null,,word,CRAB,,,,,,,,,,,,
html-keyboard-response,676,1060098,null,"",null,,word,CRAB,,,,,,,,,,,,
html-keyboard-response,677,1060303,null,"<div style=""font-size:42px;"">CORAL</div><img id = ""stim"" ><div class = green_square id = topsquare></div>",null,encoding,word_square,,,1,topsquare,32,true,,,CORAL,5,,,
html-keyboard-response,678,1060619,null,"<div style=""font-size:42px;"">CORAL</div>",null,,word,CORAL,,,,,,,,,,,,
html-keyboard-response,679,1062128,100.29999995231628,"",32,,word,CORAL,,,,,,,,,,,,
html-keyboard-response,680,1062332,null,"<div style=""font-size:42px;"">LIPSTICK</div><img id = ""stim"" ><div class = red_square id = topsquare></div>",null,encoding,word_square,,,0,topsquare,none,true,,,LIPSTICK,5,,,
html-keyboard-response,681,1062635,null,"<div style=""font-size:42px;"">LIPSTICK</div>",null,,word,LIPSTICK,,,,,,,,,,,,
html-keyboard-response,682,1064144,null,"",null,,word,LIPSTICK,,,,,,,,,,,,
html-keyboard-response,683,1064349,null,"<div style=""font-size:42px;"">RADISH</div><img id = ""stim"" ><div class = red_square id = bottomsquare></div>",null,encoding,word_square,,,0,bottomsquare,none,true,,,RADISH,5,,,
html-keyboard-response,684,1064662,null,"<div style=""font-size:42px;"">RADISH</div>",null,,word,RADISH,,,,,,,,,,,,
html-keyboard-response,685,1066167,null,"",null,,word,RADISH,,,,,,,,,,,,
html-keyboard-response,686,1066370,null,"<div style=""font-size:42px;"">CIRCUS</div><img id = ""stim"" ><div class = green_square id = bottomsquare></div>",null,encoding,word_square,,,1,bottomsquare,32,true,,,CIRCUS,5,,,
html-keyboard-response,687,1066684,null,"<div style=""font-size:42px;"">CIRCUS</div>",null,,word,CIRCUS,,,,,,,,,,,,
html-keyboard-response,688,1068186,90.79999995231628,"",32,,word,CIRCUS,,,,,,,,,,,,
html-keyboard-response,689,1068390,null,"<div style=""font-size:42px;"">OATMEAL</div><img id = ""stim"" ><div class = green_square id = topsquare></div>",null,encoding,word_square,,,1,topsquare,32,true,,,OATMEAL,5,,,
html-keyboard-response,690,1068692,215.70000004768372,"<div style=""font-size:42px;"">OATMEAL</div>",32,,word,OATMEAL,,,,,,,,,,,,
html-keyboard-response,691,1070207,null,"",null,,word,OATMEAL,,,,,,,,,,,,
call-function,692,1070208,,"",,,,,,,,,,,,,,,,
html-keyboard-response,693,1070318,null,"",null,,,,,,,,,,,,,,,
math-period,694,1073368,5611,"",,,,,,,,,,,3,,,,,
html-keyboard-response,695,1073476,null,"",null,,,,,,,,,,,,,,,
math-period,696,1075129,2979.800000190735,"",,,,,,,,,,,5,,,,,
html-keyboard-response,697,1075231,null,"",null,,,,,,,,,,,,,,,
math-period,698,1076112,1559.3000001907349,"",,,,,,,,,,,3,,,,,
html-keyboard-response,699,1076214,null,"",null,,,,,,,,,,,,,,,
math-period,700,1077505,2465.199999809265,"",,,,,,,,,,,4,,,,,
html-keyboard-response,701,1077621,null,"",null,,,,,,,,,,,,,,,
math-period,702,1079648,3867.9999997615814,"",,,,,,,,,,,0,,,,,
html-keyboard-response,703,1079758,null,"",null,,,,,,,,,,,,,,,
math-period,704,1081615,3385,"",,,,,,,,,,,4,,,,,
html-keyboard-response,705,1081717,null,"",null,,,,,,,,,,,,,,,
math-period,706,1083304,2771.4000000953674,"",,,,,,,,,,,6,,,,,
html-keyboard-response,707,1083415,null,"",null,,,,,,,,,,,,,,,
math-period,708,1085105,2953.2000000476837,"",,,,,,,,,,,5,,,,,
html-keyboard-response,709,1085208,null,"",null,,,,,,,,,,,,,,,
math-period,710,1086616,2510.800000190735,"",,,,,,,,,,,2,,,,,
html-keyboard-response,711,1086725,null,"",null,,,,,,,,,,,,,,,
math-period,712,1088296,2939.5000002384186,"",,,,,,,,,,,5,,,,,
html-keyboard-response,713,1088398,null,"",null,,,,,,,,,,,,,,,
math-period,714,1089152,1321.5000002384186,"",,,,,,,,,,,3,,,,,
html-keyboard-response,715,1089255,null,"",null,,,,,,,,,,,,,,,
math-period,716,1091280,3880,"",,,,,,,,,,,3,,,,,
html-keyboard-response,717,1091389,null,"",null,,,,,,,,,,,,,,,
math-period,718,1092961,2755.2000000476837,"",,,,,,,,,,,5,,,,,
html-keyboard-response,719,1093073,null,"",null,,,,,,,,,,,,,,,
math-period,720,1094055,1680.6000001430511,"",,,,,,,,,,,5,,,,,
html-keyboard-response,721,1094162,null,"",null,,,,,,,,,,,,,,,
math-period,722,1094211,null,"",,,,,,,,,,,,,,,,
html-keyboard-response,723,1095219,null,"Recall Period!",null,,,,,,,,,,,,,,,
call-function,724,1095220,,"",,,,,,,,,,,,,,,,
html-keyboard-response,725,1095322,null,"",null,,,,,,,,,,,,,,,
recall-period,726,1098545,14901.699999332428,"",,,,,,,,,,,coral,,,,,
html-keyboard-response,727,1098657,null,"",null,,,,,,,,,,,,,,,
recall-period,728,1100152,7210.600000143051,"",,,,,,,,,,,lipstick,,,,,
html-keyboard-response,729,1100264,null,"",null,,,,,,,,,,,,,,,
recall-period,730,1104481,27280.49999856949,"",,,,,,,,,,,radish,,,,,
html-keyboard-response,731,1104590,null,"",null,,,,,,,,,,,,,,,
recall-period,732,1106009,6002.400000810623,"",,,,,,,,,,,circus,,,,,
html-keyboard-response,733,1106113,null,"",null,,,,,,,,,,,,,,,
recall-period,734,1107135,4450.800000905991,"",,,,,,,,,,,beaker,,,,,
html-keyboard-response,735,1107237,null,"",null,,,,,,,,,,,,,,,
recall-period,736,1109105,7825.699999332428,"",,,,,,,,,,,bouquet,,,,,
html-keyboard-response,737,1109220,null,"",null,,,,,,,,,,,,,,,
recall-period,738,1113847,28065.99999976158,"",,,,,,,,,,,circus,,,,,
html-keyboard-response,739,1113952,null,"",null,,,,,,,,,,,,,,,
recall-period,740,1170226,null,"",,,,,,,,,,,,,,,,
html-keyboard-response,741,1170734,null,"Time's Up!",null,,,,,,,,,,,,,,,
html-keyboard-response,742,1174185,3449.699999809265,"<p> Good job! You have responded correctly to 94% of the trials. </p>
                      <p>Be sure to only press the spacebar if you see a GREEN square, and please keep your accuracy above 80%.</p>
                      <p> Press any key to continue the experiment. </p>",32,,,,,,,,,,,,,,,
html-keyboard-response,743,1175384,1197.2000000476837,"<div style=""font-size:48px;"">Press any key to begin list 7 of 16 </div>",32,,,,,,,,,,,,,,,
html-keyboard-response,744,1177911,null,"<div style=""font-size:60px;"">+</div>",null,,,,,,,,,,,,,,,
html-keyboard-response,745,1178118,null,"<div style=""font-size:42px;"">TOILET</div><img id = ""stim"" ><div class = red_square id = bottomsquare></div>",null,encoding,word_square,,,0,bottomsquare,none,true,,,TOILET,6,,,
html-keyboard-response,746,1178433,null,"<div style=""font-size:42px;"">TOILET</div>",null,,word,TOILET,,,,,,,,,,,,
html-keyboard-response,747,1179944,null,"",null,,word,TOILET,,,,,,,,,,,,
html-keyboard-response,748,1180149,null,"<div style=""font-size:42px;"">BISON</div><img id = ""stim"" ><div class = red_square id = topsquare></div>",null,encoding,word_square,,,0,topsquare,none,true,,,BISON,6,,,
html-keyboard-response,749,1180464,null,"<div style=""font-size:42px;"">BISON</div>",null,,word,BISON,,,,,,,,,,,,
html-keyboard-response,750,1181973,null,"",null,,word,BISON,,,,,,,,,,,,
html-keyboard-response,751,1182178,null,"<div style=""font-size:42px;"">CATTLE</div><img id = ""stim"" ><div class = green_square id = topsquare></div>",null,encoding,word_square,,,1,topsquare,32,true,,,CATTLE,6,,,
html-keyboard-response,752,1182495,null,"<div style=""font-size:42px;"">CATTLE</div>",null,,word,CATTLE,,,,,,,,,,,,
html-keyboard-response,753,1184002,167.40000009536743,"",32,,word,CATTLE,,,,,,,,,,,,
html-keyboard-response,754,1184208,null,"<div style=""font-size:42px;"">CABBAGE</div><img id = ""stim"" ><div class = green_square id = bottomsquare></div>",null,encoding,word_square,,,1,bottomsquare,32,true,,,CABBAGE,6,,,
html-keyboard-response,755,1184517,null,"<div style=""font-size:42px;"">CABBAGE</div>",null,,word,CABBAGE,,,,,,,,,,,,
html-keyboard-response,756,1186031,561.4000000953674,"",32,,word,CABBAGE,,,,,,,,,,,,
html-keyboard-response,757,1186235,null,"<div style=""font-size:42px;"">TRANSPLANT</div><img id = ""stim"" ><div class = red_square id = bottomsquare></div>",null,encoding,word_square,,,0,bottomsquare,none,true,,,TRANSPLANT,6,,,
html-keyboard-response,758,1186552,null,"<div style=""font-size:42px;"">TRANSPLANT</div>",null,,word,TRANSPLANT,,,,,,,,,,,,
html-keyboard-response,759,1188070,null,"",null,,word,TRANSPLANT,,,,,,,,,,,,
html-keyboard-response,760,1188276,null,"<div style=""font-size:42px;"">STAPLE</div><img id = ""stim"" ><div class = green_square id = topsquare></div>",null,encoding,word_square,,,1,topsquare,32,false,,,STAPLE,6,,,
html-keyboard-response,761,1188592,null,"<div style=""font-size:42px;"">STAPLE</div>",null,,word,STAPLE,,,,,,,,,,,,
html-keyboard-response,762,1190099,null,"",null,,word,STAPLE,,,,,,,,,,,,
html-keyboard-response,763,1190306,null,"<div style=""font-size:42px;"">MONARCH</div><img id = ""stim"" ><div class = red_square id = topsquare></div>",null,encoding,word_square,,,0,topsquare,none,true,,,MONARCH,6,,,
html-keyboard-response,764,1190619,null,"<div style=""font-size:42px;"">MONARCH</div>",null,,word,MONARCH,,,,,,,,,,,,
html-keyboard-response,765,1192123,null,"",null,,word,MONARCH,,,,,,,,,,,,
html-keyboard-response,766,1192327,null,"<div style=""font-size:42px;"">TURNIP</div><img id = ""stim"" ><div class = red_square id = bottomsquare></div>",null,encoding,word_square,,,0,bottomsquare,none,true,,,TURNIP,6,,,
html-keyboard-response,767,1192637,null,"<div style=""font-size:42px;"">TURNIP</div>",null,,word,TURNIP,,,,,,,,,,,,
html-keyboard-response,768,1194145,null,"",null,,word,TURNIP,,,,,,,,,,,,
html-keyboard-response,769,1194349,null,"<div style=""font-size:42px;"">STOCKING</div><img id = ""stim"" ><div class = green_square id = bottomsquare></div>",null,encoding,word_square,,,1,bottomsquare,32,true,,,STOCKING,6,,,
html-keyboard-response,770,1194665,186.40000009536743,"<div style=""font-size:42px;"">STOCKING</div>",32,,word,STOCKING,,,,,,,,,,,,
html-keyboard-response,771,1196175,null,"",null,,word,STOCKING,,,,,,,,,,,,
html-keyboard-response,772,1196381,null,"<div style=""font-size:42px;"">HAND</div><img id = ""stim"" ><div class = red_square id = topsquare></div>",null,encoding,word_square,,,0,topsquare,none,true,,,HAND,6,,,
html-keyboard-response,773,1196693,null,"<div style=""font-size:42px;"">HAND</div>",null,,word,HAND,,,,,,,,,,,,
html-keyboard-response,774,1198208,null,"",null,,word,HAND,,,,,,,,,,,,
html-keyboard-response,775,1198412,null,"<div style=""font-size:42px;"">CHARCOAL</div><img id = ""stim"" ><div class = green_square id = topsquare></div>",null,encoding,word_square,,,1,topsquare,32,true,,,CHARCOAL,6,,,
html-keyboard-response,776,1198729,null,"<div style=""font-size:42px;"">CHARCOAL</div>",null,,word,CHARCOAL,,,,,,,,,,,,
html-keyboard-response,777,1200232,302.40000009536743,"",32,,word,CHARCOAL,,,,,,,,,,,,
html-keyboard-response,778,1200437,null,"<div style=""font-size:42px;"">BELLY</div><img id = ""stim"" ><div class = green_square id = bottomsquare></div>",null,encoding,word_square,,,1,bottomsquare,32,true,,,BELLY,6,,,
html-keyboard-response,779,1200754,193.90000009536743,"<div style=""font-size:42px;"">BELLY</div>",32,,word,BELLY,,,,,,,,,,,,
html-keyboard-response,780,1202263,null,"",null,,word,BELLY,,,,,,,,,,,,
html-keyboard-response,781,1202469,null,"<div style=""font-size:42px;"">MASK</div><img id = ""stim"" ><div class = red_square id = bottomsquare></div>",null,encoding,word_square,,,0,bottomsquare,none,true,,,MASK,6,,,
html-keyboard-response,782,1202786,null,"<div style=""font-size:42px;"">MASK</div>",null,,word,MASK,,,,,,,,,,,,
html-keyboard-response,783,1204291,null,"",null,,word,MASK,,,,,,,,,,,,
html-keyboard-response,784,1204493,null,"<div style=""font-size:42px;"">ISLAND</div><img id = ""stim"" ><div class = red_square id = topsquare></div>",null,encoding,word_square,,,0,topsquare,none,true,,,ISLAND,6,,,
html-keyboard-response,785,1204809,null,"<div style=""font-size:42px;"">ISLAND</div>",null,,word,ISLAND,,,,,,,,,,,,
html-keyboard-response,786,1206315,null,"",null,,word,ISLAND,,,,,,,,,,,,
html-keyboard-response,787,1206521,null,"<div style=""font-size:42px;"">PRINCESS</div><img id = ""stim"" ><div class = green_square id = topsquare></div>",null,encoding,word_square,,,1,topsquare,32,true,,,PRINCESS,6,,,
html-keyboard-response,788,1206823,246.40000009536743,"<div style=""font-size:42px;"">PRINCESS</div>",32,,word,PRINCESS,,,,,,,,,,,,
html-keyboard-response,789,1208329,null,"",null,,word,PRINCESS,,,,,,,,,,,,
html-keyboard-response,790,1208534,null,"<div style=""font-size:42px;"">STREET</div><img id = ""stim"" ><div class = green_square id = bottomsquare></div>",null,encoding,word_square,,,1,bottomsquare,32,true,,,STREET,6,,,
html-keyboard-response,791,1208850,264.7999999523163,"<div style=""font-size:42px;"">STREET</div>",32,,word,STREET,,,,,,,,,,,,
html-keyboard-response,792,1210359,null,"",null,,word,STREET,,,,,,,,,,,,
call-function,793,1210361,,"",,,,,,,,,,,,,,,,
html-keyboard-response,794,1210463,null,"",null,,,,,,,,,,,,,,,
math-period,795,1212865,3801.300000190735,"",,,,,,,,,,,4,,,,,
html-keyboard-response,796,1212978,null,"",null,,,,,,,,,,,,,,,
math-period,797,1214289,2346.600000143051,"",,,,,,,,,,,3,,,,,
html-keyboard-response,798,1214399,null,"",null,,,,,,,,,,,,,,,
math-period,799,1215136,1351.3999998569489,"",,,,,,,,,,,3,,,,,
html-keyboard-response,800,1215246,null,"",null,,,,,,,,,,,,,,,
math-period,801,1216104,1584.8000001907349,"",,,,,,,,,,,4,,,,,
html-keyboard-response,802,1216220,null,"",null,,,,,,,,,,,,,,,
math-period,803,1217593,2581.399999856949,"",,,,,,,,,,,3,,,,,
html-keyboard-response,804,1217695,null,"",null,,,,,,,,,,,,,,,
math-period,805,1219137,2735.2999999523163,"",,,,,,,,,,,1,,,,,
html-keyboard-response,806,1219245,null,"",null,,,,,,,,,,,,,,,
math-period,807,1220641,2530.5999999046326,"",,,,,,,,,,,6,,,,,
html-keyboard-response,808,1220758,null,"",null,,,,,,,,,,,,,,,
math-period,809,1222185,2633.9000000953674,"",,,,,,,,,,,2,,,,,
html-keyboard-response,810,1222287,null,"",null,,,,,,,,,,,,,,,
math-period,811,1223465,2265,"",,,,,,,,,,,5,,,,,
html-keyboard-response,812,1223569,null,"",null,,,,,,,,,,,,,,,
math-period,813,1224577,1843.5,"",,,,,,,,,,,4,,,,,
html-keyboard-response,814,1224682,null,"",null,,,,,,,,,,,,,,,
math-period,815,1226057,2482.9999997615814,"",,,,,,,,,,,5,,,,,
html-keyboard-response,816,1226166,null,"",null,,,,,,,,,,,,,,,
math-period,817,1227441,2377.899999856949,"",,,,,,,,,,,4,,,,,
html-keyboard-response,818,1227544,null,"",null,,,,,,,,,,,,,,,
math-period,819,1229249,3239.800000190735,"",,,,,,,,,,,1,,,,,
html-keyboard-response,820,1229364,null,"",null,,,,,,,,,,,,,,,
math-period,821,1230769,2670.7000000476837,"",,,,,,,,,,,6,,,,,
html-keyboard-response,822,1230871,null,"",null,,,,,,,,,,,,,,,
math-period,823,1231696,1479.4000000953674,"",,,,,,,,,,,4,,,,,
html-keyboard-response,824,1231806,null,"",null,,,,,,,,,,,,,,,
math-period,825,1233400,3034.300000190735,"",,,,,,,,,,,3,,,,,
html-keyboard-response,826,1233517,null,"",null,,,,,,,,,,,,,,,
math-period,827,1234373,null,"",,,,,,,,,,,,,,,,
html-keyboard-response,828,1235387,null,"Recall Period!",null,,,,,,,,,,,,,,,
call-function,829,1235388,,"",,,,,,,,,,,,,,,,
html-keyboard-response,830,1235490,null,"",null,,,,,,,,,,,,,,,
recall-period,831,1237112,7212.799999475479,"",,,,,,,,,,,belly,,,,,
html-keyboard-response,832,1237215,null,"",null,,,,,,,,,,,,,,,
recall-period,833,1237905,1890.3999993801117,"",,,,,,,,,,,mask,,,,,
html-keyboard-response,834,1238017,null,"",null,,,,,,,,,,,,,,,
recall-period,835,1239313,5424.700000047684,"",,,,,,,,,,,island,,,,,
html-keyboard-response,836,1239415,null,"",null,,,,,,,,,,,,,,,
recall-period,837,1241321,7574.900000810623,"",,,,,,,,,,,princess,,,,,
html-keyboard-response,838,1241435,null,"",null,,,,,,,,,,,,,,,
recall-period,839,1242906,4451.799999237061,"",,,,,,,,,,,street,,,,,
html-keyboard-response,840,1243016,null,"",null,,,,,,,,,,,,,,,
recall-period,841,1249329,37852.300000190735,"",,,,,,,,,,,toilet,,,,,
html-keyboard-response,842,1249441,null,"",null,,,,,,,,,,,,,,,
recall-period,843,1250665,3586.5000002384186,"",,,,,,,,,,,bison,,,,,
html-keyboard-response,844,1250780,null,"",null,,,,,,,,,,,,,,,
recall-period,845,1251865,4899.999999284744,"",,,,,,,,,,,cattle,,,,,
html-keyboard-response,846,1251967,null,"",null,,,,,,,,,,,,,,,
recall-period,847,1253913,6975.400000333786,"",,,,,,,,,,,cabbage,,,,,
html-keyboard-response,848,1254025,null,"",null,,,,,,,,,,,,,,,
recall-period,849,1264752,49278.60000038147,"",,,,,,,,,,,hand,,,,,
html-keyboard-response,850,1264859,null,"",null,,,,,,,,,,,,,,,
recall-period,851,1310391,null,"",,,,,,,,,,,,,,,,
html-keyboard-response,852,1310897,null,"Time's Up!",null,,,,,,,,,,,,,,,
html-keyboard-response,853,1313639,2740.2000000476837,"<p> Good job! You have responded correctly to 94% of the trials. </p>
                      <p>Be sure to only press the spacebar if you see a GREEN square, and please keep your accuracy above 80%.</p>
                      <p> Press any key to continue the experiment. </p>",32,,,,,,,,,,,,,,,
html-keyboard-response,854,1314271,630.5,"<div style=""font-size:48px;"">Press any key to begin list 8 of 16 </div>",32,,,,,,,,,,,,,,,
html-keyboard-response,855,1316791,null,"<div style=""font-size:60px;"">+</div>",null,,,,,,,,,,,,,,,
html-keyboard-response,856,1316997,null,"<div style=""font-size:42px;"">STOMACH</div><img id = ""stim"" ><div class = green_square id = bottomsquare></div>",null,encoding,word_square,,,1,bottomsquare,32,true,,,STOMACH,7,,,
html-keyboard-response,857,1317311,209.09999990463257,"<div style=""font-size:42px;"">STOMACH</div>",32,,word,STOMACH,,,,,,,,,,,,
html-keyboard-response,858,1318820,null,"",null,,word,STOMACH,,,,,,,,,,,,
html-keyboard-response,859,1319026,null,"<div style=""font-size:42px;"">ULCER</div><img id = ""stim"" ><div class = green_square id = topsquare></div>",null,encoding,word_square,,,1,topsquare,32,true,,,ULCER,7,,,
html-keyboard-response,860,1319343,null,"<div style=""font-size:42px;"">ULCER</div>",null,,word,ULCER,,,,,,,,,,,,
html-keyboard-response,861,1320847,583.4000000953674,"",32,,word,ULCER,,,,,,,,,,,,
html-keyboard-response,862,1321053,null,"<div style=""font-size:42px;"">EUROPE</div><img id = ""stim"" ><div class = red_square id = topsquare></div>",null,encoding,word_square,,,0,topsquare,none,true,,,EUROPE,7,,,
html-keyboard-response,863,1321369,null,"<div style=""font-size:42px;"">EUROPE</div>",null,,word,EUROPE,,,,,,,,,,,,
html-keyboard-response,864,1322877,null,"",null,,word,EUROPE,,,,,,,,,,,,
html-keyboard-response,865,1323082,null,"<div style=""font-size:42px;"">GRAVE</div><img id = ""stim"" ><div class = red_square id = bottomsquare></div>",null,encoding,word_square,,,0,bottomsquare,none,true,,,GRAVE,7,,,
html-keyboard-response,866,1323397,null,"<div style=""font-size:42px;"">GRAVE</div>",null,,word,GRAVE,,,,,,,,,,,,
html-keyboard-response,867,1324916,null,"",null,,word,GRAVE,,,,,,,,,,,,
html-keyboard-response,868,1325120,null,"<div style=""font-size:42px;"">TOMBSTONE</div><img id = ""stim"" ><div class = green_square id = bottomsquare></div>",null,encoding,word_square,,,1,bottomsquare,32,true,,,TOMBSTONE,7,,,
html-keyboard-response,869,1325434,null,"<div style=""font-size:42px;"">TOMBSTONE</div>",null,,word,TOMBSTONE,,,,,,,,,,,,
html-keyboard-response,870,1326938,316.7999999523163,"",32,,word,TOMBSTONE,,,,,,,,,,,,
html-keyboard-response,871,1327144,null,"<div style=""font-size:42px;"">TRUCK</div><img id = ""stim"" ><div class = green_square id = topsquare></div>",null,encoding,word_square,,,1,topsquare,32,true,,,TRUCK,7,,,
html-keyboard-response,872,1327459,null,"<div style=""font-size:42px;"">TRUCK</div>",null,,word,TRUCK,,,,,,,,,,,,
html-keyboard-response,873,1328967,235.79999995231628,"",32,,word,TRUCK,,,,,,,,,,,,
html-keyboard-response,874,1329171,null,"<div style=""font-size:42px;"">EYELASH</div><img id = ""stim"" ><div class = red_square id = topsquare></div>",null,encoding,word_square,,,0,topsquare,none,true,,,EYELASH,7,,,
html-keyboard-response,875,1329486,null,"<div style=""font-size:42px;"">EYELASH</div>",null,,word,EYELASH,,,,,,,,,,,,
html-keyboard-response,876,1330990,null,"",null,,word,EYELASH,,,,,,,,,,,,
html-keyboard-response,877,1331196,null,"<div style=""font-size:42px;"">FROG</div><img id = ""stim"" ><div class = green_square id = bottomsquare></div>",null,encoding,word_square,,,1,bottomsquare,32,false,,,FROG,7,,,
html-keyboard-response,878,1331512,null,"<div style=""font-size:42px;"">FROG</div>",null,,word,FROG,,,,,,,,,,,,
html-keyboard-response,879,1333018,null,"",null,,word,FROG,,,,,,,,,,,,
html-keyboard-response,880,1333224,null,"<div style=""font-size:42px;"">OX</div><img id = ""stim"" ><div class = red_square id = bottomsquare></div>",null,encoding,word_square,,,0,bottomsquare,none,true,,,OX,7,,,
html-keyboard-response,881,1333542,null,"<div style=""font-size:42px;"">OX</div>",null,,word,OX,,,,,,,,,,,,
html-keyboard-response,882,1335050,null,"",null,,word,OX,,,,,,,,,,,,
html-keyboard-response,883,1335255,null,"<div style=""font-size:42px;"">CAFE</div><img id = ""stim"" ><div class = red_square id = topsquare></div>",null,encoding,word_square,,,0,topsquare,none,true,,,CAFE,7,,,
html-keyboard-response,884,1335557,null,"<div style=""font-size:42px;"">CAFE</div>",null,,word,CAFE,,,,,,,,,,,,
html-keyboard-response,885,1337069,null,"",null,,word,CAFE,,,,,,,,,,,,
html-keyboard-response,886,1337274,null,"<div style=""font-size:42px;"">BRANDY</div><img id = ""stim"" ><div class = green_square id = topsquare></div>",null,encoding,word_square,,,1,topsquare,32,true,,,BRANDY,7,,,
html-keyboard-response,887,1337592,null,"<div style=""font-size:42px;"">BRANDY</div>",null,,word,BRANDY,,,,,,,,,,,,
html-keyboard-response,888,1339098,326.5,"",32,,word,BRANDY,,,,,,,,,,,,
html-keyboard-response,889,1339306,null,"<div style=""font-size:42px;"">BEETLE</div><img id = ""stim"" ><div class = red_square id = bottomsquare></div>",null,encoding,word_square,,,0,bottomsquare,none,true,,,BEETLE,7,,,
html-keyboard-response,890,1339622,null,"<div style=""font-size:42px;"">BEETLE</div>",null,,word,BEETLE,,,,,,,,,,,,
html-keyboard-response,891,1341124,null,"",null,,word,BEETLE,,,,,,,,,,,,
html-keyboard-response,892,1341329,null,"<div style=""font-size:42px;"">FLASK</div><img id = ""stim"" ><div class = green_square id = bottomsquare></div>",null,encoding,word_square,,,1,bottomsquare,32,true,,,FLASK,7,,,
html-keyboard-response,893,1341645,285.60000014305115,"<div style=""font-size:42px;"">FLASK</div>",32,,word,FLASK,,,,,,,,,,,,
html-keyboard-response,894,1343151,null,"",null,,word,FLASK,,,,,,,,,,,,
html-keyboard-response,895,1343356,null,"<div style=""font-size:42px;"">BROOK</div><img id = ""stim"" ><div class = green_square id = topsquare></div>",null,encoding,word_square,,,1,topsquare,32,true,,,BROOK,7,,,
html-keyboard-response,896,1343673,null,"<div style=""font-size:42px;"">BROOK</div>",null,,word,BROOK,,,,,,,,,,,,
html-keyboard-response,897,1345179,212.79999995231628,"",32,,word,BROOK,,,,,,,,,,,,
html-keyboard-response,898,1345386,null,"<div style=""font-size:42px;"">COLESLAW</div><img id = ""stim"" ><div class = red_square id = topsquare></div>",null,encoding,word_square,,,0,topsquare,none,true,,,COLESLAW,7,,,
html-keyboard-response,899,1345703,null,"<div style=""font-size:42px;"">COLESLAW</div>",null,,word,COLESLAW,,,,,,,,,,,,
html-keyboard-response,900,1347208,null,"",null,,word,COLESLAW,,,,,,,,,,,,
html-keyboard-response,901,1347412,null,"<div style=""font-size:42px;"">COUNTRY</div><img id = ""stim"" ><div class = red_square id = bottomsquare></div>",null,encoding,word_square,,,0,bottomsquare,none,true,,,COUNTRY,7,,,
html-keyboard-response,902,1347715,null,"<div style=""font-size:42px;"">COUNTRY</div>",null,,word,COUNTRY,,,,,,,,,,,,
html-keyboard-response,903,1349225,null,"",null,,word,COUNTRY,,,,,,,,,,,,
call-function,904,1349227,,"",,,,,,,,,,,,,,,,
html-keyboard-response,905,1349334,null,"",null,,,,,,,,,,,,,,,
math-period,906,1351593,3794.2000000476837,"",,,,,,,,,,,2,,,,,
html-keyboard-response,907,1351707,null,"",null,,,,,,,,,,,,,,,
math-period,908,1353439,3342.5,"",,,,,,,,,,,1,,,,,
html-keyboard-response,909,1353549,null,"",null,,,,,,,,,,,,,,,
math-period,910,1355464,3211.5000002384186,"",,,,,,,,,,,4,,,,,
html-keyboard-response,911,1355572,null,"",null,,,,,,,,,,,,,,,
math-period,912,1357121,2941.5,"",,,,,,,,,,,4,,,,,
html-keyboard-response,913,1357234,null,"",null,,,,,,,,,,,,,,,
math-period,914,1358456,2320.7999999523163,"",,,,,,,,,,,1,,,,,
html-keyboard-response,915,1358561,null,"",null,,,,,,,,,,,,,,,
math-period,916,1359720,2220.2000000476837,"",,,,,,,,,,,1,,,,,
html-keyboard-response,917,1359829,null,"",null,,,,,,,,,,,,,,,
math-period,918,1361425,3011.1000003814697,"",,,,,,,,,,,5,,,,,
html-keyboard-response,919,1361529,null,"",null,,,,,,,,,,,,,,,
math-period,920,1362591,2050.399999856949,"",,,,,,,,,,,4,,,,,
html-keyboard-response,921,1362700,null,"",null,,,,,,,,,,,,,,,
math-period,922,1363712,1732.5999999046326,"",,,,,,,,,,,3,,,,,
html-keyboard-response,923,1363827,null,"",null,,,,,,,,,,,,,,,
math-period,924,1364920,2038.3999998569489,"",,,,,,,,,,,2,,,,,
html-keyboard-response,925,1365028,null,"",null,,,,,,,,,,,,,,,
math-period,926,1366256,2333.100000143051,"",,,,,,,,,,,4,,,,,
html-keyboard-response,927,1366369,null,"",null,,,,,,,,,,,,,,,
math-period,928,1368176,3514.0999999046326,"",,,,,,,,,,,3,,,,,
html-keyboard-response,929,1368279,null,"",null,,,,,,,,,,,,,,,
math-period,930,1369056,1416.1999998092651,"",,,,,,,,,,,3,,,,,
html-keyboard-response,931,1369162,null,"",null,,,,,,,,,,,,,,,
math-period,932,1370824,3104.100000143051,"",,,,,,,,,,,4,,,,,
html-keyboard-response,933,1370934,null,"",null,,,,,,,,,,,,,,,
math-period,934,1372376,2736.800000190735,"",,,,,,,,,,,6,,,,,
html-keyboard-response,935,1372482,null,"",null,,,,,,,,,,,,,,,
math-period,936,1373237,null,"",,,,,,,,,,,,,,,,
html-keyboard-response,937,1374252,null,"Recall Period!",null,,,,,,,,,,,,,,,
call-function,938,1374253,,"",,,,,,,,,,,,,,,,
html-keyboard-response,939,1374361,null,"",null,,,,,,,,,,,,,,,
recall-period,940,1376833,14818.299999713898,"",,,,,,,,,,,brandy,,,,,
html-keyboard-response,941,1376937,null,"",null,,,,,,,,,,,,,,,
recall-period,942,1378497,5541.60000038147,"",,,,,,,,,,,flask,,,,,
html-keyboard-response,943,1378607,null,"",null,,,,,,,,,,,,,,,
recall-period,944,1380280,10304.999999284744,"",,,,,,,,,,,beetle,,,,,
