trial_type,trial_index,time_elapsed,rt,stimulus,key_press,exp_phase,test_part,word,task,targ_cond,sq_pos,correctKeyCode,correct,value,response,Word,List,RecResp,serial_pos,colorChosen
pavlovia,0,4010,,"",,,,,,,,,,,,,,,,
external-html,1,8100,3818,"",,,,,,,,,,,,,,,,
html-keyboard-response,2,10228,2122,"Welcome to the experiment. Press any key to begin.",13,,,,,,,,,,,,,,,
html-keyboard-response,3,16635,6401,"<p>You will see a list of words and colored squares in the following task.<p><p>Press the spacebar whenever you see a GREEN square.<p><p>Do not press a key if the square is RED.<p><p>Press the spacebar to continue.</p>",32,,,,,,,,,,,,,,,
html-keyboard-response,4,24147,6997,"<p>Please try to remember as many of the words as you can, and try to think about the meaning of each word as it appears.<p><p>After the detection and encoding task you will be asked to solve some math problems for 24 seconds.<p> Please solve as many problems as you can in the time given. <p><p><p>Press the spacebar to continue.</p>",32,,,,,,,,,,,,,,,
html-keyboard-response,5,29999,5340,"After solving the math problems, you will be asked to type in as many words <p>from the previous list as you can remember for 75 seconds.<p> If you finish recalling before the 75 seconds are up,<p> just sit tight and try to think of any more words you could have missed. <p><p><p>Press the spacebar to continue.</p>",32,,,,,,,,,,,,,,,
html-keyboard-response,6,35454,4950,"There will be 16 lists of words and recall, followed  by<p><p> a recognition phase. The experiment is expected to take up to 90 minutes.<p>We will begin with a brief practice session.<p>Press the spacebar to begin the practice.</p>",32,,,,,,,,,,,,,,,
html-keyboard-response,7,37976,null,"<div style=""font-size:60px;"">+</div>",null,,,,,,,,,,,,,,,
html-keyboard-response,8,38190,null,"<div style=""font-size:42px;"">HAPPY</div><img id = ""stim"" ><div class = red_square id = ""bottomsquare"" ></div>",null,practice,word_square,HAPPY,prac_response,0,Bottom,none,true,,,,,,,
html-keyboard-response,9,38508,null,"<div style=""font-size:42px;"">HAPPY</div>",null,,word,HAPPY,,,,,,,,,,,,
html-keyboard-response,10,40019,null,"",null,,word,HAPPY,,,,,,,,,,,,
html-keyboard-response,11,40238,null,"<div style=""font-size:42px;"">COLD</div><img id = ""stim"" ><div class = green_square id = ""bottomsquare"" ></div>",null,practice,word_square,COLD,prac_response,1,Bottom,32,true,,,,,,,
html-keyboard-response,12,40550,220,"<div style=""font-size:42px;"">COLD</div>",32,,word,COLD,,,,,,,,,,,,
html-keyboard-response,13,42061,null,"",null,,word,COLD,,,,,,,,,,,,
html-keyboard-response,14,42264,null,"<div style=""font-size:42px;"">HEAVY</div><img id = ""stim"" ><div class = green_square id = ""topsquare"" ></div>",null,practice,word_square,HEAVY,prac_response,1,Top,32,true,,,,,,,
html-keyboard-response,15,42577,null,"<div style=""font-size:42px;"">HEAVY</div>",null,,word,HEAVY,,,,,,,,,,,,
html-keyboard-response,16,44088,26,"",32,,word,HEAVY,,,,,,,,,,,,
html-keyboard-response,17,44293,null,"<div style=""font-size:42px;"">FUNNY</div><img id = ""stim"" ><div class = red_square id = ""topsquare"" ></div>",null,practice,word_square,FUNNY,prac_response,0,Top,none,false,,,,,,,
html-keyboard-response,18,44605,187,"<div style=""font-size:42px;"">FUNNY</div>",32,,word,FUNNY,,,,,,,,,,,,
html-keyboard-response,19,46116,null,"",null,,word,FUNNY,,,,,,,,,,,,
html-keyboard-response,20,46320,null,"<div style=""font-size:42px;"">SCARY</div><img id = ""stim"" ><div class = green_square id = ""bottomsquare"" ></div>",null,practice,word_square,SCARY,prac_response,1,Bottom,32,true,,,,,,,
html-keyboard-response,21,46633,291,"<div style=""font-size:42px;"">SCARY</div>",32,,word,SCARY,,,,,,,,,,,,
html-keyboard-response,22,48144,null,"",null,,word,SCARY,,,,,,,,,,,,
html-keyboard-response,23,48364,null,"<div style=""font-size:42px;"">PEACEFUL</div><img id = ""stim"" ><div class = green_square id = ""topsquare"" ></div>",null,practice,word_square,PEACEFUL,prac_response,1,Top,32,true,,,,,,,
html-keyboard-response,24,48674,229,"<div style=""font-size:42px;"">PEACEFUL</div>",32,,word,PEACEFUL,,,,,,,,,,,,
html-keyboard-response,25,50191,null,"",null,,word,PEACEFUL,,,,,,,,,,,,
html-keyboard-response,26,50408,null,"<div style=""font-size:42px;"">LITTLE</div><img id = ""stim"" ><div class = red_square id = ""bottomsquare"" ></div>",null,practice,word_square,LITTLE,prac_response,0,Bottom,none,true,,,,,,,
html-keyboard-response,27,50722,null,"<div style=""font-size:42px;"">LITTLE</div>",null,,word,LITTLE,,,,,,,,,,,,
html-keyboard-response,28,52235,null,"",null,,word,LITTLE,,,,,,,,,,,,
html-keyboard-response,29,52440,null,"<div style=""font-size:42px;"">TIRED</div><img id = ""stim"" ><div class = red_square id = ""topsquare"" ></div>",null,practice,word_square,TIRED,prac_response,0,Top,none,true,,,,,,,
html-keyboard-response,30,52750,null,"<div style=""font-size:42px;"">TIRED</div>",null,,word,TIRED,,,,,,,,,,,,
html-keyboard-response,31,54261,null,"",null,,word,TIRED,,,,,,,,,,,,
html-keyboard-response,32,54464,null,"<div style=""font-size:42px;"">ENTERTAINING</div><img id = ""stim"" ><div class = red_square id = ""bottomsquare"" ></div>",null,practice,word_square,ENTERTAINING,prac_response,0,Bottom,none,true,,,,,,,
html-keyboard-response,33,54779,null,"<div style=""font-size:42px;"">ENTERTAINING</div>",null,,word,ENTERTAINING,,,,,,,,,,,,
html-keyboard-response,34,56293,null,"",null,,word,ENTERTAINING,,,,,,,,,,,,
html-keyboard-response,35,56498,null,"<div style=""font-size:42px;"">GRATEFUL</div><img id = ""stim"" ><div class = green_square id = ""bottomsquare"" ></div>",null,practice,word_square,GRATEFUL,prac_response,1,Bottom,32,true,,,,,,,
html-keyboard-response,36,56813,288,"<div style=""font-size:42px;"">GRATEFUL</div>",32,,word,GRATEFUL,,,,,,,,,,,,
html-keyboard-response,37,58323,null,"",null,,word,GRATEFUL,,,,,,,,,,,,
html-keyboard-response,38,58541,null,"<div style=""font-size:42px;"">LOUD</div><img id = ""stim"" ><div class = red_square id = ""topsquare"" ></div>",null,practice,word_square,LOUD,prac_response,0,Top,none,true,,,,,,,
html-keyboard-response,39,58857,null,"<div style=""font-size:42px;"">LOUD</div>",null,,word,LOUD,,,,,,,,,,,,
html-keyboard-response,40,60366,null,"",null,,word,LOUD,,,,,,,,,,,,
html-keyboard-response,41,60569,null,"<div style=""font-size:42px;"">SMART</div><img id = ""stim"" ><div class = green_square id = ""topsquare"" ></div>",null,practice,word_square,SMART,prac_response,1,Top,32,true,,,,,,,
html-keyboard-response,42,60876,266,"<div style=""font-size:42px;"">SMART</div>",32,,word,SMART,,,,,,,,,,,,
html-keyboard-response,43,62378,null,"",null,,word,SMART,,,,,,,,,,,,
html-keyboard-response,44,62593,null,"<div style=""font-size:42px;"">SMOOTH</div><img id = ""stim"" ><div class = green_square id = ""bottomsquare"" ></div>",null,practice,word_square,SMOOTH,prac_response,1,Bottom,32,true,,,,,,,
html-keyboard-response,45,62905,null,"<div style=""font-size:42px;"">SMOOTH</div>",null,,word,SMOOTH,,,,,,,,,,,,
html-keyboard-response,46,64419,80,"",32,,word,SMOOTH,,,,,,,,,,,,
html-keyboard-response,47,64636,null,"<div style=""font-size:42px;"">DISHONEST</div><img id = ""stim"" ><div class = red_square id = ""bottomsquare"" ></div>",null,practice,word_square,DISHONEST,prac_response,0,Bottom,none,true,,,,,,,
html-keyboard-response,48,64951,null,"<div style=""font-size:42px;"">DISHONEST</div>",null,,word,DISHONEST,,,,,,,,,,,,
html-keyboard-response,49,66464,null,"",null,,word,DISHONEST,,,,,,,,,,,,
html-keyboard-response,50,66669,null,"<div style=""font-size:42px;"">WEALTHY</div><img id = ""stim"" ><div class = green_square id = ""topsquare"" ></div>",null,practice,word_square,WEALTHY,prac_response,1,Top,32,true,,,,,,,
html-keyboard-response,51,66983,230,"<div style=""font-size:42px;"">WEALTHY</div>",32,,word,WEALTHY,,,,,,,,,,,,
html-keyboard-response,52,68491,null,"",null,,word,WEALTHY,,,,,,,,,,,,
html-keyboard-response,53,68698,null,"<div style=""font-size:42px;"">BEAUTIFUL</div><img id = ""stim"" ><div class = red_square id = ""topsquare"" ></div>",null,practice,word_square,BEAUTIFUL,prac_response,0,Top,none,true,,,,,,,
html-keyboard-response,54,69007,null,"<div style=""font-size:42px;"">BEAUTIFUL</div>",null,,word,BEAUTIFUL,,,,,,,,,,,,
html-keyboard-response,55,70508,null,"",null,,word,BEAUTIFUL,,,,,,,,,,,,
html-keyboard-response,56,74891,4381,"<p> Good job! You responded correctly to 94% of the trials. </p>
                  <p>Be sure to only press the spacebar if you see a GREEN square, and please keep your accuracy above 80%.</p>
                  <p>We're going to try once more to make sure you understand the task. press any key to continue. </p>",32,,,,,,,,,,,,,,,
html-keyboard-response,57,77362,2470,"<p>You will see a list of words and colored squares in the following task.<p><p>Press the spacebar whenever you see a GREEN square.<p><p>Do not press a key if the square is RED<p><p>Press the spacebar to continue.</p>",32,,,,,,,,,,,,,,,
html-keyboard-response,58,79874,null,"<div style=""font-size:60px;"">+</div>",null,,,,,,,,,,,,,,,
html-keyboard-response,59,80091,null,"<div style=""font-size:42px;"">HAPPY</div><img id = ""stim"" ><div class = red_square id = ""bottomsquare"" ></div>",null,practice2,word_square,HAPPY,prac_response,0,Bottom,none,true,,,,,,,
html-keyboard-response,60,80392,null,"<div style=""font-size:42px;"">HAPPY</div>",null,,word,HAPPY,,,,,,,,,,,,
html-keyboard-response,61,81907,null,"",null,,word,HAPPY,,,,,,,,,,,,
html-keyboard-response,62,82124,null,"<div style=""font-size:42px;"">COLD</div><img id = ""stim"" ><div class = green_square id = ""bottomsquare"" ></div>",null,practice2,word_square,,prac_response,1,Bottom,32,true,,,,,,,
html-keyboard-response,63,82437,294,"<div style=""font-size:42px;"">COLD</div>",32,,word,COLD,,,,,,,,,,,,
html-keyboard-response,64,83942,null,"",null,,word,COLD,,,,,,,,,,,,
html-keyboard-response,65,84144,null,"<div style=""font-size:42px;"">HEAVY</div><img id = ""stim"" ><div class = green_square id = ""topsquare"" ></div>",null,practice2,word_square,,prac_response,1,Top,32,true,,,,,,,
html-keyboard-response,66,84456,210,"<div style=""font-size:42px;"">HEAVY</div>",32,,word,HEAVY,,,,,,,,,,,,
html-keyboard-response,67,85959,null,"",null,,word,HEAVY,,,,,,,,,,,,
html-keyboard-response,68,86163,null,"<div style=""font-size:42px;"">FUNNY</div><img id = ""stim"" ><div class = red_square id = ""topsquare"" ></div>",null,practice2,word_square,,prac_response,0,Top,none,true,,,,,,,
html-keyboard-response,69,86479,null,"<div style=""font-size:42px;"">FUNNY</div>",null,,word,FUNNY,,,,,,,,,,,,
html-keyboard-response,70,87992,null,"",null,,word,FUNNY,,,,,,,,,,,,
html-keyboard-response,71,88196,null,"<div style=""font-size:42px;"">SCARY</div><img id = ""stim"" ><div class = green_square id = ""bottomsquare"" ></div>",null,practice2,word_square,,prac_response,1,Bottom,32,true,,,,,,,
html-keyboard-response,72,88509,160,"<div style=""font-size:42px;"">SCARY</div>",32,,word,SCARY,,,,,,,,,,,,
html-keyboard-response,73,90024,null,"",null,,word,SCARY,,,,,,,,,,,,
html-keyboard-response,74,90241,null,"<div style=""font-size:42px;"">PEACEFUL</div><img id = ""stim"" ><div class = green_square id = ""topsquare"" ></div>",null,practice2,word_square,,prac_response,1,Top,32,true,,,,,,,
html-keyboard-response,75,90553,null,"<div style=""font-size:42px;"">PEACEFUL</div>",null,,word,PEACEFUL,,,,,,,,,,,,
html-keyboard-response,76,92069,70,"",32,,word,PEACEFUL,,,,,,,,,,,,
html-keyboard-response,77,92272,null,"<div style=""font-size:42px;"">LITTLE</div><img id = ""stim"" ><div class = red_square id = ""bottomsquare"" ></div>",null,practice2,word_square,LITTLE,prac_response,0,Bottom,none,true,,,,,,,
html-keyboard-response,78,92587,null,"<div style=""font-size:42px;"">LITTLE</div>",null,,word,LITTLE,,,,,,,,,,,,
html-keyboard-response,79,94101,null,"",null,,word,LITTLE,,,,,,,,,,,,
html-keyboard-response,80,94318,null,"<div style=""font-size:42px;"">TIRED</div><img id = ""stim"" ><div class = red_square id = ""topsquare"" ></div>",null,practice2,word_square,,prac_response,0,Top,none,true,,,,,,,
html-keyboard-response,81,94634,null,"<div style=""font-size:42px;"">TIRED</div>",null,,word,TIRED,,,,,,,,,,,,
html-keyboard-response,82,96152,null,"",null,,word,TIRED,,,,,,,,,,,,
html-keyboard-response,83,96368,null,"<div style=""font-size:42px;"">ENTERTAINING</div><img id = ""stim"" ><div class = red_square id = ""bottomsquare"" ></div>",null,practice2,word_square,ENTERTAINING,prac_response,0,Bottom,none,true,,,,,,,
html-keyboard-response,84,96684,null,"<div style=""font-size:42px;"">ENTERTAINING</div>",null,,word,ENTERTAINING,,,,,,,,,,,,
html-keyboard-response,85,98190,null,"",null,,word,ENTERTAINING,,,,,,,,,,,,
html-keyboard-response,86,98393,null,"<div style=""font-size:42px;"">GRATEFUL</div><img id = ""stim"" ><div class = green_square id = ""bottomsquare"" ></div>",null,practice2,word_square,,prac_response,1,Bottom,32,true,,,,,,,
html-keyboard-response,87,98708,225,"<div style=""font-size:42px;"">GRATEFUL</div>",32,,word,GRATEFUL,,,,,,,,,,,,
html-keyboard-response,88,100222,null,"",null,,word,GRATEFUL,,,,,,,,,,,,
html-keyboard-response,89,100424,null,"<div style=""font-size:42px;"">LOUD</div><img id = ""stim"" ><div class = red_square id = ""topsquare"" ></div>",null,practice2,word_square,,prac_response,0,Top,none,true,,,,,,,
html-keyboard-response,90,100737,null,"<div style=""font-size:42px;"">LOUD</div>",null,,word,LOUD,,,,,,,,,,,,
html-keyboard-response,91,102256,null,"",null,,word,LOUD,,,,,,,,,,,,
html-keyboard-response,92,102460,null,"<div style=""font-size:42px;"">SMART</div><img id = ""stim"" ><div class = green_square id = ""topsquare"" ></div>",null,practice2,word_square,,prac_response,1,Top,32,true,,,,,,,
html-keyboard-response,93,102776,280,"<div style=""font-size:42px;"">SMART</div>",32,,word,SMART,,,,,,,,,,,,
html-keyboard-response,94,104289,null,"",null,,word,SMART,,,,,,,,,,,,
html-keyboard-response,95,104495,null,"<div style=""font-size:42px;"">SMOOTH</div><img id = ""stim"" ><div class = green_square id = ""bottomsquare"" ></div>",null,practice2,word_square,,prac_response,1,Bottom,32,true,,,,,,,
html-keyboard-response,96,104804,null,"<div style=""font-size:42px;"">SMOOTH</div>",null,,word,SMOOTH,,,,,,,,,,,,
html-keyboard-response,97,106318,22,"",32,,word,SMOOTH,,,,,,,,,,,,
html-keyboard-response,98,106521,null,"<div style=""font-size:42px;"">DISHONEST</div><img id = ""stim"" ><div class = red_square id = ""bottomsquare"" ></div>",null,practice2,word_square,DISHONEST,prac_response,0,Bottom,none,true,,,,,,,
html-keyboard-response,99,106835,null,"<div style=""font-size:42px;"">DISHONEST</div>",null,,word,DISHONEST,,,,,,,,,,,,
html-keyboard-response,100,108348,null,"",null,,word,DISHONEST,,,,,,,,,,,,
html-keyboard-response,101,108564,null,"<div style=""font-size:42px;"">WEALTHY</div><img id = ""stim"" ><div class = green_square id = ""topsquare"" ></div>",null,practice2,word_square,,prac_response,1,Top,32,true,,,,,,,
html-keyboard-response,102,108873,174,"<div style=""font-size:42px;"">WEALTHY</div>",32,,word,WEALTHY,,,,,,,,,,,,
html-keyboard-response,103,110378,null,"",null,,word,WEALTHY,,,,,,,,,,,,
html-keyboard-response,104,110582,null,"<div style=""font-size:42px;"">BEAUTIFUL</div><img id = ""stim"" ><div class = red_square id = ""topsquare"" ></div>",null,practice2,word_square,,prac_response,0,Top,none,false,,,,,,,
html-keyboard-response,105,110896,null,"<div style=""font-size:42px;"">BEAUTIFUL</div>",null,,word,BEAUTIFUL,,,,,,,,,,,,
html-keyboard-response,106,112408,null,"",null,,word,BEAUTIFUL,,,,,,,,,,,,
html-keyboard-response,107,114843,2432,"<p> Good job! You responded correctly to 100% of the trials. </p>
                    <p>Be sure to only press the spacebar if you see a GREEN square, and please keep your accuracy above 80%.</p>
                    <p>Press any key to begin the math and recall sections. Thank you! </p>",32,,,,,,,,,,,,,,,
call-function,108,114845,,"",,,,,,,,,,,,,,,,
html-keyboard-response,109,114954,null,"",null,,,,,,,,,,,,,,,
math-period,110,117546,4968,"",,,,,,,,,,,2numpad,,,,,
html-keyboard-response,111,117651,null,"",null,,,,,,,,,,,,,,,
math-period,112,120050,4483,"",,,,,,,,,,,4numpad,,,,,
html-keyboard-response,113,120166,null,"",null,,,,,,,,,,,,,,,
math-period,114,123098,5553,"",,,,,,,,,,,2numpad,,,,,
html-keyboard-response,115,123215,null,"",null,,,,,,,,,,,,,,,
math-period,116,125842,4972,"",,,,,,,,,,,2numpad,,,,,
html-keyboard-response,117,125954,null,"",null,,,,,,,,,,,,,,,
math-period,118,128719,5192,"",,,,,,,,,,,3numpad,,,,,
html-keyboard-response,119,128822,null,"",null,,,,,,,,,,,,,,,
math-period,120,131345,4743,"",,,,,,,,,,,4numpad,,,,,
html-keyboard-response,121,131459,null,"",null,,,,,,,,,,,,,,,
math-period,122,132770,2317,"",,,,,,,,,,,4numpad,,,,,
html-keyboard-response,123,132886,null,"",null,,,,,,,,,,,,,,,
math-period,124,134746,3446,"",,,,,,,,,,,4numpad,,,,,
html-keyboard-response,125,134849,null,"",null,,,,,,,,,,,,,,,
math-period,126,136234,2443,"",,,,,,,,,,,3numpad,,,,,
html-keyboard-response,127,136347,null,"",null,,,,,,,,,,,,,,,
math-period,128,138269,3586,"",,,,,,,,,,,0numpad,,,,,
html-keyboard-response,129,138379,null,"",null,,,,,,,,,,,,,,,
math-period,130,138846,null,"",,,,,,,,,,,,,,,,
html-keyboard-response,131,139850,null,"Recall Period!",null,,,,,,,,,,,,,,,
call-function,132,139851,,"",,,,,,,,,,,,,,,,
html-keyboard-response,133,139960,null,"",null,,,,,,,,,,,,,,,
recall-period,134,144050,4088,"",,,,,,,,,,,,,,,,
html-keyboard-response,135,144156,null,"",null,,,,,,,,,,,,,,,
recall-period,136,150242,44196,"",,,,,,,,,,,beautiful,,,,,
html-keyboard-response,137,150354,null,"",null,,,,,,,,,,,,,,,
recall-period,138,152370,9655,"",,,,,,,,,,,smart,,,,,
html-keyboard-response,139,152486,null,"",null,,,,,,,,,,,,,,,
recall-period,140,155010,22358,"",,,,,,,,,,,entertaining,,,,,
html-keyboard-response,141,155126,null,"",null,,,,,,,,,,,,,,,
recall-period,142,157602,15235,"",,,,,,,,,,,wealthy,,,,,
html-keyboard-response,143,157712,null,"",null,,,,,,,,,,,,,,,
recall-period,144,162738,27333,"",,,,,,,,,,,smile,,,,,
html-keyboard-response,145,162844,null,"",null,,,,,,,,,,,,,,,
recall-period,146,176291,113885,"",,,,,,,,,,,powerful,,,,,
html-keyboard-response,147,176402,null,"",null,,,,,,,,,,,,,,,
recall-period,148,182153,32194,"",,,,,,,,,,,happy,,,,,
html-keyboard-response,149,182270,null,"",null,,,,,,,,,,,,,,,
recall-period,150,183514,4020,"",,,,,,,,,,,sad,,,,,
html-keyboard-response,151,183626,null,"",null,,,,,,,,,,,,,,,
recall-period,152,196882,112671,"",,,,,,,,,,,powerful,,,,,
html-keyboard-response,153,196996,null,"",null,,,,,,,,,,,,,,,
recall-period,154,214864,null,"",,,,,,,,,,,,,,,,
html-keyboard-response,155,215379,null,"Time's Up!",null,,,,,,,,,,,,,,,
html-keyboard-response,156,391290,175909,"<p>We will now begin the experiment!<p><p>Please try to remember all words from each list.<p><p>Press the spacebar whenever you see a GREEN square.<p><p><p><p>Press the spacebar to begin.</p>",32,,,,,,,,,,,,,,,
html-keyboard-response,157,393835,2022,"<div style=""font-size:48px;"">Press any key to begin list 1 of 16 </div>",32,,,,,,,,,,,,,,,
html-keyboard-response,158,396354,null,"<div style=""font-size:60px;"">+</div>",null,,,,,,,,,,,,,,,
html-keyboard-response,159,396559,null,"<div style=""font-size:42px;"">SKETCH</div><img id = ""stim"" ><div class = green_square id = topsquare></div>",null,encoding,word_square,,,1,topsquare,32,true,,,SKETCH,0,,,
html-keyboard-response,160,396873,306,"<div style=""font-size:42px;"">SKETCH</div>",32,,word,SKETCH,,,,,,,,,,,,
html-keyboard-response,161,398385,null,"",null,,word,SKETCH,,,,,,,,,,,,
html-keyboard-response,162,398593,null,"<div style=""font-size:42px;"">SCALLOP</div><img id = ""stim"" ><div class = red_square id = bottomsquare></div>",null,encoding,word_square,,,0,bottomsquare,none,true,,,SCALLOP,0,,,
html-keyboard-response,163,398903,null,"<div style=""font-size:42px;"">SCALLOP</div>",null,,word,SCALLOP,,,,,,,,,,,,
html-keyboard-response,164,400410,null,"",null,,word,SCALLOP,,,,,,,,,,,,
html-keyboard-response,165,400616,null,"<div style=""font-size:42px;"">COD</div><img id = ""stim"" ><div class = red_square id = topsquare></div>",null,encoding,word_square,,,0,topsquare,none,true,,,COD,0,,,
html-keyboard-response,166,400933,null,"<div style=""font-size:42px;"">COD</div>",null,,word,COD,,,,,,,,,,,,
html-keyboard-response,167,402446,null,"",null,,word,COD,,,,,,,,,,,,
html-keyboard-response,168,402663,null,"<div style=""font-size:42px;"">DRESS</div><img id = ""stim"" ><div class = green_square id = bottomsquare></div>",null,encoding,word_square,,,1,bottomsquare,32,true,,,DRESS,0,,,
html-keyboard-response,169,402975,223,"<div style=""font-size:42px;"">DRESS</div>",32,,word,DRESS,,,,,,,,,,,,
html-keyboard-response,170,404480,null,"",null,,word,DRESS,,,,,,,,,,,,
html-keyboard-response,171,404686,null,"<div style=""font-size:42px;"">SILK</div><img id = ""stim"" ><div class = red_square id = bottomsquare></div>",null,encoding,word_square,,,0,bottomsquare,none,true,,,SILK,0,,,
html-keyboard-response,172,404998,null,"<div style=""font-size:42px;"">SILK</div>",null,,word,SILK,,,,,,,,,,,,
html-keyboard-response,173,406511,null,"",null,,word,SILK,,,,,,,,,,,,
html-keyboard-response,174,406730,null,"<div style=""font-size:42px;"">CANYON</div><img id = ""stim"" ><div class = green_square id = topsquare></div>",null,encoding,word_square,,,1,topsquare,32,true,,,CANYON,0,,,
html-keyboard-response,175,407044,145,"<div style=""font-size:42px;"">CANYON</div>",32,,word,CANYON,,,,,,,,,,,,
html-keyboard-response,176,408554,null,"",null,,word,CANYON,,,,,,,,,,,,
html-keyboard-response,177,408773,null,"<div style=""font-size:42px;"">JOURNAL</div><img id = ""stim"" ><div class = green_square id = bottomsquare></div>",null,encoding,word_square,,,1,bottomsquare,32,true,,,JOURNAL,0,,,
html-keyboard-response,178,409082,270,"<div style=""font-size:42px;"">JOURNAL</div>",32,,word,JOURNAL,,,,,,,,,,,,
html-keyboard-response,179,410596,null,"",null,,word,JOURNAL,,,,,,,,,,,,
html-keyboard-response,180,410815,null,"<div style=""font-size:42px;"">NOVEL</div><img id = ""stim"" ><div class = red_square id = topsquare></div>",null,encoding,word_square,,,0,topsquare,none,true,,,NOVEL,0,,,
html-keyboard-response,181,411129,null,"<div style=""font-size:42px;"">NOVEL</div>",null,,word,NOVEL,,,,,,,,,,,,
html-keyboard-response,182,412645,null,"",null,,word,NOVEL,,,,,,,,,,,,
html-keyboard-response,183,412850,null,"<div style=""font-size:42px;"">CIGAR</div><img id = ""stim"" ><div class = red_square id = bottomsquare></div>",null,encoding,word_square,,,0,bottomsquare,none,true,,,CIGAR,0,,,
html-keyboard-response,184,413162,null,"<div style=""font-size:42px;"">CIGAR</div>",null,,word,CIGAR,,,,,,,,,,,,
html-keyboard-response,185,414676,null,"",null,,word,CIGAR,,,,,,,,,,,,
html-keyboard-response,186,414892,null,"<div style=""font-size:42px;"">RADISH</div><img id = ""stim"" ><div class = green_square id = topsquare></div>",null,encoding,word_square,,,1,topsquare,32,true,,,RADISH,0,,,
html-keyboard-response,187,415205,220,"<div style=""font-size:42px;"">RADISH</div>",32,,word,RADISH,,,,,,,,,,,,
html-keyboard-response,188,416722,null,"",null,,word,RADISH,,,,,,,,,,,,
html-keyboard-response,189,416940,null,"<div style=""font-size:42px;"">LIVER</div><img id = ""stim"" ><div class = red_square id = topsquare></div>",null,encoding,word_square,,,0,topsquare,none,true,,,LIVER,0,,,
html-keyboard-response,190,417253,null,"<div style=""font-size:42px;"">LIVER</div>",null,,word,LIVER,,,,,,,,,,,,
html-keyboard-response,191,418762,null,"",null,,word,LIVER,,,,,,,,,,,,
html-keyboard-response,192,418978,null,"<div style=""font-size:42px;"">ASIA</div><img id = ""stim"" ><div class = green_square id = bottomsquare></div>",null,encoding,word_square,,,1,bottomsquare,32,true,,,ASIA,0,,,
html-keyboard-response,193,419294,222,"<div style=""font-size:42px;"">ASIA</div>",32,,word,ASIA,,,,,,,,,,,,
html-keyboard-response,194,420808,null,"",null,,word,ASIA,,,,,,,,,,,,
html-keyboard-response,195,421011,null,"<div style=""font-size:42px;"">RABBIT</div><img id = ""stim"" ><div class = green_square id = topsquare></div>",null,encoding,word_square,,,1,topsquare,32,true,,,RABBIT,0,,,
html-keyboard-response,196,421328,null,"<div style=""font-size:42px;"">RABBIT</div>",null,,word,RABBIT,,,,,,,,,,,,
html-keyboard-response,197,422836,39,"",32,,word,RABBIT,,,,,,,,,,,,
html-keyboard-response,198,423055,null,"<div style=""font-size:42px;"">CHISEL</div><img id = ""stim"" ><div class = green_square id = bottomsquare></div>",null,encoding,word_square,,,1,bottomsquare,32,true,,,CHISEL,0,,,
html-keyboard-response,199,423365,257,"<div style=""font-size:42px;"">CHISEL</div>",32,,word,CHISEL,,,,,,,,,,,,
html-keyboard-response,200,424894,null,"",null,,word,CHISEL,,,,,,,,,,,,
html-keyboard-response,201,425098,null,"<div style=""font-size:42px;"">CAMEL</div><img id = ""stim"" ><div class = red_square id = bottomsquare></div>",null,encoding,word_square,,,0,bottomsquare,none,true,,,CAMEL,0,,,
html-keyboard-response,202,425408,null,"<div style=""font-size:42px;"">CAMEL</div>",null,,word,CAMEL,,,,,,,,,,,,
html-keyboard-response,203,426924,null,"",null,,word,CAMEL,,,,,,,,,,,,
html-keyboard-response,204,427143,null,"<div style=""font-size:42px;"">SUMMIT</div><img id = ""stim"" ><div class = red_square id = topsquare></div>",null,encoding,word_square,,,0,topsquare,none,true,,,SUMMIT,0,,,
html-keyboard-response,205,427453,null,"<div style=""font-size:42px;"">SUMMIT</div>",null,,word,SUMMIT,,,,,,,,,,,,
html-keyboard-response,206,428965,null,"",null,,word,SUMMIT,,,,,,,,,,,,
call-function,207,428967,,"",,,,,,,,,,,,,,,,
html-keyboard-response,208,429074,null,"",null,,,,,,,,,,,,,,,
math-period,209,430962,3628,"",,,,,,,,,,,0numpad,,,,,
html-keyboard-response,210,431068,null,"",null,,,,,,,,,,,,,,,
math-period,211,432417,2467,"",,,,,,,,,,,4numpad,,,,,
html-keyboard-response,212,432526,null,"",null,,,,,,,,,,,,,,,
math-period,213,433970,2648,"",,,,,,,,,,,6numpad,,,,,
html-keyboard-response,214,434073,null,"",null,,,,,,,,,,,,,,,
math-period,215,435228,2053,"",,,,,,,,,,,4numpad,,,,,
html-keyboard-response,216,435337,null,"",null,,,,,,,,,,,,,,,
math-period,217,436865,2775,"",,,,,,,,,,,5numpad,,,,,
html-keyboard-response,218,436978,null,"",null,,,,,,,,,,,,,,,
math-period,219,439401,4517,"",,,,,,,,,,,2,,,,,
html-keyboard-response,220,439520,null,"",null,,,,,,,,,,,,,,,
math-period,221,441609,3756,"",,,,,,,,,,,3numpad,,,,,
html-keyboard-response,222,441717,null,"",null,,,,,,,,,,,,,,,
math-period,223,442962,2224,"",,,,,,,,,,,4numpad,,,,,
html-keyboard-response,224,443072,null,"",null,,,,,,,,,,,,,,,
math-period,225,444330,2267,"",,,,,,,,,,,4numpad,,,,,
html-keyboard-response,226,444439,null,"",null,,,,,,,,,,,,,,,
math-period,227,446122,3180,"",,,,,,,,,,,2numpad,,,,,
html-keyboard-response,228,446239,null,"",null,,,,,,,,,,,,,,,
math-period,229,447785,2801,"",,,,,,,,,,,2numpad,,,,,
html-keyboard-response,230,447889,null,"",null,,,,,,,,,,,,,,,
math-period,231,449314,2471,"",,,,,,,,,,,6numpad,,,,,
html-keyboard-response,232,449427,null,"",null,,,,,,,,,,,,,,,
math-period,233,450898,2683,"",,,,,,,,,,,4numpad,,,,,
html-keyboard-response,234,451002,null,"",null,,,,,,,,,,,,,,,
math-period,235,452586,2930,"",,,,,,,,,,,4numpad,,,,,
html-keyboard-response,236,452703,null,"",null,,,,,,,,,,,,,,,
math-period,237,452968,null,"",,,,,,,,,,,,,,,,
html-keyboard-response,238,453979,null,"Recall Period!",null,,,,,,,,,,,,,,,
call-function,239,453981,,"",,,,,,,,,,,,,,,,
html-keyboard-response,240,454088,null,"",null,,,,,,,,,,,,,,,
recall-period,241,458450,24041,"",,,,,,,,,,,scallop,,,,,
html-keyboard-response,242,458560,null,"",null,,,,,,,,,,,,,,,
recall-period,243,460177,8240,"",,,,,,,,,,,rabbit,,,,,
html-keyboard-response,244,460291,null,"",null,,,,,,,,,,,,,,,
recall-period,245,461145,2607,"",,,,,,,,,,,camel,,,,,
html-keyboard-response,246,461259,null,"",null,,,,,,,,,,,,,,,
recall-period,247,462466,4633,"",,,,,,,,,,,chisel,,,,,
html-keyboard-response,248,462571,null,"",null,,,,,,,,,,,,,,,
recall-period,249,464306,8779,"",,,,,,,,,,,summit,,,,,
html-keyboard-response,250,464409,null,"",null,,,,,,,,,,,,,,,
recall-period,251,469401,27391,"",,,,,,,,,,,liver,,,,,
html-keyboard-response,252,469507,null,"",null,,,,,,,,,,,,,,,
recall-period,253,477315,30314,"",,,,,,,,,,,cod,,,,,
html-keyboard-response,254,477431,null,"",null,,,,,,,,,,,,,,,
recall-period,255,484409,29794,"",,,,,,,,,,,asia,,,,,
html-keyboard-response,256,484518,null,"",null,,,,,,,,,,,,,,,
recall-period,257,528984,null,"",,,,,,,,,,,,,,,,
html-keyboard-response,258,529497,null,"Time's Up!",null,,,,,,,,,,,,,,,
html-keyboard-response,259,849075,319575,"<p> Good job! You have responded correctly to 100% of the trials. </p>
                      <p>Be sure to only press the spacebar if you see a GREEN square, and please keep your accuracy above 80%.</p>
                      <p> Press any key to continue the experiment. </p>",32,,,,,,,,,,,,,,,
html-keyboard-response,260,850521,1444,"<div style=""font-size:48px;"">Press any key to begin list 2 of 16 </div>",32,,,,,,,,,,,,,,,
html-keyboard-response,261,853045,null,"<div style=""font-size:60px;"">+</div>",null,,,,,,,,,,,,,,,
html-keyboard-response,262,853251,null,"<div style=""font-size:42px;"">GOBLIN</div><img id = ""stim"" ><div class = red_square id = topsquare></div>",null,encoding,word_square,,,0,topsquare,none,true,,,GOBLIN,1,,,
html-keyboard-response,263,853564,283,"<div style=""font-size:42px;"">GOBLIN</div>",32,,word,GOBLIN,,,,,,,,,,,,
html-keyboard-response,264,855080,null,"",null,,word,GOBLIN,,,,,,,,,,,,
html-keyboard-response,265,855283,null,"<div style=""font-size:42px;"">PUPIL</div><img id = ""stim"" ><div class = red_square id = bottomsquare></div>",null,encoding,word_square,,,0,bottomsquare,none,true,,,PUPIL,1,,,
html-keyboard-response,266,855599,null,"<div style=""font-size:42px;"">PUPIL</div>",null,,word,PUPIL,,,,,,,,,,,,
html-keyboard-response,267,857111,null,"",null,,word,PUPIL,,,,,,,,,,,,
html-keyboard-response,268,857318,null,"<div style=""font-size:42px;"">SEASHORE</div><img id = ""stim"" ><div class = green_square id = bottomsquare></div>",null,encoding,word_square,,,1,bottomsquare,32,true,,,SEASHORE,1,,,
html-keyboard-response,269,857630,224,"<div style=""font-size:42px;"">SEASHORE</div>",32,,word,SEASHORE,,,,,,,,,,,,
html-keyboard-response,270,859144,null,"",null,,word,SEASHORE,,,,,,,,,,,,
html-keyboard-response,271,859347,null,"<div style=""font-size:42px;"">THICKET</div><img id = ""stim"" ><div class = green_square id = topsquare></div>",null,encoding,word_square,,,1,topsquare,32,true,,,THICKET,1,,,
html-keyboard-response,272,859661,277,"<div style=""font-size:42px;"">THICKET</div>",32,,word,THICKET,,,,,,,,,,,,
html-keyboard-response,273,861174,null,"",null,,word,THICKET,,,,,,,,,,,,
html-keyboard-response,274,861377,null,"<div style=""font-size:42px;"">BUREAU</div><img id = ""stim"" ><div class = green_square id = bottomsquare></div>",null,encoding,word_square,,,1,bottomsquare,32,true,,,BUREAU,1,,,
html-keyboard-response,275,861689,232,"<div style=""font-size:42px;"">BUREAU</div>",32,,word,BUREAU,,,,,,,,,,,,
html-keyboard-response,276,863204,null,"",null,,word,BUREAU,,,,,,,,,,,,
html-keyboard-response,277,863422,null,"<div style=""font-size:42px;"">DRESSER</div><img id = ""stim"" ><div class = red_square id = topsquare></div>",null,encoding,word_square,,,0,topsquare,none,true,,,DRESSER,1,,,
html-keyboard-response,278,863735,null,"<div style=""font-size:42px;"">DRESSER</div>",null,,word,DRESSER,,,,,,,,,,,,
html-keyboard-response,279,865241,null,"",null,,word,DRESSER,,,,,,,,,,,,
html-keyboard-response,280,865445,null,"<div style=""font-size:42px;"">HATCHET</div><img id = ""stim"" ><div class = green_square id = topsquare></div>",null,encoding,word_square,,,1,topsquare,32,true,,,HATCHET,1,,,
html-keyboard-response,281,865760,259,"<div style=""font-size:42px;"">HATCHET</div>",32,,word,HATCHET,,,,,,,,,,,,
html-keyboard-response,282,867275,null,"",null,,word,HATCHET,,,,,,,,,,,,
html-keyboard-response,283,867480,null,"<div style=""font-size:42px;"">SPOON</div><img id = ""stim"" ><div class = red_square id = bottomsquare></div>",null,encoding,word_square,,,0,bottomsquare,none,true,,,SPOON,1,,,
html-keyboard-response,284,867790,null,"<div style=""font-size:42px;"">SPOON</div>",null,,word,SPOON,,,,,,,,,,,,
html-keyboard-response,285,869308,null,"",null,,word,SPOON,,,,,,,,,,,,
html-keyboard-response,286,869514,null,"<div style=""font-size:42px;"">SIDEWALK</div><img id = ""stim"" ><div class = red_square id = topsquare></div>",null,encoding,word_square,,,0,topsquare,none,true,,,SIDEWALK,1,,,
html-keyboard-response,287,869828,null,"<div style=""font-size:42px;"">SIDEWALK</div>",null,,word,SIDEWALK,,,,,,,,,,,,
html-keyboard-response,288,871331,null,"",null,,word,SIDEWALK,,,,,,,,,,,,
html-keyboard-response,289,871547,null,"<div style=""font-size:42px;"">HIKER</div><img id = ""stim"" ><div class = green_square id = bottomsquare></div>",null,encoding,word_square,,,1,bottomsquare,32,true,,,HIKER,1,,,
html-keyboard-response,290,871861,268,"<div style=""font-size:42px;"">HIKER</div>",32,,word,HIKER,,,,,,,,,,,,
html-keyboard-response,291,873373,null,"",null,,word,HIKER,,,,,,,,,,,,
html-keyboard-response,292,873579,null,"<div style=""font-size:42px;"">MONSTER</div><img id = ""stim"" ><div class = green_square id = topsquare></div>",null,encoding,word_square,,,1,topsquare,32,true,,,MONSTER,1,,,
html-keyboard-response,293,873892,292,"<div style=""font-size:42px;"">MONSTER</div>",32,,word,MONSTER,,,,,,,,,,,,
html-keyboard-response,294,875396,null,"",null,,word,MONSTER,,,,,,,,,,,,
html-keyboard-response,295,875602,null,"<div style=""font-size:42px;"">GALLON</div><img id = ""stim"" ><div class = red_square id = bottomsquare></div>",null,encoding,word_square,,,0,bottomsquare,none,true,,,GALLON,1,,,
html-keyboard-response,296,875914,null,"<div style=""font-size:42px;"">GALLON</div>",null,,word,GALLON,,,,,,,,,,,,
html-keyboard-response,297,877422,null,"",null,,word,GALLON,,,,,,,,,,,,
html-keyboard-response,298,877629,null,"<div style=""font-size:42px;"">MOUNTAIN</div><img id = ""stim"" ><div class = green_square id = bottomsquare></div>",null,encoding,word_square,,,1,bottomsquare,32,true,,,MOUNTAIN,1,,,
html-keyboard-response,299,877938,268,"<div style=""font-size:42px;"">MOUNTAIN</div>",32,,word,MOUNTAIN,,,,,,,,,,,,
html-keyboard-response,300,879446,null,"",null,,word,MOUNTAIN,,,,,,,,,,,,
html-keyboard-response,301,879652,null,"<div style=""font-size:42px;"">TEACHER</div><img id = ""stim"" ><div class = red_square id = topsquare></div>",null,encoding,word_square,,,0,topsquare,none,true,,,TEACHER,1,,,
html-keyboard-response,302,879965,null,"<div style=""font-size:42px;"">TEACHER</div>",null,,word,TEACHER,,,,,,,,,,,,
html-keyboard-response,303,881475,null,"",null,,word,TEACHER,,,,,,,,,,,,
html-keyboard-response,304,881679,null,"<div style=""font-size:42px;"">RELISH</div><img id = ""stim"" ><div class = red_square id = bottomsquare></div>",null,encoding,word_square,,,0,bottomsquare,none,true,,,RELISH,1,,,
html-keyboard-response,305,881991,null,"<div style=""font-size:42px;"">RELISH</div>",null,,word,RELISH,,,,,,,,,,,,
html-keyboard-response,306,883506,null,"",null,,word,RELISH,,,,,,,,,,,,
html-keyboard-response,307,883722,null,"<div style=""font-size:42px;"">CRYSTAL</div><img id = ""stim"" ><div class = green_square id = topsquare></div>",null,encoding,word_square,,,1,topsquare,32,true,,,CRYSTAL,1,,,
html-keyboard-response,308,884038,237,"<div style=""font-size:42px;"">CRYSTAL</div>",32,,word,CRYSTAL,,,,,,,,,,,,
html-keyboard-response,309,885548,null,"",null,,word,CRYSTAL,,,,,,,,,,,,
call-function,310,885550,,"",,,,,,,,,,,,,,,,
html-keyboard-response,311,885656,null,"",null,,,,,,,,,,,,,,,
math-period,312,888185,4855,"",,,,,,,,,,,2numpad,,,,,
html-keyboard-response,313,888300,null,"",null,,,,,,,,,,,,,,,
math-period,314,897136,112741,"",,,,,,,,,,,0numpad,,,,,
html-keyboard-response,315,897240,null,"",null,,,,,,,,,,,,,,,
math-period,316,900514,6302,"",,,,,,,,,,,2numpad,,,,,
html-keyboard-response,317,900621,null,"",null,,,,,,,,,,,,,,,
math-period,318,902353,3262,"",,,,,,,,,,,2numpad,,,,,
html-keyboard-response,319,902468,null,"",null,,,,,,,,,,,,,,,
math-period,320,904272,3400,"",,,,,,,,,,,0numpad,,,,,
html-keyboard-response,321,904378,null,"",null,,,,,,,,,,,,,,,
math-period,322,906192,3420,"",,,,,,,,,,,1numpad,,,,,
html-keyboard-response,323,906305,null,"",null,,,,,,,,,,,,,,,
math-period,324,908048,3275,"",,,,,,,,,,,4numpad,,,,,
html-keyboard-response,325,908162,null,"",null,,,,,,,,,,,,,,,
math-period,326,909558,1305,"",,,,,,,,,,,3numpad,,,,,
html-keyboard-response,327,910573,null,"Recall Period!",null,,,,,,,,,,,,,,,
call-function,328,910575,,"",,,,,,,,,,,,,,,,
html-keyboard-response,329,910681,null,"",null,,,,,,,,,,,,,,,
recall-period,330,915929,37753,"",,,,,,,,,,,teacher,,,,,
html-keyboard-response,331,916031,null,"",null,,,,,,,,,,,,,,,
recall-period,332,921624,40782,"",,,,,,,,,,,monster,,,,,
html-keyboard-response,333,921731,null,"",null,,,,,,,,,,,,,,,
recall-period,334,923209,6435,"",,,,,,,,,,,hiker,,,,,
html-keyboard-response,335,923321,null,"",null,,,,,,,,,,,,,,,
recall-period,336,925833,17259,"",,,,,,,,,,,mountain,,,,,
html-keyboard-response,337,925942,null,"",null,,,,,,,,,,,,,,,
recall-period,338,939328,90692,"",,,,,,,,,,,goblin,,,,,
html-keyboard-response,339,939438,null,"",null,,,,,,,,,,,,,,,
recall-period,340,951264,79872,"",,,,,,,,,,,ticket,,,,,
html-keyboard-response,341,951380,null,"",null,,,,,,,,,,,,,,,
recall-period,342,960264,93041,"",,,,,,,,,,,seashore,,,,,
html-keyboard-response,343,960378,null,"",null,,,,,,,,,,,,,,,
recall-period,344,982049,85419,"",,,,,,,,,,,job,,,,,
html-keyboard-response,345,982162,null,"",null,,,,,,,,,,,,,,,
recall-period,346,985582,null,"",,,,,,,,,,,,,,,,
html-keyboard-response,347,986084,null,"Time's Up!",null,,,,,,,,,,,,,,,
html-keyboard-response,348,991944,5857,"<p> Good job! You have responded correctly to 100% of the trials. </p>
                      <p>Be sure to only press the spacebar if you see a GREEN square, and please keep your accuracy above 80%.</p>
                      <p> Press any key to continue the experiment. </p>",32,,,,,,,,,,,,,,,
html-keyboard-response,349,992735,787,"<div style=""font-size:48px;"">Press any key to begin list 3 of 16 </div>",32,,,,,,,,,,,,,,,
html-keyboard-response,350,995255,null,"<div style=""font-size:60px;"">+</div>",null,,,,,,,,,,,,,,,
html-keyboard-response,351,995457,null,"<div style=""font-size:42px;"">BEAVER</div><img id = ""stim"" ><div class = red_square id = bottomsquare></div>",null,encoding,word_square,,,0,bottomsquare,none,true,,,BEAVER,2,,,
html-keyboard-response,352,995771,null,"<div style=""font-size:42px;"">BEAVER</div>",null,,word,BEAVER,,,,,,,,,,,,
html-keyboard-response,353,997281,null,"",null,,word,BEAVER,,,,,,,,,,,,
html-keyboard-response,354,997500,null,"<div style=""font-size:42px;"">SQUIRREL</div><img id = ""stim"" ><div class = green_square id = topsquare></div>",null,encoding,word_square,,,1,topsquare,32,true,,,SQUIRREL,2,,,
html-keyboard-response,355,997810,252,"<div style=""font-size:42px;"">SQUIRREL</div>",32,,word,SQUIRREL,,,,,,,,,,,,
html-keyboard-response,356,999324,null,"",null,,word,SQUIRREL,,,,,,,,,,,,
html-keyboard-response,357,999529,null,"<div style=""font-size:42px;"">POND</div><img id = ""stim"" ><div class = green_square id = bottomsquare></div>",null,encoding,word_square,,,1,bottomsquare,32,true,,,POND,2,,,
html-keyboard-response,358,999843,255,"<div style=""font-size:42px;"">POND</div>",32,,word,POND,,,,,,,,,,,,
html-keyboard-response,359,1001351,null,"",null,,word,POND,,,,,,,,,,,,
html-keyboard-response,360,1001555,null,"<div style=""font-size:42px;"">SCARECROW</div><img id = ""stim"" ><div class = red_square id = topsquare></div>",null,encoding,word_square,,,0,topsquare,none,true,,,SCARECROW,2,,,
html-keyboard-response,361,1001870,null,"<div style=""font-size:42px;"">SCARECROW</div>",null,,word,SCARECROW,,,,,,,,,,,,
html-keyboard-response,362,1003383,null,"",null,,word,SCARECROW,,,,,,,,,,,,
html-keyboard-response,363,1003587,null,"<div style=""font-size:42px;"">BLOCKADE</div><img id = ""stim"" ><div class = green_square id = topsquare></div>",null,encoding,word_square,,,1,topsquare,32,true,,,BLOCKADE,2,,,
html-keyboard-response,364,1003899,238,"<div style=""font-size:42px;"">BLOCKADE</div>",32,,word,BLOCKADE,,,,,,,,,,,,
html-keyboard-response,365,1005405,null,"",null,,word,BLOCKADE,,,,,,,,,,,,
html-keyboard-response,366,1005612,null,"<div style=""font-size:42px;"">BUILDING</div><img id = ""stim"" ><div class = red_square id = bottomsquare></div>",null,encoding,word_square,,,0,bottomsquare,none,true,,,BUILDING,2,,,
html-keyboard-response,367,1005927,null,"<div style=""font-size:42px;"">BUILDING</div>",null,,word,BUILDING,,,,,,,,,,,,
html-keyboard-response,368,1007433,null,"",null,,word,BUILDING,,,,,,,,,,,,
html-keyboard-response,369,1007647,null,"<div style=""font-size:42px;"">SLACKS</div><img id = ""stim"" ><div class = red_square id = topsquare></div>",null,encoding,word_square,,,0,topsquare,none,true,,,SLACKS,2,,,
html-keyboard-response,370,1007962,null,"<div style=""font-size:42px;"">SLACKS</div>",null,,word,SLACKS,,,,,,,,,,,,
html-keyboard-response,371,1009473,null,"",null,,word,SLACKS,,,,,,,,,,,,
html-keyboard-response,372,1009677,null,"<div style=""font-size:42px;"">OINTMENT</div><img id = ""stim"" ><div class = green_square id = bottomsquare></div>",null,encoding,word_square,,,1,bottomsquare,32,true,,,OINTMENT,2,,,
html-keyboard-response,373,1009989,252,"<div style=""font-size:42px;"">OINTMENT</div>",32,,word,OINTMENT,,,,,,,,,,,,
html-keyboard-response,374,1011504,null,"",null,,word,OINTMENT,,,,,,,,,,,,
html-keyboard-response,375,1011721,null,"<div style=""font-size:42px;"">MAMMAL</div><img id = ""stim"" ><div class = green_square id = topsquare></div>",null,encoding,word_square,,,1,topsquare,32,true,,,MAMMAL,2,,,
html-keyboard-response,376,1012030,294,"<div style=""font-size:42px;"">MAMMAL</div>",32,,word,MAMMAL,,,,,,,,,,,,
html-keyboard-response,377,1013542,null,"",null,,word,MAMMAL,,,,,,,,,,,,
html-keyboard-response,378,1013743,null,"<div style=""font-size:42px;"">CREATURE</div><img id = ""stim"" ><div class = red_square id = bottomsquare></div>",null,encoding,word_square,,,0,bottomsquare,none,true,,,CREATURE,2,,,
html-keyboard-response,379,1014054,null,"<div style=""font-size:42px;"">CREATURE</div>",null,,word,CREATURE,,,,,,,,,,,,
html-keyboard-response,380,1015564,null,"",null,,word,CREATURE,,,,,,,,,,,,
html-keyboard-response,381,1015766,null,"<div style=""font-size:42px;"">LION</div><img id = ""stim"" ><div class = green_square id = bottomsquare></div>",null,encoding,word_square,,,1,bottomsquare,32,true,,,LION,2,,,
html-keyboard-response,382,1016080,265,"<div style=""font-size:42px;"">LION</div>",32,,word,LION,,,,,,,,,,,,
html-keyboard-response,383,1017592,null,"",null,,word,LION,,,,,,,,,,,,
html-keyboard-response,384,1017796,null,"<div style=""font-size:42px;"">BARLEY</div><img id = ""stim"" ><div class = red_square id = topsquare></div>",null,encoding,word_square,,,0,topsquare,none,true,,,BARLEY,2,,,
html-keyboard-response,385,1018108,null,"<div style=""font-size:42px;"">BARLEY</div>",null,,word,BARLEY,,,,,,,,,,,,
html-keyboard-response,386,1019624,null,"",null,,word,BARLEY,,,,,,,,,,,,
html-keyboard-response,387,1019841,null,"<div style=""font-size:42px;"">PORPOISE</div><img id = ""stim"" ><div class = red_square id = bottomsquare></div>",null,encoding,word_square,,,0,bottomsquare,none,true,,,PORPOISE,2,,,
html-keyboard-response,388,1020152,null,"<div style=""font-size:42px;"">PORPOISE</div>",null,,word,PORPOISE,,,,,,,,,,,,
html-keyboard-response,389,1021667,null,"",null,,word,PORPOISE,,,,,,,,,,,,
html-keyboard-response,390,1021871,null,"<div style=""font-size:42px;"">LOVER</div><img id = ""stim"" ><div class = red_square id = topsquare></div>",null,encoding,word_square,,,0,topsquare,none,true,,,LOVER,2,,,
html-keyboard-response,391,1022185,null,"<div style=""font-size:42px;"">LOVER</div>",null,,word,LOVER,,,,,,,,,,,,
html-keyboard-response,392,1023691,null,"",null,,word,LOVER,,,,,,,,,,,,
html-keyboard-response,393,1023910,null,"<div style=""font-size:42px;"">PARTNER</div><img id = ""stim"" ><div class = green_square id = topsquare></div>",null,encoding,word_square,,,1,topsquare,32,true,,,PARTNER,2,,,
html-keyboard-response,394,1024223,243,"<div style=""font-size:42px;"">PARTNER</div>",32,,word,PARTNER,,,,,,,,,,,,
html-keyboard-response,395,1025736,null,"",null,,word,PARTNER,,,,,,,,,,,,
html-keyboard-response,396,1025941,null,"<div style=""font-size:42px;"">LEOPARD</div><img id = ""stim"" ><div class = green_square id = bottomsquare></div>",null,encoding,word_square,,,1,bottomsquare,32,true,,,LEOPARD,2,,,
html-keyboard-response,397,1026251,null,"<div style=""font-size:42px;"">LEOPARD</div>",null,,word,LEOPARD,,,,,,,,,,,,
html-keyboard-response,398,1027765,85,"",32,,word,LEOPARD,,,,,,,,,,,,
call-function,399,1027768,,"",,,,,,,,,,,,,,,,
html-keyboard-response,400,1027874,null,"",null,,,,,,,,,,,,,,,
math-period,401,1029848,3738,"",,,,,,,,,,,5numpad,,,,,
html-keyboard-response,402,1029963,null,"",null,,,,,,,,,,,,,,,
math-period,403,1032136,4072,"",,,,,,,,,,,3numpad,,,,,
html-keyboard-response,404,1032242,null,"",null,,,,,,,,,,,,,,,
math-period,405,1033903,2817,"",,,,,,,,,,,4numpad,,,,,
html-keyboard-response,406,1034019,null,"",null,,,,,,,,,,,,,,,
math-period,407,1035815,3406,"",,,,,,,,,,,1numpad,,,,,
html-keyboard-response,408,1035930,null,"",null,,,,,,,,,,,,,,,
math-period,409,1038056,4011,"",,,,,,,,,,,5numpad,,,,,
html-keyboard-response,410,1038163,null,"",null,,,,,,,,,,,,,,,
math-period,411,1039616,2696,"",,,,,,,,,,,4numpad,,,,,
html-keyboard-response,412,1039723,null,"",null,,,,,,,,,,,,,,,
math-period,413,1041192,2674,"",,,,,,,,,,,2numpad,,,,,
html-keyboard-response,414,1041298,null,"",null,,,,,,,,,,,,,,,
math-period,415,1042801,2753,"",,,,,,,,,,,2numpad,,,,,
html-keyboard-response,416,1042908,null,"",null,,,,,,,,,,,,,,,
math-period,417,1044215,2379,"",,,,,,,,,,,3numpad,,,,,
html-keyboard-response,418,1044330,null,"",null,,,,,,,,,,,,,,,
math-period,419,1045568,2218,"",,,,,,,,,,,4numpad,,,,,
html-keyboard-response,420,1045677,null,"",null,,,,,,,,,,,,,,,
math-period,421,1047008,2412,"",,,,,,,,,,,4numpad,,,,,
html-keyboard-response,422,1047110,null,"",null,,,,,,,,,,,,,,,
math-period,423,1048321,2193,"",,,,,,,,,,,1numpad,,,,,
html-keyboard-response,424,1048423,null,"",null,,,,,,,,,,,,,,,
math-period,425,1049640,2151,"",,,,,,,,,,,3numpad,,,,,
html-keyboard-response,426,1049743,null,"",null,,,,,,,,,,,,,,,
math-period,427,1050984,2168,"",,,,,,,,,,,3numpad,,,,,
html-keyboard-response,428,1051088,null,"",null,,,,,,,,,,,,,,,
math-period,429,1051778,null,"",,,,,,,,,,,,,,,,
html-keyboard-response,430,1052792,null,"Recall Period!",null,,,,,,,,,,,,,,,
call-function,431,1052793,,"",,,,,,,,,,,,,,,,
html-keyboard-response,432,1052899,null,"",null,,,,,,,,,,,,,,,
recall-period,433,1056449,16211,"",,,,,,,,,,,lion,,,,,
html-keyboard-response,434,1056566,null,"",null,,,,,,,,,,,,,,,
recall-period,435,1058560,7128,"",,,,,,,,,,,leopard,,,,,
html-keyboard-response,436,1058676,null,"",null,,,,,,,,,,,,,,,
recall-period,437,1060449,4368,"",,,,,,,,,,,lover,,,,,
html-keyboard-response,438,1060555,null,"",null,,,,,,,,,,,,,,,
recall-period,439,1067424,61559,"",,,,,,,,,,,squirrel,,,,,
html-keyboard-response,440,1067538,null,"",null,,,,,,,,,,,,,,,
recall-period,441,1070416,24555,"",,,,,,,,,,,porpoise,,,,,
html-keyboard-response,442,1070527,null,"",null,,,,,,,,,,,,,,,
recall-period,443,1071712,3306,"",,,,,,,,,,,lake,,,,,
html-keyboard-response,444,1071819,null,"",null,,,,,,,,,,,,,,,
recall-period,445,1074008,10222,"",,,,,,,,,,,beaver,,,,,
html-keyboard-response,446,1074112,null,"",null,,,,,,,,,,,,,,,
recall-period,447,1076248,14566,"",,,,,,,,,,,building,,,,,
html-keyboard-response,448,1076359,null,"",null,,,,,,,,,,,,,,,
recall-period,449,1081340,47526,"",,,,,,,,,,,scarecrow,,,,,
html-keyboard-response,450,1081443,null,"",null,,,,,,,,,,,,,,,
recall-period,451,1083145,6940,"",,,,,,,,,,,barley,,,,,
html-keyboard-response,452,1083259,null,"",null,,,,,,,,,,,,,,,
recall-period,453,1127800,143859,"",,,,,,,,,,,,,,,,
html-keyboard-response,454,1128305,null,"Time's Up!",null,,,,,,,,,,,,,,,
html-keyboard-response,455,1132324,4016,"<p> Good job! You have responded correctly to 100% of the trials. </p>
                      <p>Be sure to only press the spacebar if you see a GREEN square, and please keep your accuracy above 80%.</p>
                      <p> Press any key to continue the experiment. </p>",32,,,,,,,,,,,,,,,
html-keyboard-response,456,1133804,1476,"<div style=""font-size:48px;"">Press any key to begin list 4 of 16 </div>",32,,,,,,,,,,,,,,,
html-keyboard-response,457,1136328,null,"<div style=""font-size:60px;"">+</div>",null,,,,,,,,,,,,,,,
html-keyboard-response,458,1136542,null,"<div style=""font-size:42px;"">SISTER</div><img id = ""stim"" ><div class = green_square id = bottomsquare></div>",null,encoding,word_square,,,1,bottomsquare,32,true,,,SISTER,3,,,
html-keyboard-response,459,1136863,267,"<div style=""font-size:42px;"">SISTER</div>",32,,word,SISTER,,,,,,,,,,,,
html-keyboard-response,460,1138378,null,"",null,,word,SISTER,,,,,,,,,,,,
html-keyboard-response,461,1138583,null,"<div style=""font-size:42px;"">LOUNGE</div><img id = ""stim"" ><div class = green_square id = topsquare></div>",null,encoding,word_square,,,1,topsquare,32,true,,,LOUNGE,3,,,
html-keyboard-response,462,1138897,210,"<div style=""font-size:42px;"">LOUNGE</div>",32,,word,LOUNGE,,,,,,,,,,,,
html-keyboard-response,463,1140416,null,"",null,,word,LOUNGE,,,,,,,,,,,,
html-keyboard-response,464,1140619,null,"<div style=""font-size:42px;"">LIST</div><img id = ""stim"" ><div class = red_square id = topsquare></div>",null,encoding,word_square,,,0,topsquare,none,true,,,LIST,3,,,
html-keyboard-response,465,1140932,null,"<div style=""font-size:42px;"">LIST</div>",null,,word,LIST,,,,,,,,,,,,
html-keyboard-response,466,1142445,null,"",null,,word,LIST,,,,,,,,,,,,
html-keyboard-response,467,1142649,null,"<div style=""font-size:42px;"">SUBWAY</div><img id = ""stim"" ><div class = red_square id = bottomsquare></div>",null,encoding,word_square,,,0,bottomsquare,none,true,,,SUBWAY,3,,,
html-keyboard-response,468,1142963,null,"<div style=""font-size:42px;"">SUBWAY</div>",null,,word,SUBWAY,,,,,,,,,,,,
html-keyboard-response,469,1144476,null,"",null,,word,SUBWAY,,,,,,,,,,,,
html-keyboard-response,470,1144680,null,"<div style=""font-size:42px;"">SHORTS</div><img id = ""stim"" ><div class = red_square id = topsquare></div>",null,encoding,word_square,,,0,topsquare,none,true,,,SHORTS,3,,,
html-keyboard-response,471,1144991,null,"<div style=""font-size:42px;"">SHORTS</div>",null,,word,SHORTS,,,,,,,,,,,,
html-keyboard-response,472,1146503,null,"",null,,word,SHORTS,,,,,,,,,,,,
html-keyboard-response,473,1146707,null,"<div style=""font-size:42px;"">WASHER</div><img id = ""stim"" ><div class = green_square id = bottomsquare></div>",null,encoding,word_square,,,1,bottomsquare,32,true,,,WASHER,3,,,
html-keyboard-response,474,1147018,283,"<div style=""font-size:42px;"">WASHER</div>",32,,word,WASHER,,,,,,,,,,,,
html-keyboard-response,475,1148525,null,"",null,,word,WASHER,,,,,,,,,,,,
html-keyboard-response,476,1148729,null,"<div style=""font-size:42px;"">LEG</div><img id = ""stim"" ><div class = red_square id = bottomsquare></div>",null,encoding,word_square,,,0,bottomsquare,none,true,,,LEG,3,,,
html-keyboard-response,477,1149041,null,"<div style=""font-size:42px;"">LEG</div>",null,,word,LEG,,,,,,,,,,,,
html-keyboard-response,478,1150554,null,"",null,,word,LEG,,,,,,,,,,,,
html-keyboard-response,479,1150759,null,"<div style=""font-size:42px;"">BANK</div><img id = ""stim"" ><div class = green_square id = topsquare></div>",null,encoding,word_square,,,1,topsquare,32,true,,,BANK,3,,,
html-keyboard-response,480,1151070,null,"<div style=""font-size:42px;"">BANK</div>",null,,word,BANK,,,,,,,,,,,,
html-keyboard-response,481,1152580,39,"",32,,word,BANK,,,,,,,,,,,,
html-keyboard-response,482,1152798,null,"<div style=""font-size:42px;"">BISON</div><img id = ""stim"" ><div class = green_square id = bottomsquare></div>",null,encoding,word_square,,,1,bottomsquare,32,true,,,BISON,3,,,
html-keyboard-response,483,1153109,209,"<div style=""font-size:42px;"">BISON</div>",32,,word,BISON,,,,,,,,,,,,
html-keyboard-response,484,1154613,null,"",null,,word,BISON,,,,,,,,,,,,
html-keyboard-response,485,1154818,null,"<div style=""font-size:42px;"">SEAL</div><img id = ""stim"" ><div class = red_square id = topsquare></div>",null,encoding,word_square,,,0,topsquare,none,true,,,SEAL,3,,,
html-keyboard-response,486,1155133,null,"<div style=""font-size:42px;"">SEAL</div>",null,,word,SEAL,,,,,,,,,,,,
html-keyboard-response,487,1156648,null,"",null,,word,SEAL,,,,,,,,,,,,
html-keyboard-response,488,1156852,null,"<div style=""font-size:42px;"">BEAST</div><img id = ""stim"" ><div class = red_square id = bottomsquare></div>",null,encoding,word_square,,,0,bottomsquare,none,true,,,BEAST,3,,,
html-keyboard-response,489,1157164,null,"<div style=""font-size:42px;"">BEAST</div>",null,,word,BEAST,,,,,,,,,,,,
html-keyboard-response,490,1158679,null,"",null,,word,BEAST,,,,,,,,,,,,
html-keyboard-response,491,1158896,null,"<div style=""font-size:42px;"">SNACK</div><img id = ""stim"" ><div class = green_square id = topsquare></div>",null,encoding,word_square,,,1,topsquare,32,true,,,SNACK,3,,,
html-keyboard-response,492,1159212,null,"<div style=""font-size:42px;"">SNACK</div>",null,,word,SNACK,,,,,,,,,,,,
html-keyboard-response,493,1160722,19,"",32,,word,SNACK,,,,,,,,,,,,
html-keyboard-response,494,1160924,null,"<div style=""font-size:42px;"">BOUILLON</div><img id = ""stim"" ><div class = red_square id = topsquare></div>",null,encoding,word_square,,,0,topsquare,none,true,,,BOUILLON,3,,,
html-keyboard-response,495,1161240,null,"<div style=""font-size:42px;"">BOUILLON</div>",null,,word,BOUILLON,,,,,,,,,,,,
html-keyboard-response,496,1162745,null,"",null,,word,BOUILLON,,,,,,,,,,,,
html-keyboard-response,497,1162962,null,"<div style=""font-size:42px;"">APPLE</div><img id = ""stim"" ><div class = green_square id = bottomsquare></div>",null,encoding,word_square,,,1,bottomsquare,32,true,,,APPLE,3,,,
html-keyboard-response,498,1163273,276,"<div style=""font-size:42px;"">APPLE</div>",32,,word,APPLE,,,,,,,,,,,,
html-keyboard-response,499,1164791,null,"",null,,word,APPLE,,,,,,,,,,,,
html-keyboard-response,500,1165009,null,"<div style=""font-size:42px;"">WAITER</div><img id = ""stim"" ><div class = green_square id = topsquare></div>",null,encoding,word_square,,,1,topsquare,32,true,,,WAITER,3,,,
html-keyboard-response,501,1165325,244,"<div style=""font-size:42px;"">WAITER</div>",32,,word,WAITER,,,,,,,,,,,,
html-keyboard-response,502,1166836,null,"",null,,word,WAITER,,,,,,,,,,,,
html-keyboard-response,503,1167042,null,"<div style=""font-size:42px;"">DAGGER</div><img id = ""stim"" ><div class = red_square id = bottomsquare></div>",null,encoding,word_square,,,0,bottomsquare,none,true,,,DAGGER,3,,,
html-keyboard-response,504,1167357,null,"<div style=""font-size:42px;"">DAGGER</div>",null,,word,DAGGER,,,,,,,,,,,,
html-keyboard-response,505,1168863,null,"",null,,word,DAGGER,,,,,,,,,,,,
call-function,506,1168865,,"",,,,,,,,,,,,,,,,
html-keyboard-response,507,1168971,null,"",null,,,,,,,,,,,,,,,
math-period,508,1170673,3226,"",,,,,,,,,,,5numpad,,,,,
html-keyboard-response,509,1170788,null,"",null,,,,,,,,,,,,,,,
math-period,510,1171992,2225,"",,,,,,,,,,,4numpad,,,,,
html-keyboard-response,511,1172102,null,"",null,,,,,,,,,,,,,,,
math-period,512,1173703,3040,"",,,,,,,,,,,1numpad,,,,,
html-keyboard-response,513,1173806,null,"",null,,,,,,,,,,,,,,,
math-period,514,1174840,1853,"",,,,,,,,,,,3numpad,,,,,
html-keyboard-response,515,1174949,null,"",null,,,,,,,,,,,,,,,
math-period,516,1175983,1834,"",,,,,,,,,,,3numpad,,,,,
html-keyboard-response,517,1176086,null,"",null,,,,,,,,,,,,,,,
math-period,518,1178193,4009,"",,,,,,,,,,,0numpad,,,,,
html-keyboard-response,519,1178299,null,"",null,,,,,,,,,,,,,,,
math-period,520,1179800,2794,"",,,,,,,,,,,2numpad,,,,,
html-keyboard-response,521,1179903,null,"",null,,,,,,,,,,,,,,,
math-period,522,1182568,5143,"",,,,,,,,,,,1numpad,,,,,
html-keyboard-response,523,1182681,null,"",null,,,,,,,,,,,,,,,
math-period,524,1184280,2991,"",,,,,,,,,,,1numpad,,,,,
html-keyboard-response,525,1184385,null,"",null,,,,,,,,,,,,,,,
math-period,526,1186544,4064,"",,,,,,,,,,,6numpad,,,,,
html-keyboard-response,527,1186648,null,"",null,,,,,,,,,,,,,,,
math-period,528,1188739,3957,"",,,,,,,,,,,0numpad,,,,,
html-keyboard-response,529,1188848,null,"",null,,,,,,,,,,,,,,,
math-period,530,1190535,3204,"",,,,,,,,,,,1numpad,,,,,
html-keyboard-response,531,1190651,null,"",null,,,,,,,,,,,,,,,
math-period,532,1191872,2225,"",,,,,,,,,,,4numpad,,,,,
html-keyboard-response,533,1191979,null,"",null,,,,,,,,,,,,,,,
math-period,534,1192871,null,"",,,,,,,,,,,,,,,,
html-keyboard-response,535,1193882,null,"Recall Period!",null,,,,,,,,,,,,,,,
call-function,536,1193883,,"",,,,,,,,,,,,,,,,
html-keyboard-response,537,1193995,null,"",null,,,,,,,,,,,,,,,
recall-period,538,1198336,18745,"",,,,,,,,,,,seal,,,,,
html-keyboard-response,539,1198446,null,"",null,,,,,,,,,,,,,,,
recall-period,540,1215073,97131,"",,,,,,,,,,,pants,,,,,
html-keyboard-response,541,1215186,null,"",null,,,,,,,,,,,,,,,
recall-period,542,1217907,15960,"",,,,,,,,,,,shorts,,,,,
html-keyboard-response,543,1218017,null,"",null,,,,,,,,,,,,,,,
recall-period,544,1228519,68909,"",,,,,,,,,,,sister,,,,,
html-keyboard-response,545,1228634,null,"",null,,,,,,,,,,,,,,,
recall-period,546,1230854,9181,"",,,,,,,,,,,pond,,,,,
html-keyboard-response,547,1230955,null,"",null,,,,,,,,,,,,,,,
recall-period,548,1240931,48133,"",,,,,,,,,,,seat,,,,,
html-keyboard-response,549,1241041,null,"",null,,,,,,,,,,,,,,,
recall-period,550,1255144,69034,"",,,,,,,,,,,list,,,,,
html-keyboard-response,551,1255246,null,"",null,,,,,,,,,,,,,,,
recall-period,552,1268891,null,"",,,,,,,,,,,,,,,,
html-keyboard-response,553,1269393,null,"Time's Up!",null,,,,,,,,,,,,,,,
html-keyboard-response,554,1292483,23086,"<p> Good job! You have responded correctly to 100% of the trials. </p>
                      <p>Be sure to only press the spacebar if you see a GREEN square, and please keep your accuracy above 80%.</p>
                      <p> Press any key to continue the experiment. </p>",32,,,,,,,,,,,,,,,
html-keyboard-response,555,1293924,1437,"<div style=""font-size:48px;"">Press any key to begin list 5 of 16 </div>",32,,,,,,,,,,,,,,,
html-keyboard-response,556,1296451,null,"<div style=""font-size:60px;"">+</div>",null,,,,,,,,,,,,,,,
html-keyboard-response,557,1296666,null,"<div style=""font-size:42px;"">STAKE</div><img id = ""stim"" ><div class = green_square id = topsquare></div>",null,encoding,word_square,,,1,topsquare,32,true,,,STAKE,4,,,
html-keyboard-response,558,1296977,null,"<div style=""font-size:42px;"">STAKE</div>",null,,word,STAKE,,,,,,,,,,,,
html-keyboard-response,559,1298489,14,"",32,,word,STAKE,,,,,,,,,,,,
html-keyboard-response,560,1298708,null,"<div style=""font-size:42px;"">LUMBER</div><img id = ""stim"" ><div class = green_square id = bottomsquare></div>",null,encoding,word_square,,,1,bottomsquare,32,true,,,LUMBER,4,,,
html-keyboard-response,561,1299022,258,"<div style=""font-size:42px;"">LUMBER</div>",32,,word,LUMBER,,,,,,,,,,,,
html-keyboard-response,562,1300538,null,"",null,,word,LUMBER,,,,,,,,,,,,
html-keyboard-response,563,1300743,null,"<div style=""font-size:42px;"">ELK</div><img id = ""stim"" ><div class = red_square id = bottomsquare></div>",null,encoding,word_square,,,0,bottomsquare,none,true,,,ELK,4,,,
html-keyboard-response,564,1301054,null,"<div style=""font-size:42px;"">ELK</div>",null,,word,ELK,,,,,,,,,,,,
html-keyboard-response,565,1302564,null,"",null,,word,ELK,,,,,,,,,,,,
html-keyboard-response,566,1302784,null,"<div style=""font-size:42px;"">FLASK</div><img id = ""stim"" ><div class = red_square id = topsquare></div>",null,encoding,word_square,,,0,topsquare,none,true,,,FLASK,4,,,
html-keyboard-response,567,1303097,null,"<div style=""font-size:42px;"">FLASK</div>",null,,word,FLASK,,,,,,,,,,,,
html-keyboard-response,568,1304605,null,"",null,,word,FLASK,,,,,,,,,,,,
html-keyboard-response,569,1304822,null,"<div style=""font-size:42px;"">FIST</div><img id = ""stim"" ><div class = green_square id = topsquare></div>",null,encoding,word_square,,,1,topsquare,32,true,,,FIST,4,,,
html-keyboard-response,570,1305136,241,"<div style=""font-size:42px;"">FIST</div>",32,,word,FIST,,,,,,,,,,,,
html-keyboard-response,571,1306643,null,"",null,,word,FIST,,,,,,,,,,,,
html-keyboard-response,572,1306861,null,"<div style=""font-size:42px;"">RIVER</div><img id = ""stim"" ><div class = red_square id = bottomsquare></div>",null,encoding,word_square,,,0,bottomsquare,none,true,,,RIVER,4,,,
html-keyboard-response,573,1307174,null,"<div style=""font-size:42px;"">RIVER</div>",null,,word,RIVER,,,,,,,,,,,,
html-keyboard-response,574,1308687,null,"",null,,word,RIVER,,,,,,,,,,,,
html-keyboard-response,575,1308907,null,"<div style=""font-size:42px;"">CANAL</div><img id = ""stim"" ><div class = green_square id = bottomsquare></div>",null,encoding,word_square,,,1,bottomsquare,32,true,,,CANAL,4,,,
html-keyboard-response,576,1309218,251,"<div style=""font-size:42px;"">CANAL</div>",32,,word,CANAL,,,,,,,,,,,,
html-keyboard-response,577,1310728,null,"",null,,word,CANAL,,,,,,,,,,,,
html-keyboard-response,578,1310932,null,"<div style=""font-size:42px;"">LAKE</div><img id = ""stim"" ><div class = red_square id = topsquare></div>",null,encoding,word_square,,,0,topsquare,none,true,,,LAKE,4,,,
html-keyboard-response,579,1311245,null,"<div style=""font-size:42px;"">LAKE</div>",null,,word,LAKE,,,,,,,,,,,,
html-keyboard-response,580,1312757,null,"",null,,word,LAKE,,,,,,,,,,,,
html-keyboard-response,581,1312960,null,"<div style=""font-size:42px;"">BISCUIT</div><img id = ""stim"" ><div class = red_square id = bottomsquare></div>",null,encoding,word_square,,,0,bottomsquare,none,true,,,BISCUIT,4,,,
html-keyboard-response,582,1313273,null,"<div style=""font-size:42px;"">BISCUIT</div>",null,,word,BISCUIT,,,,,,,,,,,,
html-keyboard-response,583,1314783,null,"",null,,word,BISCUIT,,,,,,,,,,,,
html-keyboard-response,584,1315002,null,"<div style=""font-size:42px;"">ADULT</div><img id = ""stim"" ><div class = green_square id = topsquare></div>",null,encoding,word_square,,,1,topsquare,32,true,,,ADULT,4,,,
html-keyboard-response,585,1315315,229,"<div style=""font-size:42px;"">ADULT</div>",32,,word,ADULT,,,,,,,,,,,,
html-keyboard-response,586,1316828,null,"",null,,word,ADULT,,,,,,,,,,,,
html-keyboard-response,587,1317041,null,"<div style=""font-size:42px;"">SCOTCH</div><img id = ""stim"" ><div class = red_square id = topsquare></div>",null,encoding,word_square,,,0,topsquare,none,true,,,SCOTCH,4,,,
html-keyboard-response,588,1317354,null,"<div style=""font-size:42px;"">SCOTCH</div>",null,,word,SCOTCH,,,,,,,,,,,,
html-keyboard-response,589,1318861,null,"",null,,word,SCOTCH,,,,,,,,,,,,
html-keyboard-response,590,1319064,null,"<div style=""font-size:42px;"">SALAD</div><img id = ""stim"" ><div class = green_square id = bottomsquare></div>",null,encoding,word_square,,,1,bottomsquare,32,true,,,SALAD,4,,,
html-keyboard-response,591,1319379,null,"<div style=""font-size:42px;"">SALAD</div>",null,,word,SALAD,,,,,,,,,,,,
html-keyboard-response,592,1320894,100,"",32,,word,SALAD,,,,,,,,,,,,
html-keyboard-response,593,1321114,null,"<div style=""font-size:42px;"">ATOM</div><img id = ""stim"" ><div class = red_square id = bottomsquare></div>",null,encoding,word_square,,,0,bottomsquare,none,true,,,ATOM,4,,,
html-keyboard-response,594,1321430,null,"<div style=""font-size:42px;"">ATOM</div>",null,,word,ATOM,,,,,,,,,,,,
html-keyboard-response,595,1322946,null,"",null,,word,ATOM,,,,,,,,,,,,
html-keyboard-response,596,1323154,null,"<div style=""font-size:42px;"">CHEMIST</div><img id = ""stim"" ><div class = red_square id = topsquare></div>",null,encoding,word_square,,,0,topsquare,none,true,,,CHEMIST,4,,,
html-keyboard-response,597,1323467,null,"<div style=""font-size:42px;"">CHEMIST</div>",null,,word,CHEMIST,,,,,,,,,,,,
html-keyboard-response,598,1324981,null,"",null,,word,CHEMIST,,,,,,,,,,,,
html-keyboard-response,599,1325186,null,"<div style=""font-size:42px;"">ROOSTER</div><img id = ""stim"" ><div class = green_square id = topsquare></div>",null,encoding,word_square,,,1,topsquare,32,true,,,ROOSTER,4,,,
html-keyboard-response,600,1325495,null,"<div style=""font-size:42px;"">ROOSTER</div>",null,,word,ROOSTER,,,,,,,,,,,,
html-keyboard-response,601,1327009,36,"",32,,word,ROOSTER,,,,,,,,,,,,
html-keyboard-response,602,1327211,null,"<div style=""font-size:42px;"">GIRAFFE</div><img id = ""stim"" ><div class = green_square id = bottomsquare></div>",null,encoding,word_square,,,1,bottomsquare,32,true,,,GIRAFFE,4,,,
html-keyboard-response,603,1327525,null,"<div style=""font-size:42px;"">GIRAFFE</div>",null,,word,GIRAFFE,,,,,,,,,,,,
html-keyboard-response,604,1329037,74,"",32,,word,GIRAFFE,,,,,,,,,,,,
call-function,605,1329038,,"",,,,,,,,,,,,,,,,
html-keyboard-response,606,1329148,null,"",null,,,,,,,,,,,,,,,
math-period,607,1330856,3229,"",,,,,,,,,,,4numpad,,,,,
html-keyboard-response,608,1330971,null,"",null,,,,,,,,,,,,,,,
math-period,609,1332232,2317,"",,,,,,,,,,,3numpad,,,,,
html-keyboard-response,610,1332339,null,"",null,,,,,,,,,,,,,,,
math-period,611,1333408,1966,"",,,,,,,,,,,4numpad,,,,,
html-keyboard-response,612,1333523,null,"",null,,,,,,,,,,,,,,,
math-period,613,1334728,2192,"",,,,,,,,,,,2numpad,,,,,
html-keyboard-response,614,1334832,null,"",null,,,,,,,,,,,,,,,
math-period,615,1336056,2268,"",,,,,,,,,,,1numpad,,,,,
html-keyboard-response,616,1336161,null,"",null,,,,,,,,,,,,,,,
math-period,617,1337999,3473,"",,,,,,,,,,,3numpad,,,,,
html-keyboard-response,618,1338105,null,"",null,,,,,,,,,,,,,,,
math-period,619,1339399,2418,"",,,,,,,,,,,1numpad,,,,,
html-keyboard-response,620,1339510,null,"",null,,,,,,,,,,,,,,,
math-period,621,1340671,2103,"",,,,,,,,,,,2numpad,,,,,
html-keyboard-response,622,1340784,null,"",null,,,,,,,,,,,,,,,
math-period,623,1341800,1804,"",,,,,,,,,,,3numpad,,,,,
html-keyboard-response,624,1341908,null,"",null,,,,,,,,,,,,,,,
math-period,625,1342943,1886,"",,,,,,,,,,,4numpad,,,,,
html-keyboard-response,626,1343049,null,"",null,,,,,,,,,,,,,,,
math-period,627,1344304,2295,"",,,,,,,,,,,2numpad,,,,,
html-keyboard-response,628,1344413,null,"",null,,,,,,,,,,,,,,,
math-period,629,1345887,2754,"",,,,,,,,,,,2numpad,,,,,
html-keyboard-response,630,1346004,null,"",null,,,,,,,,,,,,,,,
math-period,631,1347007,1820,"",,,,,,,,,,,2numpad,,,,,
html-keyboard-response,632,1347111,null,"",null,,,,,,,,,,,,,,,
math-period,633,1348431,2455,"",,,,,,,,,,,5numpad,,,,,
html-keyboard-response,634,1348548,null,"",null,,,,,,,,,,,,,,,
math-period,635,1350424,3580,"",,,,,,,,,,,0numpad,,,,,
html-keyboard-response,636,1350526,null,"",null,,,,,,,,,,,,,,,
math-period,637,1351840,2402,"",,,,,,,,,,,3numpad,,,,,
html-keyboard-response,638,1351944,null,"",null,,,,,,,,,,,,,,,
math-period,639,1353051,1005,"",,,,,,,,,,,5numpad,,,,,
html-keyboard-response,640,1354056,null,"Recall Period!",null,,,,,,,,,,,,,,,
call-function,641,1354059,,"",,,,,,,,,,,,,,,,
html-keyboard-response,642,1354165,null,"",null,,,,,,,,,,,,,,,
recall-period,643,1357256,18457,"",,,,,,,,,,,lumber,,,,,
html-keyboard-response,644,1357368,null,"",null,,,,,,,,,,,,,,,
recall-period,645,1358335,3049,"",,,,,,,,,,,stake,,,,,
html-keyboard-response,646,1358443,null,"",null,,,,,,,,,,,,,,,
recall-period,647,1363537,35992,"",,,,,,,,,,,river,,,,,
html-keyboard-response,648,1363645,null,"",null,,,,,,,,,,,,,,,
recall-period,649,1364647,3032,"",,,,,,,,,,,canal,,,,,
html-keyboard-response,650,1364759,null,"",null,,,,,,,,,,,,,,,
recall-period,651,1365743,2803,"",,,,,,,,,,,atom,,,,,
html-keyboard-response,652,1365854,null,"",null,,,,,,,,,,,,,,,
recall-period,653,1372159,73234,"",,,,,,,,,,,scientist,,,,,
html-keyboard-response,654,1372275,null,"",null,,,,,,,,,,,,,,,
recall-period,655,1412111,233853,"",,,,,,,,,,,adult,,,,,
html-keyboard-response,656,1412218,null,"",null,,,,,,,,,,,,,,,
recall-period,657,1429060,null,"",,,,,,,,,,,,,,,,
html-keyboard-response,658,1429573,null,"Time's Up!",null,,,,,,,,,,,,,,,
html-keyboard-response,659,1432288,2706,"<p> Good job! You have responded correctly to 100% of the trials. </p>
                      <p>Be sure to only press the spacebar if you see a GREEN square, and please keep your accuracy above 80%.</p>
                      <p> Press any key to continue the experiment. </p>",32,,,,,,,,,,,,,,,
html-keyboard-response,660,1433119,820,"<div style=""font-size:48px;"">Press any key to begin list 6 of 16 </div>",32,,,,,,,,,,,,,,,
html-keyboard-response,661,1435636,null,"<div style=""font-size:60px;"">+</div>",null,,,,,,,,,,,,,,,
html-keyboard-response,662,1435841,null,"<div style=""font-size:42px;"">SHEPHERD</div><img id = ""stim"" ><div class = green_square id = bottomsquare></div>",null,encoding,word_square,,,1,bottomsquare,32,true,,,SHEPHERD,5,,,
html-keyboard-response,663,1436151,277,"<div style=""font-size:42px;"">SHEPHERD</div>",32,,word,SHEPHERD,,,,,,,,,,,,
html-keyboard-response,664,1437671,null,"",null,,word,SHEPHERD,,,,,,,,,,,,
html-keyboard-response,665,1437886,null,"<div style=""font-size:42px;"">SHARK</div><img id = ""stim"" ><div class = green_square id = topsquare></div>",null,encoding,word_square,,,1,topsquare,32,true,,,SHARK,5,,,
html-keyboard-response,666,1438197,217,"<div style=""font-size:42px;"">SHARK</div>",32,,word,SHARK,,,,,,,,,,,,
html-keyboard-response,667,1439713,null,"",null,,word,SHARK,,,,,,,,,,,,
html-keyboard-response,668,1439923,null,"<div style=""font-size:42px;"">PRIMATE</div><img id = ""stim"" ><div class = red_square id = topsquare></div>",null,encoding,word_square,,,0,topsquare,none,true,,,PRIMATE,5,,,
html-keyboard-response,669,1440225,null,"<div style=""font-size:42px;"">PRIMATE</div>",null,,word,PRIMATE,,,,,,,,,,,,
html-keyboard-response,670,1441740,null,"",null,,word,PRIMATE,,,,,,,,,,,,
html-keyboard-response,671,1441946,null,"<div style=""font-size:42px;"">NURSE</div><img id = ""stim"" ><div class = red_square id = bottomsquare></div>",null,encoding,word_square,,,0,bottomsquare,none,true,,,NURSE,5,,,
html-keyboard-response,672,1442259,null,"<div style=""font-size:42px;"">NURSE</div>",null,,word,NURSE,,,,,,,,,,,,
html-keyboard-response,673,1443772,null,"",null,,word,NURSE,,,,,,,,,,,,
html-keyboard-response,674,1443978,null,"<div style=""font-size:42px;"">MARKER</div><img id = ""stim"" ><div class = green_square id = bottomsquare></div>",null,encoding,word_square,,,1,bottomsquare,32,true,,,MARKER,5,,,
html-keyboard-response,675,1444288,237,"<div style=""font-size:42px;"">MARKER</div>",32,,word,MARKER,,,,,,,,,,,,
html-keyboard-response,676,1445794,null,"",null,,word,MARKER,,,,,,,,,,,,
html-keyboard-response,677,1446008,null,"<div style=""font-size:42px;"">SCOUT</div><img id = ""stim"" ><div class = red_square id = topsquare></div>",null,encoding,word_square,,,0,topsquare,none,true,,,SCOUT,5,,,
html-keyboard-response,678,1446321,null,"<div style=""font-size:42px;"">SCOUT</div>",null,,word,SCOUT,,,,,,,,,,,,
html-keyboard-response,679,1447824,null,"",null,,word,SCOUT,,,,,,,,,,,,
html-keyboard-response,680,1448027,null,"<div style=""font-size:42px;"">FEAST</div><img id = ""stim"" ><div class = green_square id = topsquare></div>",null,encoding,word_square,,,1,topsquare,32,true,,,FEAST,5,,,
html-keyboard-response,681,1448336,284,"<div style=""font-size:42px;"">FEAST</div>",32,,word,FEAST,,,,,,,,,,,,
html-keyboard-response,682,1449855,null,"",null,,word,FEAST,,,,,,,,,,,,
html-keyboard-response,683,1450073,null,"<div style=""font-size:42px;"">SALMON</div><img id = ""stim"" ><div class = red_square id = bottomsquare></div>",null,encoding,word_square,,,0,bottomsquare,none,true,,,SALMON,5,,,
html-keyboard-response,684,1450384,null,"<div style=""font-size:42px;"">SALMON</div>",null,,word,SALMON,,,,,,,,,,,,
html-keyboard-response,685,1451901,null,"",null,,word,SALMON,,,,,,,,,,,,
html-keyboard-response,686,1452122,null,"<div style=""font-size:42px;"">LAGOON</div><img id = ""stim"" ><div class = red_square id = topsquare></div>",null,encoding,word_square,,,0,topsquare,none,true,,,LAGOON,5,,,
html-keyboard-response,687,1452431,null,"<div style=""font-size:42px;"">LAGOON</div>",null,,word,LAGOON,,,,,,,,,,,,
html-keyboard-response,688,1453948,null,"",null,,word,LAGOON,,,,,,,,,,,,
html-keyboard-response,689,1454166,null,"<div style=""font-size:42px;"">BUCKET</div><img id = ""stim"" ><div class = green_square id = bottomsquare></div>",null,encoding,word_square,,,1,bottomsquare,32,true,,,BUCKET,5,,,
html-keyboard-response,690,1454474,297,"<div style=""font-size:42px;"">BUCKET</div>",32,,word,BUCKET,,,,,,,,,,,,
html-keyboard-response,691,1455984,null,"",null,,word,BUCKET,,,,,,,,,,,,
html-keyboard-response,692,1456188,null,"<div style=""font-size:42px;"">LIGHTNING</div><img id = ""stim"" ><div class = red_square id = bottomsquare></div>",null,encoding,word_square,,,0,bottomsquare,none,true,,,LIGHTNING,5,,,
html-keyboard-response,693,1456504,null,"<div style=""font-size:42px;"">LIGHTNING</div>",null,,word,LIGHTNING,,,,,,,,,,,,
html-keyboard-response,694,1458013,null,"",null,,word,LIGHTNING,,,,,,,,,,,,
html-keyboard-response,695,1458230,null,"<div style=""font-size:42px;"">DONKEY</div><img id = ""stim"" ><div class = green_square id = topsquare></div>",null,encoding,word_square,,,1,topsquare,32,true,,,DONKEY,5,,,
html-keyboard-response,696,1458539,null,"<div style=""font-size:42px;"">DONKEY</div>",null,,word,DONKEY,,,,,,,,,,,,
html-keyboard-response,697,1460044,35,"",32,,word,DONKEY,,,,,,,,,,,,
html-keyboard-response,698,1460262,null,"<div style=""font-size:42px;"">HORSE</div><img id = ""stim"" ><div class = red_square id = topsquare></div>",null,encoding,word_square,,,0,topsquare,none,true,,,HORSE,5,,,
html-keyboard-response,699,1460572,null,"<div style=""font-size:42px;"">HORSE</div>",null,,word,HORSE,,,,,,,,,,,,
html-keyboard-response,700,1462089,null,"",null,,word,HORSE,,,,,,,,,,,,
html-keyboard-response,701,1462298,null,"<div style=""font-size:42px;"">DWARF</div><img id = ""stim"" ><div class = red_square id = bottomsquare></div>",null,encoding,word_square,,,0,bottomsquare,none,true,,,DWARF,5,,,
html-keyboard-response,702,1462606,null,"<div style=""font-size:42px;"">DWARF</div>",null,,word,DWARF,,,,,,,,,,,,
html-keyboard-response,703,1464118,null,"",null,,word,DWARF,,,,,,,,,,,,
html-keyboard-response,704,1464333,null,"<div style=""font-size:42px;"">NOTEBOOK</div><img id = ""stim"" ><div class = green_square id = bottomsquare></div>",null,encoding,word_square,,,1,bottomsquare,32,true,,,NOTEBOOK,5,,,
html-keyboard-response,705,1464645,289,"<div style=""font-size:42px;"">NOTEBOOK</div>",32,,word,NOTEBOOK,,,,,,,,,,,,
html-keyboard-response,706,1466161,null,"",null,,word,NOTEBOOK,,,,,,,,,,,,
html-keyboard-response,707,1466369,null,"<div style=""font-size:42px;"">BUSH</div><img id = ""stim"" ><div class = green_square id = topsquare></div>",null,encoding,word_square,,,1,topsquare,32,true,,,BUSH,5,,,
html-keyboard-response,708,1466679,null,"<div style=""font-size:42px;"">BUSH</div>",null,,word,BUSH,,,,,,,,,,,,
html-keyboard-response,709,1468190,119,"",32,,word,BUSH,,,,,,,,,,,,
call-function,710,1468194,,"",,,,,,,,,,,,,,,,
html-keyboard-response,711,1468304,null,"",null,,,,,,,,,,,,,,,
math-period,712,1470127,3493,"",,,,,,,,,,,4numpad,,,,,
html-keyboard-response,713,1470237,null,"",null,,,,,,,,,,,,,,,
math-period,714,1471321,1994,"",,,,,,,,,,,4numpad,,,,,
html-keyboard-response,715,1471426,null,"",null,,,,,,,,,,,,,,,
math-period,716,1472583,2113,"",,,,,,,,,,,5numpad,,,,,
html-keyboard-response,717,1472689,null,"",null,,,,,,,,,,,,,,,
math-period,718,1474647,3681,"",,,,,,,,,,,3numpad,,,,,
html-keyboard-response,719,1474765,null,"",null,,,,,,,,,,,,,,,
math-period,720,1475736,1724,"",,,,,,,,,,,2numpad,,,,,
html-keyboard-response,721,1475842,null,"",null,,,,,,,,,,,,,,,
math-period,722,1476776,1647,"",,,,,,,,,,,3numpad,,,,,
html-keyboard-response,723,1476883,null,"",null,,,,,,,,,,,,,,,
math-period,724,1477903,1805,"",,,,,,,,,,,3numpad,,,,,
html-keyboard-response,725,1478018,null,"",null,,,,,,,,,,,,,,,
math-period,726,1479515,2810,"",,,,,,,,,,,2numpad,,,,,
html-keyboard-response,727,1479618,null,"",null,,,,,,,,,,,,,,,
math-period,728,1480768,2048,"",,,,,,,,,,,6numpad,,,,,
html-keyboard-response,729,1480885,null,"",null,,,,,,,,,,,,,,,
math-period,730,1482055,2129,"",,,,,,,,,,,4numpad,,,,,
html-keyboard-response,731,1482163,null,"",null,,,,,,,,,,,,,,,
math-period,732,1483455,2381,"",,,,,,,,,,,2numpad,,,,,
html-keyboard-response,733,1483570,null,"",null,,,,,,,,,,,,,,,
math-period,734,1484600,1851,"",,,,,,,,,,,5numpad,,,,,
html-keyboard-response,735,1484705,null,"",null,,,,,,,,,,,,,,,
math-period,736,1485935,2290,"",,,,,,,,,,,4numpad,,,,,
html-keyboard-response,737,1486043,null,"",null,,,,,,,,,,,,,,,
math-period,738,1487079,1872,"",,,,,,,,,,,5numpad,,,,,
html-keyboard-response,739,1487183,null,"",null,,,,,,,,,,,,,,,
math-period,740,1488416,2308,"",,,,,,,,,,,1numpad,,,,,
html-keyboard-response,741,1488519,null,"",null,,,,,,,,,,,,,,,
math-period,742,1489664,2076,"",,,,,,,,,,,3numpad,,,,,
html-keyboard-response,743,1489777,null,"",null,,,,,,,,,,,,,,,
math-period,744,1490808,1849,"",,,,,,,,,,,5numpad,,,,,
html-keyboard-response,745,1490915,null,"",null,,,,,,,,,,,,,,,
math-period,746,1492197,null,"",,,,,,,,,,,,,,,,
html-keyboard-response,747,1493199,null,"Recall Period!",null,,,,,,,,,,,,,,,
call-function,748,1493201,,"",,,,,,,,,,,,,,,,
html-keyboard-response,749,1493307,null,"",null,,,,,,,,,,,,,,,
recall-period,750,1496647,19325,"",,,,,,,,,,,salmon,,,,,
html-keyboard-response,751,1496764,null,"",null,,,,,,,,,,,,,,,
recall-period,752,1499855,23253,"",,,,,,,,,,,shark primate,,,,,
html-keyboard-response,753,1499965,null,"",null,,,,,,,,,,,,,,,
recall-period,754,1522871,155524,"",,,,,,,,,,,marker,,,,,
html-keyboard-response,755,1522981,null,"",null,,,,,,,,,,,,,,,
recall-period,756,1524784,8731,"",,,,,,,,,,,nurse,,,,,
html-keyboard-response,757,1524892,null,"",null,,,,,,,,,,,,,,,
recall-period,758,1527223,11130,"",,,,,,,,,,,scout,,,,,
html-keyboard-response,759,1527340,null,"",null,,,,,,,,,,,,,,,
recall-period,760,1557367,205902,"",,,,,,,,,,,hamlet,,,,,
html-keyboard-response,761,1557480,null,"",null,,,,,,,,,,,,,,,
recall-period,762,1568204,null,"",,,,,,,,,,,,,,,,
html-keyboard-response,763,1568719,null,"Time's Up!",null,,,,,,,,,,,,,,,
html-keyboard-response,764,1868830,300109,"<p> Good job! You have responded correctly to 100% of the trials. </p>
                      <p>Be sure to only press the spacebar if you see a GREEN square, and please keep your accuracy above 80%.</p>
                      <p> Press any key to continue the experiment. </p>",32,,,,,,,,,,,,,,,
html-keyboard-response,765,1869544,712,"<div style=""font-size:48px;"">Press any key to begin list 7 of 16 </div>",32,,,,,,,,,,,,,,,
html-keyboard-response,766,1872064,null,"<div style=""font-size:60px;"">+</div>",null,,,,,,,,,,,,,,,
html-keyboard-response,767,1872285,null,"<div style=""font-size:42px;"">MARINE</div><img id = ""stim"" ><div class = red_square id = bottomsquare></div>",null,encoding,word_square,,,0,bottomsquare,none,false,,,MARINE,6,,,
html-keyboard-response,768,1872595,null,"<div style=""font-size:42px;"">MARINE</div>",null,,word,MARINE,,,,,,,,,,,,
html-keyboard-response,769,1874106,50,"",32,,word,MARINE,,,,,,,,,,,,
html-keyboard-response,770,1874325,null,"<div style=""font-size:42px;"">JOINT</div><img id = ""stim"" ><div class = red_square id = topsquare></div>",null,encoding,word_square,,,0,topsquare,none,true,,,JOINT,6,,,
html-keyboard-response,771,1874638,null,"<div style=""font-size:42px;"">JOINT</div>",null,,word,JOINT,,,,,,,,,,,,
html-keyboard-response,772,1876151,null,"",null,,word,JOINT,,,,,,,,,,,,
html-keyboard-response,773,1876371,null,"<div style=""font-size:42px;"">VESSEL</div><img id = ""stim"" ><div class = green_square id = topsquare></div>",null,encoding,word_square,,,1,topsquare,32,true,,,VESSEL,6,,,
html-keyboard-response,774,1876678,234,"<div style=""font-size:42px;"">VESSEL</div>",32,,word,VESSEL,,,,,,,,,,,,
html-keyboard-response,775,1878191,null,"",null,,word,VESSEL,,,,,,,,,,,,
html-keyboard-response,776,1878410,null,"<div style=""font-size:42px;"">COWBOY</div><img id = ""stim"" ><div class = green_square id = bottomsquare></div>",null,encoding,word_square,,,1,bottomsquare,32,true,,,COWBOY,6,,,
html-keyboard-response,777,1878720,252,"<div style=""font-size:42px;"">COWBOY</div>",32,,word,COWBOY,,,,,,,,,,,,
html-keyboard-response,778,1880230,null,"",null,,word,COWBOY,,,,,,,,,,,,
html-keyboard-response,779,1880447,null,"<div style=""font-size:42px;"">CONVICT</div><img id = ""stim"" ><div class = red_square id = bottomsquare></div>",null,encoding,word_square,,,0,bottomsquare,none,true,,,CONVICT,6,,,
html-keyboard-response,780,1880763,null,"<div style=""font-size:42px;"">CONVICT</div>",null,,word,CONVICT,,,,,,,,,,,,
html-keyboard-response,781,1882277,null,"",null,,word,CONVICT,,,,,,,,,,,,
html-keyboard-response,782,1882497,null,"<div style=""font-size:42px;"">COOK</div><img id = ""stim"" ><div class = green_square id = topsquare></div>",null,encoding,word_square,,,1,topsquare,32,true,,,COOK,6,,,
html-keyboard-response,783,1882806,268,"<div style=""font-size:42px;"">COOK</div>",32,,word,COOK,,,,,,,,,,,,
html-keyboard-response,784,1884322,null,"",null,,word,COOK,,,,,,,,,,,,
html-keyboard-response,785,1884528,null,"<div style=""font-size:42px;"">FROG</div><img id = ""stim"" ><div class = red_square id = topsquare></div>",null,encoding,word_square,,,0,topsquare,none,true,,,FROG,6,,,
html-keyboard-response,786,1884839,null,"<div style=""font-size:42px;"">FROG</div>",null,,word,FROG,,,,,,,,,,,,
html-keyboard-response,787,1886348,null,"",null,,word,FROG,,,,,,,,,,,,
html-keyboard-response,788,1886553,null,"<div style=""font-size:42px;"">PREACHER</div><img id = ""stim"" ><div class = green_square id = bottomsquare></div>",null,encoding,word_square,,,1,bottomsquare,32,true,,,PREACHER,6,,,
html-keyboard-response,789,1886863,null,"<div style=""font-size:42px;"">PREACHER</div>",null,,word,PREACHER,,,,,,,,,,,,
html-keyboard-response,790,1888368,85,"",32,,word,PREACHER,,,,,,,,,,,,
html-keyboard-response,791,1888588,null,"<div style=""font-size:42px;"">LAUNDRY</div><img id = ""stim"" ><div class = green_square id = topsquare></div>",null,encoding,word_square,,,1,topsquare,32,true,,,LAUNDRY,6,,,
html-keyboard-response,792,1888899,null,"<div style=""font-size:42px;"">LAUNDRY</div>",null,,word,LAUNDRY,,,,,,,,,,,,
html-keyboard-response,793,1890411,161,"",32,,word,LAUNDRY,,,,,,,,,,,,
html-keyboard-response,794,1890629,null,"<div style=""font-size:42px;"">TWISTER</div><img id = ""stim"" ><div class = red_square id = bottomsquare></div>",null,encoding,word_square,,,0,bottomsquare,none,true,,,TWISTER,6,,,
html-keyboard-response,795,1890939,null,"<div style=""font-size:42px;"">TWISTER</div>",null,,word,TWISTER,,,,,,,,,,,,
html-keyboard-response,796,1892452,null,"",null,,word,TWISTER,,,,,,,,,,,,
html-keyboard-response,797,1892658,null,"<div style=""font-size:42px;"">STAR</div><img id = ""stim"" ><div class = green_square id = bottomsquare></div>",null,encoding,word_square,,,1,bottomsquare,32,true,,,STAR,6,,,
html-keyboard-response,798,1892972,259,"<div style=""font-size:42px;"">STAR</div>",32,,word,STAR,,,,,,,,,,,,
html-keyboard-response,799,1894486,null,"",null,,word,STAR,,,,,,,,,,,,
html-keyboard-response,800,1894706,null,"<div style=""font-size:42px;"">MARS</div><img id = ""stim"" ><div class = red_square id = topsquare></div>",null,encoding,word_square,,,0,topsquare,none,true,,,MARS,6,,,
html-keyboard-response,801,1895016,null,"<div style=""font-size:42px;"">MARS</div>",null,,word,MARS,,,,,,,,,,,,
html-keyboard-response,802,1896526,null,"",null,,word,MARS,,,,,,,,,,,,
html-keyboard-response,803,1896741,null,"<div style=""font-size:42px;"">SADDLE</div><img id = ""stim"" ><div class = green_square id = topsquare></div>",null,encoding,word_square,,,1,topsquare,32,true,,,SADDLE,6,,,
html-keyboard-response,804,1897050,null,"<div style=""font-size:42px;"">SADDLE</div>",null,,word,SADDLE,,,,,,,,,,,,
html-keyboard-response,805,1898563,26,"",32,,word,SADDLE,,,,,,,,,,,,
html-keyboard-response,806,1898770,null,"<div style=""font-size:42px;"">CYCLONE</div><img id = ""stim"" ><div class = green_square id = bottomsquare></div>",null,encoding,word_square,,,1,bottomsquare,32,true,,,CYCLONE,6,,,
html-keyboard-response,807,1899080,null,"<div style=""font-size:42px;"">CYCLONE</div>",null,,word,CYCLONE,,,,,,,,,,,,
html-keyboard-response,808,1900595,117,"",32,,word,CYCLONE,,,,,,,,,,,,
html-keyboard-response,809,1900810,null,"<div style=""font-size:42px;"">SHEARS</div><img id = ""stim"" ><div class = red_square id = bottomsquare></div>",null,encoding,word_square,,,0,bottomsquare,none,true,,,SHEARS,6,,,
html-keyboard-response,810,1901125,null,"<div style=""font-size:42px;"">SHEARS</div>",null,,word,SHEARS,,,,,,,,,,,,
html-keyboard-response,811,1902636,null,"",null,,word,SHEARS,,,,,,,,,,,,
html-keyboard-response,812,1902858,null,"<div style=""font-size:42px;"">CLAM</div><img id = ""stim"" ><div class = red_square id = topsquare></div>",null,encoding,word_square,,,0,topsquare,none,true,,,CLAM,6,,,
html-keyboard-response,813,1903167,null,"<div style=""font-size:42px;"">CLAM</div>",null,,word,CLAM,,,,,,,,,,,,
html-keyboard-response,814,1904682,null,"",null,,word,CLAM,,,,,,,,,,,,
call-function,815,1904685,,"",,,,,,,,,,,,,,,,
html-keyboard-response,816,1904792,null,"",null,,,,,,,,,,,,,,,
math-period,817,1906566,3424,"",,,,,,,,,,,2numpad,,,,,
html-keyboard-response,818,1906675,null,"",null,,,,,,,,,,,,,,,
math-period,819,1907814,2032,"",,,,,,,,,,,4numpad,,,,,
html-keyboard-response,820,1907921,null,"",null,,,,,,,,,,,,,,,
math-period,821,1909119,2290,"",,,,,,,,,,,1numpad,,,,,
html-keyboard-response,822,1909223,null,"",null,,,,,,,,,,,,,,,
math-period,823,1911367,4134,"",,,,,,,,,,,1numpad,,,,,
html-keyboard-response,824,1911469,null,"",null,,,,,,,,,,,,,,,
math-period,825,1912518,1928,"",,,,,,,,,,,5numpad,,,,,
html-keyboard-response,826,1912624,null,"",null,,,,,,,,,,,,,,,
math-period,827,1914150,2923,"",,,,,,,,,,,1numpad,,,,,
html-keyboard-response,828,1914301,null,"",null,,,,,,,,,,,,,,,
math-period,829,1915590,2402,"",,,,,,,,,,,1numpad,,,,,
html-keyboard-response,830,1915700,null,"",null,,,,,,,,,,,,,,,
math-period,831,1917425,3221,"",,,,,,,,,,,3numpad,,,,,
html-keyboard-response,832,1917540,null,"",null,,,,,,,,,,,,,,,
math-period,833,1918798,2324,"",,,,,,,,,,,5numpad,,,,,
html-keyboard-response,834,1918912,null,"",null,,,,,,,,,,,,,,,
math-period,835,1920639,3306,"",,,,,,,,,,,0numpad,,,,,
html-keyboard-response,836,1920751,null,"",null,,,,,,,,,,,,,,,
math-period,837,1921839,2004,"",,,,,,,,,,,4numpad,,,,,
html-keyboard-response,838,1921942,null,"",null,,,,,,,,,,,,,,,
math-period,839,1923103,2085,"",,,,,,,,,,,6numpad,,,,,
html-keyboard-response,840,1923206,null,"",null,,,,,,,,,,,,,,,
math-period,841,1924398,2247,"",,,,,,,,,,,1numpad,,,,,
html-keyboard-response,842,1924515,null,"",null,,,,,,,,,,,,,,,
math-period,843,1925774,2372,"",,,,,,,,,,,1numpad,,,,,
html-keyboard-response,844,1925887,null,"",null,,,,,,,,,,,,,,,
math-period,845,1927246,2605,"",,,,,,,,,,,1numpad,,,,,
html-keyboard-response,846,1927357,null,"",null,,,,,,,,,,,,,,,
math-period,847,1928693,null,"",,,,,,,,,,,,,,,,
html-keyboard-response,848,1929709,null,"Recall Period!",null,,,,,,,,,,,,,,,
call-function,849,1929709,,"",,,,,,,,,,,,,,,,
html-keyboard-response,850,1929820,null,"",null,,,,,,,,,,,,,,,
recall-period,851,1932726,17532,"",,,,,,,,,,,marine,,,,,
html-keyboard-response,852,1932833,null,"",null,,,,,,,,,,,,,,,
recall-period,853,1945335,83879,"",,,,,,,,,,,priest,,,,,
html-keyboard-response,854,1945445,null,"",null,,,,,,,,,,,,,,,
recall-period,855,1956254,50770,"",,,,,,,,,,,ship,,,,,
html-keyboard-response,856,1956359,null,"",null,,,,,,,,,,,,,,,
recall-period,857,1961014,28814,"",,,,,,,,,,,vessel,,,,,
html-keyboard-response,858,1961121,null,"",null,,,,,,,,,,,,,,,
recall-period,859,2004714,null,"",,,,,,,,,,,,,,,,
html-keyboard-response,860,2005229,null,"Time's Up!",null,,,,,,,,,,,,,,,
html-keyboard-response,861,2007047,1813,"<p> Good job! You have responded correctly to 99% of the trials. </p>
                      <p>Be sure to only press the spacebar if you see a GREEN square, and please keep your accuracy above 80%.</p>
                      <p> Press any key to continue the experiment. </p>",32,,,,,,,,,,,,,,,
html-keyboard-response,862,2007705,655,"<div style=""font-size:48px;"">Press any key to begin list 8 of 16 </div>",32,,,,,,,,,,,,,,,
html-keyboard-response,863,2010226,null,"<div style=""font-size:60px;"">+</div>",null,,,,,,,,,,,,,,,
html-keyboard-response,864,2010428,null,"<div style=""font-size:42px;"">CABIN</div><img id = ""stim"" ><div class = red_square id = topsquare></div>",null,encoding,word_square,,,0,topsquare,none,true,,,CABIN,7,,,
html-keyboard-response,865,2010743,null,"<div style=""font-size:42px;"">CABIN</div>",null,,word,CABIN,,,,,,,,,,,,
html-keyboard-response,866,2012266,null,"",null,,word,CABIN,,,,,,,,,,,,
html-keyboard-response,867,2012469,null,"<div style=""font-size:42px;"">HOOK</div><img id = ""stim"" ><div class = red_square id = bottomsquare></div>",null,encoding,word_square,,,0,bottomsquare,none,true,,,HOOK,7,,,
html-keyboard-response,868,2012782,null,"<div style=""font-size:42px;"">HOOK</div>",null,,word,HOOK,,,,,,,,,,,,
html-keyboard-response,869,2014298,null,"",null,,word,HOOK,,,,,,,,,,,,
html-keyboard-response,870,2014515,null,"<div style=""font-size:42px;"">ANGEL</div><img id = ""stim"" ><div class = green_square id = bottomsquare></div>",null,encoding,word_square,,,1,bottomsquare,32,true,,,ANGEL,7,,,
html-keyboard-response,871,2014828,243,"<div style=""font-size:42px;"">ANGEL</div>",32,,word,ANGEL,,,,,,,,,,,,
html-keyboard-response,872,2016345,null,"",null,,word,ANGEL,,,,,,,,,,,,
html-keyboard-response,873,2016549,null,"<div style=""font-size:42px;"">TRIBE</div><img id = ""stim"" ><div class = green_square id = topsquare></div>",null,encoding,word_square,,,1,topsquare,32,true,,,TRIBE,7,,,
html-keyboard-response,874,2016862,null,"<div style=""font-size:42px;"">TRIBE</div>",null,,word,TRIBE,,,,,,,,,,,,
html-keyboard-response,875,2018377,31,"",32,,word,TRIBE,,,,,,,,,,,,
html-keyboard-response,876,2018595,null,"<div style=""font-size:42px;"">HANDBAG</div><img id = ""stim"" ><div class = red_square id = topsquare></div>",null,encoding,word_square,,,0,topsquare,none,true,,,HANDBAG,7,,,
html-keyboard-response,877,2018911,null,"<div style=""font-size:42px;"">HANDBAG</div>",null,,word,HANDBAG,,,,,,,,,,,,
html-keyboard-response,878,2020416,null,"",null,,word,HANDBAG,,,,,,,,,,,,
html-keyboard-response,879,2020633,null,"<div style=""font-size:42px;"">ICEBERG</div><img id = ""stim"" ><div class = green_square id = bottomsquare></div>",null,encoding,word_square,,,1,bottomsquare,32,true,,,ICEBERG,7,,,
html-keyboard-response,880,2020945,229,"<div style=""font-size:42px;"">ICEBERG</div>",32,,word,ICEBERG,,,,,,,,,,,,
html-keyboard-response,881,2022459,null,"",null,,word,ICEBERG,,,,,,,,,,,,
html-keyboard-response,882,2022663,null,"<div style=""font-size:42px;"">CURTAIN</div><img id = ""stim"" ><div class = red_square id = bottomsquare></div>",null,encoding,word_square,,,0,bottomsquare,none,true,,,CURTAIN,7,,,
html-keyboard-response,883,2022977,null,"<div style=""font-size:42px;"">CURTAIN</div>",null,,word,CURTAIN,,,,,,,,,,,,
html-keyboard-response,884,2024485,null,"",null,,word,CURTAIN,,,,,,,,,,,,
html-keyboard-response,885,2024704,null,"<div style=""font-size:42px;"">WINDOW</div><img id = ""stim"" ><div class = green_square id = topsquare></div>",null,encoding,word_square,,,1,topsquare,32,true,,,WINDOW,7,,,
html-keyboard-response,886,2025014,292,"<div style=""font-size:42px;"">WINDOW</div>",32,,word,WINDOW,,,,,,,,,,,,
html-keyboard-response,887,2026530,null,"",null,,word,WINDOW,,,,,,,,,,,,
html-keyboard-response,888,2026749,null,"<div style=""font-size:42px;"">ARM</div><img id = ""stim"" ><div class = green_square id = bottomsquare></div>",null,encoding,word_square,,,1,bottomsquare,32,true,,,ARM,7,,,
html-keyboard-response,889,2027062,null,"<div style=""font-size:42px;"">ARM</div>",null,,word,ARM,,,,,,,,,,,,
html-keyboard-response,890,2028568,199,"",32,,word,ARM,,,,,,,,,,,,
html-keyboard-response,891,2028785,null,"<div style=""font-size:42px;"">TROUT</div><img id = ""stim"" ><div class = red_square id = topsquare></div>",null,encoding,word_square,,,0,topsquare,none,true,,,TROUT,7,,,
html-keyboard-response,892,2029099,null,"<div style=""font-size:42px;"">TROUT</div>",null,,word,TROUT,,,,,,,,,,,,
html-keyboard-response,893,2030617,null,"",null,,word,TROUT,,,,,,,,,,,,
html-keyboard-response,894,2030834,null,"<div style=""font-size:42px;"">MARROW</div><img id = ""stim"" ><div class = green_square id = topsquare></div>",null,encoding,word_square,,,1,topsquare,32,true,,,MARROW,7,,,
html-keyboard-response,895,2031146,297,"<div style=""font-size:42px;"">MARROW</div>",32,,word,MARROW,,,,,,,,,,,,
html-keyboard-response,896,2032660,null,"",null,,word,MARROW,,,,,,,,,,,,
html-keyboard-response,897,2032866,null,"<div style=""font-size:42px;"">BODY</div><img id = ""stim"" ><div class = red_square id = bottomsquare></div>",null,encoding,word_square,,,0,bottomsquare,none,true,,,BODY,7,,,
html-keyboard-response,898,2033174,null,"<div style=""font-size:42px;"">BODY</div>",null,,word,BODY,,,,,,,,,,,,
html-keyboard-response,899,2034686,null,"",null,,word,BODY,,,,,,,,,,,,
html-keyboard-response,900,2034904,null,"<div style=""font-size:42px;"">KNIFE</div><img id = ""stim"" ><div class = green_square id = bottomsquare></div>",null,encoding,word_square,,,1,bottomsquare,32,true,,,KNIFE,7,,,
html-keyboard-response,901,2035218,309,"<div style=""font-size:42px;"">KNIFE</div>",32,,word,KNIFE,,,,,,,,,,,,
html-keyboard-response,902,2036732,null,"",null,,word,KNIFE,,,,,,,,,,,,
html-keyboard-response,903,2036949,null,"<div style=""font-size:42px;"">PEOPLE</div><img id = ""stim"" ><div class = green_square id = topsquare></div>",null,encoding,word_square,,,1,topsquare,32,true,,,PEOPLE,7,,,
html-keyboard-response,904,2037258,null,"<div style=""font-size:42px;"">PEOPLE</div>",null,,word,PEOPLE,,,,,,,,,,,,
html-keyboard-response,905,2038770,105,"",32,,word,PEOPLE,,,,,,,,,,,,
html-keyboard-response,906,2038988,null,"<div style=""font-size:42px;"">KLEENEX</div><img id = ""stim"" ><div class = red_square id = topsquare></div>",null,encoding,word_square,,,0,topsquare,none,true,,,KLEENEX,7,,,
html-keyboard-response,907,2039301,null,"<div style=""font-size:42px;"">KLEENEX</div>",null,,word,KLEENEX,,,,,,,,,,,,
html-keyboard-response,908,2040816,null,"",null,,word,KLEENEX,,,,,,,,,,,,
html-keyboard-response,909,2041030,null,"<div style=""font-size:42px;"">SERGEANT</div><img id = ""stim"" ><div class = red_square id = bottomsquare></div>",null,encoding,word_square,,,0,bottomsquare,none,true,,,SERGEANT,7,,,
html-keyboard-response,910,2041342,null,"<div style=""font-size:42px;"">SERGEANT</div>",null,,word,SERGEANT,,,,,,,,,,,,
html-keyboard-response,911,2042855,null,"",null,,word,SERGEANT,,,,,,,,,,,,
call-function,912,2042857,,"",,,,,,,,,,,,,,,,
html-keyboard-response,913,2042964,null,"",null,,,,,,,,,,,,,,,
math-period,914,2044718,3314,"",,,,,,,,,,,3numpad,,,,,
html-keyboard-response,915,2044825,null,"",null,,,,,,,,,,,,,,,
math-period,916,2045926,1975,"",,,,,,,,,,,4numpad,,,,,
html-keyboard-response,917,2046043,null,"",null,,,,,,,,,,,,,,,
math-period,918,2047095,1965,"",,,,,,,,,,,1numpad,,,,,
html-keyboard-response,919,2047212,null,"",null,,,,,,,,,,,,,,,
math-period,920,2048230,1904,"",,,,,,,,,,,1numpad,,,,,
html-keyboard-response,921,2048335,null,"",null,,,,,,,,,,,,,,,
math-period,922,2050239,3577,"",,,,,,,,,,,3numpad,,,,,
html-keyboard-response,923,2050352,null,"",null,,,,,,,,,,,,,,,
math-period,924,2051382,1890,"",,,,,,,,,,,2numpad,,,,,
html-keyboard-response,925,2051488,null,"",null,,,,,,,,,,,,,,,
math-period,926,2053095,3098,"",,,,,,,,,,,0numpad,,,,,
html-keyboard-response,927,2053202,null,"",null,,,,,,,,,,,,,,,
math-period,928,2054880,3222,"",,,,,,,,,,,1numpad,,,,,
html-keyboard-response,929,2054996,null,"",null,,,,,,,,,,,,,,,
math-period,930,2056495,2778,"",,,,,,,,,,,4numpad,,,,,
html-keyboard-response,931,2056600,null,"",null,,,,,,,,,,,,,,,
math-period,932,2057966,2601,"",,,,,,,,,,,0numpad,,,,,
html-keyboard-response,933,2058081,null,"",null,,,,,,,,,,,,,,,
math-period,934,2059439,2586,"",,,,,,,,,,,1numpad,,,,,
html-keyboard-response,935,2059547,null,"",null,,,,,,,,,,,,,,,
math-period,936,2060862,2442,"",,,,,,,,,,,4numpad,,,,,
html-keyboard-response,937,2060980,null,"",null,,,,,,,,,,,,,,,
math-period,938,2062342,2553,"",,,,,,,,,,,2numpad,,,,,
html-keyboard-response,939,2062460,null,"",null,,,,,,,,,,,,,,,
math-period,940,2063734,2336,"",,,,,,,,,,,4numpad,,,,,
html-keyboard-response,941,2063847,null,"",null,,,,,,,,,,,,,,,
math-period,942,2064999,2068,"",,,,,,,,,,,4numpad,,,,,
html-keyboard-response,943,2065109,null,"",null,,,,,,,,,,,,,,,
math-period,944,2066590,2750,"",,,,,,,,,,,1numpad,,,,,
html-keyboard-response,945,2066702,null,"",null,,,,,,,,,,,,,,,
math-period,946,2066864,null,"",,,,,,,,,,,,,,,,
html-keyboard-response,947,2067867,null,"Recall Period!",null,,,,,,,,,,,,,,,
call-function,948,2067867,,"",,,,,,,,,,,,,,,,
html-keyboard-response,949,2067978,null,"",null,,,,,,,,,,,,,,,
recall-period,950,2072069,18596,"",,,,,,,,,,,claw,,,,,
html-keyboard-response,951,2072186,null,"",null,,,,,,,,,,,,,,,
recall-period,952,2074453,9370,"",,,,,,,,,,,cabin,,,,,
html-keyboard-response,953,2074559,null,"",null,,,,,,,,,,,,,,,
recall-period,954,2105710,238089,"",,,,,,,,,,,captain,,,,,
html-keyboard-response,955,2105825,null,"",null,,,,,,,,,,,,,,,
recall-period,956,2119014,86147,"",,,,,,,,,,,pirate,,,,,
html-keyboard-response,957,2119127,null,"",null,,,,,,,,,,,,,,,
recall-period,958,2142882,null,"",,,,,,,,,,,,,,,,
html-keyboard-response,959,2143401,null,"Time's Up!",null,,,,,,,,,,,,,,,
html-keyboard-response,960,2144678,1276,"<p> Good job! You have responded correctly to 99% of the trials. </p>
                      <p>Be sure to only press the spacebar if you see a GREEN square, and please keep your accuracy above 80%.</p>
                      <p> Press any key to continue the experiment. </p>",32,,,,,,,,,,,,,,,
html-keyboard-response,961,2145358,678,"<div style=""font-size:48px;"">Press any key to begin list 9 of 16 </div>",32,,,,,,,,,,,,,,,
html-keyboard-response,962,2147877,null,"<div style=""font-size:60px;"">+</div>",null,,,,,,,,,,,,,,,
html-keyboard-response,963,2148093,null,"<div style=""font-size:42px;"">PORT</div><img id = ""stim"" ><div class = green_square id = topsquare></div>",null,encoding,word_square,,,1,topsquare,32,true,,,PORT,8,,,
html-keyboard-response,964,2148408,250,"<div style=""font-size:42px;"">PORT</div>",32,,word,PORT,,,,,,,,,,,,
html-keyboard-response,965,2149925,null,"",null,,word,PORT,,,,,,,,,,,,
html-keyboard-response,966,2150140,null,"<div style=""font-size:42px;"">CAPE</div><img id = ""stim"" ><div class = red_square id = bottomsquare></div>",null,encoding,word_square,,,0,bottomsquare,none,true,,,CAPE,8,,,
html-keyboard-response,967,2150451,null,"<div style=""font-size:42px;"">CAPE</div>",null,,word,CAPE,,,,,,,,,,,,
html-keyboard-response,968,2151962,null,"",null,,word,CAPE,,,,,,,,,,,,
html-keyboard-response,969,2152180,null,"<div style=""font-size:42px;"">ICING</div><img id = ""stim"" ><div class = red_square id = topsquare></div>",null,encoding,word_square,,,0,topsquare,none,true,,,ICING,8,,,
html-keyboard-response,970,2152494,null,"<div style=""font-size:42px;"">ICING</div>",null,,word,ICING,,,,,,,,,,,,
html-keyboard-response,971,2154002,null,"",null,,word,ICING,,,,,,,,,,,,
