trial_type,trial_index,time_elapsed,rt,stimulus,key_press,exp_phase,test_part,word,task,targ_cond,sq_pos,correctKeyCode,correct,value,response,Word,List,RecResp,serial_pos,colorChosen
pavlovia,0,2599,,"",,,,,,,,,,,,,,,,
external-html,1,17238,14470.700000001118,"",,,,,,,,,,,,,,,,
html-keyboard-response,2,19526,2284,"Welcome to the experiment. Press any key to begin.",72,,,,,,,,,,,,,,,
html-keyboard-response,3,33987,14459.60000000149,"<p>You will see a list of words and colored squares in the following task.<p><p>Press the spacebar whenever you see a red square.<p><p>Do not press a key if the square is green.<p><p>Press the spacebar to continue.</p>",32,,,,,,,,,,,,,,,
html-keyboard-response,4,50901,16410.799999998882,"<p>Please try to remember as many of the words as you can, and try to think about the meaning of each word as it appears.<p><p>After the detection and encoding task you will be asked to solve some math problems for 24 seconds.<p> Please solve as many problems as you can in the time given. <p><p><p>Press the spacebar to continue.</p>",32,,,,,,,,,,,,,,,
html-keyboard-response,5,60124,8721.200000001118,"After solving the math problems, you will be asked to type in as many words <p>from the previous list as you can remember for 75 seconds.<p> If you finish recalling before the 75 seconds are up,<p> just sit tight and try to think of any more words you could have missed. <p><p><p>Press the spacebar to continue.</p>",32,,,,,,,,,,,,,,,
html-keyboard-response,6,67727,7100.89999999851,"There will be 16 lists of words and recall, followed  by<p><p> a recognition phase. The experiment is expected to take up to 90 minutes.<p>We will begin with a brief practice session.<p>Press the spacebar to begin the practice.</p>",32,,,,,,,,,,,,,,,
html-keyboard-response,7,70229,null,"<div style=""font-size:60px;"">+</div>",null,,,,,,,,,,,,,,,
html-keyboard-response,8,70431,null,"<div style=""font-size:42px;"">HAPPY</div><img id = ""stim"" ><div class = green_square id = ""bottomsquare"" ></div>",null,practice,word_square,HAPPY,prac_response,0,Bottom,none,true,,,,,,,
html-keyboard-response,9,70735,null,"<div style=""font-size:42px;"">HAPPY</div>",null,,word,HAPPY,,,,,,,,,,,,
html-keyboard-response,10,72237,null,"",null,,word,HAPPY,,,,,,,,,,,,
html-keyboard-response,11,72439,null,"<div style=""font-size:42px;"">COLD</div><img id = ""stim"" ><div class = red_square id = ""bottomsquare"" ></div>",null,practice,word_square,COLD,prac_response,1,Bottom,32,true,,,,,,,
html-keyboard-response,12,72741,null,"<div style=""font-size:42px;"">COLD</div>",null,,word,COLD,,,,,,,,,,,,
html-keyboard-response,13,74243,223.40000000037253,"",32,,word,COLD,,,,,,,,,,,,
html-keyboard-response,14,74445,null,"<div style=""font-size:42px;"">HEAVY</div><img id = ""stim"" ><div class = red_square id = ""topsquare"" ></div>",null,practice,word_square,HEAVY,prac_response,1,Top,32,true,,,,,,,
html-keyboard-response,15,74747,null,"<div style=""font-size:42px;"">HEAVY</div>",null,,word,HEAVY,,,,,,,,,,,,
html-keyboard-response,16,76249,26.40000000037253,"",32,,word,HEAVY,,,,,,,,,,,,
html-keyboard-response,17,76452,null,"<div style=""font-size:42px;"">FUNNY</div><img id = ""stim"" ><div class = green_square id = ""topsquare"" ></div>",null,practice,word_square,FUNNY,prac_response,0,Top,none,true,,,,,,,
html-keyboard-response,18,76755,null,"<div style=""font-size:42px;"">FUNNY</div>",null,,word,FUNNY,,,,,,,,,,,,
html-keyboard-response,19,78262,null,"",null,,word,FUNNY,,,,,,,,,,,,
html-keyboard-response,20,78464,null,"<div style=""font-size:42px;"">SCARY</div><img id = ""stim"" ><div class = red_square id = ""bottomsquare"" ></div>",null,practice,word_square,SCARY,prac_response,1,Bottom,32,true,,,,,,,
html-keyboard-response,21,78766,190.40000000037253,"<div style=""font-size:42px;"">SCARY</div>",32,,word,SCARY,,,,,,,,,,,,
html-keyboard-response,22,80267,null,"",null,,word,SCARY,,,,,,,,,,,,
html-keyboard-response,23,80470,null,"<div style=""font-size:42px;"">PEACEFUL</div><img id = ""stim"" ><div class = red_square id = ""topsquare"" ></div>",null,practice,word_square,PEACEFUL,prac_response,1,Top,32,true,,,,,,,
html-keyboard-response,24,80773,239.30000000074506,"<div style=""font-size:42px;"">PEACEFUL</div>",32,,word,PEACEFUL,,,,,,,,,,,,
html-keyboard-response,25,82275,null,"",null,,word,PEACEFUL,,,,,,,,,,,,
html-keyboard-response,26,82476,null,"<div style=""font-size:42px;"">LITTLE</div><img id = ""stim"" ><div class = green_square id = ""bottomsquare"" ></div>",null,practice,word_square,LITTLE,prac_response,0,Bottom,none,true,,,,,,,
html-keyboard-response,27,82780,null,"<div style=""font-size:42px;"">LITTLE</div>",null,,word,LITTLE,,,,,,,,,,,,
html-keyboard-response,28,84281,null,"",null,,word,LITTLE,,,,,,,,,,,,
html-keyboard-response,29,84483,null,"<div style=""font-size:42px;"">TIRED</div><img id = ""stim"" ><div class = green_square id = ""topsquare"" ></div>",null,practice,word_square,TIRED,prac_response,0,Top,none,true,,,,,,,
html-keyboard-response,30,84786,null,"<div style=""font-size:42px;"">TIRED</div>",null,,word,TIRED,,,,,,,,,,,,
html-keyboard-response,31,86288,null,"",null,,word,TIRED,,,,,,,,,,,,
html-keyboard-response,32,86489,null,"<div style=""font-size:42px;"">ENTERTAINING</div><img id = ""stim"" ><div class = green_square id = ""bottomsquare"" ></div>",null,practice,word_square,ENTERTAINING,prac_response,0,Bottom,none,true,,,,,,,
html-keyboard-response,33,86790,null,"<div style=""font-size:42px;"">ENTERTAINING</div>",null,,word,ENTERTAINING,,,,,,,,,,,,
html-keyboard-response,34,88292,null,"",null,,word,ENTERTAINING,,,,,,,,,,,,
html-keyboard-response,35,88493,null,"<div style=""font-size:42px;"">GRATEFUL</div><img id = ""stim"" ><div class = red_square id = ""bottomsquare"" ></div>",null,practice,word_square,GRATEFUL,prac_response,1,Bottom,32,true,,,,,,,
html-keyboard-response,36,88795,139,"<div style=""font-size:42px;"">GRATEFUL</div>",32,,word,GRATEFUL,,,,,,,,,,,,
html-keyboard-response,37,90296,null,"",null,,word,GRATEFUL,,,,,,,,,,,,
html-keyboard-response,38,90498,null,"<div style=""font-size:42px;"">LOUD</div><img id = ""stim"" ><div class = green_square id = ""topsquare"" ></div>",null,practice,word_square,LOUD,prac_response,0,Top,none,true,,,,,,,
html-keyboard-response,39,90800,null,"<div style=""font-size:42px;"">LOUD</div>",null,,word,LOUD,,,,,,,,,,,,
html-keyboard-response,40,92303,null,"",null,,word,LOUD,,,,,,,,,,,,
html-keyboard-response,41,92505,null,"<div style=""font-size:42px;"">SMART</div><img id = ""stim"" ><div class = red_square id = ""topsquare"" ></div>",null,practice,word_square,SMART,prac_response,1,Top,32,true,,,,,,,
html-keyboard-response,42,92809,211.90000000037253,"<div style=""font-size:42px;"">SMART</div>",32,,word,SMART,,,,,,,,,,,,
html-keyboard-response,43,94310,null,"",null,,word,SMART,,,,,,,,,,,,
html-keyboard-response,44,94512,null,"<div style=""font-size:42px;"">SMOOTH</div><img id = ""stim"" ><div class = red_square id = ""bottomsquare"" ></div>",null,practice,word_square,SMOOTH,prac_response,1,Bottom,32,true,,,,,,,
html-keyboard-response,45,94814,null,"<div style=""font-size:42px;"">SMOOTH</div>",null,,word,SMOOTH,,,,,,,,,,,,
html-keyboard-response,46,96317,85.30000000074506,"",32,,word,SMOOTH,,,,,,,,,,,,
html-keyboard-response,47,96524,null,"<div style=""font-size:42px;"">DISHONEST</div><img id = ""stim"" ><div class = green_square id = ""bottomsquare"" ></div>",null,practice,word_square,DISHONEST,prac_response,0,Bottom,none,true,,,,,,,
html-keyboard-response,48,96826,null,"<div style=""font-size:42px;"">DISHONEST</div>",null,,word,DISHONEST,,,,,,,,,,,,
html-keyboard-response,49,98328,null,"",null,,word,DISHONEST,,,,,,,,,,,,
html-keyboard-response,50,98529,null,"<div style=""font-size:42px;"">WEALTHY</div><img id = ""stim"" ><div class = red_square id = ""topsquare"" ></div>",null,practice,word_square,WEALTHY,prac_response,1,Top,32,true,,,,,,,
html-keyboard-response,51,98831,null,"<div style=""font-size:42px;"">WEALTHY</div>",null,,word,WEALTHY,,,,,,,,,,,,
html-keyboard-response,52,100332,4,"",32,,word,WEALTHY,,,,,,,,,,,,
html-keyboard-response,53,100533,null,"<div style=""font-size:42px;"">BEAUTIFUL</div><img id = ""stim"" ><div class = green_square id = ""topsquare"" ></div>",null,practice,word_square,BEAUTIFUL,prac_response,0,Top,none,true,,,,,,,
html-keyboard-response,54,100836,null,"<div style=""font-size:42px;"">BEAUTIFUL</div>",null,,word,BEAUTIFUL,,,,,,,,,,,,
html-keyboard-response,55,102337,null,"",null,,word,BEAUTIFUL,,,,,,,,,,,,
html-keyboard-response,56,111342,9002.199999999255,"<p> Good job! You responded correctly to 100% of the trials. </p>
                  <p>Be sure to only press the spacebar if you see a red square, and please keep your accuracy above 80%.</p>
                  <p>We're going to try once more to make sure you understand the task. press any key to continue. </p>",32,,,,,,,,,,,,,,,
html-keyboard-response,57,123451,12107.799999998882,"<p>You will see a list of words and colored squares in the following task.<p><p>Press the spacebar whenever you see a red square.<p><p>Do not press a key if the square is green<p><p>Press the spacebar to continue.</p>",32,,,,,,,,,,,,,,,
html-keyboard-response,58,125952,null,"<div style=""font-size:60px;"">+</div>",null,,,,,,,,,,,,,,,
html-keyboard-response,59,126154,null,"<div style=""font-size:42px;"">HAPPY</div><img id = ""stim"" ><div class = green_square id = ""bottomsquare"" ></div>",null,practice2,word_square,HAPPY,prac_response,0,Bottom,none,true,,,,,,,
html-keyboard-response,60,126455,null,"<div style=""font-size:42px;"">HAPPY</div>",null,,word,HAPPY,,,,,,,,,,,,
html-keyboard-response,61,127956,null,"",null,,word,HAPPY,,,,,,,,,,,,
html-keyboard-response,62,128158,null,"<div style=""font-size:42px;"">COLD</div><img id = ""stim"" ><div class = red_square id = ""bottomsquare"" ></div>",null,practice2,word_square,,prac_response,1,Bottom,32,true,,,,,,,
html-keyboard-response,63,128460,161.39999999850988,"<div style=""font-size:42px;"">COLD</div>",32,,word,COLD,,,,,,,,,,,,
html-keyboard-response,64,129962,null,"",null,,word,COLD,,,,,,,,,,,,
html-keyboard-response,65,130163,null,"<div style=""font-size:42px;"">HEAVY</div><img id = ""stim"" ><div class = red_square id = ""topsquare"" ></div>",null,practice2,word_square,,prac_response,1,Top,32,true,,,,,,,
html-keyboard-response,66,130465,234.60000000149012,"<div style=""font-size:42px;"">HEAVY</div>",32,,word,HEAVY,,,,,,,,,,,,
html-keyboard-response,67,131966,null,"",null,,word,HEAVY,,,,,,,,,,,,
html-keyboard-response,68,132167,null,"<div style=""font-size:42px;"">FUNNY</div><img id = ""stim"" ><div class = green_square id = ""topsquare"" ></div>",null,practice2,word_square,,prac_response,0,Top,none,true,,,,,,,
html-keyboard-response,69,132469,null,"<div style=""font-size:42px;"">FUNNY</div>",null,,word,FUNNY,,,,,,,,,,,,
html-keyboard-response,70,133970,null,"",null,,word,FUNNY,,,,,,,,,,,,
html-keyboard-response,71,134171,null,"<div style=""font-size:42px;"">SCARY</div><img id = ""stim"" ><div class = red_square id = ""bottomsquare"" ></div>",null,practice2,word_square,,prac_response,1,Bottom,32,true,,,,,,,
html-keyboard-response,72,134473,155.80000000074506,"<div style=""font-size:42px;"">SCARY</div>",32,,word,SCARY,,,,,,,,,,,,
html-keyboard-response,73,135975,null,"",null,,word,SCARY,,,,,,,,,,,,
html-keyboard-response,74,136176,null,"<div style=""font-size:42px;"">PEACEFUL</div><img id = ""stim"" ><div class = red_square id = ""topsquare"" ></div>",null,practice2,word_square,,prac_response,1,Top,32,true,,,,,,,
html-keyboard-response,75,136478,219.90000000037253,"<div style=""font-size:42px;"">PEACEFUL</div>",32,,word,PEACEFUL,,,,,,,,,,,,
html-keyboard-response,76,137979,null,"",null,,word,PEACEFUL,,,,,,,,,,,,
html-keyboard-response,77,138180,null,"<div style=""font-size:42px;"">LITTLE</div><img id = ""stim"" ><div class = green_square id = ""bottomsquare"" ></div>",null,practice2,word_square,LITTLE,prac_response,0,Bottom,none,true,,,,,,,
html-keyboard-response,78,138482,null,"<div style=""font-size:42px;"">LITTLE</div>",null,,word,LITTLE,,,,,,,,,,,,
html-keyboard-response,79,139983,null,"",null,,word,LITTLE,,,,,,,,,,,,
html-keyboard-response,80,140184,null,"<div style=""font-size:42px;"">TIRED</div><img id = ""stim"" ><div class = green_square id = ""topsquare"" ></div>",null,practice2,word_square,,prac_response,0,Top,none,true,,,,,,,
html-keyboard-response,81,140486,null,"<div style=""font-size:42px;"">TIRED</div>",null,,word,TIRED,,,,,,,,,,,,
html-keyboard-response,82,141988,null,"",null,,word,TIRED,,,,,,,,,,,,
html-keyboard-response,83,142190,null,"<div style=""font-size:42px;"">ENTERTAINING</div><img id = ""stim"" ><div class = green_square id = ""bottomsquare"" ></div>",null,practice2,word_square,ENTERTAINING,prac_response,0,Bottom,none,true,,,,,,,
html-keyboard-response,84,142492,null,"<div style=""font-size:42px;"">ENTERTAINING</div>",null,,word,ENTERTAINING,,,,,,,,,,,,
html-keyboard-response,85,143993,null,"",null,,word,ENTERTAINING,,,,,,,,,,,,
html-keyboard-response,86,144194,null,"<div style=""font-size:42px;"">GRATEFUL</div><img id = ""stim"" ><div class = red_square id = ""bottomsquare"" ></div>",null,practice2,word_square,,prac_response,1,Bottom,32,true,,,,,,,
html-keyboard-response,87,144495,191.90000000037253,"<div style=""font-size:42px;"">GRATEFUL</div>",32,,word,GRATEFUL,,,,,,,,,,,,
html-keyboard-response,88,145997,null,"",null,,word,GRATEFUL,,,,,,,,,,,,
html-keyboard-response,89,146198,null,"<div style=""font-size:42px;"">LOUD</div><img id = ""stim"" ><div class = green_square id = ""topsquare"" ></div>",null,practice2,word_square,,prac_response,0,Top,none,true,,,,,,,
html-keyboard-response,90,146500,null,"<div style=""font-size:42px;"">LOUD</div>",null,,word,LOUD,,,,,,,,,,,,
html-keyboard-response,91,148001,null,"",null,,word,LOUD,,,,,,,,,,,,
html-keyboard-response,92,148202,null,"<div style=""font-size:42px;"">SMART</div><img id = ""stim"" ><div class = red_square id = ""topsquare"" ></div>",null,practice2,word_square,,prac_response,1,Top,32,true,,,,,,,
html-keyboard-response,93,148504,293.2999999988824,"<div style=""font-size:42px;"">SMART</div>",32,,word,SMART,,,,,,,,,,,,
html-keyboard-response,94,150005,null,"",null,,word,SMART,,,,,,,,,,,,
html-keyboard-response,95,150206,null,"<div style=""font-size:42px;"">SMOOTH</div><img id = ""stim"" ><div class = red_square id = ""bottomsquare"" ></div>",null,practice2,word_square,,prac_response,1,Bottom,32,true,,,,,,,
html-keyboard-response,96,150508,193.30000000074506,"<div style=""font-size:42px;"">SMOOTH</div>",32,,word,SMOOTH,,,,,,,,,,,,
html-keyboard-response,97,152009,null,"",null,,word,SMOOTH,,,,,,,,,,,,
html-keyboard-response,98,152210,null,"<div style=""font-size:42px;"">DISHONEST</div><img id = ""stim"" ><div class = green_square id = ""bottomsquare"" ></div>",null,practice2,word_square,DISHONEST,prac_response,0,Bottom,none,true,,,,,,,
html-keyboard-response,99,152511,null,"<div style=""font-size:42px;"">DISHONEST</div>",null,,word,DISHONEST,,,,,,,,,,,,
html-keyboard-response,100,154013,null,"",null,,word,DISHONEST,,,,,,,,,,,,
html-keyboard-response,101,154214,null,"<div style=""font-size:42px;"">WEALTHY</div><img id = ""stim"" ><div class = red_square id = ""topsquare"" ></div>",null,practice2,word_square,,prac_response,1,Top,32,true,,,,,,,
html-keyboard-response,102,154517,190.40000000037253,"<div style=""font-size:42px;"">WEALTHY</div>",32,,word,WEALTHY,,,,,,,,,,,,
html-keyboard-response,103,156019,null,"",null,,word,WEALTHY,,,,,,,,,,,,
html-keyboard-response,104,156220,null,"<div style=""font-size:42px;"">BEAUTIFUL</div><img id = ""stim"" ><div class = green_square id = ""topsquare"" ></div>",null,practice2,word_square,,prac_response,0,Top,none,false,,,,,,,
html-keyboard-response,105,156523,null,"<div style=""font-size:42px;"">BEAUTIFUL</div>",null,,word,BEAUTIFUL,,,,,,,,,,,,
html-keyboard-response,106,158025,null,"",null,,word,BEAUTIFUL,,,,,,,,,,,,
html-keyboard-response,107,163364,5337.699999999255,"<p> Good job! You responded correctly to 100% of the trials. </p>
                    <p>Be sure to only press the spacebar if you see a red square, and please keep your accuracy above 80%.</p>
                    <p>Press any key to begin the math and recall sections. Thank you! </p>",32,,,,,,,,,,,,,,,
call-function,108,163365,,"",,,,,,,,,,,,,,,,
html-keyboard-response,109,163466,null,"",null,,,,,,,,,,,,,,,
math-period,110,172791,13581.10000000149,"",,,,,,,,,,,4numpad,,,,,
html-keyboard-response,111,172894,null,"",null,,,,,,,,,,,,,,,
math-period,112,177609,8960.800000000745,"",,,,,,,,,,,1,,,,,
html-keyboard-response,113,177710,null,"",null,,,,,,,,,,,,,,,
math-period,114,182121,8331.89999999851,"",,,,,,,,,,,5,,,,,
html-keyboard-response,115,182222,null,"",null,,,,,,,,,,,,,,,
math-period,116,185208,5518.299999998882,"",,,,,,,,,,,1,,,,,
html-keyboard-response,117,185310,null,"",null,,,,,,,,,,,,,,,
math-period,118,187367,null,"",,,,,,,,,,,,,,,,
html-keyboard-response,119,188369,null,"Recall Period!",null,,,,,,,,,,,,,,,
call-function,120,188370,,"",,,,,,,,,,,,,,,,
html-keyboard-response,121,188471,null,"",null,,,,,,,,,,,,,,,
recall-period,122,195262,26393.5,"",,,,,,,,,,,cold,,,,,
html-keyboard-response,123,195363,null,"",null,,,,,,,,,,,,,,,
recall-period,124,199583,17959.09999999404,"",,,,,,,,,,,wealthy,,,,,
html-keyboard-response,125,199684,null,"",null,,,,,,,,,,,,,,,
recall-period,126,204004,34948.700000014156,"",,,,,,,,,,,entertaining,,,,,
html-keyboard-response,127,204105,null,"",null,,,,,,,,,,,,,,,
recall-period,128,208237,13713.200000001118,"",,,,,,,,,,,warm,,,,,
html-keyboard-response,129,208338,null,"",null,,,,,,,,,,,,,,,
recall-period,130,263372,null,"",,,,,,,,,,,,,,,,
html-keyboard-response,131,263873,null,"Time's Up!",null,,,,,,,,,,,,,,,
html-keyboard-response,132,281294,17418.300000000745,"<p>We will now begin the experiment!<p><p>Please try to remember all words from each list.<p><p>Press the spacebar whenever you see a red square.<p><p><p><p>Press the spacebar to begin.</p>",32,,,,,,,,,,,,,,,
html-keyboard-response,133,285196,3399.5,"<div style=""font-size:48px;"">Press any key to begin list 1 of 16 </div>",32,,,,,,,,,,,,,,,
html-keyboard-response,134,287697,null,"<div style=""font-size:60px;"">+</div>",null,,,,,,,,,,,,,,,
html-keyboard-response,135,287899,null,"<div style=""font-size:42px;"">BRACELET</div><img id = ""stim"" ><div class = red_square id = topsquare></div>",null,encoding,word_square,,,1,topsquare,32,true,,,BRACELET,0,,,
html-keyboard-response,136,288201,null,"<div style=""font-size:42px;"">BRACELET</div>",null,,word,BRACELET,,,,,,,,,,,,
html-keyboard-response,137,289702,30.200000001117587,"",32,,word,BRACELET,,,,,,,,,,,,
html-keyboard-response,138,289904,null,"<div style=""font-size:42px;"">PORTRAIT</div><img id = ""stim"" ><div class = green_square id = bottomsquare></div>",null,encoding,word_square,,,0,bottomsquare,none,true,,,PORTRAIT,0,,,
html-keyboard-response,139,290205,null,"<div style=""font-size:42px;"">PORTRAIT</div>",null,,word,PORTRAIT,,,,,,,,,,,,
html-keyboard-response,140,291707,null,"",null,,word,PORTRAIT,,,,,,,,,,,,
html-keyboard-response,141,291908,null,"<div style=""font-size:42px;"">LUMBER</div><img id = ""stim"" ><div class = red_square id = bottomsquare></div>",null,encoding,word_square,,,1,bottomsquare,32,true,,,LUMBER,0,,,
html-keyboard-response,142,292209,296.80000000074506,"<div style=""font-size:42px;"">LUMBER</div>",32,,word,LUMBER,,,,,,,,,,,,
html-keyboard-response,143,293711,null,"",null,,word,LUMBER,,,,,,,,,,,,
html-keyboard-response,144,293912,null,"<div style=""font-size:42px;"">RODENT</div><img id = ""stim"" ><div class = red_square id = topsquare></div>",null,encoding,word_square,,,1,topsquare,32,true,,,RODENT,0,,,
html-keyboard-response,145,294214,null,"<div style=""font-size:42px;"">RODENT</div>",null,,word,RODENT,,,,,,,,,,,,
html-keyboard-response,146,295715,149.59999999962747,"",32,,word,RODENT,,,,,,,,,,,,
html-keyboard-response,147,295916,null,"<div style=""font-size:42px;"">POSSUM</div><img id = ""stim"" ><div class = green_square id = topsquare></div>",null,encoding,word_square,,,0,topsquare,none,true,,,POSSUM,0,,,
html-keyboard-response,148,296218,null,"<div style=""font-size:42px;"">POSSUM</div>",null,,word,POSSUM,,,,,,,,,,,,
html-keyboard-response,149,297720,null,"",null,,word,POSSUM,,,,,,,,,,,,
html-keyboard-response,150,297921,null,"<div style=""font-size:42px;"">MOTHER</div><img id = ""stim"" ><div class = red_square id = bottomsquare></div>",null,encoding,word_square,,,1,bottomsquare,32,true,,,MOTHER,0,,,
html-keyboard-response,151,298222,230.2000000011176,"<div style=""font-size:42px;"">MOTHER</div>",32,,word,MOTHER,,,,,,,,,,,,
html-keyboard-response,152,299723,null,"",null,,word,MOTHER,,,,,,,,,,,,
html-keyboard-response,153,299925,null,"<div style=""font-size:42px;"">SPONGE</div><img id = ""stim"" ><div class = green_square id = bottomsquare></div>",null,encoding,word_square,,,0,bottomsquare,none,true,,,SPONGE,0,,,
html-keyboard-response,154,300226,null,"<div style=""font-size:42px;"">SPONGE</div>",null,,word,SPONGE,,,,,,,,,,,,
html-keyboard-response,155,301727,null,"",null,,word,SPONGE,,,,,,,,,,,,
html-keyboard-response,156,301929,null,"<div style=""font-size:42px;"">RIVER</div><img id = ""stim"" ><div class = green_square id = topsquare></div>",null,encoding,word_square,,,0,topsquare,none,true,,,RIVER,0,,,
html-keyboard-response,157,302230,null,"<div style=""font-size:42px;"">RIVER</div>",null,,word,RIVER,,,,,,,,,,,,
html-keyboard-response,158,303731,null,"",null,,word,RIVER,,,,,,,,,,,,
html-keyboard-response,159,303933,null,"<div style=""font-size:42px;"">DRAWING</div><img id = ""stim"" ><div class = red_square id = topsquare></div>",null,encoding,word_square,,,1,topsquare,32,true,,,DRAWING,0,,,
html-keyboard-response,160,304234,156.69999999925494,"<div style=""font-size:42px;"">DRAWING</div>",32,,word,DRAWING,,,,,,,,,,,,
html-keyboard-response,161,305735,null,"",null,,word,DRAWING,,,,,,,,,,,,
html-keyboard-response,162,305937,null,"<div style=""font-size:42px;"">COMPASS</div><img id = ""stim"" ><div class = red_square id = bottomsquare></div>",null,encoding,word_square,,,1,bottomsquare,32,true,,,COMPASS,0,,,
html-keyboard-response,163,306238,258.19999999925494,"<div style=""font-size:42px;"">COMPASS</div>",32,,word,COMPASS,,,,,,,,,,,,
html-keyboard-response,164,307739,null,"",null,,word,COMPASS,,,,,,,,,,,,
html-keyboard-response,165,307941,null,"<div style=""font-size:42px;"">THICKET</div><img id = ""stim"" ><div class = green_square id = bottomsquare></div>",null,encoding,word_square,,,0,bottomsquare,none,true,,,THICKET,0,,,
html-keyboard-response,166,308242,null,"<div style=""font-size:42px;"">THICKET</div>",null,,word,THICKET,,,,,,,,,,,,
html-keyboard-response,167,309743,null,"",null,,word,THICKET,,,,,,,,,,,,
html-keyboard-response,168,309945,null,"<div style=""font-size:42px;"">PANTS</div><img id = ""stim"" ><div class = green_square id = topsquare></div>",null,encoding,word_square,,,0,topsquare,none,true,,,PANTS,0,,,
html-keyboard-response,169,310246,null,"<div style=""font-size:42px;"">PANTS</div>",null,,word,PANTS,,,,,,,,,,,,
html-keyboard-response,170,311748,null,"",null,,word,PANTS,,,,,,,,,,,,
html-keyboard-response,171,311950,null,"<div style=""font-size:42px;"">LACE</div><img id = ""stim"" ><div class = red_square id = topsquare></div>",null,encoding,word_square,,,1,topsquare,32,true,,,LACE,0,,,
html-keyboard-response,172,312252,133.59999999962747,"<div style=""font-size:42px;"">LACE</div>",32,,word,LACE,,,,,,,,,,,,
html-keyboard-response,173,313755,null,"",null,,word,LACE,,,,,,,,,,,,
html-keyboard-response,174,313956,null,"<div style=""font-size:42px;"">FLASK</div><img id = ""stim"" ><div class = green_square id = bottomsquare></div>",null,encoding,word_square,,,0,bottomsquare,none,true,,,FLASK,0,,,
html-keyboard-response,175,314257,null,"<div style=""font-size:42px;"">FLASK</div>",null,,word,FLASK,,,,,,,,,,,,
html-keyboard-response,176,315759,null,"",null,,word,FLASK,,,,,,,,,,,,
html-keyboard-response,177,315960,null,"<div style=""font-size:42px;"">PIGEON</div><img id = ""stim"" ><div class = green_square id = topsquare></div>",null,encoding,word_square,,,0,topsquare,none,true,,,PIGEON,0,,,
html-keyboard-response,178,316261,null,"<div style=""font-size:42px;"">PIGEON</div>",null,,word,PIGEON,,,,,,,,,,,,
html-keyboard-response,179,317763,null,"",null,,word,PIGEON,,,,,,,,,,,,
html-keyboard-response,180,317964,null,"<div style=""font-size:42px;"">PERCH</div><img id = ""stim"" ><div class = red_square id = bottomsquare></div>",null,encoding,word_square,,,1,bottomsquare,32,true,,,PERCH,0,,,
html-keyboard-response,181,318265,146.5,"<div style=""font-size:42px;"">PERCH</div>",32,,word,PERCH,,,,,,,,,,,,
html-keyboard-response,182,319767,null,"",null,,word,PERCH,,,,,,,,,,,,
call-function,183,319768,,"",,,,,,,,,,,,,,,,
html-keyboard-response,184,319869,null,"",null,,,,,,,,,,,,,,,
math-period,185,324395,8519.89999999851,"",,,,,,,,,,,2,,,,,
html-keyboard-response,186,324496,null,"",null,,,,,,,,,,,,,,,
math-period,187,328306,6988.299999998882,"",,,,,,,,,,,2,,,,,
html-keyboard-response,188,328407,null,"",null,,,,,,,,,,,,,,,
math-period,189,331513,5753.39999999851,"",,,,,,,,,,,2,,,,,
html-keyboard-response,190,331615,null,"",null,,,,,,,,,,,,,,,
math-period,191,333788,3927.599999997765,"",,,,,,,,,,,2,,,,,
html-keyboard-response,192,333890,null,"",null,,,,,,,,,,,,,,,
math-period,193,338941,9220.10000000149,"",,,,,,,,,,,3,,,,,
html-keyboard-response,194,339044,null,"",null,,,,,,,,,,,,,,,
math-period,195,343308,12839.39999999851,"",,,,,,,,,,,5,,,,,
html-keyboard-response,196,343410,null,"",null,,,,,,,,,,,,,,,
math-period,197,343768,null,"",,,,,,,,,,,,,,,,
html-keyboard-response,198,344771,null,"Recall Period!",null,,,,,,,,,,,,,,,
call-function,199,344773,,"",,,,,,,,,,,,,,,,
html-keyboard-response,200,344876,null,"",null,,,,,,,,,,,,,,,
recall-period,201,350108,26542.39999999851,"",,,,,,,,,,,pigeon,,,,,
html-keyboard-response,202,350209,null,"",null,,,,,,,,,,,,,,,
recall-period,203,353123,8659.000000001863,"",,,,,,,,,,,perch,,,,,
html-keyboard-response,204,353227,null,"",null,,,,,,,,,,,,,,,
recall-period,205,358182,26117.299999993294,"",,,,,,,,,,,lumber,,,,,
html-keyboard-response,206,358283,null,"",null,,,,,,,,,,,,,,,
recall-period,207,369854,80016.30000000447,"",,,,,,,,,,,compass,,,,,
html-keyboard-response,208,369955,null,"",null,,,,,,,,,,,,,,,
recall-period,209,419774,null,"",,,,,,,,,,,,,,,,
html-keyboard-response,210,420275,null,"Time's Up!",null,,,,,,,,,,,,,,,
html-keyboard-response,211,429305,9026.099999999627,"<p> Good job! You have responded correctly to 100% of the trials. </p>
                      <p>Be sure to only press the spacebar if you see a red square, and please keep your accuracy above 80%.</p>
                      <p> Press any key to continue the experiment. </p>",32,,,,,,,,,,,,,,,
html-keyboard-response,212,431410,2103.5,"<div style=""font-size:48px;"">Press any key to begin list 2 of 16 </div>",32,,,,,,,,,,,,,,,
html-keyboard-response,213,433911,null,"<div style=""font-size:60px;"">+</div>",null,,,,,,,,,,,,,,,
html-keyboard-response,214,434113,null,"<div style=""font-size:42px;"">BALLOON</div><img id = ""stim"" ><div class = red_square id = bottomsquare></div>",null,encoding,word_square,,,1,bottomsquare,32,true,,,BALLOON,1,,,
html-keyboard-response,215,434414,null,"<div style=""font-size:42px;"">BALLOON</div>",null,,word,BALLOON,,,,,,,,,,,,
html-keyboard-response,216,435915,194.7999999988824,"",32,,word,BALLOON,,,,,,,,,,,,
html-keyboard-response,217,436117,null,"<div style=""font-size:42px;"">ROD</div><img id = ""stim"" ><div class = green_square id = topsquare></div>",null,encoding,word_square,,,0,topsquare,none,true,,,ROD,1,,,
html-keyboard-response,218,436418,null,"<div style=""font-size:42px;"">ROD</div>",null,,word,ROD,,,,,,,,,,,,
html-keyboard-response,219,437919,null,"",null,,word,ROD,,,,,,,,,,,,
html-keyboard-response,220,438121,null,"<div style=""font-size:42px;"">HAND</div><img id = ""stim"" ><div class = green_square id = bottomsquare></div>",null,encoding,word_square,,,0,bottomsquare,none,true,,,HAND,1,,,
html-keyboard-response,221,438422,null,"<div style=""font-size:42px;"">HAND</div>",null,,word,HAND,,,,,,,,,,,,
html-keyboard-response,222,439925,null,"",null,,word,HAND,,,,,,,,,,,,
html-keyboard-response,223,440127,null,"<div style=""font-size:42px;"">JUNGLE</div><img id = ""stim"" ><div class = red_square id = topsquare></div>",null,encoding,word_square,,,1,topsquare,32,true,,,JUNGLE,1,,,
html-keyboard-response,224,440428,null,"<div style=""font-size:42px;"">JUNGLE</div>",null,,word,JUNGLE,,,,,,,,,,,,
html-keyboard-response,225,441929,33,"",32,,word,JUNGLE,,,,,,,,,,,,
html-keyboard-response,226,442131,null,"<div style=""font-size:42px;"">PRIMATE</div><img id = ""stim"" ><div class = green_square id = topsquare></div>",null,encoding,word_square,,,0,topsquare,none,true,,,PRIMATE,1,,,
html-keyboard-response,227,442432,null,"<div style=""font-size:42px;"">PRIMATE</div>",null,,word,PRIMATE,,,,,,,,,,,,
html-keyboard-response,228,443934,null,"",null,,word,PRIMATE,,,,,,,,,,,,
html-keyboard-response,229,444135,null,"<div style=""font-size:42px;"">SODA</div><img id = ""stim"" ><div class = green_square id = bottomsquare></div>",null,encoding,word_square,,,0,bottomsquare,none,true,,,SODA,1,,,
html-keyboard-response,230,444437,null,"<div style=""font-size:42px;"">SODA</div>",null,,word,SODA,,,,,,,,,,,,
html-keyboard-response,231,445939,null,"",null,,word,SODA,,,,,,,,,,,,
html-keyboard-response,232,446140,null,"<div style=""font-size:42px;"">SIRLOIN</div><img id = ""stim"" ><div class = red_square id = bottomsquare></div>",null,encoding,word_square,,,1,bottomsquare,32,true,,,SIRLOIN,1,,,
html-keyboard-response,233,446441,226.90000000037253,"<div style=""font-size:42px;"">SIRLOIN</div>",32,,word,SIRLOIN,,,,,,,,,,,,
html-keyboard-response,234,447943,null,"",null,,word,SIRLOIN,,,,,,,,,,,,
html-keyboard-response,235,448144,null,"<div style=""font-size:42px;"">GLASSES</div><img id = ""stim"" ><div class = red_square id = topsquare></div>",null,encoding,word_square,,,1,topsquare,32,true,,,GLASSES,1,,,
html-keyboard-response,236,448445,null,"<div style=""font-size:42px;"">GLASSES</div>",null,,word,GLASSES,,,,,,,,,,,,
html-keyboard-response,237,449950,91.10000000149012,"",32,,word,GLASSES,,,,,,,,,,,,
html-keyboard-response,238,450151,null,"<div style=""font-size:42px;"">ADULT</div><img id = ""stim"" ><div class = green_square id = topsquare></div>",null,encoding,word_square,,,0,topsquare,none,true,,,ADULT,1,,,
html-keyboard-response,239,450453,null,"<div style=""font-size:42px;"">ADULT</div>",null,,word,ADULT,,,,,,,,,,,,
html-keyboard-response,240,451954,null,"",null,,word,ADULT,,,,,,,,,,,,
html-keyboard-response,241,452155,null,"<div style=""font-size:42px;"">SWATTER</div><img id = ""stim"" ><div class = green_square id = bottomsquare></div>",null,encoding,word_square,,,0,bottomsquare,none,false,,,SWATTER,1,,,
html-keyboard-response,242,452456,null,"<div style=""font-size:42px;"">SWATTER</div>",null,,word,SWATTER,,,,,,,,,,,,
html-keyboard-response,243,453958,474.19999999925494,"",32,,word,SWATTER,,,,,,,,,,,,
html-keyboard-response,244,454159,null,"<div style=""font-size:42px;"">ARM</div><img id = ""stim"" ><div class = red_square id = bottomsquare></div>",null,encoding,word_square,,,1,bottomsquare,32,true,,,ARM,1,,,
html-keyboard-response,245,454461,null,"<div style=""font-size:42px;"">ARM</div>",null,,word,ARM,,,,,,,,,,,,
html-keyboard-response,246,455962,629.5,"",32,,word,ARM,,,,,,,,,,,,
html-keyboard-response,247,456163,null,"<div style=""font-size:42px;"">COUCH</div><img id = ""stim"" ><div class = green_square id = topsquare></div>",null,encoding,word_square,,,0,topsquare,none,true,,,COUCH,1,,,
html-keyboard-response,248,456465,null,"<div style=""font-size:42px;"">COUCH</div>",null,,word,COUCH,,,,,,,,,,,,
html-keyboard-response,249,457966,null,"",null,,word,COUCH,,,,,,,,,,,,
html-keyboard-response,250,458168,null,"<div style=""font-size:42px;"">GODDESS</div><img id = ""stim"" ><div class = red_square id = topsquare></div>",null,encoding,word_square,,,1,topsquare,32,true,,,GODDESS,1,,,
html-keyboard-response,251,458469,246.2000000011176,"<div style=""font-size:42px;"">GODDESS</div>",32,,word,GODDESS,,,,,,,,,,,,
html-keyboard-response,252,459971,null,"",null,,word,GODDESS,,,,,,,,,,,,
html-keyboard-response,253,460172,null,"<div style=""font-size:42px;"">CREATURE</div><img id = ""stim"" ><div class = red_square id = bottomsquare></div>",null,encoding,word_square,,,1,bottomsquare,32,true,,,CREATURE,1,,,
html-keyboard-response,254,460475,251.5,"<div style=""font-size:42px;"">CREATURE</div>",32,,word,CREATURE,,,,,,,,,,,,
html-keyboard-response,255,461978,null,"",null,,word,CREATURE,,,,,,,,,,,,
html-keyboard-response,256,462180,null,"<div style=""font-size:42px;"">PUDDLE</div><img id = ""stim"" ><div class = green_square id = bottomsquare></div>",null,encoding,word_square,,,0,bottomsquare,none,true,,,PUDDLE,1,,,
html-keyboard-response,257,462482,null,"<div style=""font-size:42px;"">PUDDLE</div>",null,,word,PUDDLE,,,,,,,,,,,,
html-keyboard-response,258,463983,null,"",null,,word,PUDDLE,,,,,,,,,,,,
html-keyboard-response,259,464184,null,"<div style=""font-size:42px;"">SLIDE</div><img id = ""stim"" ><div class = red_square id = topsquare></div>",null,encoding,word_square,,,1,topsquare,32,true,,,SLIDE,1,,,
html-keyboard-response,260,464486,158.40000000037253,"<div style=""font-size:42px;"">SLIDE</div>",32,,word,SLIDE,,,,,,,,,,,,
html-keyboard-response,261,465987,null,"",null,,word,SLIDE,,,,,,,,,,,,
call-function,262,465988,,"",,,,,,,,,,,,,,,,
html-keyboard-response,263,466089,null,"",null,,,,,,,,,,,,,,,
math-period,264,471308,10048.800000000745,"",,,,,,,,,,,0,,,,,
html-keyboard-response,265,471409,null,"",null,,,,,,,,,,,,,,,
math-period,266,474505,5848,"",,,,,,,,,,,5,,,,,
html-keyboard-response,267,474608,null,"",null,,,,,,,,,,,,,,,
math-period,268,476319,3126.0999999996275,"",,,,,,,,,,,2,,,,,
html-keyboard-response,269,476420,null,"",null,,,,,,,,,,,,,,,
math-period,270,479878,6590.699999999255,"",,,,,,,,,,,3,,,,,
html-keyboard-response,271,479979,null,"",null,,,,,,,,,,,,,,,
math-period,272,481689,3122.599999997765,"",,,,,,,,,,,5,,,,,
html-keyboard-response,273,481791,null,"",null,,,,,,,,,,,,,,,
math-period,274,486090,8239.5,"",,,,,,,,,,,3,,,,,
html-keyboard-response,275,486191,null,"",null,,,,,,,,,,,,,,,
math-period,276,489741,6578.5999999996275,"",,,,,,,,,,,1,,,,,
html-keyboard-response,277,489842,null,"",null,,,,,,,,,,,,,,,
math-period,278,489990,null,"",,,,,,,,,,,,,,,,
html-keyboard-response,279,490993,null,"Recall Period!",null,,,,,,,,,,,,,,,
call-function,280,490995,,"",,,,,,,,,,,,,,,,
html-keyboard-response,281,491098,null,"",null,,,,,,,,,,,,,,,
recall-period,282,496275,25741.500000001863,"",,,,,,,,,,,goddess,,,,,
html-keyboard-response,283,496376,null,"",null,,,,,,,,,,,,,,,
recall-period,284,499143,14318.80000000447,"",,,,,,,,,,,swatter,,,,,
html-keyboard-response,285,499248,null,"",null,,,,,,,,,,,,,,,
recall-period,286,505479,33254.99999999814,"",,,,,,,,,,,balloon,,,,,
html-keyboard-response,287,505581,null,"",null,,,,,,,,,,,,,,,
recall-period,288,512488,40211.899999994785,"",,,,,,,,,,,creature,,,,,
html-keyboard-response,289,512590,null,"",null,,,,,,,,,,,,,,,
recall-period,290,516643,14971.499999998137,"",,,,,,,,,,,soda,,,,,
html-keyboard-response,291,516746,null,"",null,,,,,,,,,,,,,,,
recall-period,292,522853,38698.000000003725,"",,,,,,,,,,,silence,,,,,
html-keyboard-response,293,522956,null,"",null,,,,,,,,,,,,,,,
recall-period,294,565996,null,"",,,,,,,,,,,,,,,,
html-keyboard-response,295,566497,null,"Time's Up!",null,,,,,,,,,,,,,,,
html-keyboard-response,296,571006,4506.0999999996275,"<p> Good job! You have responded correctly to 97% of the trials. </p>
                      <p>Be sure to only press the spacebar if you see a red square, and please keep your accuracy above 80%.</p>
                      <p> Press any key to continue the experiment. </p>",32,,,,,,,,,,,,,,,
html-keyboard-response,297,572888,1878.5,"<div style=""font-size:48px;"">Press any key to begin list 3 of 16 </div>",32,,,,,,,,,,,,,,,
html-keyboard-response,298,575391,null,"<div style=""font-size:60px;"">+</div>",null,,,,,,,,,,,,,,,
html-keyboard-response,299,575593,null,"<div style=""font-size:42px;"">PUPPY</div><img id = ""stim"" ><div class = green_square id = bottomsquare></div>",null,encoding,word_square,,,0,bottomsquare,none,false,,,PUPPY,2,,,
html-keyboard-response,300,575895,null,"<div style=""font-size:42px;"">PUPPY</div>",null,,word,PUPPY,,,,,,,,,,,,
html-keyboard-response,301,577396,162.2000000011176,"",32,,word,PUPPY,,,,,,,,,,,,
html-keyboard-response,302,577598,null,"<div style=""font-size:42px;"">CATCHER</div><img id = ""stim"" ><div class = red_square id = topsquare></div>",null,encoding,word_square,,,1,topsquare,32,true,,,CATCHER,2,,,
html-keyboard-response,303,577899,null,"<div style=""font-size:42px;"">CATCHER</div>",null,,word,CATCHER,,,,,,,,,,,,
html-keyboard-response,304,579401,48.09999999962747,"",32,,word,CATCHER,,,,,,,,,,,,
html-keyboard-response,305,579603,null,"<div style=""font-size:42px;"">KNUCKLE</div><img id = ""stim"" ><div class = green_square id = topsquare></div>",null,encoding,word_square,,,0,topsquare,none,true,,,KNUCKLE,2,,,
html-keyboard-response,306,579904,null,"<div style=""font-size:42px;"">KNUCKLE</div>",null,,word,KNUCKLE,,,,,,,,,,,,
html-keyboard-response,307,581405,null,"",null,,word,KNUCKLE,,,,,,,,,,,,
html-keyboard-response,308,581607,null,"<div style=""font-size:42px;"">SENATE</div><img id = ""stim"" ><div class = green_square id = bottomsquare></div>",null,encoding,word_square,,,0,bottomsquare,none,true,,,SENATE,2,,,
html-keyboard-response,309,581908,null,"<div style=""font-size:42px;"">SENATE</div>",null,,word,SENATE,,,,,,,,,,,,
html-keyboard-response,310,583410,null,"",null,,word,SENATE,,,,,,,,,,,,
html-keyboard-response,311,583611,null,"<div style=""font-size:42px;"">EYELASH</div><img id = ""stim"" ><div class = red_square id = bottomsquare></div>",null,encoding,word_square,,,1,bottomsquare,32,true,,,EYELASH,2,,,
html-keyboard-response,312,583912,251.19999999925494,"<div style=""font-size:42px;"">EYELASH</div>",32,,word,EYELASH,,,,,,,,,,,,
html-keyboard-response,313,585414,null,"",null,,word,EYELASH,,,,,,,,,,,,
html-keyboard-response,314,585615,null,"<div style=""font-size:42px;"">SWAMP</div><img id = ""stim"" ><div class = green_square id = topsquare></div>",null,encoding,word_square,,,0,topsquare,none,true,,,SWAMP,2,,,
html-keyboard-response,315,585917,null,"<div style=""font-size:42px;"">SWAMP</div>",null,,word,SWAMP,,,,,,,,,,,,
html-keyboard-response,316,587419,null,"",null,,word,SWAMP,,,,,,,,,,,,
html-keyboard-response,317,587621,null,"<div style=""font-size:42px;"">BLOCKADE</div><img id = ""stim"" ><div class = red_square id = topsquare></div>",null,encoding,word_square,,,1,topsquare,32,true,,,BLOCKADE,2,,,
html-keyboard-response,318,587922,209.40000000037253,"<div style=""font-size:42px;"">BLOCKADE</div>",32,,word,BLOCKADE,,,,,,,,,,,,
html-keyboard-response,319,589424,null,"",null,,word,BLOCKADE,,,,,,,,,,,,
html-keyboard-response,320,589625,null,"<div style=""font-size:42px;"">CRICKET</div><img id = ""stim"" ><div class = red_square id = bottomsquare></div>",null,encoding,word_square,,,1,bottomsquare,32,true,,,CRICKET,2,,,
html-keyboard-response,321,589927,null,"<div style=""font-size:42px;"">CRICKET</div>",null,,word,CRICKET,,,,,,,,,,,,
html-keyboard-response,322,591428,88.90000000037253,"",32,,word,CRICKET,,,,,,,,,,,,
html-keyboard-response,323,591629,null,"<div style=""font-size:42px;"">BUTLER</div><img id = ""stim"" ><div class = green_square id = bottomsquare></div>",null,encoding,word_square,,,0,bottomsquare,none,true,,,BUTLER,2,,,
html-keyboard-response,324,591931,null,"<div style=""font-size:42px;"">BUTLER</div>",null,,word,BUTLER,,,,,,,,,,,,
html-keyboard-response,325,593432,null,"",null,,word,BUTLER,,,,,,,,,,,,
html-keyboard-response,326,593634,null,"<div style=""font-size:42px;"">PROTON</div><img id = ""stim"" ><div class = green_square id = topsquare></div>",null,encoding,word_square,,,0,topsquare,none,true,,,PROTON,2,,,
html-keyboard-response,327,593935,null,"<div style=""font-size:42px;"">PROTON</div>",null,,word,PROTON,,,,,,,,,,,,
html-keyboard-response,328,595438,null,"",null,,word,PROTON,,,,,,,,,,,,
html-keyboard-response,329,595640,null,"<div style=""font-size:42px;"">ACTOR</div><img id = ""stim"" ><div class = red_square id = topsquare></div>",null,encoding,word_square,,,1,topsquare,32,true,,,ACTOR,2,,,
html-keyboard-response,330,595942,null,"<div style=""font-size:42px;"">ACTOR</div>",null,,word,ACTOR,,,,,,,,,,,,
html-keyboard-response,331,597443,91.69999999925494,"",32,,word,ACTOR,,,,,,,,,,,,
html-keyboard-response,332,597645,null,"<div style=""font-size:42px;"">SAPPHIRE</div><img id = ""stim"" ><div class = red_square id = bottomsquare></div>",null,encoding,word_square,,,1,bottomsquare,32,true,,,SAPPHIRE,2,,,
html-keyboard-response,333,597947,null,"<div style=""font-size:42px;"">SAPPHIRE</div>",null,,word,SAPPHIRE,,,,,,,,,,,,
html-keyboard-response,334,599448,96.70000000111759,"",32,,word,SAPPHIRE,,,,,,,,,,,,
html-keyboard-response,335,599649,null,"<div style=""font-size:42px;"">STAR</div><img id = ""stim"" ><div class = green_square id = bottomsquare></div>",null,encoding,word_square,,,0,bottomsquare,none,true,,,STAR,2,,,
html-keyboard-response,336,599951,null,"<div style=""font-size:42px;"">STAR</div>",null,,word,STAR,,,,,,,,,,,,
html-keyboard-response,337,601452,null,"",null,,word,STAR,,,,,,,,,,,,
html-keyboard-response,338,601653,null,"<div style=""font-size:42px;"">COMET</div><img id = ""stim"" ><div class = red_square id = topsquare></div>",null,encoding,word_square,,,1,topsquare,32,true,,,COMET,2,,,
html-keyboard-response,339,601955,null,"<div style=""font-size:42px;"">COMET</div>",null,,word,COMET,,,,,,,,,,,,
html-keyboard-response,340,603456,30.5,"",32,,word,COMET,,,,,,,,,,,,
html-keyboard-response,341,603659,null,"<div style=""font-size:42px;"">BRAKE</div><img id = ""stim"" ><div class = red_square id = bottomsquare></div>",null,encoding,word_square,,,1,bottomsquare,32,true,,,BRAKE,2,,,
html-keyboard-response,342,603960,239.10000000149012,"<div style=""font-size:42px;"">BRAKE</div>",32,,word,BRAKE,,,,,,,,,,,,
html-keyboard-response,343,605462,null,"",null,,word,BRAKE,,,,,,,,,,,,
html-keyboard-response,344,605663,null,"<div style=""font-size:42px;"">TURNIP</div><img id = ""stim"" ><div class = green_square id = topsquare></div>",null,encoding,word_square,,,0,topsquare,none,true,,,TURNIP,2,,,
html-keyboard-response,345,605965,null,"<div style=""font-size:42px;"">TURNIP</div>",null,,word,TURNIP,,,,,,,,,,,,
html-keyboard-response,346,607466,null,"",null,,word,TURNIP,,,,,,,,,,,,
call-function,347,607468,,"",,,,,,,,,,,,,,,,
html-keyboard-response,348,607569,null,"",null,,,,,,,,,,,,,,,
math-period,349,610170,4788.499999998137,"",,,,,,,,,,,4,,,,,
html-keyboard-response,350,610271,null,"",null,,,,,,,,,,,,,,,
math-period,351,612825,4679.799999998882,"",,,,,,,,,,,1,,,,,
html-keyboard-response,352,612927,null,"",null,,,,,,,,,,,,,,,
math-period,353,615320,4443.20000000298,"",,,,,,,,,,,5,,,,,
html-keyboard-response,354,615421,null,"",null,,,,,,,,,,,,,,,
math-period,355,618594,5741.89999999851,"",,,,,,,,,,,5,,,,,
html-keyboard-response,356,618696,null,"",null,,,,,,,,,,,,,,,
math-period,357,620670,3594.60000000149,"",,,,,,,,,,,3,,,,,
html-keyboard-response,358,620779,null,"",null,,,,,,,,,,,,,,,
math-period,359,623522,5038.300000000745,"",,,,,,,,,,,2,,,,,
html-keyboard-response,360,623624,null,"",null,,,,,,,,,,,,,,,
math-period,361,626500,5003.5,"",,,,,,,,,,,5,,,,,
html-keyboard-response,362,626602,null,"",null,,,,,,,,,,,,,,,
math-period,363,629602,5375.299999998882,"",,,,,,,,,,,2,,,,,
html-keyboard-response,364,629703,null,"",null,,,,,,,,,,,,,,,
math-period,365,631467,1544.699999999255,"",,,,,,,,,,,5,,,,,
html-keyboard-response,366,632469,null,"Recall Period!",null,,,,,,,,,,,,,,,
call-function,367,632469,,"",,,,,,,,,,,,,,,,
html-keyboard-response,368,632571,null,"",null,,,,,,,,,,,,,,,
recall-period,369,636677,20292.800000008196,"",,,,,,,,,,,cricket,,,,,
html-keyboard-response,370,636779,null,"",null,,,,,,,,,,,,,,,
recall-period,371,639623,7327.300000002608,"",,,,,,,,,,,star,,,,,
html-keyboard-response,372,639725,null,"",null,,,,,,,,,,,,,,,
recall-period,373,644930,29763.800000000745,"",,,,,,,,,,,eyelash,,,,,
html-keyboard-response,374,645034,null,"",null,,,,,,,,,,,,,,,
recall-period,375,658829,133640.90000000224,"",,,,,,,,,,,knuckle,,,,,
html-keyboard-response,376,658931,null,"",null,,,,,,,,,,,,,,,
recall-period,377,666114,28114.70000000298,"",,,,,,,,,,,wish,,,,,
html-keyboard-response,378,666216,null,"",null,,,,,,,,,,,,,,,
recall-period,379,707470,null,"",,,,,,,,,,,,,,,,
html-keyboard-response,380,707972,null,"Time's Up!",null,,,,,,,,,,,,,,,
html-keyboard-response,381,710339,2366.4000000003725,"<p> Good job! You have responded correctly to 96% of the trials. </p>
                      <p>Be sure to only press the spacebar if you see a red square, and please keep your accuracy above 80%.</p>
                      <p> Press any key to continue the experiment. </p>",32,,,,,,,,,,,,,,,
html-keyboard-response,382,713288,2946.300000000745,"<div style=""font-size:48px;"">Press any key to begin list 4 of 16 </div>",32,,,,,,,,,,,,,,,
html-keyboard-response,383,715789,null,"<div style=""font-size:60px;"">+</div>",null,,,,,,,,,,,,,,,
html-keyboard-response,384,715991,null,"<div style=""font-size:42px;"">JEANS</div><img id = ""stim"" ><div class = green_square id = topsquare></div>",null,encoding,word_square,,,0,topsquare,none,true,,,JEANS,3,,,
html-keyboard-response,385,716292,null,"<div style=""font-size:42px;"">JEANS</div>",null,,word,JEANS,,,,,,,,,,,,
html-keyboard-response,386,717794,null,"",null,,word,JEANS,,,,,,,,,,,,
html-keyboard-response,387,717996,null,"<div style=""font-size:42px;"">COOKBOOK</div><img id = ""stim"" ><div class = red_square id = bottomsquare></div>",null,encoding,word_square,,,1,bottomsquare,32,true,,,COOKBOOK,3,,,
html-keyboard-response,388,718297,288.09999999962747,"<div style=""font-size:42px;"">COOKBOOK</div>",32,,word,COOKBOOK,,,,,,,,,,,,
html-keyboard-response,389,719798,null,"",null,,word,COOKBOOK,,,,,,,,,,,,
html-keyboard-response,390,720000,null,"<div style=""font-size:42px;"">SCULPTURE</div><img id = ""stim"" ><div class = red_square id = topsquare></div>",null,encoding,word_square,,,1,topsquare,32,true,,,SCULPTURE,3,,,
html-keyboard-response,391,720301,null,"<div style=""font-size:42px;"">SCULPTURE</div>",null,,word,SCULPTURE,,,,,,,,,,,,
html-keyboard-response,392,721803,195.59999999962747,"",32,,word,SCULPTURE,,,,,,,,,,,,
html-keyboard-response,393,722004,null,"<div style=""font-size:42px;"">PITCHFORK</div><img id = ""stim"" ><div class = green_square id = bottomsquare></div>",null,encoding,word_square,,,0,bottomsquare,none,true,,,PITCHFORK,3,,,
html-keyboard-response,394,722305,null,"<div style=""font-size:42px;"">PITCHFORK</div>",null,,word,PITCHFORK,,,,,,,,,,,,
html-keyboard-response,395,723807,null,"",null,,word,PITCHFORK,,,,,,,,,,,,
html-keyboard-response,396,724008,null,"<div style=""font-size:42px;"">HAWK</div><img id = ""stim"" ><div class = red_square id = bottomsquare></div>",null,encoding,word_square,,,1,bottomsquare,32,true,,,HAWK,3,,,
html-keyboard-response,397,724310,null,"<div style=""font-size:42px;"">HAWK</div>",null,,word,HAWK,,,,,,,,,,,,
html-keyboard-response,398,725811,168.30000000074506,"",32,,word,HAWK,,,,,,,,,,,,
html-keyboard-response,399,726013,null,"<div style=""font-size:42px;"">SOFTBALL</div><img id = ""stim"" ><div class = red_square id = topsquare></div>",null,encoding,word_square,,,1,topsquare,32,true,,,SOFTBALL,3,,,
html-keyboard-response,400,726314,null,"<div style=""font-size:42px;"">SOFTBALL</div>",null,,word,SOFTBALL,,,,,,,,,,,,
html-keyboard-response,401,727816,124.80000000074506,"",32,,word,SOFTBALL,,,,,,,,,,,,
html-keyboard-response,402,728017,null,"<div style=""font-size:42px;"">KLEENEX</div><img id = ""stim"" ><div class = green_square id = topsquare></div>",null,encoding,word_square,,,0,topsquare,none,true,,,KLEENEX,3,,,
html-keyboard-response,403,728318,null,"<div style=""font-size:42px;"">KLEENEX</div>",null,,word,KLEENEX,,,,,,,,,,,,
html-keyboard-response,404,729820,null,"",null,,word,KLEENEX,,,,,,,,,,,,
html-keyboard-response,405,730021,null,"<div style=""font-size:42px;"">POISON</div><img id = ""stim"" ><div class = green_square id = bottomsquare></div>",null,encoding,word_square,,,0,bottomsquare,none,true,,,POISON,3,,,
html-keyboard-response,406,730326,null,"<div style=""font-size:42px;"">POISON</div>",null,,word,POISON,,,,,,,,,,,,
html-keyboard-response,407,731828,null,"",null,,word,POISON,,,,,,,,,,,,
html-keyboard-response,408,732029,null,"<div style=""font-size:42px;"">RATTLE</div><img id = ""stim"" ><div class = red_square id = bottomsquare></div>",null,encoding,word_square,,,1,bottomsquare,32,true,,,RATTLE,3,,,
html-keyboard-response,409,732331,236.19999999925494,"<div style=""font-size:42px;"">RATTLE</div>",32,,word,RATTLE,,,,,,,,,,,,
html-keyboard-response,410,733832,null,"",null,,word,RATTLE,,,,,,,,,,,,
html-keyboard-response,411,734034,null,"<div style=""font-size:42px;"">CARTON</div><img id = ""stim"" ><div class = red_square id = topsquare></div>",null,encoding,word_square,,,1,topsquare,32,true,,,CARTON,3,,,
html-keyboard-response,412,734335,null,"<div style=""font-size:42px;"">CARTON</div>",null,,word,CARTON,,,,,,,,,,,,
html-keyboard-response,413,735836,17.399999998509884,"",32,,word,CARTON,,,,,,,,,,,,
html-keyboard-response,414,736038,null,"<div style=""font-size:42px;"">HAYSTACK</div><img id = ""stim"" ><div class = green_square id = topsquare></div>",null,encoding,word_square,,,0,topsquare,none,true,,,HAYSTACK,3,,,
html-keyboard-response,415,736339,null,"<div style=""font-size:42px;"">HAYSTACK</div>",null,,word,HAYSTACK,,,,,,,,,,,,
html-keyboard-response,416,737841,null,"",null,,word,HAYSTACK,,,,,,,,,,,,
html-keyboard-response,417,738042,null,"<div style=""font-size:42px;"">TEACHER</div><img id = ""stim"" ><div class = red_square id = bottomsquare></div>",null,encoding,word_square,,,1,bottomsquare,32,true,,,TEACHER,3,,,
html-keyboard-response,418,738344,203.80000000074506,"<div style=""font-size:42px;"">TEACHER</div>",32,,word,TEACHER,,,,,,,,,,,,
html-keyboard-response,419,739845,null,"",null,,word,TEACHER,,,,,,,,,,,,
html-keyboard-response,420,740047,null,"<div style=""font-size:42px;"">STUDENT</div><img id = ""stim"" ><div class = green_square id = bottomsquare></div>",null,encoding,word_square,,,0,bottomsquare,none,true,,,STUDENT,3,,,
html-keyboard-response,421,740348,null,"<div style=""font-size:42px;"">STUDENT</div>",null,,word,STUDENT,,,,,,,,,,,,
html-keyboard-response,422,741850,null,"",null,,word,STUDENT,,,,,,,,,,,,
html-keyboard-response,423,742051,null,"<div style=""font-size:42px;"">SERVER</div><img id = ""stim"" ><div class = green_square id = topsquare></div>",null,encoding,word_square,,,0,topsquare,none,true,,,SERVER,3,,,
html-keyboard-response,424,742353,null,"<div style=""font-size:42px;"">SERVER</div>",null,,word,SERVER,,,,,,,,,,,,
html-keyboard-response,425,743854,null,"",null,,word,SERVER,,,,,,,,,,,,
html-keyboard-response,426,744059,null,"<div style=""font-size:42px;"">MAJOR</div><img id = ""stim"" ><div class = red_square id = topsquare></div>",null,encoding,word_square,,,1,topsquare,32,true,,,MAJOR,3,,,
html-keyboard-response,427,744361,null,"<div style=""font-size:42px;"">MAJOR</div>",null,,word,MAJOR,,,,,,,,,,,,
html-keyboard-response,428,745862,56.5,"",32,,word,MAJOR,,,,,,,,,,,,
html-keyboard-response,429,746063,null,"<div style=""font-size:42px;"">SAND</div><img id = ""stim"" ><div class = green_square id = bottomsquare></div>",null,encoding,word_square,,,0,bottomsquare,none,true,,,SAND,3,,,
html-keyboard-response,430,746365,null,"<div style=""font-size:42px;"">SAND</div>",null,,word,SAND,,,,,,,,,,,,
html-keyboard-response,431,747866,null,"",null,,word,SAND,,,,,,,,,,,,
call-function,432,747867,,"",,,,,,,,,,,,,,,,
html-keyboard-response,433,747968,null,"",null,,,,,,,,,,,,,,,
math-period,434,750494,4795.699999999255,"",,,,,,,,,,,3,,,,,
html-keyboard-response,435,750596,null,"",null,,,,,,,,,,,,,,,
math-period,436,752518,3554.2000000011176,"",,,,,,,,,,,5,,,,,
html-keyboard-response,437,752621,null,"",null,,,,,,,,,,,,,,,
math-period,438,756387,7016.5,"",,,,,,,,,,,4,,,,,
html-keyboard-response,439,756488,null,"",null,,,,,,,,,,,,,,,
math-period,440,758198,3108.6999999973923,"",,,,,,,,,,,4,,,,,
html-keyboard-response,441,758299,null,"",null,,,,,,,,,,,,,,,
math-period,442,760625,4218.299999998882,"",,,,,,,,,,,2,,,,,
html-keyboard-response,443,760728,null,"",null,,,,,,,,,,,,,,,
math-period,444,764579,7336.400000002235,"",,,,,,,,,,,1,,,,,
html-keyboard-response,445,764680,null,"",null,,,,,,,,,,,,,,,
math-period,446,767390,5097.699999999255,"",,,,,,,,,,,4,,,,,
html-keyboard-response,447,767492,null,"",null,,,,,,,,,,,,,,,
math-period,448,771145,6853.5999999996275,"",,,,,,,,,,,4,,,,,
html-keyboard-response,449,771249,null,"",null,,,,,,,,,,,,,,,
math-period,450,771869,null,"",,,,,,,,,,,,,,,,
html-keyboard-response,451,772871,null,"Recall Period!",null,,,,,,,,,,,,,,,
call-function,452,772871,,"",,,,,,,,,,,,,,,,
html-keyboard-response,453,772973,null,"",null,,,,,,,,,,,,,,,
recall-period,454,776296,18325.700000004843,"",,,,,,,,,,,student,,,,,
html-keyboard-response,455,776397,null,"",null,,,,,,,,,,,,,,,
recall-period,456,780327,16909.100000007078,"",,,,,,,,,,,teacher,,,,,
html-keyboard-response,457,780428,null,"",null,,,,,,,,,,,,,,,
recall-period,458,784144,12242.599999999627,"",,,,,,,,,,,major,,,,,
html-keyboard-response,459,784246,null,"",null,,,,,,,,,,,,,,,
recall-period,460,788128,8113.400000002235,"",,,,,,,,,,,sand,,,,,
html-keyboard-response,461,788229,null,"",null,,,,,,,,,,,,,,,
recall-period,462,847873,null,"",,,,,,,,,,,,,,,,
html-keyboard-response,463,848374,null,"Time's Up!",null,,,,,,,,,,,,,,,
html-keyboard-response,464,849901,1524.8999999985099,"<p> Good job! You have responded correctly to 97% of the trials. </p>
                      <p>Be sure to only press the spacebar if you see a red square, and please keep your accuracy above 80%.</p>
                      <p> Press any key to continue the experiment. </p>",32,,,,,,,,,,,,,,,
html-keyboard-response,465,851411,1508.5,"<div style=""font-size:48px;"">Press any key to begin list 5 of 16 </div>",32,,,,,,,,,,,,,,,
html-keyboard-response,466,853912,null,"<div style=""font-size:60px;"">+</div>",null,,,,,,,,,,,,,,,
html-keyboard-response,467,854113,null,"<div style=""font-size:42px;"">BLUEJAY</div><img id = ""stim"" ><div class = red_square id = topsquare></div>",null,encoding,word_square,,,1,topsquare,32,true,,,BLUEJAY,4,,,
html-keyboard-response,468,854415,null,"<div style=""font-size:42px;"">BLUEJAY</div>",null,,word,BLUEJAY,,,,,,,,,,,,
html-keyboard-response,469,855916,275.30000000074506,"",32,,word,BLUEJAY,,,,,,,,,,,,
html-keyboard-response,470,856118,null,"<div style=""font-size:42px;"">LODGE</div><img id = ""stim"" ><div class = red_square id = bottomsquare></div>",null,encoding,word_square,,,1,bottomsquare,32,true,,,LODGE,4,,,
html-keyboard-response,471,856422,null,"<div style=""font-size:42px;"">LODGE</div>",null,,word,LODGE,,,,,,,,,,,,
html-keyboard-response,472,857924,127.80000000074506,"",32,,word,LODGE,,,,,,,,,,,,
html-keyboard-response,473,858127,null,"<div style=""font-size:42px;"">CABIN</div><img id = ""stim"" ><div class = green_square id = bottomsquare></div>",null,encoding,word_square,,,0,bottomsquare,none,true,,,CABIN,4,,,
html-keyboard-response,474,858429,null,"<div style=""font-size:42px;"">CABIN</div>",null,,word,CABIN,,,,,,,,,,,,
html-keyboard-response,475,859931,null,"",null,,word,CABIN,,,,,,,,,,,,
html-keyboard-response,476,860133,null,"<div style=""font-size:42px;"">TOASTER</div><img id = ""stim"" ><div class = red_square id = topsquare></div>",null,encoding,word_square,,,1,topsquare,32,true,,,TOASTER,4,,,
html-keyboard-response,477,860434,null,"<div style=""font-size:42px;"">TOASTER</div>",null,,word,TOASTER,,,,,,,,,,,,
html-keyboard-response,478,861936,86.69999999925494,"",32,,word,TOASTER,,,,,,,,,,,,
html-keyboard-response,479,862137,null,"<div style=""font-size:42px;"">GARLIC</div><img id = ""stim"" ><div class = green_square id = topsquare></div>",null,encoding,word_square,,,0,topsquare,none,true,,,GARLIC,4,,,
html-keyboard-response,480,862439,null,"<div style=""font-size:42px;"">GARLIC</div>",null,,word,GARLIC,,,,,,,,,,,,
html-keyboard-response,481,863940,null,"",null,,word,GARLIC,,,,,,,,,,,,
html-keyboard-response,482,864141,null,"<div style=""font-size:42px;"">FLIPPER</div><img id = ""stim"" ><div class = green_square id = bottomsquare></div>",null,encoding,word_square,,,0,bottomsquare,none,true,,,FLIPPER,4,,,
html-keyboard-response,483,864443,null,"<div style=""font-size:42px;"">FLIPPER</div>",null,,word,FLIPPER,,,,,,,,,,,,
html-keyboard-response,484,865944,null,"",null,,word,FLIPPER,,,,,,,,,,,,
html-keyboard-response,485,866146,null,"<div style=""font-size:42px;"">MAMMAL</div><img id = ""stim"" ><div class = red_square id = bottomsquare></div>",null,encoding,word_square,,,1,bottomsquare,32,true,,,MAMMAL,4,,,
html-keyboard-response,486,866447,null,"<div style=""font-size:42px;"">MAMMAL</div>",null,,word,MAMMAL,,,,,,,,,,,,
html-keyboard-response,487,867948,35.69999999925494,"",32,,word,MAMMAL,,,,,,,,,,,,
html-keyboard-response,488,868150,null,"<div style=""font-size:42px;"">FLUTE</div><img id = ""stim"" ><div class = green_square id = topsquare></div>",null,encoding,word_square,,,0,topsquare,none,true,,,FLUTE,4,,,
html-keyboard-response,489,868451,null,"<div style=""font-size:42px;"">FLUTE</div>",null,,word,FLUTE,,,,,,,,,,,,
html-keyboard-response,490,869953,null,"",null,,word,FLUTE,,,,,,,,,,,,
html-keyboard-response,491,870154,null,"<div style=""font-size:42px;"">SCARECROW</div><img id = ""stim"" ><div class = green_square id = bottomsquare></div>",null,encoding,word_square,,,0,bottomsquare,none,true,,,SCARECROW,4,,,
html-keyboard-response,492,870456,null,"<div style=""font-size:42px;"">SCARECROW</div>",null,,word,SCARECROW,,,,,,,,,,,,
html-keyboard-response,493,871957,null,"",null,,word,SCARECROW,,,,,,,,,,,,
html-keyboard-response,494,872159,null,"<div style=""font-size:42px;"">SQUID</div><img id = ""stim"" ><div class = red_square id = topsquare></div>",null,encoding,word_square,,,1,topsquare,32,true,,,SQUID,4,,,
html-keyboard-response,495,872460,null,"<div style=""font-size:42px;"">SQUID</div>",null,,word,SQUID,,,,,,,,,,,,
html-keyboard-response,496,873961,79.80000000074506,"",32,,word,SQUID,,,,,,,,,,,,
html-keyboard-response,497,874164,null,"<div style=""font-size:42px;"">CLERK</div><img id = ""stim"" ><div class = red_square id = bottomsquare></div>",null,encoding,word_square,,,1,bottomsquare,32,true,,,CLERK,4,,,
html-keyboard-response,498,874465,null,"<div style=""font-size:42px;"">CLERK</div>",null,,word,CLERK,,,,,,,,,,,,
html-keyboard-response,499,875967,200.7999999988824,"",32,,word,CLERK,,,,,,,,,,,,
html-keyboard-response,500,876168,null,"<div style=""font-size:42px;"">SHAMPOO</div><img id = ""stim"" ><div class = green_square id = topsquare></div>",null,encoding,word_square,,,0,topsquare,none,true,,,SHAMPOO,4,,,
html-keyboard-response,501,876470,null,"<div style=""font-size:42px;"">SHAMPOO</div>",null,,word,SHAMPOO,,,,,,,,,,,,
html-keyboard-response,502,877972,null,"",null,,word,SHAMPOO,,,,,,,,,,,,
html-keyboard-response,503,878173,null,"<div style=""font-size:42px;"">YOLK</div><img id = ""stim"" ><div class = green_square id = bottomsquare></div>",null,encoding,word_square,,,0,bottomsquare,none,true,,,YOLK,4,,,
html-keyboard-response,504,878475,null,"<div style=""font-size:42px;"">YOLK</div>",null,,word,YOLK,,,,,,,,,,,,
html-keyboard-response,505,879977,null,"",null,,word,YOLK,,,,,,,,,,,,
html-keyboard-response,506,880178,null,"<div style=""font-size:42px;"">CUPBOARD</div><img id = ""stim"" ><div class = red_square id = topsquare></div>",null,encoding,word_square,,,1,topsquare,32,true,,,CUPBOARD,4,,,
html-keyboard-response,507,880480,246.5,"<div style=""font-size:42px;"">CUPBOARD</div>",32,,word,CUPBOARD,,,,,,,,,,,,
html-keyboard-response,508,881981,null,"",null,,word,CUPBOARD,,,,,,,,,,,,
html-keyboard-response,509,882183,null,"<div style=""font-size:42px;"">SHIRT</div><img id = ""stim"" ><div class = green_square id = topsquare></div>",null,encoding,word_square,,,0,topsquare,none,true,,,SHIRT,4,,,
html-keyboard-response,510,882484,null,"<div style=""font-size:42px;"">SHIRT</div>",null,,word,SHIRT,,,,,,,,,,,,
html-keyboard-response,511,883985,null,"",null,,word,SHIRT,,,,,,,,,,,,
html-keyboard-response,512,884187,null,"<div style=""font-size:42px;"">YACHT</div><img id = ""stim"" ><div class = red_square id = bottomsquare></div>",null,encoding,word_square,,,1,bottomsquare,32,true,,,YACHT,4,,,
html-keyboard-response,513,884488,null,"<div style=""font-size:42px;"">YACHT</div>",null,,word,YACHT,,,,,,,,,,,,
html-keyboard-response,514,885990,105.40000000037253,"",32,,word,YACHT,,,,,,,,,,,,
call-function,515,885991,,"",,,,,,,,,,,,,,,,
html-keyboard-response,516,886092,null,"",null,,,,,,,,,,,,,,,
math-period,517,890954,8748.199999997392,"",,,,,,,,,,,2,,,,,
html-keyboard-response,518,891057,null,"",null,,,,,,,,,,,,,,,
math-period,519,892546,2680.0999999996275,"",,,,,,,,,,,3,,,,,
html-keyboard-response,520,892648,null,"",null,,,,,,,,,,,,,,,
math-period,521,896234,6332.500000001863,"",,,,,,,,,,,0,,,,,
html-keyboard-response,522,896335,null,"",null,,,,,,,,,,,,,,,
math-period,523,898484,3894.9000000003725,"",,,,,,,,,,,2,,,,,
html-keyboard-response,524,898586,null,"",null,,,,,,,,,,,,,,,
math-period,525,900813,4056,"",,,,,,,,,,,5,,,,,
html-keyboard-response,526,900916,null,"",null,,,,,,,,,,,,,,,
math-period,527,902912,3644.7999999988824,"",,,,,,,,,,,4,,,,,
html-keyboard-response,528,903015,null,"",null,,,,,,,,,,,,,,,
math-period,529,904787,3195.7999999988824,"",,,,,,,,,,,4,,,,,
html-keyboard-response,530,904890,null,"",null,,,,,,,,,,,,,,,
math-period,531,907160,4227.699999999255,"",,,,,,,,,,,1,,,,,
html-keyboard-response,532,907263,null,"",null,,,,,,,,,,,,,,,
math-period,533,909992,2300.4000000003725,"",,,,,,,,,,,3,,,,,
html-keyboard-response,534,910994,null,"Recall Period!",null,,,,,,,,,,,,,,,
call-function,535,910997,,"",,,,,,,,,,,,,,,,
html-keyboard-response,536,911100,null,"",null,,,,,,,,,,,,,,,
recall-period,537,915272,19343.900000004098,"",,,,,,,,,,,squid,,,,,
html-keyboard-response,538,915375,null,"",null,,,,,,,,,,,,,,,
recall-period,539,918700,11386,"",,,,,,,,,,,yacht,,,,,
html-keyboard-response,540,918803,null,"",null,,,,,,,,,,,,,,,
recall-period,541,922842,13553.800000002608,"",,,,,,,,,,,yolk,,,,,
html-keyboard-response,542,922944,null,"",null,,,,,,,,,,,,,,,
recall-period,543,985997,null,"",,,,,,,,,,,,,,,,
html-keyboard-response,544,986499,null,"Time's Up!",null,,,,,,,,,,,,,,,
html-keyboard-response,545,990003,3503,"<p> Good job! You have responded correctly to 98% of the trials. </p>
                      <p>Be sure to only press the spacebar if you see a red square, and please keep your accuracy above 80%.</p>
                      <p> Press any key to continue the experiment. </p>",86,,,,,,,,,,,,,,,
html-keyboard-response,546,995145,5139.5999999996275,"<div style=""font-size:48px;"">Press any key to begin list 6 of 16 </div>",32,,,,,,,,,,,,,,,
html-keyboard-response,547,997647,null,"<div style=""font-size:60px;"">+</div>",null,,,,,,,,,,,,,,,
html-keyboard-response,548,997848,null,"<div style=""font-size:42px;"">TOILET</div><img id = ""stim"" ><div class = red_square id = bottomsquare></div>",null,encoding,word_square,,,1,bottomsquare,32,true,,,TOILET,5,,,
html-keyboard-response,549,998150,null,"<div style=""font-size:42px;"">TOILET</div>",null,,word,TOILET,,,,,,,,,,,,
html-keyboard-response,550,999651,68.09999999962747,"",32,,word,TOILET,,,,,,,,,,,,
html-keyboard-response,551,999853,null,"<div style=""font-size:42px;"">SPOOL</div><img id = ""stim"" ><div class = green_square id = topsquare></div>",null,encoding,word_square,,,0,topsquare,none,true,,,SPOOL,5,,,
html-keyboard-response,552,1000154,null,"<div style=""font-size:42px;"">SPOOL</div>",null,,word,SPOOL,,,,,,,,,,,,
html-keyboard-response,553,1001655,null,"",null,,word,SPOOL,,,,,,,,,,,,
html-keyboard-response,554,1001857,null,"<div style=""font-size:42px;"">MARKER</div><img id = ""stim"" ><div class = red_square id = topsquare></div>",null,encoding,word_square,,,1,topsquare,32,true,,,MARKER,5,,,
html-keyboard-response,555,1002160,null,"<div style=""font-size:42px;"">MARKER</div>",null,,word,MARKER,,,,,,,,,,,,
html-keyboard-response,556,1003661,781.0999999996275,"",32,,word,MARKER,,,,,,,,,,,,
html-keyboard-response,557,1003863,null,"<div style=""font-size:42px;"">CATTLE</div><img id = ""stim"" ><div class = green_square id = bottomsquare></div>",null,encoding,word_square,,,0,bottomsquare,none,true,,,CATTLE,5,,,
html-keyboard-response,558,1004164,null,"<div style=""font-size:42px;"">CATTLE</div>",null,,word,CATTLE,,,,,,,,,,,,
html-keyboard-response,559,1005666,null,"",null,,word,CATTLE,,,,,,,,,,,,
html-keyboard-response,560,1005868,null,"<div style=""font-size:42px;"">SPOON</div><img id = ""stim"" ><div class = green_square id = topsquare></div>",null,encoding,word_square,,,0,topsquare,none,true,,,SPOON,5,,,
html-keyboard-response,561,1006170,null,"<div style=""font-size:42px;"">SPOON</div>",null,,word,SPOON,,,,,,,,,,,,
html-keyboard-response,562,1007671,null,"",null,,word,SPOON,,,,,,,,,,,,
html-keyboard-response,563,1007873,null,"<div style=""font-size:42px;"">LASER</div><img id = ""stim"" ><div class = red_square id = bottomsquare></div>",null,encoding,word_square,,,1,bottomsquare,32,true,,,LASER,5,,,
html-keyboard-response,564,1008174,null,"<div style=""font-size:42px;"">LASER</div>",null,,word,LASER,,,,,,,,,,,,
html-keyboard-response,565,1009675,116.39999999850988,"",32,,word,LASER,,,,,,,,,,,,
html-keyboard-response,566,1009877,null,"<div style=""font-size:42px;"">ICEBERG</div><img id = ""stim"" ><div class = red_square id = topsquare></div>",null,encoding,word_square,,,1,topsquare,32,true,,,ICEBERG,5,,,
html-keyboard-response,567,1010179,null,"<div style=""font-size:42px;"">ICEBERG</div>",null,,word,ICEBERG,,,,,,,,,,,,
html-keyboard-response,568,1011681,270.30000000074506,"",32,,word,ICEBERG,,,,,,,,,,,,
html-keyboard-response,569,1011882,null,"<div style=""font-size:42px;"">SCARF</div><img id = ""stim"" ><div class = green_square id = bottomsquare></div>",null,encoding,word_square,,,0,bottomsquare,none,true,,,SCARF,5,,,
html-keyboard-response,570,1012184,null,"<div style=""font-size:42px;"">SCARF</div>",null,,word,SCARF,,,,,,,,,,,,
html-keyboard-response,571,1013685,null,"",null,,word,SCARF,,,,,,,,,,,,
html-keyboard-response,572,1013887,null,"<div style=""font-size:42px;"">JAR</div><img id = ""stim"" ><div class = green_square id = topsquare></div>",null,encoding,word_square,,,0,topsquare,none,true,,,JAR,5,,,
html-keyboard-response,573,1014188,null,"<div style=""font-size:42px;"">JAR</div>",null,,word,JAR,,,,,,,,,,,,
html-keyboard-response,574,1015689,null,"",null,,word,JAR,,,,,,,,,,,,
html-keyboard-response,575,1015891,null,"<div style=""font-size:42px;"">BRIDE</div><img id = ""stim"" ><div class = red_square id = bottomsquare></div>",null,encoding,word_square,,,1,bottomsquare,32,true,,,BRIDE,5,,,
html-keyboard-response,576,1016192,null,"<div style=""font-size:42px;"">BRIDE</div>",null,,word,BRIDE,,,,,,,,,,,,
html-keyboard-response,577,1017694,164.5,"",32,,word,BRIDE,,,,,,,,,,,,
html-keyboard-response,578,1017895,null,"<div style=""font-size:42px;"">PIRATE</div><img id = ""stim"" ><div class = green_square id = bottomsquare></div>",null,encoding,word_square,,,0,bottomsquare,none,true,,,PIRATE,5,,,
html-keyboard-response,579,1018197,null,"<div style=""font-size:42px;"">PIRATE</div>",null,,word,PIRATE,,,,,,,,,,,,
html-keyboard-response,580,1019698,null,"",null,,word,PIRATE,,,,,,,,,,,,
html-keyboard-response,581,1019900,null,"<div style=""font-size:42px;"">WASHER</div><img id = ""stim"" ><div class = green_square id = topsquare></div>",null,encoding,word_square,,,0,topsquare,none,true,,,WASHER,5,,,
html-keyboard-response,582,1020201,null,"<div style=""font-size:42px;"">WASHER</div>",null,,word,WASHER,,,,,,,,,,,,
html-keyboard-response,583,1021702,null,"",null,,word,WASHER,,,,,,,,,,,,
html-keyboard-response,584,1021904,null,"<div style=""font-size:42px;"">CANDY</div><img id = ""stim"" ><div class = red_square id = topsquare></div>",null,encoding,word_square,,,1,topsquare,32,true,,,CANDY,5,,,
html-keyboard-response,585,1022205,null,"<div style=""font-size:42px;"">CANDY</div>",null,,word,CANDY,,,,,,,,,,,,
html-keyboard-response,586,1023707,1218.7000000011176,"",32,,word,CANDY,,,,,,,,,,,,
html-keyboard-response,587,1023908,null,"<div style=""font-size:42px;"">MATCH</div><img id = ""stim"" ><div class = green_square id = bottomsquare></div>",null,encoding,word_square,,,0,bottomsquare,none,true,,,MATCH,5,,,
html-keyboard-response,588,1024210,null,"<div style=""font-size:42px;"">MATCH</div>",null,,word,MATCH,,,,,,,,,,,,
html-keyboard-response,589,1025711,null,"",null,,word,MATCH,,,,,,,,,,,,
html-keyboard-response,590,1025913,null,"<div style=""font-size:42px;"">SPRINKLE</div><img id = ""stim"" ><div class = red_square id = bottomsquare></div>",null,encoding,word_square,,,1,bottomsquare,32,true,,,SPRINKLE,5,,,
html-keyboard-response,591,1026214,287.59999999962747,"<div style=""font-size:42px;"">SPRINKLE</div>",32,,word,SPRINKLE,,,,,,,,,,,,
html-keyboard-response,592,1027715,null,"",null,,word,SPRINKLE,,,,,,,,,,,,
html-keyboard-response,593,1027917,null,"<div style=""font-size:42px;"">APRON</div><img id = ""stim"" ><div class = red_square id = topsquare></div>",null,encoding,word_square,,,1,topsquare,32,false,,,APRON,5,,,
html-keyboard-response,594,1028218,null,"<div style=""font-size:42px;"">APRON</div>",null,,word,APRON,,,,,,,,,,,,
html-keyboard-response,595,1029720,null,"",null,,word,APRON,,,,,,,,,,,,
call-function,596,1029721,,"",,,,,,,,,,,,,,,,
html-keyboard-response,597,1029822,null,"",null,,,,,,,,,,,,,,,
math-period,598,1033360,6572.89999999851,"",,,,,,,,,,, 1,,,,,
html-keyboard-response,599,1033462,null,"",null,,,,,,,,,,,,,,,
math-period,600,1034980,2651.5,"",,,,,,,,,,,2,,,,,
html-keyboard-response,601,1035084,null,"",null,,,,,,,,,,,,,,,
math-period,602,1042612,14695.599999997765,"",,,,,,,,,,,2,,,,,
html-keyboard-response,603,1042716,null,"",null,,,,,,,,,,,,,,,
math-period,604,1044644,3438.10000000149,"",,,,,,,,,,,4,,,,,
html-keyboard-response,605,1044746,null,"",null,,,,,,,,,,,,,,,
math-period,606,1047548,5171.5999999996275,"",,,,,,,,,,,1,,,,,
html-keyboard-response,607,1047649,null,"",null,,,,,,,,,,,,,,,
math-period,608,1049300,2798.2000000011176,"",,,,,,,,,,,2,,,,,
html-keyboard-response,609,1049402,null,"",null,,,,,,,,,,,,,,,
math-period,610,1051327,3469.2000000029802,"",,,,,,,,,,,3,,,,,
html-keyboard-response,611,1051428,null,"",null,,,,,,,,,,,,,,,
math-period,612,1053722,null,"",,,,,,,,,,,,,,,,
html-keyboard-response,613,1054725,null,"Recall Period!",null,,,,,,,,,,,,,,,
call-function,614,1054728,,"",,,,,,,,,,,,,,,,
html-keyboard-response,615,1054829,null,"",null,,,,,,,,,,,,,,,
recall-period,616,1064593,49165.20000000298,"",,,,,,,,,,,bride,,,,,
html-keyboard-response,617,1064697,null,"",null,,,,,,,,,,,,,,,
recall-period,618,1070370,26943.900000004098,"",,,,,,,,,,,laser,,,,,
html-keyboard-response,619,1070471,null,"",null,,,,,,,,,,,,,,,
recall-period,620,1073966,11414.700000001118,"",,,,,,,,,,,candy,,,,,
html-keyboard-response,621,1074067,null,"",null,,,,,,,,,,,,,,,
recall-period,622,1077155,10382.199999999255,"",,,,,,,,,,,mark,,,,,
html-keyboard-response,623,1077259,null,"",null,,,,,,,,,,,,,,,
recall-period,624,1082093,28314.600000005215,"",,,,,,,,,,,toilet,,,,,
html-keyboard-response,625,1082195,null,"",null,,,,,,,,,,,,,,,
recall-period,626,1103914,141723.80000000633,"",,,,,,,,,,,toilet,,,,,
html-keyboard-response,627,1104015,null,"",null,,,,,,,,,,,,,,,
recall-period,628,1129727,null,"",,,,,,,,,,,,,,,,
html-keyboard-response,629,1130228,null,"Time's Up!",null,,,,,,,,,,,,,,,
html-keyboard-response,630,1691434,561197.6999999993,"<p> Good job! You have responded correctly to 97% of the trials. </p>
                      <p>Be sure to only press the spacebar if you see a red square, and please keep your accuracy above 80%.</p>
                      <p> Press any key to continue the experiment. </p>",66,,,,,,,,,,,,,,,
html-keyboard-response,631,1694993,3554.0999999996275,"<div style=""font-size:48px;"">Press any key to begin list 7 of 16 </div>",32,,,,,,,,,,,,,,,
html-keyboard-response,632,1697495,null,"<div style=""font-size:60px;"">+</div>",null,,,,,,,,,,,,,,,
html-keyboard-response,633,1697697,null,"<div style=""font-size:42px;"">COIN</div><img id = ""stim"" ><div class = green_square id = bottomsquare></div>",null,encoding,word_square,,,0,bottomsquare,none,true,,,COIN,6,,,
html-keyboard-response,634,1697999,null,"<div style=""font-size:42px;"">COIN</div>",null,,word,COIN,,,,,,,,,,,,
html-keyboard-response,635,1699503,null,"",null,,word,COIN,,,,,,,,,,,,
html-keyboard-response,636,1699706,null,"<div style=""font-size:42px;"">CORAL</div><img id = ""stim"" ><div class = green_square id = topsquare></div>",null,encoding,word_square,,,0,topsquare,none,true,,,CORAL,6,,,
html-keyboard-response,637,1700007,null,"<div style=""font-size:42px;"">CORAL</div>",null,,word,CORAL,,,,,,,,,,,,
html-keyboard-response,638,1701509,null,"",null,,word,CORAL,,,,,,,,,,,,
html-keyboard-response,639,1701711,null,"<div style=""font-size:42px;"">CHISEL</div><img id = ""stim"" ><div class = red_square id = topsquare></div>",null,encoding,word_square,,,1,topsquare,32,true,,,CHISEL,6,,,
html-keyboard-response,640,1702012,null,"<div style=""font-size:42px;"">CHISEL</div>",null,,word,CHISEL,,,,,,,,,,,,
html-keyboard-response,641,1703514,180.80000000074506,"",32,,word,CHISEL,,,,,,,,,,,,
html-keyboard-response,642,1703715,null,"<div style=""font-size:42px;"">EUROPE</div><img id = ""stim"" ><div class = green_square id = bottomsquare></div>",null,encoding,word_square,,,0,bottomsquare,none,true,,,EUROPE,6,,,
html-keyboard-response,643,1704017,null,"<div style=""font-size:42px;"">EUROPE</div>",null,,word,EUROPE,,,,,,,,,,,,
html-keyboard-response,644,1705519,null,"",null,,word,EUROPE,,,,,,,,,,,,
html-keyboard-response,645,1705720,null,"<div style=""font-size:42px;"">ARTIST</div><img id = ""stim"" ><div class = red_square id = bottomsquare></div>",null,encoding,word_square,,,1,bottomsquare,32,true,,,ARTIST,6,,,
html-keyboard-response,646,1706022,292.7999999988824,"<div style=""font-size:42px;"">ARTIST</div>",32,,word,ARTIST,,,,,,,,,,,,
html-keyboard-response,647,1707523,null,"",null,,word,ARTIST,,,,,,,,,,,,
html-keyboard-response,648,1707725,null,"<div style=""font-size:42px;"">CRYSTAL</div><img id = ""stim"" ><div class = red_square id = topsquare></div>",null,encoding,word_square,,,1,topsquare,32,true,,,CRYSTAL,6,,,
html-keyboard-response,649,1708026,null,"<div style=""font-size:42px;"">CRYSTAL</div>",null,,word,CRYSTAL,,,,,,,,,,,,
html-keyboard-response,650,1709528,16.09999999962747,"",32,,word,CRYSTAL,,,,,,,,,,,,
html-keyboard-response,651,1709730,null,"<div style=""font-size:42px;"">FRIES</div><img id = ""stim"" ><div class = green_square id = topsquare></div>",null,encoding,word_square,,,0,topsquare,none,true,,,FRIES,6,,,
html-keyboard-response,652,1710031,null,"<div style=""font-size:42px;"">FRIES</div>",null,,word,FRIES,,,,,,,,,,,,
html-keyboard-response,653,1711532,null,"",null,,word,FRIES,,,,,,,,,,,,
html-keyboard-response,654,1711734,null,"<div style=""font-size:42px;"">TWIG</div><img id = ""stim"" ><div class = red_square id = bottomsquare></div>",null,encoding,word_square,,,1,bottomsquare,32,true,,,TWIG,6,,,
html-keyboard-response,655,1712036,null,"<div style=""font-size:42px;"">TWIG</div>",null,,word,TWIG,,,,,,,,,,,,
html-keyboard-response,656,1713537,1455.2000000011176,"",32,,word,TWIG,,,,,,,,,,,,
html-keyboard-response,657,1713739,null,"<div style=""font-size:42px;"">NOTEBOOK</div><img id = ""stim"" ><div class = red_square id = topsquare></div>",null,encoding,word_square,,,1,topsquare,32,true,,,NOTEBOOK,6,,,
html-keyboard-response,658,1714040,null,"<div style=""font-size:42px;"">NOTEBOOK</div>",null,,word,NOTEBOOK,,,,,,,,,,,,
html-keyboard-response,659,1715542,96.19999999925494,"",32,,word,NOTEBOOK,,,,,,,,,,,,
html-keyboard-response,660,1715743,null,"<div style=""font-size:42px;"">COBBLER</div><img id = ""stim"" ><div class = green_square id = bottomsquare></div>",null,encoding,word_square,,,0,bottomsquare,none,true,,,COBBLER,6,,,
html-keyboard-response,661,1716045,266.5,"<div style=""font-size:42px;"">COBBLER</div>",32,,word,COBBLER,,,,,,,,,,,,
html-keyboard-response,662,1717546,null,"",null,,word,COBBLER,,,,,,,,,,,,
html-keyboard-response,663,1717748,null,"<div style=""font-size:42px;"">LILY</div><img id = ""stim"" ><div class = green_square id = topsquare></div>",null,encoding,word_square,,,0,topsquare,none,true,,,LILY,6,,,
html-keyboard-response,664,1718049,null,"<div style=""font-size:42px;"">LILY</div>",null,,word,LILY,,,,,,,,,,,,
html-keyboard-response,665,1719551,null,"",null,,word,LILY,,,,,,,,,,,,
html-keyboard-response,666,1719753,null,"<div style=""font-size:42px;"">SLOPE</div><img id = ""stim"" ><div class = red_square id = bottomsquare></div>",null,encoding,word_square,,,1,bottomsquare,32,true,,,SLOPE,6,,,
html-keyboard-response,667,1720054,null,"<div style=""font-size:42px;"">SLOPE</div>",null,,word,SLOPE,,,,,,,,,,,,
html-keyboard-response,668,1721558,26.59999999962747,"",32,,word,SLOPE,,,,,,,,,,,,
html-keyboard-response,669,1721761,null,"<div style=""font-size:42px;"">CASHIER</div><img id = ""stim"" ><div class = red_square id = topsquare></div>",null,encoding,word_square,,,1,topsquare,32,true,,,CASHIER,6,,,
html-keyboard-response,670,1722063,null,"<div style=""font-size:42px;"">CASHIER</div>",null,,word,CASHIER,,,,,,,,,,,,
html-keyboard-response,671,1723564,374,"",32,,word,CASHIER,,,,,,,,,,,,
html-keyboard-response,672,1723766,null,"<div style=""font-size:42px;"">FATHER</div><img id = ""stim"" ><div class = green_square id = bottomsquare></div>",null,encoding,word_square,,,0,bottomsquare,none,true,,,FATHER,6,,,
html-keyboard-response,673,1724067,null,"<div style=""font-size:42px;"">FATHER</div>",null,,word,FATHER,,,,,,,,,,,,
html-keyboard-response,674,1725568,null,"",null,,word,FATHER,,,,,,,,,,,,
html-keyboard-response,675,1725770,null,"<div style=""font-size:42px;"">CHIPMUNK</div><img id = ""stim"" ><div class = red_square id = bottomsquare></div>",null,encoding,word_square,,,1,bottomsquare,32,true,,,CHIPMUNK,6,,,
html-keyboard-response,676,1726072,null,"<div style=""font-size:42px;"">CHIPMUNK</div>",null,,word,CHIPMUNK,,,,,,,,,,,,
html-keyboard-response,677,1727574,24,"",32,,word,CHIPMUNK,,,,,,,,,,,,
html-keyboard-response,678,1727775,null,"<div style=""font-size:42px;"">PISTOL</div><img id = ""stim"" ><div class = green_square id = topsquare></div>",null,encoding,word_square,,,0,topsquare,none,true,,,PISTOL,6,,,
html-keyboard-response,679,1728077,null,"<div style=""font-size:42px;"">PISTOL</div>",null,,word,PISTOL,,,,,,,,,,,,
html-keyboard-response,680,1729578,null,"",null,,word,PISTOL,,,,,,,,,,,,
call-function,681,1729579,,"",,,,,,,,,,,,,,,,
html-keyboard-response,682,1729680,null,"",null,,,,,,,,,,,,,,,
math-period,683,1733593,6999.4000000003725,"",,,,,,,,,,,5,,,,,
html-keyboard-response,684,1733695,null,"",null,,,,,,,,,,,,,,,
math-period,685,1736134,4489.300000000745,"",,,,,,,,,,,3,,,,,
html-keyboard-response,686,1736235,null,"",null,,,,,,,,,,,,,,,
math-period,687,1739400,5865.799999998882,"",,,,,,,,,,,4,,,,,
html-keyboard-response,688,1739502,null,"",null,,,,,,,,,,,,,,,
math-period,689,1741293,3067.10000000149,"",,,,,,,,,,,2,,,,,
html-keyboard-response,690,1741395,null,"",null,,,,,,,,,,,,,,,
math-period,691,1743890,4382.699999999255,"",,,,,,,,,,,5,,,,,
html-keyboard-response,692,1743992,null,"",null,,,,,,,,,,,,,,,
math-period,693,1746514,4683.5,"",,,,,,,,,,,4,,,,,
html-keyboard-response,694,1746616,null,"",null,,,,,,,,,,,,,,,
math-period,695,1748197,2828.900000002235,"",,,,,,,,,,,4,,,,,
html-keyboard-response,696,1748298,null,"",null,,,,,,,,,,,,,,,
math-period,697,1750428,3895.2000000011176,"",,,,,,,,,,,1,,,,,
html-keyboard-response,698,1750529,null,"",null,,,,,,,,,,,,,,,
math-period,699,1752639,3705,"",,,,,,,,,,,1,,,,,
html-keyboard-response,700,1752742,null,"",null,,,,,,,,,,,,,,,
math-period,701,1753581,null,"",,,,,,,,,,,,,,,,
html-keyboard-response,702,1754582,null,"Recall Period!",null,,,,,,,,,,,,,,,
call-function,703,1754583,,"",,,,,,,,,,,,,,,,
html-keyboard-response,704,1754684,null,"",null,,,,,,,,,,,,,,,
recall-period,705,1761275,36794.80000000447,"",,,,,,,,,,,father,,,,,
html-keyboard-response,706,1761377,null,"",null,,,,,,,,,,,,,,,
recall-period,707,1765474,11065.500000003725,"",,,,,,,,,,,twig,,,,,
html-keyboard-response,708,1765576,null,"",null,,,,,,,,,,,,,,,
recall-period,709,1768445,9580.799999998882,"",,,,,,,,,,,lily,,,,,
html-keyboard-response,710,1768548,null,"",null,,,,,,,,,,,,,,,
recall-period,711,1773473,12922.800000000745,"",,,,,,,,,,,slope,,,,,
html-keyboard-response,712,1773574,null,"",null,,,,,,,,,,,,,,,
recall-period,713,1829650,null,"",,,,,,,,,,,,,,,,
html-keyboard-response,714,1830653,null,"Time's Up!",null,,,,,,,,,,,,,,,
html-keyboard-response,715,1853945,23286.799999998882,"<p> Good job! You have responded correctly to 97% of the trials. </p>
                      <p>Be sure to only press the spacebar if you see a red square, and please keep your accuracy above 80%.</p>
                      <p> Press any key to continue the experiment. </p>",66,,,,,,,,,,,,,,,
html-keyboard-response,716,1863781,9834.799999998882,"<div style=""font-size:48px;"">Press any key to begin list 8 of 16 </div>",32,,,,,,,,,,,,,,,
html-keyboard-response,717,1866283,null,"<div style=""font-size:60px;"">+</div>",null,,,,,,,,,,,,,,,
html-keyboard-response,718,1866485,null,"<div style=""font-size:42px;"">ROCKET</div><img id = ""stim"" ><div class = green_square id = topsquare></div>",null,encoding,word_square,,,0,topsquare,none,true,,,ROCKET,7,,,
html-keyboard-response,719,1866788,null,"<div style=""font-size:42px;"">ROCKET</div>",null,,word,ROCKET,,,,,,,,,,,,
html-keyboard-response,720,1868291,null,"",null,,word,ROCKET,,,,,,,,,,,,
html-keyboard-response,721,1868493,null,"<div style=""font-size:42px;"">LAKE</div><img id = ""stim"" ><div class = red_square id = bottomsquare></div>",null,encoding,word_square,,,1,bottomsquare,32,true,,,LAKE,7,,,
html-keyboard-response,722,1868796,248.7999999988824,"<div style=""font-size:42px;"">LAKE</div>",32,,word,LAKE,,,,,,,,,,,,
html-keyboard-response,723,1870302,null,"",null,,word,LAKE,,,,,,,,,,,,
html-keyboard-response,724,1870504,null,"<div style=""font-size:42px;"">CABLE</div><img id = ""stim"" ><div class = green_square id = bottomsquare></div>",null,encoding,word_square,,,0,bottomsquare,none,true,,,CABLE,7,,,
html-keyboard-response,725,1870806,null,"<div style=""font-size:42px;"">CABLE</div>",null,,word,CABLE,,,,,,,,,,,,
html-keyboard-response,726,1872309,null,"",null,,word,CABLE,,,,,,,,,,,,
html-keyboard-response,727,1872512,null,"<div style=""font-size:42px;"">STOCKING</div><img id = ""stim"" ><div class = red_square id = topsquare></div>",null,encoding,word_square,,,1,topsquare,32,true,,,STOCKING,7,,,
html-keyboard-response,728,1872814,null,"<div style=""font-size:42px;"">STOCKING</div>",null,,word,STOCKING,,,,,,,,,,,,
html-keyboard-response,729,1874315,30.399999998509884,"",32,,word,STOCKING,,,,,,,,,,,,
html-keyboard-response,730,1874517,null,"<div style=""font-size:42px;"">BRUNETTE</div><img id = ""stim"" ><div class = red_square id = bottomsquare></div>",null,encoding,word_square,,,1,bottomsquare,32,true,,,BRUNETTE,7,,,
html-keyboard-response,731,1874820,null,"<div style=""font-size:42px;"">BRUNETTE</div>",null,,word,BRUNETTE,,,,,,,,,,,,
html-keyboard-response,732,1876323,9.699999999254942,"",32,,word,BRUNETTE,,,,,,,,,,,,
html-keyboard-response,733,1876524,null,"<div style=""font-size:42px;"">GALLON</div><img id = ""stim"" ><div class = green_square id = topsquare></div>",null,encoding,word_square,,,0,topsquare,none,false,,,GALLON,7,,,
html-keyboard-response,734,1876826,null,"<div style=""font-size:42px;"">GALLON</div>",null,,word,GALLON,,,,,,,,,,,,
html-keyboard-response,735,1878328,716.3999999985099,"",32,,word,GALLON,,,,,,,,,,,,
html-keyboard-response,736,1878530,null,"<div style=""font-size:42px;"">MILK</div><img id = ""stim"" ><div class = green_square id = bottomsquare></div>",null,encoding,word_square,,,0,bottomsquare,none,true,,,MILK,7,,,
html-keyboard-response,737,1878832,null,"<div style=""font-size:42px;"">MILK</div>",null,,word,MILK,,,,,,,,,,,,
html-keyboard-response,738,1880335,null,"",null,,word,MILK,,,,,,,,,,,,
html-keyboard-response,739,1880537,null,"<div style=""font-size:42px;"">DONKEY</div><img id = ""stim"" ><div class = red_square id = topsquare></div>",null,encoding,word_square,,,1,topsquare,32,true,,,DONKEY,7,,,
html-keyboard-response,740,1880840,null,"<div style=""font-size:42px;"">DONKEY</div>",null,,word,DONKEY,,,,,,,,,,,,
html-keyboard-response,741,1882345,45.100000001490116,"",32,,word,DONKEY,,,,,,,,,,,,
html-keyboard-response,742,1882548,null,"<div style=""font-size:42px;"">CRATER</div><img id = ""stim"" ><div class = red_square id = bottomsquare></div>",null,encoding,word_square,,,1,bottomsquare,32,true,,,CRATER,7,,,
html-keyboard-response,743,1882849,null,"<div style=""font-size:42px;"">CRATER</div>",null,,word,CRATER,,,,,,,,,,,,
html-keyboard-response,744,1884351,0.30000000074505806,"",32,,word,CRATER,,,,,,,,,,,,
html-keyboard-response,745,1884554,null,"<div style=""font-size:42px;"">FOX</div><img id = ""stim"" ><div class = green_square id = topsquare></div>",null,encoding,word_square,,,0,topsquare,none,true,,,FOX,7,,,
html-keyboard-response,746,1884857,null,"<div style=""font-size:42px;"">FOX</div>",null,,word,FOX,,,,,,,,,,,,
html-keyboard-response,747,1886360,null,"",null,,word,FOX,,,,,,,,,,,,
html-keyboard-response,748,1886563,null,"<div style=""font-size:42px;"">RELISH</div><img id = ""stim"" ><div class = red_square id = topsquare></div>",null,encoding,word_square,,,1,topsquare,32,true,,,RELISH,7,,,
html-keyboard-response,749,1886867,null,"<div style=""font-size:42px;"">RELISH</div>",null,,word,RELISH,,,,,,,,,,,,
html-keyboard-response,750,1888369,30.300000000745058,"",32,,word,RELISH,,,,,,,,,,,,
html-keyboard-response,751,1888571,null,"<div style=""font-size:42px;"">FEMALE</div><img id = ""stim"" ><div class = red_square id = bottomsquare></div>",null,encoding,word_square,,,1,bottomsquare,32,true,,,FEMALE,7,,,
html-keyboard-response,752,1888874,null,"<div style=""font-size:42px;"">FEMALE</div>",null,,word,FEMALE,,,,,,,,,,,,
html-keyboard-response,753,1890376,142.69999999925494,"",32,,word,FEMALE,,,,,,,,,,,,
html-keyboard-response,754,1890580,null,"<div style=""font-size:42px;"">KETCHUP</div><img id = ""stim"" ><div class = green_square id = bottomsquare></div>",null,encoding,word_square,,,0,bottomsquare,none,true,,,KETCHUP,7,,,
html-keyboard-response,755,1890884,null,"<div style=""font-size:42px;"">KETCHUP</div>",null,,word,KETCHUP,,,,,,,,,,,,
html-keyboard-response,756,1892386,null,"",null,,word,KETCHUP,,,,,,,,,,,,
html-keyboard-response,757,1892588,null,"<div style=""font-size:42px;"">MISSILE</div><img id = ""stim"" ><div class = red_square id = topsquare></div>",null,encoding,word_square,,,1,topsquare,32,true,,,MISSILE,7,,,
html-keyboard-response,758,1892891,null,"<div style=""font-size:42px;"">MISSILE</div>",null,,word,MISSILE,,,,,,,,,,,,
html-keyboard-response,759,1894394,51.90000000037253,"",32,,word,MISSILE,,,,,,,,,,,,
html-keyboard-response,760,1894596,null,"<div style=""font-size:42px;"">SATURN</div><img id = ""stim"" ><div class = green_square id = topsquare></div>",null,encoding,word_square,,,0,topsquare,none,true,,,SATURN,7,,,
html-keyboard-response,761,1894899,null,"<div style=""font-size:42px;"">SATURN</div>",null,,word,SATURN,,,,,,,,,,,,
html-keyboard-response,762,1896401,null,"",null,,word,SATURN,,,,,,,,,,,,
html-keyboard-response,763,1896604,null,"<div style=""font-size:42px;"">ELBOW</div><img id = ""stim"" ><div class = green_square id = bottomsquare></div>",null,encoding,word_square,,,0,bottomsquare,none,true,,,ELBOW,7,,,
html-keyboard-response,764,1896909,null,"<div style=""font-size:42px;"">ELBOW</div>",null,,word,ELBOW,,,,,,,,,,,,
html-keyboard-response,765,1898411,null,"",null,,word,ELBOW,,,,,,,,,,,,
call-function,766,1898412,,"",,,,,,,,,,,,,,,,
html-keyboard-response,767,1898513,null,"",null,,,,,,,,,,,,,,,
math-period,768,1901074,4106.39999999851,"",,,,,,,,,,,2,,,,,
html-keyboard-response,769,1901178,null,"",null,,,,,,,,,,,,,,,
math-period,770,1905408,8116.700000001118,"",,,,,,,,,,,3,,,,,
html-keyboard-response,771,1905509,null,"",null,,,,,,,,,,,,,,,
math-period,772,1908993,6211.699999999255,"",,,,,,,,,,,2,,,,,
html-keyboard-response,773,1909097,null,"",null,,,,,,,,,,,,,,,
math-period,774,1912319,6056.10000000149,"",,,,,,,,,,,4,,,,,
html-keyboard-response,775,1912420,null,"",null,,,,,,,,,,,,,,,
math-period,776,1915084,4870.5,"",,,,,,,,,,,1,,,,,
html-keyboard-response,777,1915188,null,"",null,,,,,,,,,,,,,,,
math-period,778,1917426,4066.9000000003725,"",,,,,,,,,,,4,,,,,
html-keyboard-response,779,1917527,null,"",null,,,,,,,,,,,,,,,
math-period,780,1922414,4658.300000000745,"",,,,,,,,,,,3,,,,,
html-keyboard-response,781,1923417,null,"Recall Period!",null,,,,,,,,,,,,,,,
call-function,782,1923420,,"",,,,,,,,,,,,,,,,
html-keyboard-response,783,1923523,null,"",null,,,,,,,,,,,,,,,
recall-period,784,1930304,38811.10000000708,"",,,,,,,,,,,rocket,,,,,
html-keyboard-response,785,1930405,null,"",null,,,,,,,,,,,,,,,
recall-period,786,1933669,11837.99999999255,"",,,,,,,,,,,gallon,,,,,
html-keyboard-response,787,1933772,null,"",null,,,,,,,,,,,,,,,
recall-period,788,1935582,5696.200000001118,"",,,,,,,,,,,milk,,,,,
html-keyboard-response,789,1935683,null,"",null,,,,,,,,,,,,,,,
recall-period,790,1940821,18284,"",,,,,,,,,,,fox,,,,,
html-keyboard-response,791,1940924,null,"",null,,,,,,,,,,,,,,,
recall-period,792,1943918,12067.900000004098,"",,,,,,,,,,,female,,,,,
html-keyboard-response,793,1944020,null,"",null,,,,,,,,,,,,,,,
recall-period,794,1965432,144600.20000000112,"",,,,,,,,,,,father,,,,,
html-keyboard-response,795,1965534,null,"",null,,,,,,,,,,,,,,,
recall-period,796,1998653,null,"",,,,,,,,,,,,,,,,
html-keyboard-response,797,1999650,null,"Time's Up!",null,,,,,,,,,,,,,,,
html-keyboard-response,798,2570043,570389.5,"<p> Good job! You have responded correctly to 97% of the trials. </p>
                      <p>Be sure to only press the spacebar if you see a red square, and please keep your accuracy above 80%.</p>
                      <p> Press any key to continue the experiment. </p>",32,,,,,,,,,,,,,,,
html-keyboard-response,799,2573836,3789.2000000011176,"<div style=""font-size:48px;"">Press any key to begin list 9 of 16 </div>",32,,,,,,,,,,,,,,,
html-keyboard-response,800,2576338,null,"<div style=""font-size:60px;"">+</div>",null,,,,,,,,,,,,,,,
html-keyboard-response,801,2576540,null,"<div style=""font-size:42px;"">GYMNAST</div><img id = ""stim"" ><div class = red_square id = topsquare></div>",null,encoding,word_square,,,1,topsquare,32,true,,,GYMNAST,8,,,
html-keyboard-response,802,2576842,null,"<div style=""font-size:42px;"">GYMNAST</div>",null,,word,GYMNAST,,,,,,,,,,,,
html-keyboard-response,803,2578345,105,"",32,,word,GYMNAST,,,,,,,,,,,,
html-keyboard-response,804,2578546,null,"<div style=""font-size:42px;"">BIBLE</div><img id = ""stim"" ><div class = green_square id = bottomsquare></div>",null,encoding,word_square,,,0,bottomsquare,none,true,,,BIBLE,8,,,
html-keyboard-response,805,2578848,null,"<div style=""font-size:42px;"">BIBLE</div>",null,,word,BIBLE,,,,,,,,,,,,
html-keyboard-response,806,2580352,null,"",null,,word,BIBLE,,,,,,,,,,,,
html-keyboard-response,807,2580557,null,"<div style=""font-size:42px;"">TRUCK</div><img id = ""stim"" ><div class = green_square id = topsquare></div>",null,encoding,word_square,,,0,topsquare,none,true,,,TRUCK,8,,,
html-keyboard-response,808,2580859,null,"<div style=""font-size:42px;"">TRUCK</div>",null,,word,TRUCK,,,,,,,,,,,,
html-keyboard-response,809,2582360,null,"",null,,word,TRUCK,,,,,,,,,,,,
html-keyboard-response,810,2582562,null,"<div style=""font-size:42px;"">SEAL</div><img id = ""stim"" ><div class = red_square id = bottomsquare></div>",null,encoding,word_square,,,1,bottomsquare,32,true,,,SEAL,8,,,
html-keyboard-response,811,2582863,232.59999999962747,"<div style=""font-size:42px;"">SEAL</div>",32,,word,SEAL,,,,,,,,,,,,
html-keyboard-response,812,2584365,null,"",null,,word,SEAL,,,,,,,,,,,,
html-keyboard-response,813,2584568,null,"<div style=""font-size:42px;"">ZEBRA</div><img id = ""stim"" ><div class = red_square id = topsquare></div>",null,encoding,word_square,,,1,topsquare,32,true,,,ZEBRA,8,,,
html-keyboard-response,814,2584869,null,"<div style=""font-size:42px;"">ZEBRA</div>",null,,word,ZEBRA,,,,,,,,,,,,
html-keyboard-response,815,2586371,1110.300000000745,"",32,,word,ZEBRA,,,,,,,,,,,,
html-keyboard-response,816,2586573,null,"<div style=""font-size:42px;"">CABOOSE</div><img id = ""stim"" ><div class = red_square id = bottomsquare></div>",null,encoding,word_square,,,1,bottomsquare,32,true,,,CABOOSE,8,,,
html-keyboard-response,817,2586874,null,"<div style=""font-size:42px;"">CABOOSE</div>",null,,word,CABOOSE,,,,,,,,,,,,
html-keyboard-response,818,2588376,544.2999999988824,"",32,,word,CABOOSE,,,,,,,,,,,,
html-keyboard-response,819,2588579,null,"<div style=""font-size:42px;"">AUTHOR</div><img id = ""stim"" ><div class = green_square id = bottomsquare></div>",null,encoding,word_square,,,0,bottomsquare,none,true,,,AUTHOR,8,,,
html-keyboard-response,820,2588880,null,"<div style=""font-size:42px;"">AUTHOR</div>",null,,word,AUTHOR,,,,,,,,,,,,
html-keyboard-response,821,2590382,null,"",null,,word,AUTHOR,,,,,,,,,,,,
html-keyboard-response,822,2590583,null,"<div style=""font-size:42px;"">NOVEL</div><img id = ""stim"" ><div class = green_square id = topsquare></div>",null,encoding,word_square,,,0,topsquare,none,true,,,NOVEL,8,,,
html-keyboard-response,823,2590885,null,"<div style=""font-size:42px;"">NOVEL</div>",null,,word,NOVEL,,,,,,,,,,,,
html-keyboard-response,824,2592386,null,"",null,,word,NOVEL,,,,,,,,,,,,
html-keyboard-response,825,2592588,null,"<div style=""font-size:42px;"">MOTOR</div><img id = ""stim"" ><div class = red_square id = topsquare></div>",null,encoding,word_square,,,1,topsquare,32,true,,,MOTOR,8,,,
html-keyboard-response,826,2592890,null,"<div style=""font-size:42px;"">MOTOR</div>",null,,word,MOTOR,,,,,,,,,,,,
html-keyboard-response,827,2594391,96,"",32,,word,MOTOR,,,,,,,,,,,,
html-keyboard-response,828,2594593,null,"<div style=""font-size:42px;"">DOORBELL</div><img id = ""stim"" ><div class = red_square id = bottomsquare></div>",null,encoding,word_square,,,1,bottomsquare,32,true,,,DOORBELL,8,,,
html-keyboard-response,829,2594897,null,"<div style=""font-size:42px;"">DOORBELL</div>",null,,word,DOORBELL,,,,,,,,,,,,
html-keyboard-response,830,2596398,52,"",32,,word,DOORBELL,,,,,,,,,,,,
html-keyboard-response,831,2596600,null,"<div style=""font-size:42px;"">SCHOOL</div><img id = ""stim"" ><div class = green_square id = bottomsquare></div>",null,encoding,word_square,,,0,bottomsquare,none,true,,,SCHOOL,8,,,
html-keyboard-response,832,2596902,null,"<div style=""font-size:42px;"">SCHOOL</div>",null,,word,SCHOOL,,,,,,,,,,,,
html-keyboard-response,833,2598404,null,"",null,,word,SCHOOL,,,,,,,,,,,,
html-keyboard-response,834,2598605,null,"<div style=""font-size:42px;"">AGENT</div><img id = ""stim"" ><div class = red_square id = topsquare></div>",null,encoding,word_square,,,1,topsquare,32,true,,,AGENT,8,,,
html-keyboard-response,835,2598907,null,"<div style=""font-size:42px;"">AGENT</div>",null,,word,AGENT,,,,,,,,,,,,
html-keyboard-response,836,2600408,441.90000000037253,"",32,,word,AGENT,,,,,,,,,,,,
html-keyboard-response,837,2600610,null,"<div style=""font-size:42px;"">CLOTHES</div><img id = ""stim"" ><div class = green_square id = topsquare></div>",null,encoding,word_square,,,0,topsquare,none,true,,,CLOTHES,8,,,
html-keyboard-response,838,2600911,null,"<div style=""font-size:42px;"">CLOTHES</div>",null,,word,CLOTHES,,,,,,,,,,,,
html-keyboard-response,839,2602413,null,"",null,,word,CLOTHES,,,,,,,,,,,,
html-keyboard-response,840,2602615,null,"<div style=""font-size:42px;"">SPOUSE</div><img id = ""stim"" ><div class = green_square id = bottomsquare></div>",null,encoding,word_square,,,0,bottomsquare,none,true,,,SPOUSE,8,,,
html-keyboard-response,841,2602916,null,"<div style=""font-size:42px;"">SPOUSE</div>",null,,word,SPOUSE,,,,,,,,,,,,
html-keyboard-response,842,2604419,null,"",null,,word,SPOUSE,,,,,,,,,,,,
html-keyboard-response,843,2604622,null,"<div style=""font-size:42px;"">HELMET</div><img id = ""stim"" ><div class = red_square id = bottomsquare></div>",null,encoding,word_square,,,1,bottomsquare,32,true,,,HELMET,8,,,
html-keyboard-response,844,2604923,null,"<div style=""font-size:42px;"">HELMET</div>",null,,word,HELMET,,,,,,,,,,,,
html-keyboard-response,845,2606425,84.40000000037253,"",32,,word,HELMET,,,,,,,,,,,,
html-keyboard-response,846,2606627,null,"<div style=""font-size:42px;"">BARREL</div><img id = ""stim"" ><div class = green_square id = topsquare></div>",null,encoding,word_square,,,0,topsquare,none,true,,,BARREL,8,,,
html-keyboard-response,847,2606928,null,"<div style=""font-size:42px;"">BARREL</div>",null,,word,BARREL,,,,,,,,,,,,
html-keyboard-response,848,2608434,null,"",null,,word,BARREL,,,,,,,,,,,,
call-function,849,2608435,,"",,,,,,,,,,,,,,,,
html-keyboard-response,850,2608536,null,"",null,,,,,,,,,,,,,,,
math-period,851,2613767,9791.400000000373,"",,,,,,,,,,,3,,,,,
html-keyboard-response,852,2613873,null,"",null,,,,,,,,,,,,,,,
math-period,853,2615221,2376.5999999996275,"",,,,,,,,,,,3,,,,,
html-keyboard-response,854,2615323,null,"",null,,,,,,,,,,,,,,,
math-period,855,2617595,4052.89999999851,"",,,,,,,,,,,5,,,,,
html-keyboard-response,856,2617702,null,"",null,,,,,,,,,,,,,,,
math-period,857,2620366,4884.699999999255,"",,,,,,,,,,,1,,,,,
html-keyboard-response,858,2620470,null,"",null,,,,,,,,,,,,,,,
math-period,859,2622313,3283.599999997765,"",,,,,,,,,,,6,,,,,
html-keyboard-response,860,2622416,null,"",null,,,,,,,,,,,,,,,
math-period,861,2625354,4862.799999998882,"",,,,,,,,,,,4,,,,,
html-keyboard-response,862,2625455,null,"",null,,,,,,,,,,,,,,,
math-period,863,2627185,3074.5999999996275,"",,,,,,,,,,,4,,,,,
html-keyboard-response,864,2627287,null,"",null,,,,,,,,,,,,,,,
math-period,865,2629176,3479.60000000149,"",,,,,,,,,,,5,,,,,
html-keyboard-response,866,2629278,null,"",null,,,,,,,,,,,,,,,
math-period,867,2630822,2772.0999999996275,"",,,,,,,,,,,5,,,,,
html-keyboard-response,868,2630924,null,"",null,,,,,,,,,,,,,,,
math-period,869,2632436,1488.7000000011176,"",,,,,,,,,,,3,,,,,
html-keyboard-response,870,2633438,null,"Recall Period!",null,,,,,,,,,,,,,,,
call-function,871,2633438,,"",,,,,,,,,,,,,,,,
html-keyboard-response,872,2633540,null,"",null,,,,,,,,,,,,,,,
recall-period,873,2640558,35008.29999999702,"",,,,,,,,,,,novel,,,,,
html-keyboard-response,874,2640659,null,"",null,,,,,,,,,,,,,,,
recall-period,875,2644400,14055.900000004098,"",,,,,,,,,,,author,,,,,
html-keyboard-response,876,2644501,null,"",null,,,,,,,,,,,,,,,
recall-period,877,2653052,49506.999999996275,"",,,,,,,,,,,barrel,,,,,
html-keyboard-response,878,2653153,null,"",null,,,,,,,,,,,,,,,
recall-period,879,2658019,19704.000000003725,"",,,,,,,,,,,seal,,,,,
html-keyboard-response,880,2658122,null,"",null,,,,,,,,,,,,,,,
recall-period,881,2661148,11140.09999999404,"",,,,,,,,,,,zebra,,,,,
html-keyboard-response,882,2661249,null,"",null,,,,,,,,,,,,,,,
