trial_type,trial_index,time_elapsed,rt,stimulus,key_press,exp_phase,test_part,word,task,targ_cond,sq_pos,correctKeyCode,correct,value,response,Word,List,RecResp,serial_pos,colorChosen
pavlovia,0,14414,,"",,,,,,,,,,,,,,,,
external-html,1,17984,3276.600000023842,"",,,,,,,,,,,,,,,,
html-keyboard-response,2,19519,1530.3000000715256,"Welcome to the experiment. Press any key to begin.",32,,,,,,,,,,,,,,,
html-keyboard-response,3,25075,5555.5,"<p>You will see a list of words and colored squares in the following task.<p><p>Press the spacebar whenever you see a red square.<p><p>Do not press a key if the square is green.<p><p>Press the spacebar to continue.</p>",32,,,,,,,,,,,,,,,
html-keyboard-response,4,29982,4400.700000047684,"<p>Please try to remember as many of the words as you can, and try to think about the meaning of each word as it appears.<p><p>After the detection and encoding task you will be asked to solve some math problems for 24 seconds.<p> Please solve as many problems as you can in the time given. <p><p><p>Press the spacebar to continue.</p>",32,,,,,,,,,,,,,,,
html-keyboard-response,5,35629,5145,"After solving the math problems, you will be asked to type in as many words <p>from the previous list as you can remember for 75 seconds.<p> If you finish recalling before the 75 seconds are up,<p> just sit tight and try to think of any more words you could have missed. <p><p><p>Press the spacebar to continue.</p>",32,,,,,,,,,,,,,,,
html-keyboard-response,6,39341,3210.399999976158,"There will be 16 lists of words and recall, followed  by<p><p> a recognition phase. The experiment is expected to take up to 90 minutes.<p>We will begin with a brief practice session.<p>Press the spacebar to begin the practice.</p>",32,,,,,,,,,,,,,,,
html-keyboard-response,7,41844,null,"<div style=""font-size:60px;"">+</div>",null,,,,,,,,,,,,,,,
html-keyboard-response,8,42047,null,"<div style=""font-size:42px;"">HAPPY</div><img id = ""stim"" ><div class = green_square id = ""bottomsquare"" ></div>",null,practice,word_square,HAPPY,prac_response,0,Bottom,none,false,,,,,,,
html-keyboard-response,9,42350,null,"<div style=""font-size:42px;"">HAPPY</div>",null,,word,HAPPY,,,,,,,,,,,,
html-keyboard-response,10,43853,50.199999928474426,"",32,,word,HAPPY,,,,,,,,,,,,
html-keyboard-response,11,44056,null,"<div style=""font-size:42px;"">COLD</div><img id = ""stim"" ><div class = red_square id = ""bottomsquare"" ></div>",null,practice,word_square,COLD,prac_response,1,Bottom,32,true,,,,,,,
html-keyboard-response,12,44357,217.5,"<div style=""font-size:42px;"">COLD</div>",32,,word,COLD,,,,,,,,,,,,
html-keyboard-response,13,45860,null,"",null,,word,COLD,,,,,,,,,,,,
html-keyboard-response,14,46061,null,"<div style=""font-size:42px;"">HEAVY</div><img id = ""stim"" ><div class = red_square id = ""topsquare"" ></div>",null,practice,word_square,HEAVY,prac_response,1,Top,32,false,,,,,,,
html-keyboard-response,15,46377,null,"<div style=""font-size:42px;"">HEAVY</div>",null,,word,HEAVY,,,,,,,,,,,,
html-keyboard-response,16,47879,null,"",null,,word,HEAVY,,,,,,,,,,,,
html-keyboard-response,17,48081,null,"<div style=""font-size:42px;"">FUNNY</div><img id = ""stim"" ><div class = green_square id = ""topsquare"" ></div>",null,practice,word_square,FUNNY,prac_response,0,Top,none,false,,,,,,,
html-keyboard-response,18,48397,null,"<div style=""font-size:42px;"">FUNNY</div>",null,,word,FUNNY,,,,,,,,,,,,
html-keyboard-response,19,49899,122.90000009536743,"",32,,word,FUNNY,,,,,,,,,,,,
html-keyboard-response,20,50101,null,"<div style=""font-size:42px;"">SCARY</div><img id = ""stim"" ><div class = red_square id = ""bottomsquare"" ></div>",null,practice,word_square,SCARY,prac_response,1,Bottom,32,true,,,,,,,
html-keyboard-response,21,50403,156.89999997615814,"<div style=""font-size:42px;"">SCARY</div>",32,,word,SCARY,,,,,,,,,,,,
html-keyboard-response,22,51905,null,"",null,,word,SCARY,,,,,,,,,,,,
html-keyboard-response,23,52107,null,"<div style=""font-size:42px;"">PEACEFUL</div><img id = ""stim"" ><div class = red_square id = ""topsquare"" ></div>",null,practice,word_square,PEACEFUL,prac_response,1,Top,32,true,,,,,,,
html-keyboard-response,24,52409,221.5,"<div style=""font-size:42px;"">PEACEFUL</div>",32,,word,PEACEFUL,,,,,,,,,,,,
html-keyboard-response,25,53911,null,"",null,,word,PEACEFUL,,,,,,,,,,,,
html-keyboard-response,26,54121,null,"<div style=""font-size:42px;"">LITTLE</div><img id = ""stim"" ><div class = green_square id = ""bottomsquare"" ></div>",null,practice,word_square,LITTLE,prac_response,0,Bottom,none,false,,,,,,,
html-keyboard-response,27,54424,75.70000004768372,"<div style=""font-size:42px;"">LITTLE</div>",32,,word,LITTLE,,,,,,,,,,,,
html-keyboard-response,28,55927,null,"",null,,word,LITTLE,,,,,,,,,,,,
html-keyboard-response,29,56128,null,"<div style=""font-size:42px;"">TIRED</div><img id = ""stim"" ><div class = green_square id = ""topsquare"" ></div>",null,practice,word_square,TIRED,prac_response,0,Top,none,true,,,,,,,
html-keyboard-response,30,56430,null,"<div style=""font-size:42px;"">TIRED</div>",null,,word,TIRED,,,,,,,,,,,,
html-keyboard-response,31,57932,null,"",null,,word,TIRED,,,,,,,,,,,,
html-keyboard-response,32,58134,null,"<div style=""font-size:42px;"">ENTERTAINING</div><img id = ""stim"" ><div class = green_square id = ""bottomsquare"" ></div>",null,practice,word_square,ENTERTAINING,prac_response,0,Bottom,none,true,,,,,,,
html-keyboard-response,33,58436,null,"<div style=""font-size:42px;"">ENTERTAINING</div>",null,,word,ENTERTAINING,,,,,,,,,,,,
html-keyboard-response,34,59938,null,"",null,,word,ENTERTAINING,,,,,,,,,,,,
html-keyboard-response,35,60140,null,"<div style=""font-size:42px;"">GRATEFUL</div><img id = ""stim"" ><div class = red_square id = ""bottomsquare"" ></div>",null,practice,word_square,GRATEFUL,prac_response,1,Bottom,32,true,,,,,,,
html-keyboard-response,36,60443,259.7000000476837,"<div style=""font-size:42px;"">GRATEFUL</div>",32,,word,GRATEFUL,,,,,,,,,,,,
html-keyboard-response,37,61944,null,"",null,,word,GRATEFUL,,,,,,,,,,,,
html-keyboard-response,38,62146,null,"<div style=""font-size:42px;"">LOUD</div><img id = ""stim"" ><div class = green_square id = ""topsquare"" ></div>",null,practice,word_square,LOUD,prac_response,0,Top,none,true,,,,,,,
html-keyboard-response,39,62448,null,"<div style=""font-size:42px;"">LOUD</div>",null,,word,LOUD,,,,,,,,,,,,
html-keyboard-response,40,63950,null,"",null,,word,LOUD,,,,,,,,,,,,
html-keyboard-response,41,64152,null,"<div style=""font-size:42px;"">SMART</div><img id = ""stim"" ><div class = red_square id = ""topsquare"" ></div>",null,practice,word_square,SMART,prac_response,1,Top,32,true,,,,,,,
html-keyboard-response,42,64454,254.29999995231628,"<div style=""font-size:42px;"">SMART</div>",32,,word,SMART,,,,,,,,,,,,
html-keyboard-response,43,65956,null,"",null,,word,SMART,,,,,,,,,,,,
html-keyboard-response,44,66159,null,"<div style=""font-size:42px;"">SMOOTH</div><img id = ""stim"" ><div class = red_square id = ""bottomsquare"" ></div>",null,practice,word_square,SMOOTH,prac_response,1,Bottom,32,true,,,,,,,
html-keyboard-response,45,66461,null,"<div style=""font-size:42px;"">SMOOTH</div>",null,,word,SMOOTH,,,,,,,,,,,,
html-keyboard-response,46,67963,82.09999990463257,"",32,,word,SMOOTH,,,,,,,,,,,,
html-keyboard-response,47,68165,null,"<div style=""font-size:42px;"">DISHONEST</div><img id = ""stim"" ><div class = green_square id = ""bottomsquare"" ></div>",null,practice,word_square,DISHONEST,prac_response,0,Bottom,none,true,,,,,,,
html-keyboard-response,48,68466,null,"<div style=""font-size:42px;"">DISHONEST</div>",null,,word,DISHONEST,,,,,,,,,,,,
html-keyboard-response,49,69968,null,"",null,,word,DISHONEST,,,,,,,,,,,,
html-keyboard-response,50,70170,null,"<div style=""font-size:42px;"">WEALTHY</div><img id = ""stim"" ><div class = red_square id = ""topsquare"" ></div>",null,practice,word_square,WEALTHY,prac_response,1,Top,32,true,,,,,,,
html-keyboard-response,51,70472,152.70000004768372,"<div style=""font-size:42px;"">WEALTHY</div>",32,,word,WEALTHY,,,,,,,,,,,,
html-keyboard-response,52,71974,null,"",null,,word,WEALTHY,,,,,,,,,,,,
html-keyboard-response,53,72178,null,"<div style=""font-size:42px;"">BEAUTIFUL</div><img id = ""stim"" ><div class = green_square id = ""topsquare"" ></div>",null,practice,word_square,BEAUTIFUL,prac_response,0,Top,none,true,,,,,,,
html-keyboard-response,54,72480,null,"<div style=""font-size:42px;"">BEAUTIFUL</div>",null,,word,BEAUTIFUL,,,,,,,,,,,,
html-keyboard-response,55,73982,null,"",null,,word,BEAUTIFUL,,,,,,,,,,,,
html-keyboard-response,56,78629,4644.200000047684,"<p> Uh oh. You responded correctly to only 75% of the trials. </p>
                  <p>Be sure to only press the spacebar if you see a red square, and please keep your accuracy above 80%.</p>
                  <p>We're going to try once more to make sure you understand the task. press any key to continue.</p>",32,,,,,,,,,,,,,,,
html-keyboard-response,57,80614,1983.1999999284744,"<p>You will see a list of words and colored squares in the following task.<p><p>Press the spacebar whenever you see a red square.<p><p>Do not press a key if the square is green<p><p>Press the spacebar to continue.</p>",32,,,,,,,,,,,,,,,
html-keyboard-response,58,83116,null,"<div style=""font-size:60px;"">+</div>",null,,,,,,,,,,,,,,,
html-keyboard-response,59,83318,null,"<div style=""font-size:42px;"">HAPPY</div><img id = ""stim"" ><div class = green_square id = ""bottomsquare"" ></div>",null,practice2,word_square,HAPPY,prac_response,0,Bottom,none,true,,,,,,,
html-keyboard-response,60,83621,null,"<div style=""font-size:42px;"">HAPPY</div>",null,,word,HAPPY,,,,,,,,,,,,
html-keyboard-response,61,85124,null,"",null,,word,HAPPY,,,,,,,,,,,,
html-keyboard-response,62,85326,null,"<div style=""font-size:42px;"">COLD</div><img id = ""stim"" ><div class = red_square id = ""bottomsquare"" ></div>",null,practice2,word_square,,prac_response,1,Bottom,32,true,,,,,,,
html-keyboard-response,63,85628,274.5,"<div style=""font-size:42px;"">COLD</div>",32,,word,COLD,,,,,,,,,,,,
html-keyboard-response,64,87131,null,"",null,,word,COLD,,,,,,,,,,,,
html-keyboard-response,65,87333,null,"<div style=""font-size:42px;"">HEAVY</div><img id = ""stim"" ><div class = red_square id = ""topsquare"" ></div>",null,practice2,word_square,,prac_response,1,Top,32,true,,,,,,,
html-keyboard-response,66,87636,162.60000002384186,"<div style=""font-size:42px;"">HEAVY</div>",32,,word,HEAVY,,,,,,,,,,,,
html-keyboard-response,67,89138,null,"",null,,word,HEAVY,,,,,,,,,,,,
html-keyboard-response,68,89340,null,"<div style=""font-size:42px;"">FUNNY</div><img id = ""stim"" ><div class = green_square id = ""topsquare"" ></div>",null,practice2,word_square,,prac_response,0,Top,none,true,,,,,,,
html-keyboard-response,69,89644,null,"<div style=""font-size:42px;"">FUNNY</div>",null,,word,FUNNY,,,,,,,,,,,,
html-keyboard-response,70,91146,null,"",null,,word,FUNNY,,,,,,,,,,,,
html-keyboard-response,71,91348,null,"<div style=""font-size:42px;"">SCARY</div><img id = ""stim"" ><div class = red_square id = ""bottomsquare"" ></div>",null,practice2,word_square,,prac_response,1,Bottom,32,true,,,,,,,
html-keyboard-response,72,91650,194.30000007152557,"<div style=""font-size:42px;"">SCARY</div>",32,,word,SCARY,,,,,,,,,,,,
html-keyboard-response,73,93153,null,"",null,,word,SCARY,,,,,,,,,,,,
html-keyboard-response,74,93355,null,"<div style=""font-size:42px;"">PEACEFUL</div><img id = ""stim"" ><div class = red_square id = ""topsquare"" ></div>",null,practice2,word_square,,prac_response,1,Top,32,true,,,,,,,
html-keyboard-response,75,93656,149.60000002384186,"<div style=""font-size:42px;"">PEACEFUL</div>",32,,word,PEACEFUL,,,,,,,,,,,,
html-keyboard-response,76,95158,null,"",null,,word,PEACEFUL,,,,,,,,,,,,
html-keyboard-response,77,95360,null,"<div style=""font-size:42px;"">LITTLE</div><img id = ""stim"" ><div class = green_square id = ""bottomsquare"" ></div>",null,practice2,word_square,LITTLE,prac_response,0,Bottom,none,true,,,,,,,
html-keyboard-response,78,95662,null,"<div style=""font-size:42px;"">LITTLE</div>",null,,word,LITTLE,,,,,,,,,,,,
html-keyboard-response,79,97165,null,"",null,,word,LITTLE,,,,,,,,,,,,
html-keyboard-response,80,97367,null,"<div style=""font-size:42px;"">TIRED</div><img id = ""stim"" ><div class = green_square id = ""topsquare"" ></div>",null,practice2,word_square,,prac_response,0,Top,none,true,,,,,,,
html-keyboard-response,81,97669,null,"<div style=""font-size:42px;"">TIRED</div>",null,,word,TIRED,,,,,,,,,,,,
html-keyboard-response,82,99171,null,"",null,,word,TIRED,,,,,,,,,,,,
html-keyboard-response,83,99374,null,"<div style=""font-size:42px;"">ENTERTAINING</div><img id = ""stim"" ><div class = green_square id = ""bottomsquare"" ></div>",null,practice2,word_square,ENTERTAINING,prac_response,0,Bottom,none,true,,,,,,,
html-keyboard-response,84,99675,null,"<div style=""font-size:42px;"">ENTERTAINING</div>",null,,word,ENTERTAINING,,,,,,,,,,,,
html-keyboard-response,85,101178,null,"",null,,word,ENTERTAINING,,,,,,,,,,,,
html-keyboard-response,86,101379,null,"<div style=""font-size:42px;"">GRATEFUL</div><img id = ""stim"" ><div class = red_square id = ""bottomsquare"" ></div>",null,practice2,word_square,,prac_response,1,Bottom,32,true,,,,,,,
html-keyboard-response,87,101682,243,"<div style=""font-size:42px;"">GRATEFUL</div>",32,,word,GRATEFUL,,,,,,,,,,,,
html-keyboard-response,88,103184,null,"",null,,word,GRATEFUL,,,,,,,,,,,,
html-keyboard-response,89,103386,null,"<div style=""font-size:42px;"">LOUD</div><img id = ""stim"" ><div class = green_square id = ""topsquare"" ></div>",null,practice2,word_square,,prac_response,0,Top,none,true,,,,,,,
html-keyboard-response,90,103687,null,"<div style=""font-size:42px;"">LOUD</div>",null,,word,LOUD,,,,,,,,,,,,
html-keyboard-response,91,105190,null,"",null,,word,LOUD,,,,,,,,,,,,
html-keyboard-response,92,105392,null,"<div style=""font-size:42px;"">SMART</div><img id = ""stim"" ><div class = red_square id = ""topsquare"" ></div>",null,practice2,word_square,,prac_response,1,Top,32,true,,,,,,,
html-keyboard-response,93,105694,null,"<div style=""font-size:42px;"">SMART</div>",null,,word,SMART,,,,,,,,,,,,
html-keyboard-response,94,107196,44.60000002384186,"",32,,word,SMART,,,,,,,,,,,,
html-keyboard-response,95,107399,null,"<div style=""font-size:42px;"">SMOOTH</div><img id = ""stim"" ><div class = red_square id = ""bottomsquare"" ></div>",null,practice2,word_square,,prac_response,1,Bottom,32,true,,,,,,,
html-keyboard-response,96,107701,258.6999999284744,"<div style=""font-size:42px;"">SMOOTH</div>",32,,word,SMOOTH,,,,,,,,,,,,
html-keyboard-response,97,109203,null,"",null,,word,SMOOTH,,,,,,,,,,,,
html-keyboard-response,98,109405,null,"<div style=""font-size:42px;"">DISHONEST</div><img id = ""stim"" ><div class = green_square id = ""bottomsquare"" ></div>",null,practice2,word_square,DISHONEST,prac_response,0,Bottom,none,true,,,,,,,
html-keyboard-response,99,109708,null,"<div style=""font-size:42px;"">DISHONEST</div>",null,,word,DISHONEST,,,,,,,,,,,,
html-keyboard-response,100,111209,null,"",null,,word,DISHONEST,,,,,,,,,,,,
html-keyboard-response,101,111412,null,"<div style=""font-size:42px;"">WEALTHY</div><img id = ""stim"" ><div class = red_square id = ""topsquare"" ></div>",null,practice2,word_square,,prac_response,1,Top,32,true,,,,,,,
html-keyboard-response,102,111715,223.70000004768372,"<div style=""font-size:42px;"">WEALTHY</div>",32,,word,WEALTHY,,,,,,,,,,,,
html-keyboard-response,103,113217,null,"",null,,word,WEALTHY,,,,,,,,,,,,
html-keyboard-response,104,113419,null,"<div style=""font-size:42px;"">BEAUTIFUL</div><img id = ""stim"" ><div class = green_square id = ""topsquare"" ></div>",null,practice2,word_square,,prac_response,0,Top,none,false,,,,,,,
html-keyboard-response,105,113724,null,"<div style=""font-size:42px;"">BEAUTIFUL</div>",null,,word,BEAUTIFUL,,,,,,,,,,,,
html-keyboard-response,106,115225,null,"",null,,word,BEAUTIFUL,,,,,,,,,,,,
html-keyboard-response,107,117846,2618.899999976158,"<p> Good job! You responded correctly to 100% of the trials. </p>
                    <p>Be sure to only press the spacebar if you see a red square, and please keep your accuracy above 80%.</p>
                    <p>Press any key to begin the math and recall sections. Thank you! </p>",32,,,,,,,,,,,,,,,
call-function,108,117846,,"",,,,,,,,,,,,,,,,
html-keyboard-response,109,117948,null,"",null,,,,,,,,,,,,,,,
math-period,110,121587,6303.099999904633,"",,,,,,,,,,,6,,,,,
html-keyboard-response,111,121690,null,"",null,,,,,,,,,,,,,,,
math-period,112,124917,6108.600000023842,"",,,,,,,,,,,2,,,,,
html-keyboard-response,113,125019,null,"",null,,,,,,,,,,,,,,,
math-period,114,126312,2199.4000000953674,"",,,,,,,,,,,2,,,,,
html-keyboard-response,115,126428,null,"",null,,,,,,,,,,,,,,,
math-period,116,128179,3183.5999999046326,"",,,,,,,,,,,1,,,,,
html-keyboard-response,117,128280,null,"",null,,,,,,,,,,,,,,,
math-period,118,129597,2427.2000000476837,"",,,,,,,,,,,3,,,,,
html-keyboard-response,119,129700,null,"",null,,,,,,,,,,,,,,,
math-period,120,130699,1770.6000001430511,"",,,,,,,,,,,3,,,,,
html-keyboard-response,121,130802,null,"",null,,,,,,,,,,,,,,,
math-period,122,132747,3640.2999999523163,"",,,,,,,,,,,3,,,,,
html-keyboard-response,123,132850,null,"",null,,,,,,,,,,,,,,,
math-period,124,134681,3481.2000000476837,"",,,,,,,,,,,2,,,,,
html-keyboard-response,125,134783,null,"",null,,,,,,,,,,,,,,,
math-period,126,136932,4115.399999856949,"",,,,,,,,,,,1,,,,,
html-keyboard-response,127,137034,null,"",null,,,,,,,,,,,,,,,
math-period,128,138709,3031.8000000715256,"",,,,,,,,,,,5,,,,,
html-keyboard-response,129,138812,null,"",null,,,,,,,,,,,,,,,
math-period,130,140622,3369.9999998807907,"",,,,,,,,,,,1,,,,,
html-keyboard-response,131,140724,null,"",null,,,,,,,,,,,,,,,
math-period,132,141858,null,"",,,,,,,,,,,,,,,,
html-keyboard-response,133,142860,null,"Recall Period!",null,,,,,,,,,,,,,,,
call-function,134,142861,,"",,,,,,,,,,,,,,,,
html-keyboard-response,135,142962,null,"",null,,,,,,,,,,,,,,,
recall-period,136,149262,69771.2000001669,"",,,,,,,,,,,entertainment,,,,,
html-keyboard-response,137,149366,null,"",null,,,,,,,,,,,,,,,
recall-period,138,151895,15690.49999988079,"",,,,,,,,,,,dishonest,,,,,
html-keyboard-response,139,151997,null,"",null,,,,,,,,,,,,,,,
recall-period,140,159298,40613.200000047684,"",,,,,,,,,,,happy,,,,,
html-keyboard-response,141,159399,null,"",null,,,,,,,,,,,,,,,
recall-period,142,217863,null,"",,,,,,,,,,,,,,,,
html-keyboard-response,143,218366,null,"Time's Up!",null,,,,,,,,,,,,,,,
html-keyboard-response,144,220428,2060.899999976158,"<p>We will now begin the experiment!<p><p>Please try to remember all words from each list.<p><p>Press the spacebar whenever you see a red square.<p><p><p><p>Press the spacebar to begin.</p>",32,,,,,,,,,,,,,,,
html-keyboard-response,145,222187,1257,"<div style=""font-size:48px;"">Press any key to begin list 1 of 16 </div>",32,,,,,,,,,,,,,,,
html-keyboard-response,146,224690,null,"<div style=""font-size:60px;"">+</div>",null,,,,,,,,,,,,,,,
html-keyboard-response,147,224893,null,"<div style=""font-size:42px;"">PANTHER</div><img id = ""stim"" ><div class = red_square id = topsquare></div>",null,encoding,word_square,,,1,topsquare,32,true,,,PANTHER,0,,,
html-keyboard-response,148,225194,258,"<div style=""font-size:42px;"">PANTHER</div>",32,,word,PANTHER,,,,,,,,,,,,
html-keyboard-response,149,226696,null,"",null,,word,PANTHER,,,,,,,,,,,,
html-keyboard-response,150,226898,null,"<div style=""font-size:42px;"">PLAQUE</div><img id = ""stim"" ><div class = red_square id = bottomsquare></div>",null,encoding,word_square,,,1,bottomsquare,32,true,,,PLAQUE,0,,,
html-keyboard-response,151,227206,192.5,"<div style=""font-size:42px;"">PLAQUE</div>",32,,word,PLAQUE,,,,,,,,,,,,
html-keyboard-response,152,228708,null,"",null,,word,PLAQUE,,,,,,,,,,,,
html-keyboard-response,153,228910,null,"<div style=""font-size:42px;"">COBWEB</div><img id = ""stim"" ><div class = green_square id = bottomsquare></div>",null,encoding,word_square,,,0,bottomsquare,none,true,,,COBWEB,0,,,
html-keyboard-response,154,229212,null,"<div style=""font-size:42px;"">COBWEB</div>",null,,word,COBWEB,,,,,,,,,,,,
html-keyboard-response,155,230715,null,"",null,,word,COBWEB,,,,,,,,,,,,
html-keyboard-response,156,230917,null,"<div style=""font-size:42px;"">CLOSET</div><img id = ""stim"" ><div class = red_square id = topsquare></div>",null,encoding,word_square,,,1,topsquare,32,true,,,CLOSET,0,,,
html-keyboard-response,157,231220,219.89999997615814,"<div style=""font-size:42px;"">CLOSET</div>",32,,word,CLOSET,,,,,,,,,,,,
html-keyboard-response,158,232722,null,"",null,,word,CLOSET,,,,,,,,,,,,
html-keyboard-response,159,232926,null,"<div style=""font-size:42px;"">CONCRETE</div><img id = ""stim"" ><div class = green_square id = topsquare></div>",null,encoding,word_square,,,0,topsquare,none,true,,,CONCRETE,0,,,
html-keyboard-response,160,233228,null,"<div style=""font-size:42px;"">CONCRETE</div>",null,,word,CONCRETE,,,,,,,,,,,,
html-keyboard-response,161,234731,null,"",null,,word,CONCRETE,,,,,,,,,,,,
html-keyboard-response,162,234933,null,"<div style=""font-size:42px;"">CONTRACT</div><img id = ""stim"" ><div class = green_square id = bottomsquare></div>",null,encoding,word_square,,,0,bottomsquare,none,true,,,CONTRACT,0,,,
html-keyboard-response,163,235237,null,"<div style=""font-size:42px;"">CONTRACT</div>",null,,word,CONTRACT,,,,,,,,,,,,
html-keyboard-response,164,236739,null,"",null,,word,CONTRACT,,,,,,,,,,,,
html-keyboard-response,165,236942,null,"<div style=""font-size:42px;"">POPCORN</div><img id = ""stim"" ><div class = red_square id = bottomsquare></div>",null,encoding,word_square,,,1,bottomsquare,32,true,,,POPCORN,0,,,
html-keyboard-response,166,237244,null,"<div style=""font-size:42px;"">POPCORN</div>",null,,word,POPCORN,,,,,,,,,,,,
html-keyboard-response,167,238746,15.399999976158142,"",32,,word,POPCORN,,,,,,,,,,,,
html-keyboard-response,168,238949,null,"<div style=""font-size:42px;"">TWISTER</div><img id = ""stim"" ><div class = red_square id = topsquare></div>",null,encoding,word_square,,,1,topsquare,32,true,,,TWISTER,0,,,
html-keyboard-response,169,239251,246.70000004768372,"<div style=""font-size:42px;"">TWISTER</div>",32,,word,TWISTER,,,,,,,,,,,,
html-keyboard-response,170,240753,null,"",null,,word,TWISTER,,,,,,,,,,,,
html-keyboard-response,171,240955,null,"<div style=""font-size:42px;"">COIN</div><img id = ""stim"" ><div class = green_square id = topsquare></div>",null,encoding,word_square,,,0,topsquare,none,true,,,COIN,0,,,
html-keyboard-response,172,241257,null,"<div style=""font-size:42px;"">COIN</div>",null,,word,COIN,,,,,,,,,,,,
html-keyboard-response,173,242759,null,"",null,,word,COIN,,,,,,,,,,,,
html-keyboard-response,174,242962,null,"<div style=""font-size:42px;"">POSSUM</div><img id = ""stim"" ><div class = red_square id = bottomsquare></div>",null,encoding,word_square,,,1,bottomsquare,32,true,,,POSSUM,0,,,
html-keyboard-response,175,243264,280.39999997615814,"<div style=""font-size:42px;"">POSSUM</div>",32,,word,POSSUM,,,,,,,,,,,,
html-keyboard-response,176,244766,null,"",null,,word,POSSUM,,,,,,,,,,,,
html-keyboard-response,177,244968,null,"<div style=""font-size:42px;"">DAGGER</div><img id = ""stim"" ><div class = green_square id = bottomsquare></div>",null,encoding,word_square,,,0,bottomsquare,none,true,,,DAGGER,0,,,
html-keyboard-response,178,245270,null,"<div style=""font-size:42px;"">DAGGER</div>",null,,word,DAGGER,,,,,,,,,,,,
html-keyboard-response,179,246772,null,"",null,,word,DAGGER,,,,,,,,,,,,
html-keyboard-response,180,246975,null,"<div style=""font-size:42px;"">SALAD</div><img id = ""stim"" ><div class = green_square id = topsquare></div>",null,encoding,word_square,,,0,topsquare,none,true,,,SALAD,0,,,
html-keyboard-response,181,247277,null,"<div style=""font-size:42px;"">SALAD</div>",null,,word,SALAD,,,,,,,,,,,,
html-keyboard-response,182,248779,null,"",null,,word,SALAD,,,,,,,,,,,,
html-keyboard-response,183,248981,null,"<div style=""font-size:42px;"">TURNIP</div><img id = ""stim"" ><div class = red_square id = topsquare></div>",null,encoding,word_square,,,1,topsquare,32,true,,,TURNIP,0,,,
html-keyboard-response,184,249283,244.89999997615814,"<div style=""font-size:42px;"">TURNIP</div>",32,,word,TURNIP,,,,,,,,,,,,
html-keyboard-response,185,250789,null,"",null,,word,TURNIP,,,,,,,,,,,,
html-keyboard-response,186,250991,null,"<div style=""font-size:42px;"">ROACH</div><img id = ""stim"" ><div class = green_square id = bottomsquare></div>",null,encoding,word_square,,,0,bottomsquare,none,true,,,ROACH,0,,,
html-keyboard-response,187,251294,null,"<div style=""font-size:42px;"">ROACH</div>",null,,word,ROACH,,,,,,,,,,,,
html-keyboard-response,188,252797,null,"",null,,word,ROACH,,,,,,,,,,,,
html-keyboard-response,189,252999,null,"<div style=""font-size:42px;"">SWIMMER</div><img id = ""stim"" ><div class = green_square id = topsquare></div>",null,encoding,word_square,,,0,topsquare,none,true,,,SWIMMER,0,,,
html-keyboard-response,190,253301,null,"<div style=""font-size:42px;"">SWIMMER</div>",null,,word,SWIMMER,,,,,,,,,,,,
html-keyboard-response,191,254803,null,"",null,,word,SWIMMER,,,,,,,,,,,,
html-keyboard-response,192,255005,null,"<div style=""font-size:42px;"">SHRUB</div><img id = ""stim"" ><div class = red_square id = bottomsquare></div>",null,encoding,word_square,,,1,bottomsquare,32,true,,,SHRUB,0,,,
html-keyboard-response,193,255306,274.90000009536743,"<div style=""font-size:42px;"">SHRUB</div>",32,,word,SHRUB,,,,,,,,,,,,
html-keyboard-response,194,256809,null,"",null,,word,SHRUB,,,,,,,,,,,,
call-function,195,256810,,"",,,,,,,,,,,,,,,,
html-keyboard-response,196,256911,null,"",null,,,,,,,,,,,,,,,
math-period,197,259628,5043.799999952316,"",,,,,,,,,,,4,,,,,
html-keyboard-response,198,259731,null,"",null,,,,,,,,,,,,,,,
math-period,199,261541,3235.0000001192093,"",,,,,,,,,,,6,,,,,
html-keyboard-response,200,261644,null,"",null,,,,,,,,,,,,,,,
math-period,201,263139,2693.4999998807907,"",,,,,,,,,,,3,,,,,
html-keyboard-response,202,263241,null,"",null,,,,,,,,,,,,,,,
math-period,203,264916,3032.3000000715256,"",,,,,,,,,,,1,,,,,
html-keyboard-response,204,265018,null,"",null,,,,,,,,,,,,,,,
math-period,205,266671,2965.8000000715256,"",,,,,,,,,,,4,,,,,
html-keyboard-response,206,266773,null,"",null,,,,,,,,,,,,,,,
math-period,207,268224,2447.7000000476837,"",,,,,,,,,,,2,,,,,
html-keyboard-response,208,268326,null,"",null,,,,,,,,,,,,,,,
math-period,209,269911,2942.9999998807907,"",,,,,,,,,,,1,,,,,
html-keyboard-response,210,270013,null,"",null,,,,,,,,,,,,,,,
math-period,211,272409,7864.800000071526,"",,,,,,,,,,,6,,,,,
html-keyboard-response,212,272511,null,"",null,,,,,,,,,,,,,,,
math-period,213,274636,3932,"",,,,,,,,,,,3,,,,,
html-keyboard-response,214,274737,null,"",null,,,,,,,,,,,,,,,
math-period,215,276482,3215.5,"",,,,,,,,,,,4,,,,,
html-keyboard-response,216,276585,null,"",null,,,,,,,,,,,,,,,
math-period,217,277989,2535.2000000476837,"",,,,,,,,,,,5,,,,,
html-keyboard-response,218,278091,null,"",null,,,,,,,,,,,,,,,
math-period,219,279496,2333.5999999046326,"",,,,,,,,,,,1,,,,,
html-keyboard-response,220,279597,null,"",null,,,,,,,,,,,,,,,
math-period,221,280811,1067.5,"",,,,,,,,,,,2,,,,,
html-keyboard-response,222,281814,null,"Recall Period!",null,,,,,,,,,,,,,,,
call-function,223,281815,,"",,,,,,,,,,,,,,,,
html-keyboard-response,224,281916,null,"",null,,,,,,,,,,,,,,,
recall-period,225,291782,224277.0000011921,"",,,,,,,,,,,panther,,,,,
html-keyboard-response,226,291884,null,"",null,,,,,,,,,,,,,,,
recall-period,227,293447,5597.400000214577,"",,,,,,,,,,,plaque,,,,,
html-keyboard-response,228,293548,null,"",null,,,,,,,,,,,,,,,
recall-period,229,296306,15677.700000286102,"",,,,,,,,,,,cobweb,,,,,
html-keyboard-response,230,296408,null,"",null,,,,,,,,,,,,,,,
recall-period,231,297633,4841.60000026226,"",,,,,,,,,,,closet,,,,,
html-keyboard-response,232,297735,null,"",null,,,,,,,,,,,,,,,
recall-period,233,299118,5555.199999928474,"",,,,,,,,,,,tornado,,,,,
html-keyboard-response,234,299220,null,"",null,,,,,,,,,,,,,,,
recall-period,235,300625,5363.900000452995,"",,,,,,,,,,,possum,,,,,
html-keyboard-response,236,300735,null,"",null,,,,,,,,,,,,,,,
recall-period,237,307735,44980.00000011921,"",,,,,,,,,,,turnip,,,,,
html-keyboard-response,238,307837,null,"",null,,,,,,,,,,,,,,,
recall-period,239,311763,22771.60000026226,"",,,,,,,,,,,shrub,,,,,
html-keyboard-response,240,311865,null,"",null,,,,,,,,,,,,,,,
recall-period,241,356815,null,"",,,,,,,,,,,,,,,,
html-keyboard-response,242,357318,null,"Time's Up!",null,,,,,,,,,,,,,,,
html-keyboard-response,243,357549,229.09999990463257,"<p> Good job! You have responded correctly to 100% of the trials. </p>
                      <p>Be sure to only press the spacebar if you see a red square, and please keep your accuracy above 80%.</p>
                      <p> Press any key to continue the experiment. </p>",32,,,,,,,,,,,,,,,
html-keyboard-response,244,358272,722,"<div style=""font-size:48px;"">Press any key to begin list 2 of 16 </div>",32,,,,,,,,,,,,,,,
html-keyboard-response,245,360774,null,"<div style=""font-size:60px;"">+</div>",null,,,,,,,,,,,,,,,
html-keyboard-response,246,360977,null,"<div style=""font-size:42px;"">HORSE</div><img id = ""stim"" ><div class = red_square id = bottomsquare></div>",null,encoding,word_square,,,1,bottomsquare,32,true,,,HORSE,1,,,
html-keyboard-response,247,361279,190.5,"<div style=""font-size:42px;"">HORSE</div>",32,,word,HORSE,,,,,,,,,,,,
html-keyboard-response,248,362781,null,"",null,,word,HORSE,,,,,,,,,,,,
html-keyboard-response,249,362984,null,"<div style=""font-size:42px;"">BARLEY</div><img id = ""stim"" ><div class = green_square id = topsquare></div>",null,encoding,word_square,,,0,topsquare,none,true,,,BARLEY,1,,,
html-keyboard-response,250,363288,null,"<div style=""font-size:42px;"">BARLEY</div>",null,,word,BARLEY,,,,,,,,,,,,
html-keyboard-response,251,364789,null,"",null,,word,BARLEY,,,,,,,,,,,,
html-keyboard-response,252,364992,null,"<div style=""font-size:42px;"">SEASHORE</div><img id = ""stim"" ><div class = green_square id = bottomsquare></div>",null,encoding,word_square,,,0,bottomsquare,none,true,,,SEASHORE,1,,,
html-keyboard-response,253,365295,null,"<div style=""font-size:42px;"">SEASHORE</div>",null,,word,SEASHORE,,,,,,,,,,,,
html-keyboard-response,254,366798,null,"",null,,word,SEASHORE,,,,,,,,,,,,
html-keyboard-response,255,367000,null,"<div style=""font-size:42px;"">KEYBOARD</div><img id = ""stim"" ><div class = red_square id = topsquare></div>",null,encoding,word_square,,,1,topsquare,32,true,,,KEYBOARD,1,,,
html-keyboard-response,256,367302,197.60000002384186,"<div style=""font-size:42px;"">KEYBOARD</div>",32,,word,KEYBOARD,,,,,,,,,,,,
html-keyboard-response,257,368805,null,"",null,,word,KEYBOARD,,,,,,,,,,,,
html-keyboard-response,258,369008,null,"<div style=""font-size:42px;"">PICTURE</div><img id = ""stim"" ><div class = green_square id = topsquare></div>",null,encoding,word_square,,,0,topsquare,none,true,,,PICTURE,1,,,
html-keyboard-response,259,369310,null,"<div style=""font-size:42px;"">PICTURE</div>",null,,word,PICTURE,,,,,,,,,,,,
html-keyboard-response,260,370813,null,"",null,,word,PICTURE,,,,,,,,,,,,
html-keyboard-response,261,371015,null,"<div style=""font-size:42px;"">BANK</div><img id = ""stim"" ><div class = green_square id = bottomsquare></div>",null,encoding,word_square,,,0,bottomsquare,none,true,,,BANK,1,,,
html-keyboard-response,262,371318,null,"<div style=""font-size:42px;"">BANK</div>",null,,word,BANK,,,,,,,,,,,,
html-keyboard-response,263,372821,null,"",null,,word,BANK,,,,,,,,,,,,
html-keyboard-response,264,373023,null,"<div style=""font-size:42px;"">SUMMIT</div><img id = ""stim"" ><div class = red_square id = bottomsquare></div>",null,encoding,word_square,,,1,bottomsquare,32,true,,,SUMMIT,1,,,
html-keyboard-response,265,373325,null,"<div style=""font-size:42px;"">SUMMIT</div>",null,,word,SUMMIT,,,,,,,,,,,,
html-keyboard-response,266,374827,83.70000004768372,"",32,,word,SUMMIT,,,,,,,,,,,,
html-keyboard-response,267,375030,null,"<div style=""font-size:42px;"">SICKLE</div><img id = ""stim"" ><div class = green_square id = topsquare></div>",null,encoding,word_square,,,0,topsquare,none,true,,,SICKLE,1,,,
html-keyboard-response,268,375331,null,"<div style=""font-size:42px;"">SICKLE</div>",null,,word,SICKLE,,,,,,,,,,,,
html-keyboard-response,269,376833,null,"",null,,word,SICKLE,,,,,,,,,,,,
html-keyboard-response,270,377036,null,"<div style=""font-size:42px;"">VELVET</div><img id = ""stim"" ><div class = red_square id = topsquare></div>",null,encoding,word_square,,,1,topsquare,32,true,,,VELVET,1,,,
html-keyboard-response,271,377338,null,"<div style=""font-size:42px;"">VELVET</div>",null,,word,VELVET,,,,,,,,,,,,
html-keyboard-response,272,378840,75,"",32,,word,VELVET,,,,,,,,,,,,
html-keyboard-response,273,379043,null,"<div style=""font-size:42px;"">PLATE</div><img id = ""stim"" ><div class = red_square id = bottomsquare></div>",null,encoding,word_square,,,1,bottomsquare,32,true,,,PLATE,1,,,
html-keyboard-response,274,379345,null,"<div style=""font-size:42px;"">PLATE</div>",null,,word,PLATE,,,,,,,,,,,,
html-keyboard-response,275,380847,385.8000000715256,"",32,,word,PLATE,,,,,,,,,,,,
html-keyboard-response,276,381051,null,"<div style=""font-size:42px;"">TYPIST</div><img id = ""stim"" ><div class = green_square id = bottomsquare></div>",null,encoding,word_square,,,0,bottomsquare,none,true,,,TYPIST,1,,,
html-keyboard-response,277,381352,null,"<div style=""font-size:42px;"">TYPIST</div>",null,,word,TYPIST,,,,,,,,,,,,
html-keyboard-response,278,382855,null,"",null,,word,TYPIST,,,,,,,,,,,,
html-keyboard-response,279,383058,null,"<div style=""font-size:42px;"">TWIG</div><img id = ""stim"" ><div class = green_square id = topsquare></div>",null,encoding,word_square,,,0,topsquare,none,true,,,TWIG,1,,,
html-keyboard-response,280,383360,null,"<div style=""font-size:42px;"">TWIG</div>",null,,word,TWIG,,,,,,,,,,,,
html-keyboard-response,281,384861,null,"",null,,word,TWIG,,,,,,,,,,,,
html-keyboard-response,282,385063,null,"<div style=""font-size:42px;"">BRANCH</div><img id = ""stim"" ><div class = red_square id = topsquare></div>",null,encoding,word_square,,,1,topsquare,32,true,,,BRANCH,1,,,
html-keyboard-response,283,385364,225.29999995231628,"<div style=""font-size:42px;"">BRANCH</div>",32,,word,BRANCH,,,,,,,,,,,,
html-keyboard-response,284,386866,null,"",null,,word,BRANCH,,,,,,,,,,,,
html-keyboard-response,285,387068,null,"<div style=""font-size:42px;"">TRACTOR</div><img id = ""stim"" ><div class = green_square id = bottomsquare></div>",null,encoding,word_square,,,0,bottomsquare,none,true,,,TRACTOR,1,,,
html-keyboard-response,286,387370,null,"<div style=""font-size:42px;"">TRACTOR</div>",null,,word,TRACTOR,,,,,,,,,,,,
html-keyboard-response,287,388872,null,"",null,,word,TRACTOR,,,,,,,,,,,,
html-keyboard-response,288,389075,null,"<div style=""font-size:42px;"">FARMER</div><img id = ""stim"" ><div class = red_square id = bottomsquare></div>",null,encoding,word_square,,,1,bottomsquare,32,true,,,FARMER,1,,,
html-keyboard-response,289,389377,null,"<div style=""font-size:42px;"">FARMER</div>",null,,word,FARMER,,,,,,,,,,,,
html-keyboard-response,290,390880,30.199999928474426,"",32,,word,FARMER,,,,,,,,,,,,
html-keyboard-response,291,391083,null,"<div style=""font-size:42px;"">HEEL</div><img id = ""stim"" ><div class = red_square id = topsquare></div>",null,encoding,word_square,,,1,topsquare,32,true,,,HEEL,1,,,
html-keyboard-response,292,391385,null,"<div style=""font-size:42px;"">HEEL</div>",null,,word,HEEL,,,,,,,,,,,,
html-keyboard-response,293,392887,6.699999928474426,"",32,,word,HEEL,,,,,,,,,,,,
call-function,294,392888,,"",,,,,,,,,,,,,,,,
html-keyboard-response,295,392990,null,"",null,,,,,,,,,,,,,,,
math-period,296,395106,3885.399999976158,"",,,,,,,,,,,4,,,,,
html-keyboard-response,297,395207,null,"",null,,,,,,,,,,,,,,,
math-period,298,397716,8429.700000166893,"",,,,,,,,,,,2,,,,,
html-keyboard-response,299,397818,null,"",null,,,,,,,,,,,,,,,
math-period,300,399111,2267.399999976158,"",,,,,,,,,,,3,,,,,
html-keyboard-response,301,399213,null,"",null,,,,,,,,,,,,,,,
math-period,302,400506,2381.100000023842,"",,,,,,,,,,,4,,,,,
html-keyboard-response,303,400608,null,"",null,,,,,,,,,,,,,,,
math-period,304,402171,2829.9999998807907,"",,,,,,,,,,,2,,,,,
html-keyboard-response,305,402274,null,"",null,,,,,,,,,,,,,,,
math-period,306,403251,1770.7999999523163,"",,,,,,,,,,,2,,,,,
html-keyboard-response,307,403354,null,"",null,,,,,,,,,,,,,,,
math-period,308,404489,2063.7999999523163,"",,,,,,,,,,,4,,,,,
html-keyboard-response,309,404591,null,"",null,,,,,,,,,,,,,,,
math-period,310,405726,2087.4999998807907,"",,,,,,,,,,,2,,,,,
html-keyboard-response,311,405828,null,"",null,,,,,,,,,,,,,,,
math-period,312,406740,1707.1999999284744,"",,,,,,,,,,,2,,,,,
html-keyboard-response,313,406842,null,"",null,,,,,,,,,,,,,,,
math-period,314,408832,3839.5999999046326,"",,,,,,,,,,,2,,,,,
html-keyboard-response,315,408934,null,"",null,,,,,,,,,,,,,,,
math-period,316,410294,2648.5999999046326,"",,,,,,,,,,,2,,,,,
html-keyboard-response,317,410396,null,"",null,,,,,,,,,,,,,,,
math-period,318,411284,1704.7000000476837,"",,,,,,,,,,,3,,,,,
html-keyboard-response,319,411386,null,"",null,,,,,,,,,,,,,,,
math-period,320,412724,2627.6999999284744,"",,,,,,,,,,,2,,,,,
html-keyboard-response,321,412825,null,"",null,,,,,,,,,,,,,,,
math-period,322,413691,1683.6000000238419,"",,,,,,,,,,,3,,,,,
html-keyboard-response,323,413794,null,"",null,,,,,,,,,,,,,,,
math-period,324,414928,2221.8000000715256,"",,,,,,,,,,,4,,,,,
html-keyboard-response,325,415031,null,"",null,,,,,,,,,,,,,,,
math-period,326,416458,2806.700000166893,"",,,,,,,,,,,2,,,,,
html-keyboard-response,327,416560,null,"",null,,,,,,,,,,,,,,,
math-period,328,416888,null,"",,,,,,,,,,,,,,,,
html-keyboard-response,329,417889,null,"Recall Period!",null,,,,,,,,,,,,,,,
call-function,330,417891,,"",,,,,,,,,,,,,,,,
html-keyboard-response,331,417992,null,"",null,,,,,,,,,,,,,,,
recall-period,332,419766,7906.999999642372,"",,,,,,,,,,,horse,,,,,
html-keyboard-response,333,419868,null,"",null,,,,,,,,,,,,,,,
recall-period,334,422398,15226.199999928474,"",,,,,,,,,,,barlet,,,,,
html-keyboard-response,335,422499,null,"",null,,,,,,,,,,,,,,,
recall-period,336,424716,13346.699999928474,"",,,,,,,,,,,barley,,,,,
html-keyboard-response,337,424818,null,"",null,,,,,,,,,,,,,,,
recall-period,338,426223,7218.500000119209,"",,,,,,,,,,,seashore,,,,,
html-keyboard-response,339,426325,null,"",null,,,,,,,,,,,,,,,
recall-period,340,428541,14479.49999988079,"",,,,,,,,,,,keyboard,,,,,
html-keyboard-response,341,428644,null,"",null,,,,,,,,,,,,,,,
recall-period,342,430251,6043.000000357628,"",,,,,,,,,,,velvet,,,,,
html-keyboard-response,343,430353,null,"",null,,,,,,,,,,,,,,,
recall-period,344,432051,8151.60000026226,"",,,,,,,,,,,plate,,,,,
html-keyboard-response,345,432153,null,"",null,,,,,,,,,,,,,,,
recall-period,346,434323,10524.39999961853,"",,,,,,,,,,,summit,,,,,
html-keyboard-response,347,434426,null,"",null,,,,,,,,,,,,,,,
recall-period,348,435336,2920.4000002145767,"",,,,,,,,,,,twig,,,,,
html-keyboard-response,349,435438,null,"",null,,,,,,,,,,,,,,,
recall-period,350,436528,3466.3999997377396,"",,,,,,,,,,,farmer,,,,,
html-keyboard-response,351,436629,null,"",null,,,,,,,,,,,,,,,
recall-period,352,438014,5068.399999856949,"",,,,,,,,,,,bank,,,,,
html-keyboard-response,353,438115,null,"",null,,,,,,,,,,,,,,,
recall-period,354,492891,null,"",,,,,,,,,,,,,,,,
html-keyboard-response,355,493394,null,"Time's Up!",null,,,,,,,,,,,,,,,
html-keyboard-response,356,496397,3001.7999999523163,"<p> Good job! You have responded correctly to 100% of the trials. </p>
                      <p>Be sure to only press the spacebar if you see a red square, and please keep your accuracy above 80%.</p>
                      <p> Press any key to continue the experiment. </p>",32,,,,,,,,,,,,,,,
html-keyboard-response,357,497326,928.0999999046326,"<div style=""font-size:48px;"">Press any key to begin list 3 of 16 </div>",32,,,,,,,,,,,,,,,
html-keyboard-response,358,499828,null,"<div style=""font-size:60px;"">+</div>",null,,,,,,,,,,,,,,,
html-keyboard-response,359,500030,null,"<div style=""font-size:42px;"">HONEY</div><img id = ""stim"" ><div class = green_square id = bottomsquare></div>",null,encoding,word_square,,,0,bottomsquare,none,true,,,HONEY,2,,,
html-keyboard-response,360,500334,null,"<div style=""font-size:42px;"">HONEY</div>",null,,word,HONEY,,,,,,,,,,,,
html-keyboard-response,361,501837,null,"",null,,word,HONEY,,,,,,,,,,,,
html-keyboard-response,362,502039,null,"<div style=""font-size:42px;"">GRILL</div><img id = ""stim"" ><div class = green_square id = topsquare></div>",null,encoding,word_square,,,0,topsquare,none,true,,,GRILL,2,,,
html-keyboard-response,363,502341,null,"<div style=""font-size:42px;"">GRILL</div>",null,,word,GRILL,,,,,,,,,,,,
html-keyboard-response,364,503844,null,"",null,,word,GRILL,,,,,,,,,,,,
html-keyboard-response,365,504046,null,"<div style=""font-size:42px;"">CATCHER</div><img id = ""stim"" ><div class = red_square id = topsquare></div>",null,encoding,word_square,,,1,topsquare,32,true,,,CATCHER,2,,,
html-keyboard-response,366,504349,null,"<div style=""font-size:42px;"">CATCHER</div>",null,,word,CATCHER,,,,,,,,,,,,
html-keyboard-response,367,505851,124.80000007152557,"",32,,word,CATCHER,,,,,,,,,,,,
html-keyboard-response,368,506054,null,"<div style=""font-size:42px;"">HORNET</div><img id = ""stim"" ><div class = green_square id = bottomsquare></div>",null,encoding,word_square,,,0,bottomsquare,none,true,,,HORNET,2,,,
html-keyboard-response,369,506356,null,"<div style=""font-size:42px;"">HORNET</div>",null,,word,HORNET,,,,,,,,,,,,
html-keyboard-response,370,507858,null,"",null,,word,HORNET,,,,,,,,,,,,
html-keyboard-response,371,508061,null,"<div style=""font-size:42px;"">RULER</div><img id = ""stim"" ><div class = red_square id = bottomsquare></div>",null,encoding,word_square,,,1,bottomsquare,32,true,,,RULER,2,,,
html-keyboard-response,372,508364,284,"<div style=""font-size:42px;"">RULER</div>",32,,word,RULER,,,,,,,,,,,,
html-keyboard-response,373,509865,null,"",null,,word,RULER,,,,,,,,,,,,
html-keyboard-response,374,510067,null,"<div style=""font-size:42px;"">SKATE</div><img id = ""stim"" ><div class = red_square id = topsquare></div>",null,encoding,word_square,,,1,topsquare,32,true,,,SKATE,2,,,
html-keyboard-response,375,510369,null,"<div style=""font-size:42px;"">SKATE</div>",null,,word,SKATE,,,,,,,,,,,,
html-keyboard-response,376,511871,200.79999995231628,"",32,,word,SKATE,,,,,,,,,,,,
html-keyboard-response,377,512074,null,"<div style=""font-size:42px;"">DONKEY</div><img id = ""stim"" ><div class = green_square id = topsquare></div>",null,encoding,word_square,,,0,topsquare,none,true,,,DONKEY,2,,,
html-keyboard-response,378,512376,null,"<div style=""font-size:42px;"">DONKEY</div>",null,,word,DONKEY,,,,,,,,,,,,
html-keyboard-response,379,513879,null,"",null,,word,DONKEY,,,,,,,,,,,,
html-keyboard-response,380,514082,null,"<div style=""font-size:42px;"">TUNNEL</div><img id = ""stim"" ><div class = green_square id = bottomsquare></div>",null,encoding,word_square,,,0,bottomsquare,none,true,,,TUNNEL,2,,,
html-keyboard-response,381,514384,null,"<div style=""font-size:42px;"">TUNNEL</div>",null,,word,TUNNEL,,,,,,,,,,,,
html-keyboard-response,382,515886,null,"",null,,word,TUNNEL,,,,,,,,,,,,
html-keyboard-response,383,516088,null,"<div style=""font-size:42px;"">DIVER</div><img id = ""stim"" ><div class = red_square id = bottomsquare></div>",null,encoding,word_square,,,1,bottomsquare,32,true,,,DIVER,2,,,
html-keyboard-response,384,516392,null,"<div style=""font-size:42px;"">DIVER</div>",null,,word,DIVER,,,,,,,,,,,,
html-keyboard-response,385,517894,7.399999976158142,"",32,,word,DIVER,,,,,,,,,,,,
html-keyboard-response,386,518097,null,"<div style=""font-size:42px;"">MARSH</div><img id = ""stim"" ><div class = green_square id = topsquare></div>",null,encoding,word_square,,,0,topsquare,none,true,,,MARSH,2,,,
html-keyboard-response,387,518399,null,"<div style=""font-size:42px;"">MARSH</div>",null,,word,MARSH,,,,,,,,,,,,
html-keyboard-response,388,519902,null,"",null,,word,MARSH,,,,,,,,,,,,
html-keyboard-response,389,520104,null,"<div style=""font-size:42px;"">SPICE</div><img id = ""stim"" ><div class = red_square id = topsquare></div>",null,encoding,word_square,,,1,topsquare,32,true,,,SPICE,2,,,
html-keyboard-response,390,520406,278.89999997615814,"<div style=""font-size:42px;"">SPICE</div>",32,,word,SPICE,,,,,,,,,,,,
html-keyboard-response,391,521908,null,"",null,,word,SPICE,,,,,,,,,,,,
html-keyboard-response,392,522110,null,"<div style=""font-size:42px;"">LOBBY</div><img id = ""stim"" ><div class = red_square id = bottomsquare></div>",null,encoding,word_square,,,1,bottomsquare,32,true,,,LOBBY,2,,,
html-keyboard-response,393,522413,null,"<div style=""font-size:42px;"">LOBBY</div>",null,,word,LOBBY,,,,,,,,,,,,
html-keyboard-response,394,523915,60.39999997615814,"",32,,word,LOBBY,,,,,,,,,,,,
html-keyboard-response,395,524117,null,"<div style=""font-size:42px;"">MAMMAL</div><img id = ""stim"" ><div class = green_square id = bottomsquare></div>",null,encoding,word_square,,,0,bottomsquare,none,true,,,MAMMAL,2,,,
html-keyboard-response,396,524420,null,"<div style=""font-size:42px;"">MAMMAL</div>",null,,word,MAMMAL,,,,,,,,,,,,
html-keyboard-response,397,525922,null,"",null,,word,MAMMAL,,,,,,,,,,,,
html-keyboard-response,398,526125,null,"<div style=""font-size:42px;"">TORTOISE</div><img id = ""stim"" ><div class = red_square id = topsquare></div>",null,encoding,word_square,,,1,topsquare,32,true,,,TORTOISE,2,,,
html-keyboard-response,399,526427,264.5,"<div style=""font-size:42px;"">TORTOISE</div>",32,,word,TORTOISE,,,,,,,,,,,,
html-keyboard-response,400,527929,null,"",null,,word,TORTOISE,,,,,,,,,,,,
html-keyboard-response,401,528135,null,"<div style=""font-size:42px;"">FLIPPER</div><img id = ""stim"" ><div class = red_square id = bottomsquare></div>",null,encoding,word_square,,,1,bottomsquare,32,true,,,FLIPPER,2,,,
html-keyboard-response,402,528437,null,"<div style=""font-size:42px;"">FLIPPER</div>",null,,word,FLIPPER,,,,,,,,,,,,
html-keyboard-response,403,529939,112.20000004768372,"",32,,word,FLIPPER,,,,,,,,,,,,
html-keyboard-response,404,530142,null,"<div style=""font-size:42px;"">ARM</div><img id = ""stim"" ><div class = green_square id = topsquare></div>",null,encoding,word_square,,,0,topsquare,none,true,,,ARM,2,,,
html-keyboard-response,405,530444,null,"<div style=""font-size:42px;"">ARM</div>",null,,word,ARM,,,,,,,,,,,,
html-keyboard-response,406,531948,null,"",null,,word,ARM,,,,,,,,,,,,
call-function,407,531949,,"",,,,,,,,,,,,,,,,
html-keyboard-response,408,532051,null,"",null,,,,,,,,,,,,,,,
math-period,409,534362,4388.5,"",,,,,,,,,,,3,,,,,
html-keyboard-response,410,534474,null,"",null,,,,,,,,,,,,,,,
math-period,411,536162,3170.300000190735,"",,,,,,,,,,,3,,,,,
html-keyboard-response,412,536264,null,"",null,,,,,,,,,,,,,,,
math-period,413,538480,7392.799999952316,"",,,,,,,,,,,1,,,,,
html-keyboard-response,414,538582,null,"",null,,,,,,,,,,,,,,,
math-period,415,539380,1480.299999833107,"",,,,,,,,,,,2,,,,,
html-keyboard-response,416,539483,null,"",null,,,,,,,,,,,,,,,
math-period,417,540798,2558.2000000476837,"",,,,,,,,,,,2,,,,,
html-keyboard-response,418,540899,null,"",null,,,,,,,,,,,,,,,
math-period,419,542148,2404.7999999523163,"",,,,,,,,,,,3,,,,,
html-keyboard-response,420,542250,null,"",null,,,,,,,,,,,,,,,
math-period,421,543319,1976.7000000476837,"",,,,,,,,,,,2,,,,,
html-keyboard-response,422,543421,null,"",null,,,,,,,,,,,,,,,
math-period,423,545005,3009.9999998807907,"",,,,,,,,,,,1,,,,,
html-keyboard-response,424,545107,null,"",null,,,,,,,,,,,,,,,
math-period,425,546130,1953.3999999761581,"",,,,,,,,,,,2,,,,,
html-keyboard-response,426,546232,null,"",null,,,,,,,,,,,,,,,
math-period,427,549415,5930.699999928474,"",,,,,,,,,,,0,,,,,
html-keyboard-response,428,549518,null,"",null,,,,,,,,,,,,,,,
math-period,429,551058,2942.0000001192093,"",,,,,,,,,,,5,,,,,
html-keyboard-response,430,551159,null,"",null,,,,,,,,,,,,,,,
math-period,431,552385,2381.2999999523163,"",,,,,,,,,,,1,,,,,
html-keyboard-response,432,552487,null,"",null,,,,,,,,,,,,,,,
math-period,433,553645,2222.2000000476837,"",,,,,,,,,,,5,,,,,
html-keyboard-response,434,553747,null,"",null,,,,,,,,,,,,,,,
math-period,435,554838,2111.5999999046326,"",,,,,,,,,,,6,,,,,
html-keyboard-response,436,554940,null,"",null,,,,,,,,,,,,,,,
math-period,437,555951,null,"",,,,,,,,,,,,,,,,
html-keyboard-response,438,556954,null,"Recall Period!",null,,,,,,,,,,,,,,,
call-function,439,556955,,"",,,,,,,,,,,,,,,,
html-keyboard-response,440,557057,null,"",null,,,,,,,,,,,,,,,
recall-period,441,559451,11938.600000143051,"",,,,,,,,,,,grill,,,,,
html-keyboard-response,442,559553,null,"",null,,,,,,,,,,,,,,,
recall-period,443,560463,3020.9000004529953,"",,,,,,,,,,,honey,,,,,
html-keyboard-response,444,560565,null,"",null,,,,,,,,,,,,,,,
recall-period,445,561566,4265.199999570847,"",,,,,,,,,,,hornet,,,,,
html-keyboard-response,446,561668,null,"",null,,,,,,,,,,,,,,,
recall-period,447,562735,3972.100000023842,"",,,,,,,,,,,spices,,,,,
html-keyboard-response,448,562837,null,"",null,,,,,,,,,,,,,,,
recall-period,449,563995,5564.999999642372,"",,,,,,,,,,,catcher,,,,,
html-keyboard-response,450,564098,null,"",null,,,,,,,,,,,,,,,
recall-period,451,564783,2211.700000166893,"",,,,,,,,,,,ruler,,,,,
html-keyboard-response,452,564899,null,"",null,,,,,,,,,,,,,,,
recall-period,453,566965,12015.400000095367,"",,,,,,,,,,,diver,,,,,
html-keyboard-response,454,567067,null,"",null,,,,,,,,,,,,,,,
recall-period,455,569711,12545.399999976158,"",,,,,,,,,,,tortoise,,,,,
html-keyboard-response,456,569813,null,"",null,,,,,,,,,,,,,,,
recall-period,457,570970,6053.300000190735,"",,,,,,,,,,,flipper,,,,,
html-keyboard-response,458,571072,null,"",null,,,,,,,,,,,,,,,
recall-period,459,572142,4216.999999642372,"",,,,,,,,,,,lobby,,,,,
html-keyboard-response,460,572243,null,"",null,,,,,,,,,,,,,,,
recall-period,461,631957,null,"",,,,,,,,,,,,,,,,
html-keyboard-response,462,632460,null,"Time's Up!",null,,,,,,,,,,,,,,,
html-keyboard-response,463,637231,4769.599999904633,"<p> Good job! You have responded correctly to 100% of the trials. </p>
                      <p>Be sure to only press the spacebar if you see a red square, and please keep your accuracy above 80%.</p>
                      <p> Press any key to continue the experiment. </p>",32,,,,,,,,,,,,,,,
html-keyboard-response,464,637843,610.7000000476837,"<div style=""font-size:48px;"">Press any key to begin list 4 of 16 </div>",32,,,,,,,,,,,,,,,
html-keyboard-response,465,640345,null,"<div style=""font-size:60px;"">+</div>",null,,,,,,,,,,,,,,,
html-keyboard-response,466,640548,null,"<div style=""font-size:42px;"">BLADE</div><img id = ""stim"" ><div class = green_square id = topsquare></div>",null,encoding,word_square,,,0,topsquare,none,true,,,BLADE,3,,,
html-keyboard-response,467,640850,null,"<div style=""font-size:42px;"">BLADE</div>",null,,word,BLADE,,,,,,,,,,,,
html-keyboard-response,468,642353,null,"",null,,word,BLADE,,,,,,,,,,,,
html-keyboard-response,469,642555,null,"<div style=""font-size:42px;"">PORT</div><img id = ""stim"" ><div class = red_square id = bottomsquare></div>",null,encoding,word_square,,,1,bottomsquare,32,true,,,PORT,3,,,
html-keyboard-response,470,642858,null,"<div style=""font-size:42px;"">PORT</div>",null,,word,PORT,,,,,,,,,,,,
html-keyboard-response,471,644361,107.89999997615814,"",32,,word,PORT,,,,,,,,,,,,
html-keyboard-response,472,644564,null,"<div style=""font-size:42px;"">CAPTIVE</div><img id = ""stim"" ><div class = red_square id = topsquare></div>",null,encoding,word_square,,,1,topsquare,32,true,,,CAPTIVE,3,,,
html-keyboard-response,473,644867,null,"<div style=""font-size:42px;"">CAPTIVE</div>",null,,word,CAPTIVE,,,,,,,,,,,,
html-keyboard-response,474,646376,16.799999952316284,"",32,,word,CAPTIVE,,,,,,,,,,,,
html-keyboard-response,475,646579,null,"<div style=""font-size:42px;"">ICING</div><img id = ""stim"" ><div class = green_square id = bottomsquare></div>",null,encoding,word_square,,,0,bottomsquare,none,true,,,ICING,3,,,
html-keyboard-response,476,646881,null,"<div style=""font-size:42px;"">ICING</div>",null,,word,ICING,,,,,,,,,,,,
html-keyboard-response,477,648385,null,"",null,,word,ICING,,,,,,,,,,,,
html-keyboard-response,478,648588,null,"<div style=""font-size:42px;"">SHORTCAKE</div><img id = ""stim"" ><div class = red_square id = bottomsquare></div>",null,encoding,word_square,,,1,bottomsquare,32,true,,,SHORTCAKE,3,,,
html-keyboard-response,479,648890,null,"<div style=""font-size:42px;"">SHORTCAKE</div>",null,,word,SHORTCAKE,,,,,,,,,,,,
html-keyboard-response,480,650393,62.5,"",32,,word,SHORTCAKE,,,,,,,,,,,,
html-keyboard-response,481,650596,null,"<div style=""font-size:42px;"">FEAST</div><img id = ""stim"" ><div class = red_square id = topsquare></div>",null,encoding,word_square,,,1,topsquare,32,true,,,FEAST,3,,,
html-keyboard-response,482,650897,null,"<div style=""font-size:42px;"">FEAST</div>",null,,word,FEAST,,,,,,,,,,,,
html-keyboard-response,483,652399,39.10000002384186,"",32,,word,FEAST,,,,,,,,,,,,
html-keyboard-response,484,652602,null,"<div style=""font-size:42px;"">BREAST</div><img id = ""stim"" ><div class = green_square id = topsquare></div>",null,encoding,word_square,,,0,topsquare,none,true,,,BREAST,3,,,
html-keyboard-response,485,652905,null,"<div style=""font-size:42px;"">BREAST</div>",null,,word,BREAST,,,,,,,,,,,,
html-keyboard-response,486,654407,null,"",null,,word,BREAST,,,,,,,,,,,,
html-keyboard-response,487,654610,null,"<div style=""font-size:42px;"">GAZELLE</div><img id = ""stim"" ><div class = red_square id = bottomsquare></div>",null,encoding,word_square,,,1,bottomsquare,32,true,,,GAZELLE,3,,,
html-keyboard-response,488,654913,null,"<div style=""font-size:42px;"">GAZELLE</div>",null,,word,GAZELLE,,,,,,,,,,,,
html-keyboard-response,489,656416,0.5,"",32,,word,GAZELLE,,,,,,,,,,,,
html-keyboard-response,490,656619,null,"<div style=""font-size:42px;"">BUBBLE</div><img id = ""stim"" ><div class = green_square id = bottomsquare></div>",null,encoding,word_square,,,0,bottomsquare,none,true,,,BUBBLE,3,,,
html-keyboard-response,491,656922,null,"<div style=""font-size:42px;"">BUBBLE</div>",null,,word,BUBBLE,,,,,,,,,,,,
html-keyboard-response,492,658424,null,"",null,,word,BUBBLE,,,,,,,,,,,,
html-keyboard-response,493,658626,null,"<div style=""font-size:42px;"">BANDAGE</div><img id = ""stim"" ><div class = green_square id = topsquare></div>",null,encoding,word_square,,,0,topsquare,none,true,,,BANDAGE,3,,,
html-keyboard-response,494,658928,null,"<div style=""font-size:42px;"">BANDAGE</div>",null,,word,BANDAGE,,,,,,,,,,,,
html-keyboard-response,495,660430,null,"",null,,word,BANDAGE,,,,,,,,,,,,
html-keyboard-response,496,660639,null,"<div style=""font-size:42px;"">FROST</div><img id = ""stim"" ><div class = red_square id = topsquare></div>",null,encoding,word_square,,,1,topsquare,32,true,,,FROST,3,,,
html-keyboard-response,497,660941,282.10000002384186,"<div style=""font-size:42px;"">FROST</div>",32,,word,FROST,,,,,,,,,,,,
html-keyboard-response,498,662444,null,"",null,,word,FROST,,,,,,,,,,,,
html-keyboard-response,499,662647,null,"<div style=""font-size:42px;"">MUFFIN</div><img id = ""stim"" ><div class = red_square id = bottomsquare></div>",null,encoding,word_square,,,1,bottomsquare,32,true,,,MUFFIN,3,,,
html-keyboard-response,500,662949,null,"<div style=""font-size:42px;"">MUFFIN</div>",null,,word,MUFFIN,,,,,,,,,,,,
html-keyboard-response,501,664451,24.899999976158142,"",32,,word,MUFFIN,,,,,,,,,,,,
html-keyboard-response,502,664655,null,"<div style=""font-size:42px;"">PAPER</div><img id = ""stim"" ><div class = green_square id = bottomsquare></div>",null,encoding,word_square,,,0,bottomsquare,none,true,,,PAPER,3,,,
html-keyboard-response,503,664957,null,"<div style=""font-size:42px;"">PAPER</div>",null,,word,PAPER,,,,,,,,,,,,
html-keyboard-response,504,666459,null,"",null,,word,PAPER,,,,,,,,,,,,
html-keyboard-response,505,666662,null,"<div style=""font-size:42px;"">STAPLE</div><img id = ""stim"" ><div class = red_square id = topsquare></div>",null,encoding,word_square,,,1,topsquare,32,true,,,STAPLE,3,,,
html-keyboard-response,506,666964,null,"<div style=""font-size:42px;"">STAPLE</div>",null,,word,STAPLE,,,,,,,,,,,,
html-keyboard-response,507,668467,9.399999976158142,"",32,,word,STAPLE,,,,,,,,,,,,
html-keyboard-response,508,668670,null,"<div style=""font-size:42px;"">SHEPHERD</div><img id = ""stim"" ><div class = green_square id = topsquare></div>",null,encoding,word_square,,,0,topsquare,none,true,,,SHEPHERD,3,,,
html-keyboard-response,509,668972,null,"<div style=""font-size:42px;"">SHEPHERD</div>",null,,word,SHEPHERD,,,,,,,,,,,,
html-keyboard-response,510,670475,null,"",null,,word,SHEPHERD,,,,,,,,,,,,
html-keyboard-response,511,670677,null,"<div style=""font-size:42px;"">DOLPHIN</div><img id = ""stim"" ><div class = green_square id = bottomsquare></div>",null,encoding,word_square,,,0,bottomsquare,none,true,,,DOLPHIN,3,,,
html-keyboard-response,512,670979,null,"<div style=""font-size:42px;"">DOLPHIN</div>",null,,word,DOLPHIN,,,,,,,,,,,,
html-keyboard-response,513,672482,null,"",null,,word,DOLPHIN,,,,,,,,,,,,
call-function,514,672484,,"",,,,,,,,,,,,,,,,
html-keyboard-response,515,672585,null,"",null,,,,,,,,,,,,,,,
math-period,516,675216,4804.5,"",,,,,,,,,,,2,,,,,
html-keyboard-response,517,675319,null,"",null,,,,,,,,,,,,,,,
math-period,518,676566,2264.600000143051,"",,,,,,,,,,,1,,,,,
html-keyboard-response,519,676668,null,"",null,,,,,,,,,,,,,,,
math-period,520,678051,2402.399999976158,"",,,,,,,,,,,4,,,,,
html-keyboard-response,521,678152,null,"",null,,,,,,,,,,,,,,,
math-period,522,679063,1594.7000000476837,"",,,,,,,,,,,2,,,,,
html-keyboard-response,523,679165,null,"",null,,,,,,,,,,,,,,,
math-period,524,680439,2406.5,"",,,,,,,,,,,1,,,,,
html-keyboard-response,525,680541,null,"",null,,,,,,,,,,,,,,,
math-period,526,681471,1744.4000000953674,"",,,,,,,,,,,1,,,,,
html-keyboard-response,527,681584,null,"",null,,,,,,,,,,,,,,,
math-period,528,682596,1930.2000000476837,"",,,,,,,,,,,4,,,,,
html-keyboard-response,529,682699,null,"",null,,,,,,,,,,,,,,,
math-period,530,683811,2130.5000001192093,"",,,,,,,,,,,3,,,,,
html-keyboard-response,531,683914,null,"",null,,,,,,,,,,,,,,,
math-period,532,684981,2041.4000000953674,"",,,,,,,,,,,4,,,,,
html-keyboard-response,533,685083,null,"",null,,,,,,,,,,,,,,,
math-period,534,686489,2695.299999833107,"",,,,,,,,,,,3,,,,,
html-keyboard-response,535,686591,null,"",null,,,,,,,,,,,,,,,
math-period,536,687884,2492.7999999523163,"",,,,,,,,,,,2,,,,,
html-keyboard-response,537,687987,null,"",null,,,,,,,,,,,,,,,
math-period,538,688874,1657.5999999046326,"",,,,,,,,,,,4,,,,,
html-keyboard-response,539,688975,null,"",null,,,,,,,,,,,,,,,
math-period,540,690314,2560.9999998807907,"",,,,,,,,,,,4,,,,,
html-keyboard-response,541,690416,null,"",null,,,,,,,,,,,,,,,
math-period,542,691709,2493.3000000715256,"",,,,,,,,,,,1,,,,,
html-keyboard-response,543,691811,null,"",null,,,,,,,,,,,,,,,
math-period,544,692856,1996.0999999046326,"",,,,,,,,,,,3,,,,,
html-keyboard-response,545,692958,null,"",null,,,,,,,,,,,,,,,
math-period,546,693959,1930.1999999284744,"",,,,,,,,,,,4,,,,,
html-keyboard-response,547,694061,null,"",null,,,,,,,,,,,,,,,
math-period,548,694904,1637,"",,,,,,,,,,,4,,,,,
html-keyboard-response,549,695006,null,"",null,,,,,,,,,,,,,,,
math-period,550,696006,1908.8000000715256,"",,,,,,,,,,,5,,,,,
html-keyboard-response,551,696109,null,"",null,,,,,,,,,,,,,,,
math-period,552,696486,null,"",,,,,,,,,,,,,,,,
html-keyboard-response,553,697489,null,"Recall Period!",null,,,,,,,,,,,,,,,
call-function,554,697490,,"",,,,,,,,,,,,,,,,
html-keyboard-response,555,697592,null,"",null,,,,,,,,,,,,,,,
recall-period,556,702914,38981.400000333786,"",,,,,,,,,,,blade,,,,,
html-keyboard-response,557,703017,null,"",null,,,,,,,,,,,,,,,
recall-period,558,703882,2875.9999998807907,"",,,,,,,,,,,port,,,,,
html-keyboard-response,559,703985,null,"",null,,,,,,,,,,,,,,,
recall-period,560,705434,6381.800000190735,"",,,,,,,,,,,captive,,,,,
html-keyboard-response,561,705536,null,"",null,,,,,,,,,,,,,,,
recall-period,562,706874,4824.199999928474,"",,,,,,,,,,,feast,,,,,
html-keyboard-response,563,706977,null,"",null,,,,,,,,,,,,,,,
recall-period,564,708922,10867.89999961853,"",,,,,,,,,,,gazelle,,,,,
html-keyboard-response,565,709025,null,"",null,,,,,,,,,,,,,,,
recall-period,566,710744,8963.299999952316,"",,,,,,,,,,,muffin,,,,,
html-keyboard-response,567,710847,null,"",null,,,,,,,,,,,,,,,
recall-period,568,711869,3942.0999997854233,"",,,,,,,,,,,frost,,,,,
html-keyboard-response,569,711972,null,"",null,,,,,,,,,,,,,,,
recall-period,570,715537,18974.10000026226,"",,,,,,,,,,,breast,,,,,
html-keyboard-response,571,715639,null,"",null,,,,,,,,,,,,,,,
recall-period,572,772492,null,"",,,,,,,,,,,,,,,,
html-keyboard-response,573,772995,null,"Time's Up!",null,,,,,,,,,,,,,,,
html-keyboard-response,574,775722,2726.399999976158,"<p> Good job! You have responded correctly to 100% of the trials. </p>
                      <p>Be sure to only press the spacebar if you see a red square, and please keep your accuracy above 80%.</p>
                      <p> Press any key to continue the experiment. </p>",32,,,,,,,,,,,,,,,
html-keyboard-response,575,776695,971.2000000476837,"<div style=""font-size:48px;"">Press any key to begin list 5 of 16 </div>",32,,,,,,,,,,,,,,,
html-keyboard-response,576,779197,null,"<div style=""font-size:60px;"">+</div>",null,,,,,,,,,,,,,,,
html-keyboard-response,577,779399,null,"<div style=""font-size:42px;"">SHERIFF</div><img id = ""stim"" ><div class = red_square id = topsquare></div>",null,encoding,word_square,,,1,topsquare,32,true,,,SHERIFF,4,,,
html-keyboard-response,578,779701,null,"<div style=""font-size:42px;"">SHERIFF</div>",null,,word,SHERIFF,,,,,,,,,,,,
html-keyboard-response,579,781203,136.10000002384186,"",32,,word,SHERIFF,,,,,,,,,,,,
html-keyboard-response,580,781406,null,"<div style=""font-size:42px;"">ROBOT</div><img id = ""stim"" ><div class = green_square id = bottomsquare></div>",null,encoding,word_square,,,0,bottomsquare,none,true,,,ROBOT,4,,,
html-keyboard-response,581,781708,null,"<div style=""font-size:42px;"">ROBOT</div>",null,,word,ROBOT,,,,,,,,,,,,
html-keyboard-response,582,783210,null,"",null,,word,ROBOT,,,,,,,,,,,,
html-keyboard-response,583,783413,null,"<div style=""font-size:42px;"">LAUNDRY</div><img id = ""stim"" ><div class = green_square id = topsquare></div>",null,encoding,word_square,,,0,topsquare,none,true,,,LAUNDRY,4,,,
html-keyboard-response,584,783716,null,"<div style=""font-size:42px;"">LAUNDRY</div>",null,,word,LAUNDRY,,,,,,,,,,,,
html-keyboard-response,585,785219,null,"",null,,word,LAUNDRY,,,,,,,,,,,,
html-keyboard-response,586,785421,null,"<div style=""font-size:42px;"">PLANET</div><img id = ""stim"" ><div class = red_square id = bottomsquare></div>",null,encoding,word_square,,,1,bottomsquare,32,true,,,PLANET,4,,,
html-keyboard-response,587,785724,null,"<div style=""font-size:42px;"">PLANET</div>",null,,word,PLANET,,,,,,,,,,,,
html-keyboard-response,588,787226,122.60000002384186,"",32,,word,PLANET,,,,,,,,,,,,
html-keyboard-response,589,787428,null,"<div style=""font-size:42px;"">GANGSTER</div><img id = ""stim"" ><div class = red_square id = topsquare></div>",null,encoding,word_square,,,1,topsquare,32,true,,,GANGSTER,4,,,
html-keyboard-response,590,787731,null,"<div style=""font-size:42px;"">GANGSTER</div>",null,,word,GANGSTER,,,,,,,,,,,,
html-keyboard-response,591,789234,273,"",32,,word,GANGSTER,,,,,,,,,,,,
html-keyboard-response,592,789437,null,"<div style=""font-size:42px;"">BEDROOM</div><img id = ""stim"" ><div class = green_square id = bottomsquare></div>",null,encoding,word_square,,,0,bottomsquare,none,true,,,BEDROOM,4,,,
html-keyboard-response,593,789739,null,"<div style=""font-size:42px;"">BEDROOM</div>",null,,word,BEDROOM,,,,,,,,,,,,
html-keyboard-response,594,791241,null,"",null,,word,BEDROOM,,,,,,,,,,,,
html-keyboard-response,595,791444,null,"<div style=""font-size:42px;"">BANJO</div><img id = ""stim"" ><div class = red_square id = bottomsquare></div>",null,encoding,word_square,,,1,bottomsquare,32,true,,,BANJO,4,,,
html-keyboard-response,596,791745,null,"<div style=""font-size:42px;"">BANJO</div>",null,,word,BANJO,,,,,,,,,,,,
html-keyboard-response,597,793247,175.69999992847443,"",32,,word,BANJO,,,,,,,,,,,,
html-keyboard-response,598,793450,null,"<div style=""font-size:42px;"">MACHINE</div><img id = ""stim"" ><div class = green_square id = topsquare></div>",null,encoding,word_square,,,0,topsquare,none,true,,,MACHINE,4,,,
html-keyboard-response,599,793763,null,"<div style=""font-size:42px;"">MACHINE</div>",null,,word,MACHINE,,,,,,,,,,,,
html-keyboard-response,600,795266,null,"",null,,word,MACHINE,,,,,,,,,,,,
html-keyboard-response,601,795468,null,"<div style=""font-size:42px;"">JEANS</div><img id = ""stim"" ><div class = green_square id = bottomsquare></div>",null,encoding,word_square,,,0,bottomsquare,none,true,,,JEANS,4,,,
html-keyboard-response,602,795770,null,"<div style=""font-size:42px;"">JEANS</div>",null,,word,JEANS,,,,,,,,,,,,
html-keyboard-response,603,797272,null,"",null,,word,JEANS,,,,,,,,,,,,
html-keyboard-response,604,797475,null,"<div style=""font-size:42px;"">TAVERN</div><img id = ""stim"" ><div class = red_square id = topsquare></div>",null,encoding,word_square,,,1,topsquare,32,true,,,TAVERN,4,,,
html-keyboard-response,605,797778,null,"<div style=""font-size:42px;"">TAVERN</div>",null,,word,TAVERN,,,,,,,,,,,,
html-keyboard-response,606,799280,330.90000009536743,"",32,,word,TAVERN,,,,,,,,,,,,
html-keyboard-response,607,799482,null,"<div style=""font-size:42px;"">STOMACH</div><img id = ""stim"" ><div class = red_square id = bottomsquare></div>",null,encoding,word_square,,,1,bottomsquare,32,true,,,STOMACH,4,,,
html-keyboard-response,608,799784,null,"<div style=""font-size:42px;"">STOMACH</div>",null,,word,STOMACH,,,,,,,,,,,,
html-keyboard-response,609,801287,106.70000004768372,"",32,,word,STOMACH,,,,,,,,,,,,
html-keyboard-response,610,801489,null,"<div style=""font-size:42px;"">BELLY</div><img id = ""stim"" ><div class = green_square id = topsquare></div>",null,encoding,word_square,,,0,topsquare,none,true,,,BELLY,4,,,
html-keyboard-response,611,801792,null,"<div style=""font-size:42px;"">BELLY</div>",null,,word,BELLY,,,,,,,,,,,,
html-keyboard-response,612,803295,null,"",null,,word,BELLY,,,,,,,,,,,,
html-keyboard-response,613,803497,null,"<div style=""font-size:42px;"">THRONE</div><img id = ""stim"" ><div class = red_square id = topsquare></div>",null,encoding,word_square,,,1,topsquare,32,true,,,THRONE,4,,,
html-keyboard-response,614,803799,null,"<div style=""font-size:42px;"">THRONE</div>",null,,word,THRONE,,,,,,,,,,,,
html-keyboard-response,615,805302,47.60000002384186,"",32,,word,THRONE,,,,,,,,,,,,
html-keyboard-response,616,805505,null,"<div style=""font-size:42px;"">PERMIT</div><img id = ""stim"" ><div class = red_square id = bottomsquare></div>",null,encoding,word_square,,,1,bottomsquare,32,true,,,PERMIT,4,,,
html-keyboard-response,617,805807,null,"<div style=""font-size:42px;"">PERMIT</div>",null,,word,PERMIT,,,,,,,,,,,,
html-keyboard-response,618,807309,1.1999999284744263,"",32,,word,PERMIT,,,,,,,,,,,,
html-keyboard-response,619,807512,null,"<div style=""font-size:42px;"">RECORD</div><img id = ""stim"" ><div class = green_square id = bottomsquare></div>",null,encoding,word_square,,,0,bottomsquare,none,true,,,RECORD,4,,,
html-keyboard-response,620,807814,null,"<div style=""font-size:42px;"">RECORD</div>",null,,word,RECORD,,,,,,,,,,,,
html-keyboard-response,621,809317,null,"",null,,word,RECORD,,,,,,,,,,,,
html-keyboard-response,622,809519,null,"<div style=""font-size:42px;"">YARD</div><img id = ""stim"" ><div class = green_square id = topsquare></div>",null,encoding,word_square,,,0,topsquare,none,true,,,YARD,4,,,
html-keyboard-response,623,809822,null,"<div style=""font-size:42px;"">YARD</div>",null,,word,YARD,,,,,,,,,,,,
html-keyboard-response,624,811324,null,"",null,,word,YARD,,,,,,,,,,,,
call-function,625,811326,,"",,,,,,,,,,,,,,,,
html-keyboard-response,626,811428,null,"",null,,,,,,,,,,,,,,,
math-period,627,814316,5407.700000047684,"",,,,,,,,,,,2,,,,,
html-keyboard-response,628,814417,null,"",null,,,,,,,,,,,,,,,
math-period,629,815463,1908.1000000238419,"",,,,,,,,,,,4,,,,,
html-keyboard-response,630,815565,null,"",null,,,,,,,,,,,,,,,
math-period,631,816385,1502.8999999761581,"",,,,,,,,,,,2,,,,,
html-keyboard-response,632,816487,null,"",null,,,,,,,,,,,,,,,
math-period,633,817466,1886.0999999046326,"",,,,,,,,,,,5,,,,,
html-keyboard-response,634,817567,null,"",null,,,,,,,,,,,,,,,
math-period,635,818860,2515.7000000476837,"",,,,,,,,,,,3,,,,,
html-keyboard-response,636,818962,null,"",null,,,,,,,,,,,,,,,
math-period,637,819986,1953.8000000715256,"",,,,,,,,,,,4,,,,,
html-keyboard-response,638,820088,null,"",null,,,,,,,,,,,,,,,
math-period,639,820930,1614.3999999761581,"",,,,,,,,,,,4,,,,,
html-keyboard-response,640,821032,null,"",null,,,,,,,,,,,,,,,
math-period,641,822280,2425.8000000715256,"",,,,,,,,,,,1,,,,,
html-keyboard-response,642,822383,null,"",null,,,,,,,,,,,,,,,
math-period,643,823652,2469.2999999523163,"",,,,,,,,,,,2,,,,,
html-keyboard-response,644,823755,null,"",null,,,,,,,,,,,,,,,
math-period,645,824711,1865.6000000238419,"",,,,,,,,,,,5,,,,,
html-keyboard-response,646,824812,null,"",null,,,,,,,,,,,,,,,
math-period,647,825566,1458.8000000715256,"",,,,,,,,,,,2,,,,,
html-keyboard-response,648,825668,null,"",null,,,,,,,,,,,,,,,
math-period,649,826443,1501.4000000953674,"",,,,,,,,,,,3,,,,,
html-keyboard-response,650,826546,null,"",null,,,,,,,,,,,,,,,
math-period,651,827478,1794.5999999046326,"",,,,,,,,,,,5,,,,,
html-keyboard-response,652,827581,null,"",null,,,,,,,,,,,,,,,
math-period,653,828266,1321.0999999046326,"",,,,,,,,,,,5,,,,,
html-keyboard-response,654,828368,null,"",null,,,,,,,,,,,,,,,
math-period,655,829390,1995.7999999523163,"",,,,,,,,,,,5,,,,,
html-keyboard-response,656,829492,null,"",null,,,,,,,,,,,,,,,
math-period,657,830966,2764.399999856949,"",,,,,,,,,,,1,,,,,
html-keyboard-response,658,831068,null,"",null,,,,,,,,,,,,,,,
math-period,659,832431,2651.3000000715256,"",,,,,,,,,,,2,,,,,
html-keyboard-response,660,832532,null,"",null,,,,,,,,,,,,,,,
math-period,661,833553,1970.5000001192093,"",,,,,,,,,,,5,,,,,
html-keyboard-response,662,833656,null,"",null,,,,,,,,,,,,,,,
math-period,663,834768,2155.5999999046326,"",,,,,,,,,,,4,,,,,
html-keyboard-response,664,834870,null,"",null,,,,,,,,,,,,,,,
math-period,665,835327,null,"",,,,,,,,,,,,,,,,
html-keyboard-response,666,836330,null,"Recall Period!",null,,,,,,,,,,,,,,,
call-function,667,836331,,"",,,,,,,,,,,,,,,,
html-keyboard-response,668,836433,null,"",null,,,,,,,,,,,,,,,
recall-period,669,839584,24751.099999666214,"",,,,,,,,,,,sherrif,,,,,
html-keyboard-response,670,839686,null,"",null,,,,,,,,,,,,,,,
recall-period,671,841204,5607.300000190735,"",,,,,,,,,,,robot,,,,,
html-keyboard-response,672,841306,null,"",null,,,,,,,,,,,,,,,
recall-period,673,844084,21560.800000071526,"",,,,,,,,,,,laundry,,,,,
html-keyboard-response,674,844186,null,"",null,,,,,,,,,,,,,,,
recall-period,675,845096,3450.399999856949,"",,,,,,,,,,,jeans,,,,,
html-keyboard-response,676,845198,null,"",null,,,,,,,,,,,,,,,
recall-period,677,846806,9733.99999988079,"",,,,,,,,,,,gangster,,,,,
html-keyboard-response,678,846909,null,"",null,,,,,,,,,,,,,,,
recall-period,679,847842,3773.000000357628,"",,,,,,,,,,,planet,,,,,
html-keyboard-response,680,847943,null,"",null,,,,,,,,,,,,,,,
recall-period,681,850812,7400.10000038147,"",,,,,,,,,,,tavern,,,,,
html-keyboard-response,682,850914,null,"",null,,,,,,,,,,,,,,,
recall-period,683,853264,12650.199999928474,"",,,,,,,,,,,stomach,,,,,
html-keyboard-response,684,853366,null,"",null,,,,,,,,,,,,,,,
recall-period,685,911333,null,"",,,,,,,,,,,,,,,,
html-keyboard-response,686,911835,null,"Time's Up!",null,,,,,,,,,,,,,,,
html-keyboard-response,687,913786,1949.6000000238419,"<p> Good job! You have responded correctly to 100% of the trials. </p>
                      <p>Be sure to only press the spacebar if you see a red square, and please keep your accuracy above 80%.</p>
                      <p> Press any key to continue the experiment. </p>",32,,,,,,,,,,,,,,,
html-keyboard-response,688,914692,903.7999999523163,"<div style=""font-size:48px;"">Press any key to begin list 6 of 16 </div>",32,,,,,,,,,,,,,,,
html-keyboard-response,689,917199,null,"<div style=""font-size:60px;"">+</div>",null,,,,,,,,,,,,,,,
html-keyboard-response,690,917400,null,"<div style=""font-size:42px;"">BANDIT</div><img id = ""stim"" ><div class = green_square id = topsquare></div>",null,encoding,word_square,,,0,topsquare,none,true,,,BANDIT,5,,,
html-keyboard-response,691,917703,null,"<div style=""font-size:42px;"">BANDIT</div>",null,,word,BANDIT,,,,,,,,,,,,
html-keyboard-response,692,919205,null,"",null,,word,BANDIT,,,,,,,,,,,,
html-keyboard-response,693,919407,null,"<div style=""font-size:42px;"">VIRUS</div><img id = ""stim"" ><div class = green_square id = bottomsquare></div>",null,encoding,word_square,,,0,bottomsquare,none,true,,,VIRUS,5,,,
html-keyboard-response,694,919709,null,"<div style=""font-size:42px;"">VIRUS</div>",null,,word,VIRUS,,,,,,,,,,,,
html-keyboard-response,695,921211,null,"",null,,word,VIRUS,,,,,,,,,,,,
html-keyboard-response,696,921414,null,"<div style=""font-size:42px;"">DORM</div><img id = ""stim"" ><div class = red_square id = bottomsquare></div>",null,encoding,word_square,,,1,bottomsquare,32,true,,,DORM,5,,,
html-keyboard-response,697,921716,null,"<div style=""font-size:42px;"">DORM</div>",null,,word,DORM,,,,,,,,,,,,
html-keyboard-response,698,923218,146.29999995231628,"",32,,word,DORM,,,,,,,,,,,,
html-keyboard-response,699,923427,null,"<div style=""font-size:42px;"">CIRCUS</div><img id = ""stim"" ><div class = red_square id = topsquare></div>",null,encoding,word_square,,,1,topsquare,32,true,,,CIRCUS,5,,,
html-keyboard-response,700,923729,null,"<div style=""font-size:42px;"">CIRCUS</div>",null,,word,CIRCUS,,,,,,,,,,,,
html-keyboard-response,701,925242,450.5,"",32,,word,CIRCUS,,,,,,,,,,,,
html-keyboard-response,702,925444,null,"<div style=""font-size:42px;"">BADGE</div><img id = ""stim"" ><div class = green_square id = topsquare></div>",null,encoding,word_square,,,0,topsquare,none,true,,,BADGE,5,,,
html-keyboard-response,703,925746,null,"<div style=""font-size:42px;"">BADGE</div>",null,,word,BADGE,,,,,,,,,,,,
html-keyboard-response,704,927249,null,"",null,,word,BADGE,,,,,,,,,,,,
html-keyboard-response,705,927452,null,"<div style=""font-size:42px;"">FOUNTAIN</div><img id = ""stim"" ><div class = red_square id = bottomsquare></div>",null,encoding,word_square,,,1,bottomsquare,32,true,,,FOUNTAIN,5,,,
html-keyboard-response,706,927754,null,"<div style=""font-size:42px;"">FOUNTAIN</div>",null,,word,FOUNTAIN,,,,,,,,,,,,
html-keyboard-response,707,929257,385.1999999284744,"",32,,word,FOUNTAIN,,,,,,,,,,,,
html-keyboard-response,708,929460,null,"<div style=""font-size:42px;"">AWARD</div><img id = ""stim"" ><div class = red_square id = topsquare></div>",null,encoding,word_square,,,1,topsquare,32,true,,,AWARD,5,,,
html-keyboard-response,709,929763,null,"<div style=""font-size:42px;"">AWARD</div>",null,,word,AWARD,,,,,,,,,,,,
html-keyboard-response,710,931265,1.399999976158142,"",32,,word,AWARD,,,,,,,,,,,,
html-keyboard-response,711,931468,null,"<div style=""font-size:42px;"">NECKLACE</div><img id = ""stim"" ><div class = green_square id = bottomsquare></div>",null,encoding,word_square,,,0,bottomsquare,none,true,,,NECKLACE,5,,,
html-keyboard-response,712,931770,null,"<div style=""font-size:42px;"">NECKLACE</div>",null,,word,NECKLACE,,,,,,,,,,,,
html-keyboard-response,713,933272,null,"",null,,word,NECKLACE,,,,,,,,,,,,
html-keyboard-response,714,933475,null,"<div style=""font-size:42px;"">GREASE</div><img id = ""stim"" ><div class = green_square id = topsquare></div>",null,encoding,word_square,,,0,topsquare,none,true,,,GREASE,5,,,
html-keyboard-response,715,933778,null,"<div style=""font-size:42px;"">GREASE</div>",null,,word,GREASE,,,,,,,,,,,,
html-keyboard-response,716,935281,null,"",null,,word,GREASE,,,,,,,,,,,,
html-keyboard-response,717,935485,null,"<div style=""font-size:42px;"">POLICE</div><img id = ""stim"" ><div class = red_square id = bottomsquare></div>",null,encoding,word_square,,,1,bottomsquare,32,true,,,POLICE,5,,,
html-keyboard-response,718,935787,216.70000004768372,"<div style=""font-size:42px;"">POLICE</div>",32,,word,POLICE,,,,,,,,,,,,
html-keyboard-response,719,937289,null,"",null,,word,POLICE,,,,,,,,,,,,
html-keyboard-response,720,937492,null,"<div style=""font-size:42px;"">KLEENEX</div><img id = ""stim"" ><div class = green_square id = bottomsquare></div>",null,encoding,word_square,,,0,bottomsquare,none,true,,,KLEENEX,5,,,
html-keyboard-response,721,937795,null,"<div style=""font-size:42px;"">KLEENEX</div>",null,,word,KLEENEX,,,,,,,,,,,,
html-keyboard-response,722,939297,null,"",null,,word,KLEENEX,,,,,,,,,,,,
html-keyboard-response,723,939500,null,"<div style=""font-size:42px;"">MATCH</div><img id = ""stim"" ><div class = red_square id = topsquare></div>",null,encoding,word_square,,,1,topsquare,32,true,,,MATCH,5,,,
html-keyboard-response,724,939804,271.7999999523163,"<div style=""font-size:42px;"">MATCH</div>",32,,word,MATCH,,,,,,,,,,,,
html-keyboard-response,725,941307,null,"",null,,word,MATCH,,,,,,,,,,,,
html-keyboard-response,726,941509,null,"<div style=""font-size:42px;"">DOCK</div><img id = ""stim"" ><div class = red_square id = bottomsquare></div>",null,encoding,word_square,,,1,bottomsquare,32,true,,,DOCK,5,,,
html-keyboard-response,727,941811,293.60000002384186,"<div style=""font-size:42px;"">DOCK</div>",32,,word,DOCK,,,,,,,,,,,,
html-keyboard-response,728,943314,null,"",null,,word,DOCK,,,,,,,,,,,,
html-keyboard-response,729,943532,null,"<div style=""font-size:42px;"">LOUNGE</div><img id = ""stim"" ><div class = green_square id = topsquare></div>",null,encoding,word_square,,,0,topsquare,none,true,,,LOUNGE,5,,,
html-keyboard-response,730,943834,null,"<div style=""font-size:42px;"">LOUNGE</div>",null,,word,LOUNGE,,,,,,,,,,,,
html-keyboard-response,731,945336,null,"",null,,word,LOUNGE,,,,,,,,,,,,
html-keyboard-response,732,945539,null,"<div style=""font-size:42px;"">GRAVE</div><img id = ""stim"" ><div class = green_square id = bottomsquare></div>",null,encoding,word_square,,,0,bottomsquare,none,true,,,GRAVE,5,,,
html-keyboard-response,733,945841,null,"<div style=""font-size:42px;"">GRAVE</div>",null,,word,GRAVE,,,,,,,,,,,,
html-keyboard-response,734,947343,null,"",null,,word,GRAVE,,,,,,,,,,,,
html-keyboard-response,735,947546,null,"<div style=""font-size:42px;"">CASKET</div><img id = ""stim"" ><div class = red_square id = topsquare></div>",null,encoding,word_square,,,1,topsquare,32,true,,,CASKET,5,,,
html-keyboard-response,736,947848,null,"<div style=""font-size:42px;"">CASKET</div>",null,,word,CASKET,,,,,,,,,,,,
html-keyboard-response,737,949350,2.3000000715255737,"",32,,word,CASKET,,,,,,,,,,,,
call-function,738,949351,,"",,,,,,,,,,,,,,,,
html-keyboard-response,739,949452,null,"",null,,,,,,,,,,,,,,,
math-period,740,951615,4159.499999880791,"",,,,,,,,,,,2,,,,,
html-keyboard-response,741,951717,null,"",null,,,,,,,,,,,,,,,
math-period,742,952808,2020.0999999046326,"",,,,,,,,,,,5,,,,,
html-keyboard-response,743,952910,null,"",null,,,,,,,,,,,,,,,
math-period,744,953595,1252.6999999284744,"",,,,,,,,,,,5,,,,,
html-keyboard-response,745,953698,null,"",null,,,,,,,,,,,,,,,
math-period,746,954789,2087.2000000476837,"",,,,,,,,,,,4,,,,,
html-keyboard-response,747,954892,null,"",null,,,,,,,,,,,,,,,
math-period,748,956070,2262.7000000476837,"",,,,,,,,,,,2,,,,,
html-keyboard-response,749,956172,null,"",null,,,,,,,,,,,,,,,
math-period,750,957195,1952.6999999284744,"",,,,,,,,,,,1,,,,,
html-keyboard-response,751,957296,null,"",null,,,,,,,,,,,,,,,
math-period,752,958455,2225,"",,,,,,,,,,,2,,,,,
html-keyboard-response,753,958557,null,"",null,,,,,,,,,,,,,,,
math-period,754,961381,5411.899999856949,"",,,,,,,,,,,0,,,,,
html-keyboard-response,755,961485,null,"",null,,,,,,,,,,,,,,,
math-period,756,962438,1835.5999999046326,"",,,,,,,,,,,1,,,,,
html-keyboard-response,757,962540,null,"",null,,,,,,,,,,,,,,,
math-period,758,963226,1299.5999999046326,"",,,,,,,,,,,1,,,,,
html-keyboard-response,759,963333,null,"",null,,,,,,,,,,,,,,,
math-period,760,964374,2011.7999999523163,"",,,,,,,,,,,2,,,,,
html-keyboard-response,761,964476,null,"",null,,,,,,,,,,,,,,,
math-period,762,966218,5749.499999880791,"",,,,,,,,,,,6,,,,,
html-keyboard-response,763,966320,null,"",null,,,,,,,,,,,,,,,
math-period,764,967546,2109.8000000715256,"",,,,,,,,,,,3,,,,,
html-keyboard-response,765,967648,null,"",null,,,,,,,,,,,,,,,
math-period,766,968716,2067.300000190735,"",,,,,,,,,,,2,,,,,
html-keyboard-response,767,968818,null,"",null,,,,,,,,,,,,,,,
math-period,768,969683,1681.8999998569489,"",,,,,,,,,,,4,,,,,
html-keyboard-response,769,969785,null,"",null,,,,,,,,,,,,,,,
math-period,770,971123,2605.3000000715256,"",,,,,,,,,,,4,,,,,
html-keyboard-response,771,971224,null,"",null,,,,,,,,,,,,,,,
math-period,772,973353,5250.700000047684,"",,,,,,,,,,,3,,,,,
html-keyboard-response,773,974356,null,"Recall Period!",null,,,,,,,,,,,,,,,
call-function,774,974357,,"",,,,,,,,,,,,,,,,
html-keyboard-response,775,974458,null,"",null,,,,,,,,,,,,,,,
recall-period,776,975893,7200.599999904633,"",,,,,,,,,,,bandit,,,,,
html-keyboard-response,777,976001,null,"",null,,,,,,,,,,,,,,,
recall-period,778,978166,10750.299999952316,"",,,,,,,,,,,virus,,,,,
html-keyboard-response,779,978268,null,"",null,,,,,,,,,,,,,,,
recall-period,780,980438,11061.299999952316,"",,,,,,,,,,,casket,,,,,
html-keyboard-response,781,980540,null,"",null,,,,,,,,,,,,,,,
recall-period,782,981946,7021.400000095367,"",,,,,,,,,,,circus,,,,,
html-keyboard-response,783,982048,null,"",null,,,,,,,,,,,,,,,
recall-period,784,984354,15804.499999761581,"",,,,,,,,,,,fountain,,,,,
html-keyboard-response,785,984456,null,"",null,,,,,,,,,,,,,,,
recall-period,786,985231,2022.4000002145767,"",,,,,,,,,,,dorm,,,,,
html-keyboard-response,787,985333,null,"",null,,,,,,,,,,,,,,,
recall-period,788,989124,23700.400000452995,"",,,,,,,,,,,police,,,,,
html-keyboard-response,789,989227,null,"",null,,,,,,,,,,,,,,,
recall-period,790,997787,49178.800000190735,"",,,,,,,,,,,award,,,,,
html-keyboard-response,791,997889,null,"",null,,,,,,,,,,,,,,,
recall-period,792,1049358,null,"",,,,,,,,,,,,,,,,
html-keyboard-response,793,1049861,null,"Time's Up!",null,,,,,,,,,,,,,,,
html-keyboard-response,794,1053113,3249.399999976158,"<p> Good job! You have responded correctly to 100% of the trials. </p>
                      <p>Be sure to only press the spacebar if you see a red square, and please keep your accuracy above 80%.</p>
                      <p> Press any key to continue the experiment. </p>",32,,,,,,,,,,,,,,,
html-keyboard-response,795,1053881,767.2000000476837,"<div style=""font-size:48px;"">Press any key to begin list 7 of 16 </div>",32,,,,,,,,,,,,,,,
html-keyboard-response,796,1056384,null,"<div style=""font-size:60px;"">+</div>",null,,,,,,,,,,,,,,,
html-keyboard-response,797,1056587,null,"<div style=""font-size:42px;"">IGLOO</div><img id = ""stim"" ><div class = green_square id = bottomsquare></div>",null,encoding,word_square,,,0,bottomsquare,none,true,,,IGLOO,6,,,
html-keyboard-response,798,1056890,null,"<div style=""font-size:42px;"">IGLOO</div>",null,,word,IGLOO,,,,,,,,,,,,
html-keyboard-response,799,1058393,null,"",null,,word,IGLOO,,,,,,,,,,,,
html-keyboard-response,800,1058595,null,"<div style=""font-size:42px;"">BRICK</div><img id = ""stim"" ><div class = red_square id = topsquare></div>",null,encoding,word_square,,,1,topsquare,32,true,,,BRICK,6,,,
html-keyboard-response,801,1058898,295.1999999284744,"<div style=""font-size:42px;"">BRICK</div>",32,,word,BRICK,,,,,,,,,,,,
html-keyboard-response,802,1060401,null,"",null,,word,BRICK,,,,,,,,,,,,
html-keyboard-response,803,1060608,null,"<div style=""font-size:42px;"">FLESH</div><img id = ""stim"" ><div class = red_square id = bottomsquare></div>",null,encoding,word_square,,,1,bottomsquare,32,true,,,FLESH,6,,,
html-keyboard-response,804,1060909,293.10000002384186,"<div style=""font-size:42px;"">FLESH</div>",32,,word,FLESH,,,,,,,,,,,,
html-keyboard-response,805,1062413,null,"",null,,word,FLESH,,,,,,,,,,,,
html-keyboard-response,806,1062616,null,"<div style=""font-size:42px;"">VALLEY</div><img id = ""stim"" ><div class = green_square id = topsquare></div>",null,encoding,word_square,,,0,topsquare,none,true,,,VALLEY,6,,,
html-keyboard-response,807,1062918,null,"<div style=""font-size:42px;"">VALLEY</div>",null,,word,VALLEY,,,,,,,,,,,,
html-keyboard-response,808,1064430,null,"",null,,word,VALLEY,,,,,,,,,,,,
html-keyboard-response,809,1064632,null,"<div style=""font-size:42px;"">HIKER</div><img id = ""stim"" ><div class = green_square id = bottomsquare></div>",null,encoding,word_square,,,0,bottomsquare,none,true,,,HIKER,6,,,
html-keyboard-response,810,1064935,null,"<div style=""font-size:42px;"">HIKER</div>",null,,word,HIKER,,,,,,,,,,,,
html-keyboard-response,811,1066438,null,"",null,,word,HIKER,,,,,,,,,,,,
html-keyboard-response,812,1066640,null,"<div style=""font-size:42px;"">FEMALE</div><img id = ""stim"" ><div class = red_square id = topsquare></div>",null,encoding,word_square,,,1,topsquare,32,true,,,FEMALE,6,,,
html-keyboard-response,813,1066942,null,"<div style=""font-size:42px;"">FEMALE</div>",null,,word,FEMALE,,,,,,,,,,,,
html-keyboard-response,814,1068445,163.30000007152557,"",32,,word,FEMALE,,,,,,,,,,,,
html-keyboard-response,815,1068648,null,"<div style=""font-size:42px;"">PARTNER</div><img id = ""stim"" ><div class = green_square id = topsquare></div>",null,encoding,word_square,,,0,topsquare,none,true,,,PARTNER,6,,,
html-keyboard-response,816,1068951,null,"<div style=""font-size:42px;"">PARTNER</div>",null,,word,PARTNER,,,,,,,,,,,,
html-keyboard-response,817,1070454,null,"",null,,word,PARTNER,,,,,,,,,,,,
html-keyboard-response,818,1070658,null,"<div style=""font-size:42px;"">RECEIPT</div><img id = ""stim"" ><div class = red_square id = bottomsquare></div>",null,encoding,word_square,,,1,bottomsquare,32,true,,,RECEIPT,6,,,
html-keyboard-response,819,1070961,null,"<div style=""font-size:42px;"">RECEIPT</div>",null,,word,RECEIPT,,,,,,,,,,,,
html-keyboard-response,820,1072465,125.79999995231628,"",32,,word,RECEIPT,,,,,,,,,,,,
html-keyboard-response,821,1072668,null,"<div style=""font-size:42px;"">PASSAGE</div><img id = ""stim"" ><div class = red_square id = topsquare></div>",null,encoding,word_square,,,1,topsquare,32,true,,,PASSAGE,6,,,
html-keyboard-response,822,1072970,null,"<div style=""font-size:42px;"">PASSAGE</div>",null,,word,PASSAGE,,,,,,,,,,,,
html-keyboard-response,823,1074473,125,"",32,,word,PASSAGE,,,,,,,,,,,,
html-keyboard-response,824,1074674,null,"<div style=""font-size:42px;"">SHELF</div><img id = ""stim"" ><div class = green_square id = bottomsquare></div>",null,encoding,word_square,,,0,bottomsquare,none,true,,,SHELF,6,,,
html-keyboard-response,825,1074976,null,"<div style=""font-size:42px;"">SHELF</div>",null,,word,SHELF,,,,,,,,,,,,
html-keyboard-response,826,1076479,null,"",null,,word,SHELF,,,,,,,,,,,,
html-keyboard-response,827,1076681,null,"<div style=""font-size:42px;"">RAILROAD</div><img id = ""stim"" ><div class = green_square id = topsquare></div>",null,encoding,word_square,,,0,topsquare,none,true,,,RAILROAD,6,,,
html-keyboard-response,828,1076985,null,"<div style=""font-size:42px;"">RAILROAD</div>",null,,word,RAILROAD,,,,,,,,,,,,
html-keyboard-response,829,1078487,null,"",null,,word,RAILROAD,,,,,,,,,,,,
html-keyboard-response,830,1078689,null,"<div style=""font-size:42px;"">ICEBERG</div><img id = ""stim"" ><div class = red_square id = bottomsquare></div>",null,encoding,word_square,,,1,bottomsquare,32,true,,,ICEBERG,6,,,
html-keyboard-response,831,1078992,null,"<div style=""font-size:42px;"">ICEBERG</div>",null,,word,ICEBERG,,,,,,,,,,,,
html-keyboard-response,832,1080495,16.200000047683716,"",32,,word,ICEBERG,,,,,,,,,,,,
html-keyboard-response,833,1080697,null,"<div style=""font-size:42px;"">FIELD</div><img id = ""stim"" ><div class = green_square id = bottomsquare></div>",null,encoding,word_square,,,0,bottomsquare,none,true,,,FIELD,6,,,
html-keyboard-response,834,1080999,null,"<div style=""font-size:42px;"">FIELD</div>",null,,word,FIELD,,,,,,,,,,,,
html-keyboard-response,835,1082502,null,"",null,,word,FIELD,,,,,,,,,,,,
html-keyboard-response,836,1082705,null,"<div style=""font-size:42px;"">KIDNEY</div><img id = ""stim"" ><div class = green_square id = topsquare></div>",null,encoding,word_square,,,0,topsquare,none,true,,,KIDNEY,6,,,
html-keyboard-response,837,1083007,null,"<div style=""font-size:42px;"">KIDNEY</div>",null,,word,KIDNEY,,,,,,,,,,,,
html-keyboard-response,838,1084509,null,"",null,,word,KIDNEY,,,,,,,,,,,,
html-keyboard-response,839,1084713,null,"<div style=""font-size:42px;"">PERSON</div><img id = ""stim"" ><div class = red_square id = topsquare></div>",null,encoding,word_square,,,1,topsquare,32,true,,,PERSON,6,,,
html-keyboard-response,840,1085016,null,"<div style=""font-size:42px;"">PERSON</div>",null,,word,PERSON,,,,,,,,,,,,
html-keyboard-response,841,1086519,0.10000002384185791,"",32,,word,PERSON,,,,,,,,,,,,
html-keyboard-response,842,1086721,null,"<div style=""font-size:42px;"">COD</div><img id = ""stim"" ><div class = red_square id = bottomsquare></div>",null,encoding,word_square,,,1,bottomsquare,32,true,,,COD,6,,,
html-keyboard-response,843,1087024,278.3000000715256,"<div style=""font-size:42px;"">COD</div>",32,,word,COD,,,,,,,,,,,,
html-keyboard-response,844,1088527,null,"",null,,word,COD,,,,,,,,,,,,
call-function,845,1088529,,"",,,,,,,,,,,,,,,,
html-keyboard-response,846,1088631,null,"",null,,,,,,,,,,,,,,,
math-period,847,1090916,4337.700000047684,"",,,,,,,,,,,1,,,,,
html-keyboard-response,848,1091018,null,"",null,,,,,,,,,,,,,,,
math-period,849,1092267,2245.2999999523163,"",,,,,,,,,,,5,,,,,
html-keyboard-response,850,1092370,null,"",null,,,,,,,,,,,,,,,
math-period,851,1093122,1342.7000000476837,"",,,,,,,,,,,5,,,,,
html-keyboard-response,852,1093224,null,"",null,,,,,,,,,,,,,,,
math-period,853,1095012,3257.600000023842,"",,,,,,,,,,,1,,,,,
html-keyboard-response,854,1095115,null,"",null,,,,,,,,,,,,,,,
math-period,855,1096069,1814.6999999284744,"",,,,,,,,,,,2,,,,,
html-keyboard-response,856,1096171,null,"",null,,,,,,,,,,,,,,,
math-period,857,1097059,1704.6000000238419,"",,,,,,,,,,,5,,,,,
html-keyboard-response,858,1097163,null,"",null,,,,,,,,,,,,,,,
math-period,859,1098094,1790.9000000953674,"",,,,,,,,,,,3,,,,,
html-keyboard-response,860,1098196,null,"",null,,,,,,,,,,,,,,,
math-period,861,1101312,10672.5,"",,,,,,,,,,,0,,,,,
html-keyboard-response,862,1101426,null,"",null,,,,,,,,,,,,,,,
math-period,863,1102863,2760.0000001192093,"",,,,,,,,,,,2,,,,,
html-keyboard-response,864,1102965,null,"",null,,,,,,,,,,,,,,,
math-period,865,1104012,2024.299999833107,"",,,,,,,,,,,5,,,,,
html-keyboard-response,866,1104115,null,"",null,,,,,,,,,,,,,,,
math-period,867,1105002,1724.4000000953674,"",,,,,,,,,,,5,,,,,
html-keyboard-response,868,1105105,null,"",null,,,,,,,,,,,,,,,
math-period,869,1105924,1589.3000000715256,"",,,,,,,,,,,5,,,,,
html-keyboard-response,870,1106025,null,"",null,,,,,,,,,,,,,,,
math-period,871,1106734,1368.5000001192093,"",,,,,,,,,,,5,,,,,
html-keyboard-response,872,1106837,null,"",null,,,,,,,,,,,,,,,
math-period,873,1108399,3053.600000023842,"",,,,,,,,,,,2,,,,,
html-keyboard-response,874,1108502,null,"",null,,,,,,,,,,,,,,,
math-period,875,1109772,2514.5,"",,,,,,,,,,,6,,,,,
html-keyboard-response,876,1109874,null,"",null,,,,,,,,,,,,,,,
math-period,877,1111032,2244.1999999284744,"",,,,,,,,,,,2,,,,,
html-keyboard-response,878,1111135,null,"",null,,,,,,,,,,,,,,,
math-period,879,1112530,1358.3000000715256,"",,,,,,,,,,,2,,,,,
html-keyboard-response,880,1113534,null,"Recall Period!",null,,,,,,,,,,,,,,,
call-function,881,1113535,,"",,,,,,,,,,,,,,,,
html-keyboard-response,882,1113636,null,"",null,,,,,,,,,,,,,,,
recall-period,883,1114947,6073.199999928474,"",,,,,,,,,,,hiker,,,,,
html-keyboard-response,884,1115049,null,"",null,,,,,,,,,,,,,,,
recall-period,885,1116004,3839.0999997854233,"",,,,,,,,,,,female,,,,,
html-keyboard-response,886,1116107,null,"",null,,,,,,,,,,,,,,,
recall-period,887,1117422,6211.10000038147,"",,,,,,,,,,,partner,,,,,
html-keyboard-response,888,1117524,null,"",null,,,,,,,,,,,,,,,
recall-period,889,1118344,2619.8999997377396,"",,,,,,,,,,,flesh,,,,,
html-keyboard-response,890,1118460,null,"",null,,,,,,,,,,,,,,,
recall-period,891,1119605,4532.899999856949,"",,,,,,,,,,,kidney,,,,,
html-keyboard-response,892,1119706,null,"",null,,,,,,,,,,,,,,,
recall-period,893,1121248,5115.799999833107,"",,,,,,,,,,,igloo,,,,,
html-keyboard-response,894,1121351,null,"",null,,,,,,,,,,,,,,,
recall-period,895,1122350,3551.5000001192093,"",,,,,,,,,,,brick,,,,,
html-keyboard-response,896,1122452,null,"",null,,,,,,,,,,,,,,,
recall-period,897,1123340,3490.599999666214,"",,,,,,,,,,,shelf,,,,,
html-keyboard-response,898,1123442,null,"",null,,,,,,,,,,,,,,,
recall-period,899,1123970,1067.2000000476837,"",,,,,,,,,,,cod,,,,,
html-keyboard-response,900,1124072,null,"",null,,,,,,,,,,,,,,,
recall-period,901,1126242,16714.89999985695,"",,,,,,,,,,,valley,,,,,
html-keyboard-response,902,1126353,null,"",null,,,,,,,,,,,,,,,
recall-period,903,1128492,10821.199999690056,"",,,,,,,,,,,iceberg,,,,,
html-keyboard-response,904,1128597,null,"",null,,,,,,,,,,,,,,,
recall-period,905,1130787,12022.70000064373,"",,,,,,,,,,,railroad,,,,,
html-keyboard-response,906,1130890,null,"",null,,,,,,,,,,,,,,,
recall-period,907,1133397,6906.199999690056,"",,,,,,,,,,,passage,,,,,
html-keyboard-response,908,1133500,null,"",null,,,,,,,,,,,,,,,
recall-period,909,1188537,null,"",,,,,,,,,,,,,,,,
html-keyboard-response,910,1189039,null,"Time's Up!",null,,,,,,,,,,,,,,,
html-keyboard-response,911,1190883,1842,"<p> Good job! You have responded correctly to 100% of the trials. </p>
                      <p>Be sure to only press the spacebar if you see a red square, and please keep your accuracy above 80%.</p>
                      <p> Press any key to continue the experiment. </p>",32,,,,,,,,,,,,,,,
html-keyboard-response,912,1197227,6342.100000023842,"<div style=""font-size:48px;"">Press any key to begin list 8 of 16 </div>",32,,,,,,,,,,,,,,,
html-keyboard-response,913,1199730,null,"<div style=""font-size:60px;"">+</div>",null,,,,,,,,,,,,,,,
html-keyboard-response,914,1199932,null,"<div style=""font-size:42px;"">PUDDLE</div><img id = ""stim"" ><div class = red_square id = bottomsquare></div>",null,encoding,word_square,,,1,bottomsquare,32,true,,,PUDDLE,7,,,
html-keyboard-response,915,1200234,null,"<div style=""font-size:42px;"">PUDDLE</div>",null,,word,PUDDLE,,,,,,,,,,,,
html-keyboard-response,916,1201736,501.39999997615814,"",32,,word,PUDDLE,,,,,,,,,,,,
html-keyboard-response,917,1201940,null,"<div style=""font-size:42px;"">LADY</div><img id = ""stim"" ><div class = red_square id = topsquare></div>",null,encoding,word_square,,,1,topsquare,32,true,,,LADY,7,,,
html-keyboard-response,918,1202242,174.10000002384186,"<div style=""font-size:42px;"">LADY</div>",32,,word,LADY,,,,,,,,,,,,
html-keyboard-response,919,1203745,null,"",null,,word,LADY,,,,,,,,,,,,
html-keyboard-response,920,1203949,null,"<div style=""font-size:42px;"">DANDRUFF</div><img id = ""stim"" ><div class = green_square id = topsquare></div>",null,encoding,word_square,,,0,topsquare,none,true,,,DANDRUFF,7,,,
html-keyboard-response,921,1204252,null,"<div style=""font-size:42px;"">DANDRUFF</div>",null,,word,DANDRUFF,,,,,,,,,,,,
html-keyboard-response,922,1205765,null,"",null,,word,DANDRUFF,,,,,,,,,,,,
html-keyboard-response,923,1205967,null,"<div style=""font-size:42px;"">FOOT</div><img id = ""stim"" ><div class = green_square id = bottomsquare></div>",null,encoding,word_square,,,0,bottomsquare,none,true,,,FOOT,7,,,
html-keyboard-response,924,1206270,null,"<div style=""font-size:42px;"">FOOT</div>",null,,word,FOOT,,,,,,,,,,,,
html-keyboard-response,925,1207773,null,"",null,,word,FOOT,,,,,,,,,,,,
html-keyboard-response,926,1207976,null,"<div style=""font-size:42px;"">TRUCK</div><img id = ""stim"" ><div class = red_square id = bottomsquare></div>",null,encoding,word_square,,,1,bottomsquare,32,true,,,TRUCK,7,,,
html-keyboard-response,927,1208277,274.5,"<div style=""font-size:42px;"">TRUCK</div>",32,,word,TRUCK,,,,,,,,,,,,
html-keyboard-response,928,1209779,null,"",null,,word,TRUCK,,,,,,,,,,,,
html-keyboard-response,929,1209982,null,"<div style=""font-size:42px;"">PADDLE</div><img id = ""stim"" ><div class = green_square id = topsquare></div>",null,encoding,word_square,,,0,topsquare,none,true,,,PADDLE,7,,,
html-keyboard-response,930,1210285,null,"<div style=""font-size:42px;"">PADDLE</div>",null,,word,PADDLE,,,,,,,,,,,,
html-keyboard-response,931,1211788,null,"",null,,word,PADDLE,,,,,,,,,,,,
html-keyboard-response,932,1211992,null,"<div style=""font-size:42px;"">YACHT</div><img id = ""stim"" ><div class = green_square id = bottomsquare></div>",null,encoding,word_square,,,0,bottomsquare,none,true,,,YACHT,7,,,
html-keyboard-response,933,1212298,null,"<div style=""font-size:42px;"">YACHT</div>",null,,word,YACHT,,,,,,,,,,,,
html-keyboard-response,934,1213800,null,"",null,,word,YACHT,,,,,,,,,,,,
html-keyboard-response,935,1214004,null,"<div style=""font-size:42px;"">PARTY</div><img id = ""stim"" ><div class = red_square id = topsquare></div>",null,encoding,word_square,,,1,topsquare,32,true,,,PARTY,7,,,
html-keyboard-response,936,1214306,null,"<div style=""font-size:42px;"">PARTY</div>",null,,word,PARTY,,,,,,,,,,,,
html-keyboard-response,937,1215809,0.19999992847442627,"",32,,word,PARTY,,,,,,,,,,,,
html-keyboard-response,938,1216012,null,"<div style=""font-size:42px;"">CAFE</div><img id = ""stim"" ><div class = red_square id = bottomsquare></div>",null,encoding,word_square,,,1,bottomsquare,32,true,,,CAFE,7,,,
html-keyboard-response,939,1216315,null,"<div style=""font-size:42px;"">CAFE</div>",null,,word,CAFE,,,,,,,,,,,,
html-keyboard-response,940,1217818,148.30000007152557,"",32,,word,CAFE,,,,,,,,,,,,
html-keyboard-response,941,1218021,null,"<div style=""font-size:42px;"">LUNCH</div><img id = ""stim"" ><div class = green_square id = topsquare></div>",null,encoding,word_square,,,0,topsquare,none,true,,,LUNCH,7,,,
html-keyboard-response,942,1218325,null,"<div style=""font-size:42px;"">LUNCH</div>",null,,word,LUNCH,,,,,,,,,,,,
html-keyboard-response,943,1219827,null,"",null,,word,LUNCH,,,,,,,,,,,,
html-keyboard-response,944,1220030,null,"<div style=""font-size:42px;"">SOCKET</div><img id = ""stim"" ><div class = red_square id = topsquare></div>",null,encoding,word_square,,,1,topsquare,32,true,,,SOCKET,7,,,
html-keyboard-response,945,1220332,null,"<div style=""font-size:42px;"">SOCKET</div>",null,,word,SOCKET,,,,,,,,,,,,
html-keyboard-response,946,1221836,91.10000002384186,"",32,,word,SOCKET,,,,,,,,,,,,
html-keyboard-response,947,1222039,null,"<div style=""font-size:42px;"">KETTLE</div><img id = ""stim"" ><div class = green_square id = bottomsquare></div>",null,encoding,word_square,,,0,bottomsquare,none,true,,,KETTLE,7,,,
html-keyboard-response,948,1222341,null,"<div style=""font-size:42px;"">KETTLE</div>",null,,word,KETTLE,,,,,,,,,,,,
html-keyboard-response,949,1223845,null,"",null,,word,KETTLE,,,,,,,,,,,,
html-keyboard-response,950,1224048,null,"<div style=""font-size:42px;"">CLAMP</div><img id = ""stim"" ><div class = green_square id = topsquare></div>",null,encoding,word_square,,,0,topsquare,none,true,,,CLAMP,7,,,
html-keyboard-response,951,1224350,null,"<div style=""font-size:42px;"">CLAMP</div>",null,,word,CLAMP,,,,,,,,,,,,
html-keyboard-response,952,1225853,null,"",null,,word,CLAMP,,,,,,,,,,,,
html-keyboard-response,953,1226056,null,"<div style=""font-size:42px;"">RABBIT</div><img id = ""stim"" ><div class = red_square id = bottomsquare></div>",null,encoding,word_square,,,1,bottomsquare,32,true,,,RABBIT,7,,,
