trial_type,trial_index,time_elapsed,rt,stimulus,key_press,exp_phase,test_part,word,task,targ_cond,sq_pos,correctKeyCode,correct,value,response,Word,List,RecResp,serial_pos,colorChosen
pavlovia,0,21220,,"",,,,,,,,,,,,,,,,
external-html,1,41281,19555.100000023842,"",,,,,,,,,,,,,,,,
html-keyboard-response,2,43821,2522.5,"Welcome to the experiment. Press any key to begin.",75,,,,,,,,,,,,,,,
html-keyboard-response,3,130419,86594.59999999404,"<p>You will see a list of words and colored squares in the following task.<p><p>Press the spacebar whenever you see a red square.<p><p>Do not press a key if the square is green.<p><p>Press the spacebar to continue.</p>",32,,,,,,,,,,,,,,,
html-keyboard-response,4,184663,53735.09999999404,"<p>Please try to remember as many of the words as you can, and try to think about the meaning of each word as it appears.<p><p>After the detection and encoding task you will be asked to solve some math problems for 24 seconds.<p> Please solve as many problems as you can in the time given. <p><p><p>Press the spacebar to continue.</p>",32,,,,,,,,,,,,,,,
html-keyboard-response,5,200072,14896.199999988079,"After solving the math problems, you will be asked to type in as many words <p>from the previous list as you can remember for 75 seconds.<p> If you finish recalling before the 75 seconds are up,<p> just sit tight and try to think of any more words you could have missed. <p><p><p>Press the spacebar to continue.</p>",32,,,,,,,,,,,,,,,
html-keyboard-response,6,215143,14564.09999999404,"There will be 16 lists of words and recall, followed  by<p><p> a recognition phase. The experiment is expected to take up to 90 minutes.<p>We will begin with a brief practice session.<p>Press the spacebar to begin the practice.</p>",32,,,,,,,,,,,,,,,
html-keyboard-response,7,217653,null,"<div style=""font-size:60px;"">+</div>",null,,,,,,,,,,,,,,,
html-keyboard-response,8,217868,null,"<div style=""font-size:42px;"">HAPPY</div><img id = ""stim"" ><div class = green_square id = ""bottomsquare"" ></div>",null,practice,word_square,HAPPY,prac_response,0,Bottom,none,true,,,,,,,
html-keyboard-response,9,218176,null,"<div style=""font-size:42px;"">HAPPY</div>",null,,word,HAPPY,,,,,,,,,,,,
html-keyboard-response,10,219696,null,"",null,,word,HAPPY,,,,,,,,,,,,
html-keyboard-response,11,219916,null,"<div style=""font-size:42px;"">COLD</div><img id = ""stim"" ><div class = red_square id = ""bottomsquare"" ></div>",null,practice,word_square,COLD,prac_response,1,Bottom,32,true,,,,,,,
html-keyboard-response,12,220226,null,"<div style=""font-size:42px;"">COLD</div>",null,,word,COLD,,,,,,,,,,,,
html-keyboard-response,13,221736,139.09999999403954,"",32,,word,COLD,,,,,,,,,,,,
html-keyboard-response,14,221951,null,"<div style=""font-size:42px;"">HEAVY</div><img id = ""stim"" ><div class = red_square id = ""topsquare"" ></div>",null,practice,word_square,HEAVY,prac_response,1,Top,32,true,,,,,,,
html-keyboard-response,15,222258,300.19999998807907,"<div style=""font-size:42px;"">HEAVY</div>",32,,word,HEAVY,,,,,,,,,,,,
html-keyboard-response,16,223772,null,"",null,,word,HEAVY,,,,,,,,,,,,
html-keyboard-response,17,223984,null,"<div style=""font-size:42px;"">FUNNY</div><img id = ""stim"" ><div class = green_square id = ""topsquare"" ></div>",null,practice,word_square,FUNNY,prac_response,0,Top,none,false,,,,,,,
html-keyboard-response,18,224292,null,"<div style=""font-size:42px;"">FUNNY</div>",null,,word,FUNNY,,,,,,,,,,,,
html-keyboard-response,19,225804,211.89999997615814,"",32,,word,FUNNY,,,,,,,,,,,,
html-keyboard-response,20,226017,null,"<div style=""font-size:42px;"">SCARY</div><img id = ""stim"" ><div class = red_square id = ""bottomsquare"" ></div>",null,practice,word_square,SCARY,prac_response,1,Bottom,32,false,,,,,,,
html-keyboard-response,21,226327,null,"<div style=""font-size:42px;"">SCARY</div>",null,,word,SCARY,,,,,,,,,,,,
html-keyboard-response,22,227834,null,"",null,,word,SCARY,,,,,,,,,,,,
html-keyboard-response,23,228051,null,"<div style=""font-size:42px;"">PEACEFUL</div><img id = ""stim"" ><div class = red_square id = ""topsquare"" ></div>",null,practice,word_square,PEACEFUL,prac_response,1,Top,32,true,,,,,,,
html-keyboard-response,24,228361,null,"<div style=""font-size:42px;"">PEACEFUL</div>",null,,word,PEACEFUL,,,,,,,,,,,,
html-keyboard-response,25,229870,251.90000000596046,"",32,,word,PEACEFUL,,,,,,,,,,,,
html-keyboard-response,26,230084,null,"<div style=""font-size:42px;"">LITTLE</div><img id = ""stim"" ><div class = green_square id = ""bottomsquare"" ></div>",null,practice,word_square,LITTLE,prac_response,0,Bottom,none,true,,,,,,,
html-keyboard-response,27,230393,null,"<div style=""font-size:42px;"">LITTLE</div>",null,,word,LITTLE,,,,,,,,,,,,
html-keyboard-response,28,231897,null,"",null,,word,LITTLE,,,,,,,,,,,,
html-keyboard-response,29,232118,null,"<div style=""font-size:42px;"">TIRED</div><img id = ""stim"" ><div class = green_square id = ""topsquare"" ></div>",null,practice,word_square,TIRED,prac_response,0,Top,none,true,,,,,,,
html-keyboard-response,30,232426,null,"<div style=""font-size:42px;"">TIRED</div>",null,,word,TIRED,,,,,,,,,,,,
html-keyboard-response,31,233942,null,"",null,,word,TIRED,,,,,,,,,,,,
html-keyboard-response,32,234149,null,"<div style=""font-size:42px;"">ENTERTAINING</div><img id = ""stim"" ><div class = green_square id = ""bottomsquare"" ></div>",null,practice,word_square,ENTERTAINING,prac_response,0,Bottom,none,true,,,,,,,
html-keyboard-response,33,234459,null,"<div style=""font-size:42px;"">ENTERTAINING</div>",null,,word,ENTERTAINING,,,,,,,,,,,,
html-keyboard-response,34,235976,null,"",null,,word,ENTERTAINING,,,,,,,,,,,,
html-keyboard-response,35,236185,null,"<div style=""font-size:42px;"">GRATEFUL</div><img id = ""stim"" ><div class = red_square id = ""bottomsquare"" ></div>",null,practice,word_square,GRATEFUL,prac_response,1,Bottom,32,true,,,,,,,
html-keyboard-response,36,236494,null,"<div style=""font-size:42px;"">GRATEFUL</div>",null,,word,GRATEFUL,,,,,,,,,,,,
html-keyboard-response,37,238005,97.10000002384186,"",32,,word,GRATEFUL,,,,,,,,,,,,
html-keyboard-response,38,238217,null,"<div style=""font-size:42px;"">LOUD</div><img id = ""stim"" ><div class = green_square id = ""topsquare"" ></div>",null,practice,word_square,LOUD,prac_response,0,Top,none,true,,,,,,,
html-keyboard-response,39,238528,null,"<div style=""font-size:42px;"">LOUD</div>",null,,word,LOUD,,,,,,,,,,,,
html-keyboard-response,40,240037,null,"",null,,word,LOUD,,,,,,,,,,,,
html-keyboard-response,41,240251,null,"<div style=""font-size:42px;"">SMART</div><img id = ""stim"" ><div class = red_square id = ""topsquare"" ></div>",null,practice,word_square,SMART,prac_response,1,Top,32,true,,,,,,,
html-keyboard-response,42,240563,142.19999998807907,"<div style=""font-size:42px;"">SMART</div>",32,,word,SMART,,,,,,,,,,,,
html-keyboard-response,43,242078,null,"",null,,word,SMART,,,,,,,,,,,,
html-keyboard-response,44,242284,null,"<div style=""font-size:42px;"">SMOOTH</div><img id = ""stim"" ><div class = red_square id = ""bottomsquare"" ></div>",null,practice,word_square,SMOOTH,prac_response,1,Bottom,32,true,,,,,,,
html-keyboard-response,45,242588,276.7000000178814,"<div style=""font-size:42px;"">SMOOTH</div>",32,,word,SMOOTH,,,,,,,,,,,,
html-keyboard-response,46,244100,null,"",null,,word,SMOOTH,,,,,,,,,,,,
html-keyboard-response,47,244317,null,"<div style=""font-size:42px;"">DISHONEST</div><img id = ""stim"" ><div class = green_square id = ""bottomsquare"" ></div>",null,practice,word_square,DISHONEST,prac_response,0,Bottom,none,true,,,,,,,
html-keyboard-response,48,244628,null,"<div style=""font-size:42px;"">DISHONEST</div>",null,,word,DISHONEST,,,,,,,,,,,,
html-keyboard-response,49,246143,null,"",null,,word,DISHONEST,,,,,,,,,,,,
html-keyboard-response,50,246350,null,"<div style=""font-size:42px;"">WEALTHY</div><img id = ""stim"" ><div class = red_square id = ""topsquare"" ></div>",null,practice,word_square,WEALTHY,prac_response,1,Top,32,true,,,,,,,
html-keyboard-response,51,246654,203.2000000178814,"<div style=""font-size:42px;"">WEALTHY</div>",32,,word,WEALTHY,,,,,,,,,,,,
html-keyboard-response,52,248164,null,"",null,,word,WEALTHY,,,,,,,,,,,,
html-keyboard-response,53,248384,null,"<div style=""font-size:42px;"">BEAUTIFUL</div><img id = ""stim"" ><div class = green_square id = ""topsquare"" ></div>",null,practice,word_square,BEAUTIFUL,prac_response,0,Top,none,true,,,,,,,
html-keyboard-response,54,248693,null,"<div style=""font-size:42px;"">BEAUTIFUL</div>",null,,word,BEAUTIFUL,,,,,,,,,,,,
html-keyboard-response,55,250212,null,"",null,,word,BEAUTIFUL,,,,,,,,,,,,
html-keyboard-response,56,260009,9789.700000017881,"<p> Good job! You responded correctly to 88% of the trials. </p>
                  <p>Be sure to only press the spacebar if you see a red square, and please keep your accuracy above 80%.</p>
                  <p>We're going to try once more to make sure you understand the task. press any key to continue. </p>",32,,,,,,,,,,,,,,,
html-keyboard-response,57,299902,39890.59999999404,"<p>You will see a list of words and colored squares in the following task.<p><p>Press the spacebar whenever you see a red square.<p><p>Do not press a key if the square is green<p><p>Press the spacebar to continue.</p>",32,,,,,,,,,,,,,,,
html-keyboard-response,58,302417,null,"<div style=""font-size:60px;"">+</div>",null,,,,,,,,,,,,,,,
html-keyboard-response,59,302634,null,"<div style=""font-size:42px;"">HAPPY</div><img id = ""stim"" ><div class = green_square id = ""bottomsquare"" ></div>",null,practice2,word_square,HAPPY,prac_response,0,Bottom,none,true,,,,,,,
html-keyboard-response,60,302936,null,"<div style=""font-size:42px;"">HAPPY</div>",null,,word,HAPPY,,,,,,,,,,,,
html-keyboard-response,61,304447,null,"",null,,word,HAPPY,,,,,,,,,,,,
html-keyboard-response,62,304654,null,"<div style=""font-size:42px;"">COLD</div><img id = ""stim"" ><div class = red_square id = ""bottomsquare"" ></div>",null,practice2,word_square,,prac_response,1,Bottom,32,true,,,,,,,
html-keyboard-response,63,304960,229.7999999821186,"<div style=""font-size:42px;"">COLD</div>",32,,word,COLD,,,,,,,,,,,,
html-keyboard-response,64,306471,null,"",null,,word,COLD,,,,,,,,,,,,
html-keyboard-response,65,306686,null,"<div style=""font-size:42px;"">HEAVY</div><img id = ""stim"" ><div class = red_square id = ""topsquare"" ></div>",null,practice2,word_square,,prac_response,1,Top,32,true,,,,,,,
html-keyboard-response,66,306998,null,"<div style=""font-size:42px;"">HEAVY</div>",null,,word,HEAVY,,,,,,,,,,,,
html-keyboard-response,67,308508,88.19999998807907,"",32,,word,HEAVY,,,,,,,,,,,,
html-keyboard-response,68,308724,null,"<div style=""font-size:42px;"">FUNNY</div><img id = ""stim"" ><div class = green_square id = ""topsquare"" ></div>",null,practice2,word_square,,prac_response,0,Top,none,true,,,,,,,
html-keyboard-response,69,309030,null,"<div style=""font-size:42px;"">FUNNY</div>",null,,word,FUNNY,,,,,,,,,,,,
html-keyboard-response,70,310538,null,"",null,,word,FUNNY,,,,,,,,,,,,
html-keyboard-response,71,310752,null,"<div style=""font-size:42px;"">SCARY</div><img id = ""stim"" ><div class = red_square id = ""bottomsquare"" ></div>",null,practice2,word_square,,prac_response,1,Bottom,32,true,,,,,,,
html-keyboard-response,72,311064,null,"<div style=""font-size:42px;"">SCARY</div>",null,,word,SCARY,,,,,,,,,,,,
html-keyboard-response,73,312570,7.700000017881393,"",32,,word,SCARY,,,,,,,,,,,,
html-keyboard-response,74,312785,null,"<div style=""font-size:42px;"">PEACEFUL</div><img id = ""stim"" ><div class = red_square id = ""topsquare"" ></div>",null,practice2,word_square,,prac_response,1,Top,32,true,,,,,,,
html-keyboard-response,75,313093,235.59999999403954,"<div style=""font-size:42px;"">PEACEFUL</div>",32,,word,PEACEFUL,,,,,,,,,,,,
html-keyboard-response,76,314600,null,"",null,,word,PEACEFUL,,,,,,,,,,,,
html-keyboard-response,77,314817,null,"<div style=""font-size:42px;"">LITTLE</div><img id = ""stim"" ><div class = green_square id = ""bottomsquare"" ></div>",null,practice2,word_square,LITTLE,prac_response,0,Bottom,none,true,,,,,,,
html-keyboard-response,78,315129,null,"<div style=""font-size:42px;"">LITTLE</div>",null,,word,LITTLE,,,,,,,,,,,,
html-keyboard-response,79,316634,null,"",null,,word,LITTLE,,,,,,,,,,,,
html-keyboard-response,80,316850,null,"<div style=""font-size:42px;"">TIRED</div><img id = ""stim"" ><div class = green_square id = ""topsquare"" ></div>",null,practice2,word_square,,prac_response,0,Top,none,true,,,,,,,
html-keyboard-response,81,317162,null,"<div style=""font-size:42px;"">TIRED</div>",null,,word,TIRED,,,,,,,,,,,,
html-keyboard-response,82,318670,null,"",null,,word,TIRED,,,,,,,,,,,,
html-keyboard-response,83,318886,null,"<div style=""font-size:42px;"">ENTERTAINING</div><img id = ""stim"" ><div class = green_square id = ""bottomsquare"" ></div>",null,practice2,word_square,ENTERTAINING,prac_response,0,Bottom,none,true,,,,,,,
html-keyboard-response,84,319195,null,"<div style=""font-size:42px;"">ENTERTAINING</div>",null,,word,ENTERTAINING,,,,,,,,,,,,
html-keyboard-response,85,320701,null,"",null,,word,ENTERTAINING,,,,,,,,,,,,
html-keyboard-response,86,320918,null,"<div style=""font-size:42px;"">GRATEFUL</div><img id = ""stim"" ><div class = red_square id = ""bottomsquare"" ></div>",null,practice2,word_square,,prac_response,1,Bottom,32,true,,,,,,,
html-keyboard-response,87,321234,97.5,"<div style=""font-size:42px;"">GRATEFUL</div>",32,,word,GRATEFUL,,,,,,,,,,,,
html-keyboard-response,88,322738,null,"",null,,word,GRATEFUL,,,,,,,,,,,,
html-keyboard-response,89,322952,null,"<div style=""font-size:42px;"">LOUD</div><img id = ""stim"" ><div class = green_square id = ""topsquare"" ></div>",null,practice2,word_square,,prac_response,0,Top,none,true,,,,,,,
html-keyboard-response,90,323264,null,"<div style=""font-size:42px;"">LOUD</div>",null,,word,LOUD,,,,,,,,,,,,
html-keyboard-response,91,324776,null,"",null,,word,LOUD,,,,,,,,,,,,
html-keyboard-response,92,324987,null,"<div style=""font-size:42px;"">SMART</div><img id = ""stim"" ><div class = red_square id = ""topsquare"" ></div>",null,practice2,word_square,,prac_response,1,Top,32,true,,,,,,,
html-keyboard-response,93,325306,171,"<div style=""font-size:42px;"">SMART</div>",32,,word,SMART,,,,,,,,,,,,
html-keyboard-response,94,326821,null,"",null,,word,SMART,,,,,,,,,,,,
html-keyboard-response,95,327036,null,"<div style=""font-size:42px;"">SMOOTH</div><img id = ""stim"" ><div class = red_square id = ""bottomsquare"" ></div>",null,practice2,word_square,,prac_response,1,Bottom,32,true,,,,,,,
html-keyboard-response,96,327347,null,"<div style=""font-size:42px;"">SMOOTH</div>",null,,word,SMOOTH,,,,,,,,,,,,
html-keyboard-response,97,328852,67.40000000596046,"",32,,word,SMOOTH,,,,,,,,,,,,
html-keyboard-response,98,329069,null,"<div style=""font-size:42px;"">DISHONEST</div><img id = ""stim"" ><div class = green_square id = ""bottomsquare"" ></div>",null,practice2,word_square,DISHONEST,prac_response,0,Bottom,none,true,,,,,,,
html-keyboard-response,99,329379,null,"<div style=""font-size:42px;"">DISHONEST</div>",null,,word,DISHONEST,,,,,,,,,,,,
html-keyboard-response,100,330883,null,"",null,,word,DISHONEST,,,,,,,,,,,,
html-keyboard-response,101,331087,null,"<div style=""font-size:42px;"">WEALTHY</div><img id = ""stim"" ><div class = red_square id = ""topsquare"" ></div>",null,practice2,word_square,,prac_response,1,Top,32,true,,,,,,,
html-keyboard-response,102,331392,190.09999999403954,"<div style=""font-size:42px;"">WEALTHY</div>",32,,word,WEALTHY,,,,,,,,,,,,
html-keyboard-response,103,332899,null,"",null,,word,WEALTHY,,,,,,,,,,,,
html-keyboard-response,104,333134,null,"<div style=""font-size:42px;"">BEAUTIFUL</div><img id = ""stim"" ><div class = green_square id = ""topsquare"" ></div>",null,practice2,word_square,,prac_response,0,Top,none,false,,,,,,,
html-keyboard-response,105,333468,null,"<div style=""font-size:42px;"">BEAUTIFUL</div>",null,,word,BEAUTIFUL,,,,,,,,,,,,
html-keyboard-response,106,334971,null,"",null,,word,BEAUTIFUL,,,,,,,,,,,,
html-keyboard-response,107,366343,31369.19999998808,"<p> Good job! You responded correctly to 100% of the trials. </p>
                    <p>Be sure to only press the spacebar if you see a red square, and please keep your accuracy above 80%.</p>
                    <p>Press any key to begin the math and recall sections. Thank you! </p>",32,,,,,,,,,,,,,,,
call-function,108,366347,,"",,,,,,,,,,,,,,,,
html-keyboard-response,109,366460,null,"",null,,,,,,,,,,,,,,,
math-period,110,383651,23646.30000001192,"",,,,,,,,,,,3,,,,,
html-keyboard-response,111,383761,null,"",null,,,,,,,,,,,,,,,
math-period,112,387407,6158.9000000059605,"",,,,,,,,,,,5,,,,,
html-keyboard-response,113,387510,null,"",null,,,,,,,,,,,,,,,
math-period,114,390358,null,"",,,,,,,,,,,,,,,,
html-keyboard-response,115,391371,null,"Recall Period!",null,,,,,,,,,,,,,,,
call-function,116,391375,,"",,,,,,,,,,,,,,,,
html-keyboard-response,117,391493,null,"",null,,,,,,,,,,,,,,,
recall-period,118,398838,7341.5,"",,,,,,,,,,,,,,,,
html-keyboard-response,119,398944,null,"",null,,,,,,,,,,,,,,,
recall-period,120,409947,60007.59999990463,"",,,,,,,,,,,happy,,,,,
html-keyboard-response,121,410062,null,"",null,,,,,,,,,,,,,,,
recall-period,122,413753,20887.29999998212,"",,,,,,,,,,,little,,,,,
html-keyboard-response,123,413862,null,"",null,,,,,,,,,,,,,,,
recall-period,124,417863,19669.200000077486,"",,,,,,,,,,,heavy,,,,,
html-keyboard-response,125,417980,null,"",null,,,,,,,,,,,,,,,
recall-period,126,421183,15860.300000071526,"",,,,,,,,,,,cold,,,,,
html-keyboard-response,127,421294,null,"",null,,,,,,,,,,,,,,,
recall-period,128,430070,82313.2000001967,"",,,,,,,,,,,wealthy,,,,,
html-keyboard-response,129,430180,null,"",null,,,,,,,,,,,,,,,
recall-period,130,433240,17921.70000013709,"",,,,,,,,,,,beautiful,,,,,
html-keyboard-response,131,433345,null,"",null,,,,,,,,,,,,,,,
recall-period,132,435494,10013.100000053644,"",,,,,,,,,,,smooth,,,,,
html-keyboard-response,133,435612,null,"",null,,,,,,,,,,,,,,,
recall-period,134,439039,19948.699999958277,"",,,,,,,,,,,grateful,,,,,
html-keyboard-response,135,439145,null,"",null,,,,,,,,,,,,,,,
recall-period,136,443065,16283.000000029802,"",,,,,,,,,,,scary,,,,,
html-keyboard-response,137,443180,null,"",null,,,,,,,,,,,,,,,
recall-period,138,450406,45012.50000014901,"",,,,,,,,,,,little,,,,,
html-keyboard-response,139,450513,null,"",null,,,,,,,,,,,,,,,
recall-period,140,460689,48673.40000000596,"",,,,,,,,,,,cold,,,,,
html-keyboard-response,141,460799,null,"",null,,,,,,,,,,,,,,,
recall-period,142,466389,null,"",,,,,,,,,,,,,,,,
html-keyboard-response,143,466908,null,"Time's Up!",null,,,,,,,,,,,,,,,
html-keyboard-response,144,480557,13644.90000000596,"<p>We will now begin the experiment!<p><p>Please try to remember all words from each list.<p><p>Press the spacebar whenever you see a red square.<p><p><p><p>Press the spacebar to begin.</p>",32,,,,,,,,,,,,,,,
html-keyboard-response,145,486379,5303.199999988079,"<div style=""font-size:48px;"">Press any key to begin list 1 of 16 </div>",32,,,,,,,,,,,,,,,
html-keyboard-response,146,488902,null,"<div style=""font-size:60px;"">+</div>",null,,,,,,,,,,,,,,,
html-keyboard-response,147,489108,null,"<div style=""font-size:42px;"">ATOM</div><img id = ""stim"" ><div class = red_square id = topsquare></div>",null,encoding,word_square,,,1,topsquare,32,true,,,ATOM,0,,,
html-keyboard-response,148,489418,null,"<div style=""font-size:42px;"">ATOM</div>",null,,word,ATOM,,,,,,,,,,,,
html-keyboard-response,149,490935,323.89999997615814,"",32,,word,ATOM,,,,,,,,,,,,
html-keyboard-response,150,491140,null,"<div style=""font-size:42px;"">TROUT</div><img id = ""stim"" ><div class = red_square id = bottomsquare></div>",null,encoding,word_square,,,1,bottomsquare,32,true,,,TROUT,0,,,
html-keyboard-response,151,491450,264.7000000178814,"<div style=""font-size:42px;"">TROUT</div>",32,,word,TROUT,,,,,,,,,,,,
html-keyboard-response,152,492965,null,"",null,,word,TROUT,,,,,,,,,,,,
html-keyboard-response,153,493173,null,"<div style=""font-size:42px;"">MAMMAL</div><img id = ""stim"" ><div class = green_square id = bottomsquare></div>",null,encoding,word_square,,,0,bottomsquare,none,true,,,MAMMAL,0,,,
html-keyboard-response,154,493484,null,"<div style=""font-size:42px;"">MAMMAL</div>",null,,word,MAMMAL,,,,,,,,,,,,
html-keyboard-response,155,494995,null,"",null,,word,MAMMAL,,,,,,,,,,,,
html-keyboard-response,156,495207,null,"<div style=""font-size:42px;"">EARRING</div><img id = ""stim"" ><div class = green_square id = topsquare></div>",null,encoding,word_square,,,0,topsquare,none,true,,,EARRING,0,,,
html-keyboard-response,157,495517,null,"<div style=""font-size:42px;"">EARRING</div>",null,,word,EARRING,,,,,,,,,,,,
html-keyboard-response,158,497029,null,"",null,,word,EARRING,,,,,,,,,,,,
html-keyboard-response,159,497239,null,"<div style=""font-size:42px;"">AUTHOR</div><img id = ""stim"" ><div class = red_square id = topsquare></div>",null,encoding,word_square,,,1,topsquare,32,true,,,AUTHOR,0,,,
html-keyboard-response,160,497546,198.09999999403954,"<div style=""font-size:42px;"">AUTHOR</div>",32,,word,AUTHOR,,,,,,,,,,,,
html-keyboard-response,161,499053,null,"",null,,word,AUTHOR,,,,,,,,,,,,
html-keyboard-response,162,499259,null,"<div style=""font-size:42px;"">PEANUT</div><img id = ""stim"" ><div class = red_square id = bottomsquare></div>",null,encoding,word_square,,,1,bottomsquare,32,true,,,PEANUT,0,,,
html-keyboard-response,163,499566,null,"<div style=""font-size:42px;"">PEANUT</div>",null,,word,PEANUT,,,,,,,,,,,,
html-keyboard-response,164,501081,152.80000001192093,"",32,,word,PEANUT,,,,,,,,,,,,
html-keyboard-response,165,501290,null,"<div style=""font-size:42px;"">IDOL</div><img id = ""stim"" ><div class = green_square id = bottomsquare></div>",null,encoding,word_square,,,0,bottomsquare,none,true,,,IDOL,0,,,
html-keyboard-response,166,501600,null,"<div style=""font-size:42px;"">IDOL</div>",null,,word,IDOL,,,,,,,,,,,,
html-keyboard-response,167,503108,null,"",null,,word,IDOL,,,,,,,,,,,,
html-keyboard-response,168,503323,null,"<div style=""font-size:42px;"">WOLF</div><img id = ""stim"" ><div class = red_square id = topsquare></div>",null,encoding,word_square,,,1,topsquare,32,true,,,WOLF,0,,,
html-keyboard-response,169,503630,206.39999997615814,"<div style=""font-size:42px;"">WOLF</div>",32,,word,WOLF,,,,,,,,,,,,
html-keyboard-response,170,505139,null,"",null,,word,WOLF,,,,,,,,,,,,
html-keyboard-response,171,505356,null,"<div style=""font-size:42px;"">ARTIST</div><img id = ""stim"" ><div class = green_square id = topsquare></div>",null,encoding,word_square,,,0,topsquare,none,true,,,ARTIST,0,,,
html-keyboard-response,172,505668,null,"<div style=""font-size:42px;"">ARTIST</div>",null,,word,ARTIST,,,,,,,,,,,,
html-keyboard-response,173,507175,null,"",null,,word,ARTIST,,,,,,,,,,,,
html-keyboard-response,174,507391,null,"<div style=""font-size:42px;"">ANKLE</div><img id = ""stim"" ><div class = red_square id = bottomsquare></div>",null,encoding,word_square,,,1,bottomsquare,32,true,,,ANKLE,0,,,
html-keyboard-response,175,507709,139.59999999403954,"<div style=""font-size:42px;"">ANKLE</div>",32,,word,ANKLE,,,,,,,,,,,,
html-keyboard-response,176,509215,null,"",null,,word,ANKLE,,,,,,,,,,,,
html-keyboard-response,177,509426,null,"<div style=""font-size:42px;"">SEAGULL</div><img id = ""stim"" ><div class = red_square id = topsquare></div>",null,encoding,word_square,,,1,topsquare,32,true,,,SEAGULL,0,,,
html-keyboard-response,178,509733,null,"<div style=""font-size:42px;"">SEAGULL</div>",null,,word,SEAGULL,,,,,,,,,,,,
html-keyboard-response,179,511249,22.200000017881393,"",32,,word,SEAGULL,,,,,,,,,,,,
html-keyboard-response,180,511452,null,"<div style=""font-size:42px;"">OX</div><img id = ""stim"" ><div class = green_square id = bottomsquare></div>",null,encoding,word_square,,,0,bottomsquare,none,true,,,OX,0,,,
html-keyboard-response,181,511765,null,"<div style=""font-size:42px;"">OX</div>",null,,word,OX,,,,,,,,,,,,
html-keyboard-response,182,513282,null,"",null,,word,OX,,,,,,,,,,,,
html-keyboard-response,183,513494,null,"<div style=""font-size:42px;"">CATTLE</div><img id = ""stim"" ><div class = green_square id = topsquare></div>",null,encoding,word_square,,,0,topsquare,none,true,,,CATTLE,0,,,
html-keyboard-response,184,513801,null,"<div style=""font-size:42px;"">CATTLE</div>",null,,word,CATTLE,,,,,,,,,,,,
html-keyboard-response,185,515317,null,"",null,,word,CATTLE,,,,,,,,,,,,
html-keyboard-response,186,515524,null,"<div style=""font-size:42px;"">CREVICE</div><img id = ""stim"" ><div class = red_square id = bottomsquare></div>",null,encoding,word_square,,,1,bottomsquare,32,true,,,CREVICE,0,,,
html-keyboard-response,187,515830,195.69999998807907,"<div style=""font-size:42px;"">CREVICE</div>",32,,word,CREVICE,,,,,,,,,,,,
html-keyboard-response,188,517340,null,"",null,,word,CREVICE,,,,,,,,,,,,
html-keyboard-response,189,517558,null,"<div style=""font-size:42px;"">SHERIFF</div><img id = ""stim"" ><div class = green_square id = bottomsquare></div>",null,encoding,word_square,,,0,bottomsquare,none,true,,,SHERIFF,0,,,
html-keyboard-response,190,517867,null,"<div style=""font-size:42px;"">SHERIFF</div>",null,,word,SHERIFF,,,,,,,,,,,,
html-keyboard-response,191,519373,null,"",null,,word,SHERIFF,,,,,,,,,,,,
html-keyboard-response,192,519591,null,"<div style=""font-size:42px;"">AGENT</div><img id = ""stim"" ><div class = green_square id = topsquare></div>",null,encoding,word_square,,,0,topsquare,none,true,,,AGENT,0,,,
html-keyboard-response,193,519901,null,"<div style=""font-size:42px;"">AGENT</div>",null,,word,AGENT,,,,,,,,,,,,
html-keyboard-response,194,521420,null,"",null,,word,AGENT,,,,,,,,,,,,
call-function,195,521422,,"",,,,,,,,,,,,,,,,
html-keyboard-response,196,521532,null,"",null,,,,,,,,,,,,,,,
math-period,197,525830,8069.5999999940395,"",,,,,,,,,,,0,,,,,
html-keyboard-response,198,525948,null,"",null,,,,,,,,,,,,,,,
math-period,199,528881,5442.4000000059605,"",,,,,,,,,,,3,,,,,
html-keyboard-response,200,528998,null,"",null,,,,,,,,,,,,,,,
math-period,201,531310,4240.200000047684,"",,,,,,,,,,,5,,,,,
html-keyboard-response,202,531432,null,"",null,,,,,,,,,,,,,,,
math-period,203,533992,4752,"",,,,,,,,,,,3,,,,,
html-keyboard-response,204,534096,null,"",null,,,,,,,,,,,,,,,
math-period,205,536872,4766,"",,,,,,,,,,,4,,,,,
html-keyboard-response,206,536983,null,"",null,,,,,,,,,,,,,,,
math-period,207,539759,5137.899999976158,"",,,,,,,,,,,2,,,,,
html-keyboard-response,208,539866,null,"",null,,,,,,,,,,,,,,,
math-period,209,541921,3752.7999999821186,"",,,,,,,,,,,2,,,,,
html-keyboard-response,210,542032,null,"",null,,,,,,,,,,,,,,,
math-period,211,544416,4366.400000035763,"",,,,,,,,,,,5,,,,,
html-keyboard-response,212,544534,null,"",null,,,,,,,,,,,,,,,
math-period,213,545435,null,"",,,,,,,,,,,,,,,,
html-keyboard-response,214,546456,null,"Recall Period!",null,,,,,,,,,,,,,,,
call-function,215,546460,,"",,,,,,,,,,,,,,,,
html-keyboard-response,216,546565,null,"",null,,,,,,,,,,,,,,,
recall-period,217,556545,71655.40000006557,"",,,,,,,,,,,crevice,,,,,
html-keyboard-response,218,556649,null,"",null,,,,,,,,,,,,,,,
recall-period,219,559813,20680.199999839067,"",,,,,,,,,,,cattle,,,,,
html-keyboard-response,220,559932,null,"",null,,,,,,,,,,,,,,,
recall-period,221,562161,10840.000000089407,"",,,,,,,,,,,seagull,,,,,
html-keyboard-response,222,562268,null,"",null,,,,,,,,,,,,,,,
recall-period,223,563712,2915.5000000298023,"",,,,,,,,,,,ox,,,,,
html-keyboard-response,224,563818,null,"",null,,,,,,,,,,,,,,,
recall-period,225,567493,20133.599999964237,"",,,,,,,,,,,peanut,,,,,
html-keyboard-response,226,567597,null,"",null,,,,,,,,,,,,,,,
recall-period,227,570564,12217.799999982119,"",,,,,,,,,,,idol,,,,,
html-keyboard-response,228,570670,null,"",null,,,,,,,,,,,,,,,
recall-period,229,577522,38255.49999991059,"",,,,,,,,,,,agent,,,,,
html-keyboard-response,230,577637,null,"",null,,,,,,,,,,,,,,,
recall-period,231,621475,null,"",,,,,,,,,,,,,,,,
html-keyboard-response,232,621987,null,"Time's Up!",null,,,,,,,,,,,,,,,
html-keyboard-response,233,643647,21654.29999998212,"<p> Good job! You have responded correctly to 100% of the trials. </p>
                      <p>Be sure to only press the spacebar if you see a red square, and please keep your accuracy above 80%.</p>
                      <p> Press any key to continue the experiment. </p>",32,,,,,,,,,,,,,,,
html-keyboard-response,234,645588,1935.4000000059605,"<div style=""font-size:48px;"">Press any key to begin list 2 of 16 </div>",32,,,,,,,,,,,,,,,
html-keyboard-response,235,648097,null,"<div style=""font-size:60px;"">+</div>",null,,,,,,,,,,,,,,,
html-keyboard-response,236,648301,null,"<div style=""font-size:42px;"">COURSE</div><img id = ""stim"" ><div class = green_square id = topsquare></div>",null,encoding,word_square,,,0,topsquare,none,true,,,COURSE,1,,,
html-keyboard-response,237,648615,null,"<div style=""font-size:42px;"">COURSE</div>",null,,word,COURSE,,,,,,,,,,,,
html-keyboard-response,238,650130,null,"",null,,word,COURSE,,,,,,,,,,,,
html-keyboard-response,239,650345,null,"<div style=""font-size:42px;"">SAUSAGE</div><img id = ""stim"" ><div class = green_square id = bottomsquare></div>",null,encoding,word_square,,,0,bottomsquare,none,true,,,SAUSAGE,1,,,
html-keyboard-response,240,650655,null,"<div style=""font-size:42px;"">SAUSAGE</div>",null,,word,SAUSAGE,,,,,,,,,,,,
html-keyboard-response,241,652171,null,"",null,,word,SAUSAGE,,,,,,,,,,,,
html-keyboard-response,242,652381,null,"<div style=""font-size:42px;"">PARTNER</div><img id = ""stim"" ><div class = red_square id = bottomsquare></div>",null,encoding,word_square,,,1,bottomsquare,32,true,,,PARTNER,1,,,
html-keyboard-response,243,652690,null,"<div style=""font-size:42px;"">PARTNER</div>",null,,word,PARTNER,,,,,,,,,,,,
html-keyboard-response,244,654198,87.59999999403954,"",32,,word,PARTNER,,,,,,,,,,,,
html-keyboard-response,245,654413,null,"<div style=""font-size:42px;"">BOYFRIEND</div><img id = ""stim"" ><div class = green_square id = topsquare></div>",null,encoding,word_square,,,0,topsquare,none,true,,,BOYFRIEND,1,,,
html-keyboard-response,246,654719,null,"<div style=""font-size:42px;"">BOYFRIEND</div>",null,,word,BOYFRIEND,,,,,,,,,,,,
html-keyboard-response,247,656267,null,"",null,,word,BOYFRIEND,,,,,,,,,,,,
html-keyboard-response,248,656479,null,"<div style=""font-size:42px;"">CREATURE</div><img id = ""stim"" ><div class = green_square id = bottomsquare></div>",null,encoding,word_square,,,0,bottomsquare,none,true,,,CREATURE,1,,,
html-keyboard-response,249,656788,null,"<div style=""font-size:42px;"">CREATURE</div>",null,,word,CREATURE,,,,,,,,,,,,
html-keyboard-response,250,658294,null,"",null,,word,CREATURE,,,,,,,,,,,,
html-keyboard-response,251,658510,null,"<div style=""font-size:42px;"">COLUMN</div><img id = ""stim"" ><div class = red_square id = topsquare></div>",null,encoding,word_square,,,1,topsquare,32,true,,,COLUMN,1,,,
html-keyboard-response,252,658815,null,"<div style=""font-size:42px;"">COLUMN</div>",null,,word,COLUMN,,,,,,,,,,,,
html-keyboard-response,253,660327,8,"",32,,word,COLUMN,,,,,,,,,,,,
html-keyboard-response,254,660546,null,"<div style=""font-size:42px;"">DRIVER</div><img id = ""stim"" ><div class = red_square id = bottomsquare></div>",null,encoding,word_square,,,1,bottomsquare,32,true,,,DRIVER,1,,,
html-keyboard-response,255,660855,null,"<div style=""font-size:42px;"">DRIVER</div>",null,,word,DRIVER,,,,,,,,,,,,
html-keyboard-response,256,662362,32.30000001192093,"",32,,word,DRIVER,,,,,,,,,,,,
html-keyboard-response,257,662579,null,"<div style=""font-size:42px;"">TRUCK</div><img id = ""stim"" ><div class = green_square id = topsquare></div>",null,encoding,word_square,,,0,topsquare,none,true,,,TRUCK,1,,,
html-keyboard-response,258,662894,null,"<div style=""font-size:42px;"">TRUCK</div>",null,,word,TRUCK,,,,,,,,,,,,
html-keyboard-response,259,664409,null,"",null,,word,TRUCK,,,,,,,,,,,,
html-keyboard-response,260,664631,null,"<div style=""font-size:42px;"">RUBY</div><img id = ""stim"" ><div class = red_square id = topsquare></div>",null,encoding,word_square,,,1,topsquare,32,true,,,RUBY,1,,,
html-keyboard-response,261,664939,null,"<div style=""font-size:42px;"">RUBY</div>",null,,word,RUBY,,,,,,,,,,,,
html-keyboard-response,262,666447,69.2999999821186,"",32,,word,RUBY,,,,,,,,,,,,
html-keyboard-response,263,666672,null,"<div style=""font-size:42px;"">WASP</div><img id = ""stim"" ><div class = green_square id = bottomsquare></div>",null,encoding,word_square,,,0,bottomsquare,none,true,,,WASP,1,,,
html-keyboard-response,264,666975,null,"<div style=""font-size:42px;"">WASP</div>",null,,word,WASP,,,,,,,,,,,,
html-keyboard-response,265,668491,null,"",null,,word,WASP,,,,,,,,,,,,
html-keyboard-response,266,668704,null,"<div style=""font-size:42px;"">WHISKERS</div><img id = ""stim"" ><div class = red_square id = bottomsquare></div>",null,encoding,word_square,,,1,bottomsquare,32,true,,,WHISKERS,1,,,
html-keyboard-response,267,669022,220.10000002384186,"<div style=""font-size:42px;"">WHISKERS</div>",32,,word,WHISKERS,,,,,,,,,,,,
html-keyboard-response,268,670527,null,"",null,,word,WHISKERS,,,,,,,,,,,,
html-keyboard-response,269,670736,null,"<div style=""font-size:42px;"">RAZOR</div><img id = ""stim"" ><div class = red_square id = topsquare></div>",null,encoding,word_square,,,1,topsquare,32,true,,,RAZOR,1,,,
html-keyboard-response,270,671040,null,"<div style=""font-size:42px;"">RAZOR</div>",null,,word,RAZOR,,,,,,,,,,,,
html-keyboard-response,271,672546,136.19999998807907,"",32,,word,RAZOR,,,,,,,,,,,,
html-keyboard-response,272,672754,null,"<div style=""font-size:42px;"">CARPET</div><img id = ""stim"" ><div class = green_square id = topsquare></div>",null,encoding,word_square,,,0,topsquare,none,true,,,CARPET,1,,,
html-keyboard-response,273,673072,null,"<div style=""font-size:42px;"">CARPET</div>",null,,word,CARPET,,,,,,,,,,,,
html-keyboard-response,274,674579,null,"",null,,word,CARPET,,,,,,,,,,,,
html-keyboard-response,275,674798,null,"<div style=""font-size:42px;"">TOOTHPASTE</div><img id = ""stim"" ><div class = green_square id = bottomsquare></div>",null,encoding,word_square,,,0,bottomsquare,none,true,,,TOOTHPASTE,1,,,
html-keyboard-response,276,675108,null,"<div style=""font-size:42px;"">TOOTHPASTE</div>",null,,word,TOOTHPASTE,,,,,,,,,,,,
html-keyboard-response,277,676615,null,"",null,,word,TOOTHPASTE,,,,,,,,,,,,
html-keyboard-response,278,676830,null,"<div style=""font-size:42px;"">PAVEMENT</div><img id = ""stim"" ><div class = red_square id = bottomsquare></div>",null,encoding,word_square,,,1,bottomsquare,32,true,,,PAVEMENT,1,,,
html-keyboard-response,279,677137,230.30000001192093,"<div style=""font-size:42px;"">PAVEMENT</div>",32,,word,PAVEMENT,,,,,,,,,,,,
html-keyboard-response,280,678659,null,"",null,,word,PAVEMENT,,,,,,,,,,,,
html-keyboard-response,281,678880,null,"<div style=""font-size:42px;"">RUG</div><img id = ""stim"" ><div class = red_square id = topsquare></div>",null,encoding,word_square,,,1,topsquare,32,true,,,RUG,1,,,
html-keyboard-response,282,679203,null,"<div style=""font-size:42px;"">RUG</div>",null,,word,RUG,,,,,,,,,,,,
html-keyboard-response,283,680716,333.2000000178814,"",32,,word,RUG,,,,,,,,,,,,
call-function,284,680719,,"",,,,,,,,,,,,,,,,
html-keyboard-response,285,680835,null,"",null,,,,,,,,,,,,,,,
math-period,286,683996,5626.699999988079,"",,,,,,,,,,,3,,,,,
html-keyboard-response,287,684102,null,"",null,,,,,,,,,,,,,,,
math-period,288,686733,4929.0999999940395,"",,,,,,,,,,,1,,,,,
html-keyboard-response,289,686836,null,"",null,,,,,,,,,,,,,,,
math-period,290,689322,4685.099999964237,"",,,,,,,,,,,1,,,,,
html-keyboard-response,291,689435,null,"",null,,,,,,,,,,,,,,,
math-period,292,691309,3220.4000000059605,"",,,,,,,,,,,2,,,,,
html-keyboard-response,293,691421,null,"",null,,,,,,,,,,,,,,,
math-period,294,693140,3003.6999999582767,"",,,,,,,,,,,3,,,,,
html-keyboard-response,295,693252,null,"",null,,,,,,,,,,,,,,,
math-period,296,695873,4545.5,"",,,,,,,,,,,2,,,,,
html-keyboard-response,297,695986,null,"",null,,,,,,,,,,,,,,,
math-period,298,698309,4207.199999988079,"",,,,,,,,,,,4,,,,,
html-keyboard-response,299,698419,null,"",null,,,,,,,,,,,,,,,
math-period,300,700396,3273.7000000178814,"",,,,,,,,,,,4,,,,,
html-keyboard-response,301,700503,null,"",null,,,,,,,,,,,,,,,
math-period,302,703097,4781.499999970198,"",,,,,,,,,,,2,,,,,
html-keyboard-response,303,703203,null,"",null,,,,,,,,,,,,,,,
math-period,304,704724,1455.5,"",,,,,,,,,,,5,,,,,
html-keyboard-response,305,705737,null,"Recall Period!",null,,,,,,,,,,,,,,,
call-function,306,705740,,"",,,,,,,,,,,,,,,,
html-keyboard-response,307,705853,null,"",null,,,,,,,,,,,,,,,
recall-period,308,716358,67230.5,"",,,,,,,,,,,carpet,,,,,
html-keyboard-response,309,716470,null,"",null,,,,,,,,,,,,,,,
recall-period,310,718070,4178.300000041723,"",,,,,,,,,,,rug,,,,,
html-keyboard-response,311,718187,null,"",null,,,,,,,,,,,,,,,
recall-period,312,721112,16594.500000029802,"",,,,,,,,,,,toothpaste,,,,,
html-keyboard-response,313,721220,null,"",null,,,,,,,,,,,,,,,
recall-period,314,725268,15650.900000095367,"",,,,,,,,,,,whiskers,,,,,
html-keyboard-response,315,725375,null,"",null,,,,,,,,,,,,,,,
recall-period,316,729818,27617.600000053644,"",,,,,,,,,,,partner,,,,,
html-keyboard-response,317,729922,null,"",null,,,,,,,,,,,,,,,
recall-period,318,731836,6512.299999922514,"",,,,,,,,,,,ruby,,,,,
html-keyboard-response,319,731955,null,"",null,,,,,,,,,,,,,,,
recall-period,320,745869,91357.90000012517,"",,,,,,,,,,,boyfriend,,,,,
html-keyboard-response,321,745973,null,"",null,,,,,,,,,,,,,,,
recall-period,322,754842,89046.89999985695,"",,,,,,,,,,,truck,,,,,
html-keyboard-response,323,754955,null,"",null,,,,,,,,,,,,,,,
recall-period,324,758628,17524.699999928474,"",,,,,,,,,,,driver,,,,,
html-keyboard-response,325,758768,null,"",null,,,,,,,,,,,,,,,
recall-period,326,780757,null,"",,,,,,,,,,,,,,,,
html-keyboard-response,327,781278,null,"Time's Up!",null,,,,,,,,,,,,,,,
html-keyboard-response,328,791033,9750.09999999404,"<p> Good job! You have responded correctly to 100% of the trials. </p>
                      <p>Be sure to only press the spacebar if you see a red square, and please keep your accuracy above 80%.</p>
                      <p> Press any key to continue the experiment. </p>",32,,,,,,,,,,,,,,,
html-keyboard-response,329,792807,1770,"<div style=""font-size:48px;"">Press any key to begin list 3 of 16 </div>",32,,,,,,,,,,,,,,,
html-keyboard-response,330,795326,null,"<div style=""font-size:60px;"">+</div>",null,,,,,,,,,,,,,,,
html-keyboard-response,331,795534,null,"<div style=""font-size:42px;"">VILLAGE</div><img id = ""stim"" ><div class = green_square id = bottomsquare></div>",null,encoding,word_square,,,0,bottomsquare,none,true,,,VILLAGE,2,,,
html-keyboard-response,332,795849,null,"<div style=""font-size:42px;"">VILLAGE</div>",null,,word,VILLAGE,,,,,,,,,,,,
html-keyboard-response,333,797364,null,"",null,,word,VILLAGE,,,,,,,,,,,,
html-keyboard-response,334,797583,null,"<div style=""font-size:42px;"">LIGHTNING</div><img id = ""stim"" ><div class = green_square id = topsquare></div>",null,encoding,word_square,,,0,topsquare,none,true,,,LIGHTNING,2,,,
html-keyboard-response,335,797895,null,"<div style=""font-size:42px;"">LIGHTNING</div>",null,,word,LIGHTNING,,,,,,,,,,,,
html-keyboard-response,336,799415,null,"",null,,word,LIGHTNING,,,,,,,,,,,,
html-keyboard-response,337,799634,null,"<div style=""font-size:42px;"">NECKLACE</div><img id = ""stim"" ><div class = red_square id = topsquare></div>",null,encoding,word_square,,,1,topsquare,32,true,,,NECKLACE,2,,,
html-keyboard-response,338,799949,132.69999998807907,"<div style=""font-size:42px;"">NECKLACE</div>",32,,word,NECKLACE,,,,,,,,,,,,
html-keyboard-response,339,801464,null,"",null,,word,NECKLACE,,,,,,,,,,,,
html-keyboard-response,340,801676,null,"<div style=""font-size:42px;"">MISTER</div><img id = ""stim"" ><div class = red_square id = bottomsquare></div>",null,encoding,word_square,,,1,bottomsquare,32,true,,,MISTER,2,,,
html-keyboard-response,341,801991,null,"<div style=""font-size:42px;"">MISTER</div>",null,,word,MISTER,,,,,,,,,,,,
html-keyboard-response,342,803509,137.90000000596046,"",32,,word,MISTER,,,,,,,,,,,,
html-keyboard-response,343,803723,null,"<div style=""font-size:42px;"">NOMAD</div><img id = ""stim"" ><div class = green_square id = bottomsquare></div>",null,encoding,word_square,,,0,bottomsquare,none,true,,,NOMAD,2,,,
html-keyboard-response,344,804041,null,"<div style=""font-size:42px;"">NOMAD</div>",null,,word,NOMAD,,,,,,,,,,,,
html-keyboard-response,345,805550,null,"",null,,word,NOMAD,,,,,,,,,,,,
html-keyboard-response,346,805768,null,"<div style=""font-size:42px;"">PERSON</div><img id = ""stim"" ><div class = green_square id = topsquare></div>",null,encoding,word_square,,,0,topsquare,none,true,,,PERSON,2,,,
html-keyboard-response,347,806076,null,"<div style=""font-size:42px;"">PERSON</div>",null,,word,PERSON,,,,,,,,,,,,
html-keyboard-response,348,807583,null,"",null,,word,PERSON,,,,,,,,,,,,
html-keyboard-response,349,807800,null,"<div style=""font-size:42px;"">FLUTE</div><img id = ""stim"" ><div class = red_square id = topsquare></div>",null,encoding,word_square,,,1,topsquare,32,true,,,FLUTE,2,,,
html-keyboard-response,350,808118,161.59999999403954,"<div style=""font-size:42px;"">FLUTE</div>",32,,word,FLUTE,,,,,,,,,,,,
html-keyboard-response,351,809633,null,"",null,,word,FLUTE,,,,,,,,,,,,
html-keyboard-response,352,809848,null,"<div style=""font-size:42px;"">ICING</div><img id = ""stim"" ><div class = green_square id = bottomsquare></div>",null,encoding,word_square,,,0,bottomsquare,none,true,,,ICING,2,,,
html-keyboard-response,353,810160,null,"<div style=""font-size:42px;"">ICING</div>",null,,word,ICING,,,,,,,,,,,,
html-keyboard-response,354,811679,null,"",null,,word,ICING,,,,,,,,,,,,
html-keyboard-response,355,811897,null,"<div style=""font-size:42px;"">SLACKS</div><img id = ""stim"" ><div class = red_square id = bottomsquare></div>",null,encoding,word_square,,,1,bottomsquare,32,true,,,SLACKS,2,,,
html-keyboard-response,356,812214,96.80000001192093,"<div style=""font-size:42px;"">SLACKS</div>",32,,word,SLACKS,,,,,,,,,,,,
html-keyboard-response,357,813724,null,"",null,,word,SLACKS,,,,,,,,,,,,
html-keyboard-response,358,813935,null,"<div style=""font-size:42px;"">TABLE</div><img id = ""stim"" ><div class = green_square id = topsquare></div>",null,encoding,word_square,,,0,topsquare,none,true,,,TABLE,2,,,
html-keyboard-response,359,814245,null,"<div style=""font-size:42px;"">TABLE</div>",null,,word,TABLE,,,,,,,,,,,,
html-keyboard-response,360,815761,null,"",null,,word,TABLE,,,,,,,,,,,,
html-keyboard-response,361,815967,null,"<div style=""font-size:42px;"">COUCH</div><img id = ""stim"" ><div class = green_square id = bottomsquare></div>",null,encoding,word_square,,,0,bottomsquare,none,true,,,COUCH,2,,,
html-keyboard-response,362,816277,null,"<div style=""font-size:42px;"">COUCH</div>",null,,word,COUCH,,,,,,,,,,,,
html-keyboard-response,363,817788,null,"",null,,word,COUCH,,,,,,,,,,,,
html-keyboard-response,364,818000,null,"<div style=""font-size:42px;"">BULLET</div><img id = ""stim"" ><div class = red_square id = topsquare></div>",null,encoding,word_square,,,1,topsquare,32,true,,,BULLET,2,,,
html-keyboard-response,365,818318,151.30000001192093,"<div style=""font-size:42px;"">BULLET</div>",32,,word,BULLET,,,,,,,,,,,,
html-keyboard-response,366,819833,null,"",null,,word,BULLET,,,,,,,,,,,,
html-keyboard-response,367,820058,null,"<div style=""font-size:42px;"">FIDDLE</div><img id = ""stim"" ><div class = red_square id = bottomsquare></div>",null,encoding,word_square,,,1,bottomsquare,32,true,,,FIDDLE,2,,,
html-keyboard-response,368,820373,207.90000000596046,"<div style=""font-size:42px;"">FIDDLE</div>",32,,word,FIDDLE,,,,,,,,,,,,
html-keyboard-response,369,821879,null,"",null,,word,FIDDLE,,,,,,,,,,,,
html-keyboard-response,370,822084,null,"<div style=""font-size:42px;"">THIEF</div><img id = ""stim"" ><div class = green_square id = topsquare></div>",null,encoding,word_square,,,0,topsquare,none,true,,,THIEF,2,,,
html-keyboard-response,371,822395,null,"<div style=""font-size:42px;"">THIEF</div>",null,,word,THIEF,,,,,,,,,,,,
html-keyboard-response,372,823911,null,"",null,,word,THIEF,,,,,,,,,,,,
html-keyboard-response,373,824116,null,"<div style=""font-size:42px;"">VICTIM</div><img id = ""stim"" ><div class = red_square id = topsquare></div>",null,encoding,word_square,,,1,topsquare,32,true,,,VICTIM,2,,,
html-keyboard-response,374,824433,104.59999999403954,"<div style=""font-size:42px;"">VICTIM</div>",32,,word,VICTIM,,,,,,,,,,,,
html-keyboard-response,375,825945,null,"",null,,word,VICTIM,,,,,,,,,,,,
html-keyboard-response,376,826166,null,"<div style=""font-size:42px;"">BARLEY</div><img id = ""stim"" ><div class = red_square id = bottomsquare></div>",null,encoding,word_square,,,1,bottomsquare,32,true,,,BARLEY,2,,,
html-keyboard-response,377,826477,257.39999997615814,"<div style=""font-size:42px;"">BARLEY</div>",32,,word,BARLEY,,,,,,,,,,,,
html-keyboard-response,378,827988,null,"",null,,word,BARLEY,,,,,,,,,,,,
call-function,379,827991,,"",,,,,,,,,,,,,,,,
html-keyboard-response,380,828106,null,"",null,,,,,,,,,,,,,,,
math-period,381,831092,5418.800000041723,"",,,,,,,,,,,6,,,,,
html-keyboard-response,382,831206,null,"",null,,,,,,,,,,,,,,,
math-period,383,833279,3758.2000000178814,"",,,,,,,,,,,3,,,,,
html-keyboard-response,384,833389,null,"",null,,,,,,,,,,,,,,,
math-period,385,835519,3878.5999999940395,"",,,,,,,,,,,1,,,,,
html-keyboard-response,386,835625,null,"",null,,,,,,,,,,,,,,,
math-period,387,837382,3120.0999999940395,"",,,,,,,,,,,3,,,,,
html-keyboard-response,388,837491,null,"",null,,,,,,,,,,,,,,,
math-period,389,839774,4212.0999999940395,"",,,,,,,,,,,2,,,,,
html-keyboard-response,390,839881,null,"",null,,,,,,,,,,,,,,,
math-period,391,841921,3675.699999988079,"",,,,,,,,,,,4,,,,,
html-keyboard-response,392,842025,null,"",null,,,,,,,,,,,,,,,
math-period,393,843706,2976.099999964237,"",,,,,,,,,,,2,,,,,
html-keyboard-response,394,843824,null,"",null,,,,,,,,,,,,,,,
math-period,395,846040,3979,"",,,,,,,,,,,1,,,,,
html-keyboard-response,396,846157,null,"",null,,,,,,,,,,,,,,,
math-period,397,847992,3277.800000011921,"",,,,,,,,,,,3,,,,,
html-keyboard-response,398,848097,null,"",null,,,,,,,,,,,,,,,
math-period,399,850769,4910.5999999940395,"",,,,,,,,,,,3,,,,,
html-keyboard-response,400,850875,null,"",null,,,,,,,,,,,,,,,
math-period,401,852007,null,"",,,,,,,,,,,,,,,,
html-keyboard-response,402,853019,null,"Recall Period!",null,,,,,,,,,,,,,,,
call-function,403,853021,,"",,,,,,,,,,,,,,,,
html-keyboard-response,404,853140,null,"",null,,,,,,,,,,,,,,,
recall-period,405,867102,117043.69999989867,"",,,,,,,,,,,necklace,,,,,
html-keyboard-response,406,867208,null,"",null,,,,,,,,,,,,,,,
recall-period,407,871768,26225.199999958277,"",,,,,,,,,,,barley,,,,,
html-keyboard-response,408,871877,null,"",null,,,,,,,,,,,,,,,
recall-period,409,876525,23696.79999998212,"",,,,,,,,,,,nomad,,,,,
html-keyboard-response,410,876644,null,"",null,,,,,,,,,,,,,,,
recall-period,411,881670,26886,"",,,,,,,,,,,table,,,,,
html-keyboard-response,412,881775,null,"",null,,,,,,,,,,,,,,,
recall-period,413,883769,7468.799999892712,"",,,,,,,,,,,couch,,,,,
html-keyboard-response,414,883875,null,"",null,,,,,,,,,,,,,,,
recall-period,415,885542,6334.299999952316,"",,,,,,,,,,,flute,,,,,
html-keyboard-response,416,885658,null,"",null,,,,,,,,,,,,,,,
recall-period,417,888805,17556.20000010729,"",,,,,,,,,,,fiddle,,,,,
html-keyboard-response,418,888919,null,"",null,,,,,,,,,,,,,,,
recall-period,419,897367,55156.5,"",,,,,,,,,,,mister,,,,,
html-keyboard-response,420,897476,null,"",null,,,,,,,,,,,,,,,
recall-period,421,906735,52017.39999997616,"",,,,,,,,,,,icing,,,,,
html-keyboard-response,422,906846,null,"",null,,,,,,,,,,,,,,,
recall-period,423,923456,110989.5000000298,"",,,,,,,,,,,bullet,,,,,
html-keyboard-response,424,923560,null,"",null,,,,,,,,,,,,,,,
recall-period,425,928047,null,"",,,,,,,,,,,,,,,,
html-keyboard-response,426,928565,null,"Time's Up!",null,,,,,,,,,,,,,,,
html-keyboard-response,427,931769,3200,"<p> Good job! You have responded correctly to 100% of the trials. </p>
                      <p>Be sure to only press the spacebar if you see a red square, and please keep your accuracy above 80%.</p>
                      <p> Press any key to continue the experiment. </p>",13,,,,,,,,,,,,,,,
html-keyboard-response,428,933217,1442.5,"<div style=""font-size:48px;"">Press any key to begin list 4 of 16 </div>",32,,,,,,,,,,,,,,,
html-keyboard-response,429,935741,null,"<div style=""font-size:60px;"">+</div>",null,,,,,,,,,,,,,,,
html-keyboard-response,430,935955,null,"<div style=""font-size:42px;"">HAMMER</div><img id = ""stim"" ><div class = red_square id = bottomsquare></div>",null,encoding,word_square,,,1,bottomsquare,32,true,,,HAMMER,3,,,
html-keyboard-response,431,936262,null,"<div style=""font-size:42px;"">HAMMER</div>",null,,word,HAMMER,,,,,,,,,,,,
html-keyboard-response,432,937782,280.40000000596046,"",32,,word,HAMMER,,,,,,,,,,,,
html-keyboard-response,433,938003,null,"<div style=""font-size:42px;"">TURTLE</div><img id = ""stim"" ><div class = red_square id = topsquare></div>",null,encoding,word_square,,,1,topsquare,32,true,,,TURTLE,3,,,
html-keyboard-response,434,938313,null,"<div style=""font-size:42px;"">TURTLE</div>",null,,word,TURTLE,,,,,,,,,,,,
html-keyboard-response,435,939825,137.40000000596046,"",32,,word,TURTLE,,,,,,,,,,,,
html-keyboard-response,436,940038,null,"<div style=""font-size:42px;"">MAILMAN</div><img id = ""stim"" ><div class = green_square id = topsquare></div>",null,encoding,word_square,,,0,topsquare,none,true,,,MAILMAN,3,,,
html-keyboard-response,437,940347,null,"<div style=""font-size:42px;"">MAILMAN</div>",null,,word,MAILMAN,,,,,,,,,,,,
html-keyboard-response,438,941852,null,"",null,,word,MAILMAN,,,,,,,,,,,,
html-keyboard-response,439,942068,null,"<div style=""font-size:42px;"">NICKEL</div><img id = ""stim"" ><div class = red_square id = bottomsquare></div>",null,encoding,word_square,,,1,bottomsquare,32,true,,,NICKEL,3,,,
html-keyboard-response,440,942387,137.2999999821186,"<div style=""font-size:42px;"">NICKEL</div>",32,,word,NICKEL,,,,,,,,,,,,
html-keyboard-response,441,943899,null,"",null,,word,NICKEL,,,,,,,,,,,,
html-keyboard-response,442,944120,null,"<div style=""font-size:42px;"">MAILBOX</div><img id = ""stim"" ><div class = red_square id = topsquare></div>",null,encoding,word_square,,,1,topsquare,32,true,,,MAILBOX,3,,,
html-keyboard-response,443,944429,null,"<div style=""font-size:42px;"">MAILBOX</div>",null,,word,MAILBOX,,,,,,,,,,,,
html-keyboard-response,444,945945,31.799999982118607,"",32,,word,MAILBOX,,,,,,,,,,,,
html-keyboard-response,445,946154,null,"<div style=""font-size:42px;"">STICKER</div><img id = ""stim"" ><div class = green_square id = bottomsquare></div>",null,encoding,word_square,,,0,bottomsquare,none,true,,,STICKER,3,,,
html-keyboard-response,446,946464,null,"<div style=""font-size:42px;"">STICKER</div>",null,,word,STICKER,,,,,,,,,,,,
html-keyboard-response,447,947977,null,"",null,,word,STICKER,,,,,,,,,,,,
html-keyboard-response,448,948187,null,"<div style=""font-size:42px;"">SCALLOP</div><img id = ""stim"" ><div class = green_square id = topsquare></div>",null,encoding,word_square,,,0,topsquare,none,true,,,SCALLOP,3,,,
html-keyboard-response,449,948497,null,"<div style=""font-size:42px;"">SCALLOP</div>",null,,word,SCALLOP,,,,,,,,,,,,
html-keyboard-response,450,950023,null,"",null,,word,SCALLOP,,,,,,,,,,,,
html-keyboard-response,451,950235,null,"<div style=""font-size:42px;"">SALT</div><img id = ""stim"" ><div class = red_square id = bottomsquare></div>",null,encoding,word_square,,,1,bottomsquare,32,true,,,SALT,3,,,
html-keyboard-response,452,950552,108.40000000596046,"<div style=""font-size:42px;"">SALT</div>",32,,word,SALT,,,,,,,,,,,,
html-keyboard-response,453,952059,null,"",null,,word,SALT,,,,,,,,,,,,
html-keyboard-response,454,952271,null,"<div style=""font-size:42px;"">SHRUB</div><img id = ""stim"" ><div class = green_square id = bottomsquare></div>",null,encoding,word_square,,,0,bottomsquare,none,true,,,SHRUB,3,,,
html-keyboard-response,455,952580,null,"<div style=""font-size:42px;"">SHRUB</div>",null,,word,SHRUB,,,,,,,,,,,,
html-keyboard-response,456,954099,null,"",null,,word,SHRUB,,,,,,,,,,,,
html-keyboard-response,457,954318,null,"<div style=""font-size:42px;"">CREEK</div><img id = ""stim"" ><div class = red_square id = topsquare></div>",null,encoding,word_square,,,1,topsquare,32,true,,,CREEK,3,,,
html-keyboard-response,458,954628,192.10000002384186,"<div style=""font-size:42px;"">CREEK</div>",32,,word,CREEK,,,,,,,,,,,,
html-keyboard-response,459,956134,null,"",null,,word,CREEK,,,,,,,,,,,,
html-keyboard-response,460,956354,null,"<div style=""font-size:42px;"">MEAT</div><img id = ""stim"" ><div class = green_square id = topsquare></div>",null,encoding,word_square,,,0,topsquare,none,true,,,MEAT,3,,,
html-keyboard-response,461,956681,null,"<div style=""font-size:42px;"">MEAT</div>",null,,word,MEAT,,,,,,,,,,,,
html-keyboard-response,462,958198,null,"",null,,word,MEAT,,,,,,,,,,,,
html-keyboard-response,463,958407,null,"<div style=""font-size:42px;"">BRIDE</div><img id = ""stim"" ><div class = green_square id = bottomsquare></div>",null,encoding,word_square,,,0,bottomsquare,none,true,,,BRIDE,3,,,
html-keyboard-response,464,958714,null,"<div style=""font-size:42px;"">BRIDE</div>",null,,word,BRIDE,,,,,,,,,,,,
html-keyboard-response,465,960233,null,"",null,,word,BRIDE,,,,,,,,,,,,
html-keyboard-response,466,960453,null,"<div style=""font-size:42px;"">MOTOR</div><img id = ""stim"" ><div class = red_square id = bottomsquare></div>",null,encoding,word_square,,,1,bottomsquare,32,true,,,MOTOR,3,,,
html-keyboard-response,467,960760,104.5,"<div style=""font-size:42px;"">MOTOR</div>",32,,word,MOTOR,,,,,,,,,,,,
html-keyboard-response,468,962268,null,"",null,,word,MOTOR,,,,,,,,,,,,
html-keyboard-response,469,962486,null,"<div style=""font-size:42px;"">VALVE</div><img id = ""stim"" ><div class = red_square id = topsquare></div>",null,encoding,word_square,,,1,topsquare,32,true,,,VALVE,3,,,
html-keyboard-response,470,962793,172.5,"<div style=""font-size:42px;"">VALVE</div>",32,,word,VALVE,,,,,,,,,,,,
html-keyboard-response,471,964300,null,"",null,,word,VALVE,,,,,,,,,,,,
html-keyboard-response,472,964518,null,"<div style=""font-size:42px;"">BEEF</div><img id = ""stim"" ><div class = green_square id = topsquare></div>",null,encoding,word_square,,,0,topsquare,none,true,,,BEEF,3,,,
html-keyboard-response,473,964838,null,"<div style=""font-size:42px;"">BEEF</div>",null,,word,BEEF,,,,,,,,,,,,
html-keyboard-response,474,966351,null,"",null,,word,BEEF,,,,,,,,,,,,
html-keyboard-response,475,966569,null,"<div style=""font-size:42px;"">HUMAN</div><img id = ""stim"" ><div class = green_square id = bottomsquare></div>",null,encoding,word_square,,,0,bottomsquare,none,true,,,HUMAN,3,,,
html-keyboard-response,476,966884,null,"<div style=""font-size:42px;"">HUMAN</div>",null,,word,HUMAN,,,,,,,,,,,,
html-keyboard-response,477,968402,null,"",null,,word,HUMAN,,,,,,,,,,,,
call-function,478,968408,,"",,,,,,,,,,,,,,,,
html-keyboard-response,479,968525,null,"",null,,,,,,,,,,,,,,,
math-period,480,971559,5139,"",,,,,,,,,,,3,,,,,
html-keyboard-response,481,971668,null,"",null,,,,,,,,,,,,,,,
math-period,482,973804,3938.2000000178814,"",,,,,,,,,,,2,,,,,
html-keyboard-response,483,973913,null,"",null,,,,,,,,,,,,,,,
math-period,484,976106,3978,"",,,,,,,,,,,1,,,,,
html-keyboard-response,485,976213,null,"",null,,,,,,,,,,,,,,,
math-period,486,978232,3550.400000035763,"",,,,,,,,,,,2,,,,,
html-keyboard-response,487,978345,null,"",null,,,,,,,,,,,,,,,
math-period,488,980684,4289.800000011921,"",,,,,,,,,,,1,,,,,
html-keyboard-response,489,980796,null,"",null,,,,,,,,,,,,,,,
math-period,490,982453,2938.2999999821186,"",,,,,,,,,,,4,,,,,
html-keyboard-response,491,982563,null,"",null,,,,,,,,,,,,,,,
math-period,492,984382,3287.0000000298023,"",,,,,,,,,,,2,,,,,
html-keyboard-response,493,984496,null,"",null,,,,,,,,,,,,,,,
math-period,494,986205,3047.4000000059605,"",,,,,,,,,,,3,,,,,
html-keyboard-response,495,986310,null,"",null,,,,,,,,,,,,,,,
math-period,496,988432,3861.199999988079,"",,,,,,,,,,,1,,,,,
html-keyboard-response,497,988544,null,"",null,,,,,,,,,,,,,,,
math-period,498,990449,3419.7999999821186,"",,,,,,,,,,,3,,,,,
html-keyboard-response,499,990562,null,"",null,,,,,,,,,,,,,,,
math-period,500,992418,1581,"",,,,,,,,,,,2,,,,,
html-keyboard-response,501,993443,null,"Recall Period!",null,,,,,,,,,,,,,,,
call-function,502,993445,,"",,,,,,,,,,,,,,,,
html-keyboard-response,503,993561,null,"",null,,,,,,,,,,,,,,,
recall-period,504,998537,27711.600000053644,"",,,,,,,,,,,mailbox,,,,,
html-keyboard-response,505,998645,null,"",null,,,,,,,,,,,,,,,
recall-period,506,1001190,12451.600000083447,"",,,,,,,,,,,mailman,,,,,
html-keyboard-response,507,1001295,null,"",null,,,,,,,,,,,,,,,
recall-period,508,1013933,65307.299999952316,"",,,,,,,,,,,beef ,,,,,
html-keyboard-response,509,1014045,null,"",null,,,,,,,,,,,,,,,
recall-period,510,1015383,4664.800000011921,"",,,,,,,,,,,meat,,,,,
html-keyboard-response,511,1015496,null,"",null,,,,,,,,,,,,,,,
recall-period,512,1017564,8049.5999999940395,"",,,,,,,,,,,human,,,,,
html-keyboard-response,513,1017681,null,"",null,,,,,,,,,,,,,,,
recall-period,514,1030991,76544.09999999404,"",,,,,,,,,,,bride,,,,,
html-keyboard-response,515,1031095,null,"",null,,,,,,,,,,,,,,,
recall-period,516,1033792,16779.899999946356,"",,,,,,,,,,,sticker,,,,,
html-keyboard-response,517,1033896,null,"",null,,,,,,,,,,,,,,,
recall-period,518,1036265,10805.900000065565,"",,,,,,,,,,,nickle,,,,,
html-keyboard-response,519,1036380,null,"",null,,,,,,,,,,,,,,,
recall-period,520,1043505,44903.59999996424,"",,,,,,,,,,,turtle,,,,,
html-keyboard-response,521,1043614,null,"",null,,,,,,,,,,,,,,,
recall-period,522,1051029,41515.99999991059,"",,,,,,,,,,,motor,,,,,
html-keyboard-response,523,1051147,null,"",null,,,,,,,,,,,,,,,
recall-period,524,1068450,null,"",,,,,,,,,,,,,,,,
html-keyboard-response,525,1068970,null,"Time's Up!",null,,,,,,,,,,,,,,,
html-keyboard-response,526,1071016,2041.6000000238419,"<p> Good job! You have responded correctly to 100% of the trials. </p>
                      <p>Be sure to only press the spacebar if you see a red square, and please keep your accuracy above 80%.</p>
                      <p> Press any key to continue the experiment. </p>",32,,,,,,,,,,,,,,,
html-keyboard-response,527,1074954,3934.2000000178814,"<div style=""font-size:48px;"">Press any key to begin list 5 of 16 </div>",32,,,,,,,,,,,,,,,
html-keyboard-response,528,1077481,null,"<div style=""font-size:60px;"">+</div>",null,,,,,,,,,,,,,,,
html-keyboard-response,529,1077692,null,"<div style=""font-size:42px;"">SHARK</div><img id = ""stim"" ><div class = red_square id = topsquare></div>",null,encoding,word_square,,,1,topsquare,32,true,,,SHARK,4,,,
html-keyboard-response,530,1078000,null,"<div style=""font-size:42px;"">SHARK</div>",null,,word,SHARK,,,,,,,,,,,,
html-keyboard-response,531,1079512,125,"",32,,word,SHARK,,,,,,,,,,,,
html-keyboard-response,532,1079726,null,"<div style=""font-size:42px;"">HOOK</div><img id = ""stim"" ><div class = green_square id = bottomsquare></div>",null,encoding,word_square,,,0,bottomsquare,none,true,,,HOOK,4,,,
html-keyboard-response,533,1080034,null,"<div style=""font-size:42px;"">HOOK</div>",null,,word,HOOK,,,,,,,,,,,,
html-keyboard-response,534,1081543,null,"",null,,word,HOOK,,,,,,,,,,,,
html-keyboard-response,535,1081758,null,"<div style=""font-size:42px;"">SPOON</div><img id = ""stim"" ><div class = red_square id = bottomsquare></div>",null,encoding,word_square,,,1,bottomsquare,32,true,,,SPOON,4,,,
html-keyboard-response,536,1082078,170.19999998807907,"<div style=""font-size:42px;"">SPOON</div>",32,,word,SPOON,,,,,,,,,,,,
html-keyboard-response,537,1083590,null,"",null,,word,SPOON,,,,,,,,,,,,
html-keyboard-response,538,1083807,null,"<div style=""font-size:42px;"">SCALPEL</div><img id = ""stim"" ><div class = red_square id = topsquare></div>",null,encoding,word_square,,,1,topsquare,32,true,,,SCALPEL,4,,,
html-keyboard-response,539,1084119,null,"<div style=""font-size:42px;"">SCALPEL</div>",null,,word,SCALPEL,,,,,,,,,,,,
html-keyboard-response,540,1085638,11.300000011920929,"",32,,word,SCALPEL,,,,,,,,,,,,
html-keyboard-response,541,1085857,null,"<div style=""font-size:42px;"">MONGOOSE</div><img id = ""stim"" ><div class = green_square id = topsquare></div>",null,encoding,word_square,,,0,topsquare,none,true,,,MONGOOSE,4,,,
html-keyboard-response,542,1086163,null,"<div style=""font-size:42px;"">MONGOOSE</div>",null,,word,MONGOOSE,,,,,,,,,,,,
html-keyboard-response,543,1087670,null,"",null,,word,MONGOOSE,,,,,,,,,,,,
html-keyboard-response,544,1087876,null,"<div style=""font-size:42px;"">CAFE</div><img id = ""stim"" ><div class = green_square id = bottomsquare></div>",null,encoding,word_square,,,0,bottomsquare,none,true,,,CAFE,4,,,
html-keyboard-response,545,1088187,null,"<div style=""font-size:42px;"">CAFE</div>",null,,word,CAFE,,,,,,,,,,,,
html-keyboard-response,546,1089702,null,"",null,,word,CAFE,,,,,,,,,,,,
html-keyboard-response,547,1089907,null,"<div style=""font-size:42px;"">PERCH</div><img id = ""stim"" ><div class = red_square id = bottomsquare></div>",null,encoding,word_square,,,1,bottomsquare,32,true,,,PERCH,4,,,
html-keyboard-response,548,1090224,121.40000000596046,"<div style=""font-size:42px;"">PERCH</div>",32,,word,PERCH,,,,,,,,,,,,
html-keyboard-response,549,1091736,null,"",null,,word,PERCH,,,,,,,,,,,,
html-keyboard-response,550,1091955,null,"<div style=""font-size:42px;"">LIST</div><img id = ""stim"" ><div class = green_square id = topsquare></div>",null,encoding,word_square,,,0,topsquare,none,true,,,LIST,4,,,
html-keyboard-response,551,1092268,null,"<div style=""font-size:42px;"">LIST</div>",null,,word,LIST,,,,,,,,,,,,
html-keyboard-response,552,1093783,null,"",null,,word,LIST,,,,,,,,,,,,
html-keyboard-response,553,1094000,null,"<div style=""font-size:42px;"">BLOCKADE</div><img id = ""stim"" ><div class = red_square id = topsquare></div>",null,encoding,word_square,,,1,topsquare,32,true,,,BLOCKADE,4,,,
html-keyboard-response,554,1094314,232.09999999403954,"<div style=""font-size:42px;"">BLOCKADE</div>",32,,word,BLOCKADE,,,,,,,,,,,,
html-keyboard-response,555,1095823,null,"",null,,word,BLOCKADE,,,,,,,,,,,,
html-keyboard-response,556,1096040,null,"<div style=""font-size:42px;"">DESSERT</div><img id = ""stim"" ><div class = green_square id = bottomsquare></div>",null,encoding,word_square,,,0,bottomsquare,none,true,,,DESSERT,4,,,
html-keyboard-response,557,1096351,null,"<div style=""font-size:42px;"">DESSERT</div>",null,,word,DESSERT,,,,,,,,,,,,
html-keyboard-response,558,1097857,null,"",null,,word,DESSERT,,,,,,,,,,,,
html-keyboard-response,559,1098071,null,"<div style=""font-size:42px;"">PIMPLE</div><img id = ""stim"" ><div class = green_square id = topsquare></div>",null,encoding,word_square,,,0,topsquare,none,true,,,PIMPLE,4,,,
html-keyboard-response,560,1098383,null,"<div style=""font-size:42px;"">PIMPLE</div>",null,,word,PIMPLE,,,,,,,,,,,,
html-keyboard-response,561,1099902,null,"",null,,word,PIMPLE,,,,,,,,,,,,
html-keyboard-response,562,1100123,null,"<div style=""font-size:42px;"">HOSTAGE</div><img id = ""stim"" ><div class = red_square id = bottomsquare></div>",null,encoding,word_square,,,1,bottomsquare,32,true,,,HOSTAGE,4,,,
html-keyboard-response,563,1100433,null,"<div style=""font-size:42px;"">HOSTAGE</div>",null,,word,HOSTAGE,,,,,,,,,,,,
html-keyboard-response,564,1101953,120.09999999403954,"",32,,word,HOSTAGE,,,,,,,,,,,,
html-keyboard-response,565,1102170,null,"<div style=""font-size:42px;"">CRITIC</div><img id = ""stim"" ><div class = red_square id = topsquare></div>",null,encoding,word_square,,,1,topsquare,32,true,,,CRITIC,4,,,
html-keyboard-response,566,1102483,null,"<div style=""font-size:42px;"">CRITIC</div>",null,,word,CRITIC,,,,,,,,,,,,
html-keyboard-response,567,1103990,90.60000002384186,"",32,,word,CRITIC,,,,,,,,,,,,
html-keyboard-response,568,1104207,null,"<div style=""font-size:42px;"">BACKBONE</div><img id = ""stim"" ><div class = green_square id = bottomsquare></div>",null,encoding,word_square,,,0,bottomsquare,none,true,,,BACKBONE,4,,,
html-keyboard-response,569,1104532,null,"<div style=""font-size:42px;"">BACKBONE</div>",null,,word,BACKBONE,,,,,,,,,,,,
html-keyboard-response,570,1106050,null,"",null,,word,BACKBONE,,,,,,,,,,,,
html-keyboard-response,571,1106259,null,"<div style=""font-size:42px;"">CHEST</div><img id = ""stim"" ><div class = green_square id = topsquare></div>",null,encoding,word_square,,,0,topsquare,none,true,,,CHEST,4,,,
html-keyboard-response,572,1106569,null,"<div style=""font-size:42px;"">CHEST</div>",null,,word,CHEST,,,,,,,,,,,,
html-keyboard-response,573,1108090,null,"",null,,word,CHEST,,,,,,,,,,,,
html-keyboard-response,574,1108307,null,"<div style=""font-size:42px;"">CLIFF</div><img id = ""stim"" ><div class = red_square id = bottomsquare></div>",null,encoding,word_square,,,1,bottomsquare,32,true,,,CLIFF,4,,,
html-keyboard-response,575,1108617,null,"<div style=""font-size:42px;"">CLIFF</div>",null,,word,CLIFF,,,,,,,,,,,,
html-keyboard-response,576,1110134,174.59999999403954,"",32,,word,CLIFF,,,,,,,,,,,,
call-function,577,1110138,,"",,,,,,,,,,,,,,,,
html-keyboard-response,578,1110247,null,"",null,,,,,,,,,,,,,,,
math-period,579,1112716,4305.899999976158,"",,,,,,,,,,,4,,,,,
html-keyboard-response,580,1112832,null,"",null,,,,,,,,,,,,,,,
math-period,581,1115787,4598.799999982119,"",,,,,,,,,,,5,,,,,
html-keyboard-response,582,1115899,null,"",null,,,,,,,,,,,,,,,
math-period,583,1118245,4234.699999988079,"",,,,,,,,,,,1,,,,,
html-keyboard-response,584,1118355,null,"",null,,,,,,,,,,,,,,,
math-period,585,1120488,3760.599999964237,"",,,,,,,,,,,5,,,,,
html-keyboard-response,586,1120598,null,"",null,,,,,,,,,,,,,,,
math-period,587,1123112,4632.5,"",,,,,,,,,,,3,,,,,
html-keyboard-response,588,1123232,null,"",null,,,,,,,,,,,,,,,
math-period,589,1125645,4326.500000029802,"",,,,,,,,,,,2,,,,,
html-keyboard-response,590,1125763,null,"",null,,,,,,,,,,,,,,,
math-period,591,1127429,2965.699999988079,"",,,,,,,,,,,4,,,,,
html-keyboard-response,592,1127547,null,"",null,,,,,,,,,,,,,,,
math-period,593,1129712,3961.2999999821186,"",,,,,,,,,,,2,,,,,
html-keyboard-response,594,1129829,null,"",null,,,,,,,,,,,,,,,
math-period,595,1131659,3337.4999999701977,"",,,,,,,,,,,2,,,,,
html-keyboard-response,596,1131765,null,"",null,,,,,,,,,,,,,,,
math-period,597,1133878,3903,"",,,,,,,,,,,1,,,,,
html-keyboard-response,598,1133996,null,"",null,,,,,,,,,,,,,,,
math-period,599,1134147,null,"",,,,,,,,,,,,,,,,
html-keyboard-response,600,1135154,null,"Recall Period!",null,,,,,,,,,,,,,,,
call-function,601,1135158,,"",,,,,,,,,,,,,,,,
html-keyboard-response,602,1135266,null,"",null,,,,,,,,,,,,,,,
recall-period,603,1140074,24660.199999898672,"",,,,,,,,,,,spoon,,,,,
html-keyboard-response,604,1140179,null,"",null,,,,,,,,,,,,,,,
recall-period,605,1143409,16941.600000083447,"",,,,,,,,,,,scalpel,,,,,
html-keyboard-response,606,1143514,null,"",null,,,,,,,,,,,,,,,
recall-period,607,1162965,166117,"",,,,,,,,,,,mongoose,,,,,
html-keyboard-response,608,1163084,null,"",null,,,,,,,,,,,,,,,
recall-period,609,1172981,68902.70000001788,"",,,,,,,,,,,dessert,,,,,
html-keyboard-response,610,1173110,null,"",null,,,,,,,,,,,,,,,
recall-period,611,1183435,53723.4999999702,"",,,,,,,,,,,chest,,,,,
html-keyboard-response,612,1183541,null,"",null,,,,,,,,,,,,,,,
recall-period,613,1187607,22322.400000065565,"",,,,,,,,,,,backbone,,,,,
html-keyboard-response,614,1187719,null,"",null,,,,,,,,,,,,,,,
recall-period,615,1194216,39941.200000047684,"",,,,,,,,,,,pimple,,,,,
html-keyboard-response,616,1194333,null,"",null,,,,,,,,,,,,,,,
recall-period,617,1204625,75929.39999991655,"",,,,,,,,,,,hostage,,,,,
html-keyboard-response,618,1204736,null,"",null,,,,,,,,,,,,,,,
recall-period,619,1210171,null,"",,,,,,,,,,,,,,,,
html-keyboard-response,620,1210678,null,"Time's Up!",null,,,,,,,,,,,,,,,
html-keyboard-response,621,1210998,310.40000000596046,"<p> Good job! You have responded correctly to 100% of the trials. </p>
                      <p>Be sure to only press the spacebar if you see a red square, and please keep your accuracy above 80%.</p>
                      <p> Press any key to continue the experiment. </p>",67,,,,,,,,,,,,,,,
html-keyboard-response,622,1211258,254.90000000596046,"<div style=""font-size:48px;"">Press any key to begin list 6 of 16 </div>",76,,,,,,,,,,,,,,,
html-keyboard-response,623,1213782,null,"<div style=""font-size:60px;"">+</div>",null,,,,,,,,,,,,,,,
html-keyboard-response,624,1213994,null,"<div style=""font-size:42px;"">DOUGHNUT</div><img id = ""stim"" ><div class = red_square id = bottomsquare></div>",null,encoding,word_square,,,1,bottomsquare,32,true,,,DOUGHNUT,5,,,
html-keyboard-response,625,1214304,null,"<div style=""font-size:42px;"">DOUGHNUT</div>",null,,word,DOUGHNUT,,,,,,,,,,,,
html-keyboard-response,626,1215815,862.9000000059605,"",32,,word,DOUGHNUT,,,,,,,,,,,,
html-keyboard-response,627,1216028,null,"<div style=""font-size:42px;"">SCULPTURE</div><img id = ""stim"" ><div class = green_square id = topsquare></div>",null,encoding,word_square,,,0,topsquare,none,true,,,SCULPTURE,5,,,
html-keyboard-response,628,1216338,null,"<div style=""font-size:42px;"">SCULPTURE</div>",null,,word,SCULPTURE,,,,,,,,,,,,
html-keyboard-response,629,1217844,null,"",null,,word,SCULPTURE,,,,,,,,,,,,
html-keyboard-response,630,1218063,null,"<div style=""font-size:42px;"">PLASTER</div><img id = ""stim"" ><div class = green_square id = bottomsquare></div>",null,encoding,word_square,,,0,bottomsquare,none,true,,,PLASTER,5,,,
html-keyboard-response,631,1218371,null,"<div style=""font-size:42px;"">PLASTER</div>",null,,word,PLASTER,,,,,,,,,,,,
html-keyboard-response,632,1219876,null,"",null,,word,PLASTER,,,,,,,,,,,,
html-keyboard-response,633,1220095,null,"<div style=""font-size:42px;"">LETTUCE</div><img id = ""stim"" ><div class = red_square id = topsquare></div>",null,encoding,word_square,,,1,topsquare,32,true,,,LETTUCE,5,,,
html-keyboard-response,634,1220405,null,"<div style=""font-size:42px;"">LETTUCE</div>",null,,word,LETTUCE,,,,,,,,,,,,
html-keyboard-response,635,1221924,43.20000001788139,"",32,,word,LETTUCE,,,,,,,,,,,,
html-keyboard-response,636,1222142,null,"<div style=""font-size:42px;"">BUTLER</div><img id = ""stim"" ><div class = red_square id = bottomsquare></div>",null,encoding,word_square,,,1,bottomsquare,32,true,,,BUTLER,5,,,
html-keyboard-response,637,1222448,301.09999999403954,"<div style=""font-size:42px;"">BUTLER</div>",32,,word,BUTLER,,,,,,,,,,,,
html-keyboard-response,638,1223968,null,"",null,,word,BUTLER,,,,,,,,,,,,
html-keyboard-response,639,1224180,null,"<div style=""font-size:42px;"">BANKER</div><img id = ""stim"" ><div class = green_square id = topsquare></div>",null,encoding,word_square,,,0,topsquare,none,true,,,BANKER,5,,,
html-keyboard-response,640,1224488,null,"<div style=""font-size:42px;"">BANKER</div>",null,,word,BANKER,,,,,,,,,,,,
html-keyboard-response,641,1226001,null,"",null,,word,BANKER,,,,,,,,,,,,
html-keyboard-response,642,1226212,null,"<div style=""font-size:42px;"">WALNUT</div><img id = ""stim"" ><div class = green_square id = bottomsquare></div>",null,encoding,word_square,,,0,bottomsquare,none,true,,,WALNUT,5,,,
html-keyboard-response,643,1226522,null,"<div style=""font-size:42px;"">WALNUT</div>",null,,word,WALNUT,,,,,,,,,,,,
html-keyboard-response,644,1228032,null,"",null,,word,WALNUT,,,,,,,,,,,,
html-keyboard-response,645,1228247,null,"<div style=""font-size:42px;"">POND</div><img id = ""stim"" ><div class = red_square id = topsquare></div>",null,encoding,word_square,,,1,topsquare,32,true,,,POND,5,,,
html-keyboard-response,646,1228566,170.09999999403954,"<div style=""font-size:42px;"">POND</div>",32,,word,POND,,,,,,,,,,,,
html-keyboard-response,647,1230079,null,"",null,,word,POND,,,,,,,,,,,,
html-keyboard-response,648,1230295,null,"<div style=""font-size:42px;"">DANDRUFF</div><img id = ""stim"" ><div class = green_square id = topsquare></div>",null,encoding,word_square,,,0,topsquare,none,true,,,DANDRUFF,5,,,
html-keyboard-response,649,1230604,null,"<div style=""font-size:42px;"">DANDRUFF</div>",null,,word,DANDRUFF,,,,,,,,,,,,
html-keyboard-response,650,1232110,null,"",null,,word,DANDRUFF,,,,,,,,,,,,
html-keyboard-response,651,1232328,null,"<div style=""font-size:42px;"">ZIPPER</div><img id = ""stim"" ><div class = red_square id = bottomsquare></div>",null,encoding,word_square,,,1,bottomsquare,32,true,,,ZIPPER,5,,,
html-keyboard-response,652,1232632,284,"<div style=""font-size:42px;"">ZIPPER</div>",32,,word,ZIPPER,,,,,,,,,,,,
html-keyboard-response,653,1234143,null,"",null,,word,ZIPPER,,,,,,,,,,,,
html-keyboard-response,654,1234362,null,"<div style=""font-size:42px;"">SHORTS</div><img id = ""stim"" ><div class = green_square id = bottomsquare></div>",null,encoding,word_square,,,0,bottomsquare,none,true,,,SHORTS,5,,,
html-keyboard-response,655,1234672,null,"<div style=""font-size:42px;"">SHORTS</div>",null,,word,SHORTS,,,,,,,,,,,,
html-keyboard-response,656,1236185,null,"",null,,word,SHORTS,,,,,,,,,,,,
html-keyboard-response,657,1236397,null,"<div style=""font-size:42px;"">YOLK</div><img id = ""stim"" ><div class = green_square id = topsquare></div>",null,encoding,word_square,,,0,topsquare,none,true,,,YOLK,5,,,
html-keyboard-response,658,1236704,null,"<div style=""font-size:42px;"">YOLK</div>",null,,word,YOLK,,,,,,,,,,,,
html-keyboard-response,659,1238230,null,"",null,,word,YOLK,,,,,,,,,,,,
html-keyboard-response,660,1238444,null,"<div style=""font-size:42px;"">ROOSTER</div><img id = ""stim"" ><div class = red_square id = topsquare></div>",null,encoding,word_square,,,1,topsquare,32,true,,,ROOSTER,5,,,
html-keyboard-response,661,1238753,null,"<div style=""font-size:42px;"">ROOSTER</div>",null,,word,ROOSTER,,,,,,,,,,,,
html-keyboard-response,662,1240270,143.2999999821186,"",32,,word,ROOSTER,,,,,,,,,,,,
html-keyboard-response,663,1240481,null,"<div style=""font-size:42px;"">TRENCH</div><img id = ""stim"" ><div class = red_square id = bottomsquare></div>",null,encoding,word_square,,,1,bottomsquare,32,true,,,TRENCH,5,,,
html-keyboard-response,664,1240787,293.40000000596046,"<div style=""font-size:42px;"">TRENCH</div>",32,,word,TRENCH,,,,,,,,,,,,
html-keyboard-response,665,1242293,null,"",null,,word,TRENCH,,,,,,,,,,,,
html-keyboard-response,666,1242513,null,"<div style=""font-size:42px;"">CANDY</div><img id = ""stim"" ><div class = green_square id = bottomsquare></div>",null,encoding,word_square,,,0,bottomsquare,none,true,,,CANDY,5,,,
html-keyboard-response,667,1242824,null,"<div style=""font-size:42px;"">CANDY</div>",null,,word,CANDY,,,,,,,,,,,,
html-keyboard-response,668,1244343,null,"",null,,word,CANDY,,,,,,,,,,,,
html-keyboard-response,669,1244560,null,"<div style=""font-size:42px;"">TROUSERS</div><img id = ""stim"" ><div class = red_square id = topsquare></div>",null,encoding,word_square,,,1,topsquare,32,true,,,TROUSERS,5,,,
html-keyboard-response,670,1244876,null,"<div style=""font-size:42px;"">TROUSERS</div>",null,,word,TROUSERS,,,,,,,,,,,,
html-keyboard-response,671,1246386,137.40000000596046,"",32,,word,TROUSERS,,,,,,,,,,,,
call-function,672,1246390,,"",,,,,,,,,,,,,,,,
html-keyboard-response,673,1246503,null,"",null,,,,,,,,,,,,,,,
math-period,674,1249033,4621.799999982119,"",,,,,,,,,,,5,,,,,
html-keyboard-response,675,1249138,null,"",null,,,,,,,,,,,,,,,
math-period,676,1251420,4106.199999988079,"",,,,,,,,,,,1,,,,,
html-keyboard-response,677,1251536,null,"",null,,,,,,,,,,,,,,,
math-period,678,1253231,3000.9000000059605,"",,,,,,,,,,,3,,,,,
html-keyboard-response,679,1253350,null,"",null,,,,,,,,,,,,,,,
math-period,680,1255045,3028.199999988079,"",,,,,,,,,,,5,,,,,
html-keyboard-response,681,1255152,null,"",null,,,,,,,,,,,,,,,
math-period,682,1257472,4347.5,"",,,,,,,,,,,1,,,,,
html-keyboard-response,683,1257586,null,"",null,,,,,,,,,,,,,,,
math-period,684,1259162,2874.300000011921,"",,,,,,,,,,,5,,,,,
html-keyboard-response,685,1259269,null,"",null,,,,,,,,,,,,,,,
math-period,686,1261098,3467.199999988079,"",,,,,,,,,,,2,,,,,
html-keyboard-response,687,1261202,null,"",null,,,,,,,,,,,,,,,
math-period,688,1262699,2822.900000035763,"",,,,,,,,,,,6,,,,,
html-keyboard-response,689,1262816,null,"",null,,,,,,,,,,,,,,,
math-period,690,1264472,3080.9000000059605,"",,,,,,,,,,,5,,,,,
html-keyboard-response,691,1264589,null,"",null,,,,,,,,,,,,,,,
math-period,692,1266384,3478.4000000059605,"",,,,,,,,,,,5,,,,,
html-keyboard-response,693,1266504,null,"",null,,,,,,,,,,,,,,,
math-period,694,1267748,2399.300000011921,"",,,,,,,,,,,3,,,,,
html-keyboard-response,695,1267854,null,"",null,,,,,,,,,,,,,,,
math-period,696,1269371,2946.5000000298023,"",,,,,,,,,,,4,,,,,
html-keyboard-response,697,1269489,null,"",null,,,,,,,,,,,,,,,
math-period,698,1270393,null,"",,,,,,,,,,,,,,,,
html-keyboard-response,699,1271413,null,"Recall Period!",null,,,,,,,,,,,,,,,
call-function,700,1271415,,"",,,,,,,,,,,,,,,,
html-keyboard-response,701,1271522,null,"",null,,,,,,,,,,,,,,,
recall-period,702,1277716,25253.100000023842,"",,,,,,,,,,,yolk,,,,,
html-keyboard-response,703,1277821,null,"",null,,,,,,,,,,,,,,,
recall-period,704,1293937,89105.30000004172,"",,,,,,,,,,,candy,,,,,
html-keyboard-response,705,1294053,null,"",null,,,,,,,,,,,,,,,
recall-period,706,1303540,71761.4999999702,"",,,,,,,,,,,dandruff,,,,,
html-keyboard-response,707,1303655,null,"",null,,,,,,,,,,,,,,,
recall-period,708,1314387,78969.20000013709,"",,,,,,,,,,,lettuce,,,,,
html-keyboard-response,709,1314505,null,"",null,,,,,,,,,,,,,,,
recall-period,710,1333140,123747.4999999702,"",,,,,,,,,,,walnut,,,,,
html-keyboard-response,711,1333253,null,"",null,,,,,,,,,,,,,,,
recall-period,712,1340279,52014.40000012517,"",,,,,,,,,,,sculpture,,,,,
html-keyboard-response,713,1340387,null,"",null,,,,,,,,,,,,,,,
recall-period,714,1345291,31028.999999910593,"",,,,,,,,,,,plaster,,,,,
html-keyboard-response,715,1345404,null,"",null,,,,,,,,,,,,,,,
recall-period,716,1346425,null,"",,,,,,,,,,,,,,,,
html-keyboard-response,717,1346945,null,"Time's Up!",null,,,,,,,,,,,,,,,
html-keyboard-response,718,1350791,3839.5,"<p> Good job! You have responded correctly to 100% of the trials. </p>
                      <p>Be sure to only press the spacebar if you see a red square, and please keep your accuracy above 80%.</p>
                      <p> Press any key to continue the experiment. </p>",32,,,,,,,,,,,,,,,
html-keyboard-response,719,1353429,2634.5,"<div style=""font-size:48px;"">Press any key to begin list 7 of 16 </div>",32,,,,,,,,,,,,,,,
html-keyboard-response,720,1355956,null,"<div style=""font-size:60px;"">+</div>",null,,,,,,,,,,,,,,,
html-keyboard-response,721,1356165,null,"<div style=""font-size:42px;"">VENUS</div><img id = ""stim"" ><div class = green_square id = bottomsquare></div>",null,encoding,word_square,,,0,bottomsquare,none,true,,,VENUS,6,,,
html-keyboard-response,722,1356474,null,"<div style=""font-size:42px;"">VENUS</div>",null,,word,VENUS,,,,,,,,,,,,
html-keyboard-response,723,1357986,null,"",null,,word,VENUS,,,,,,,,,,,,
html-keyboard-response,724,1358199,null,"<div style=""font-size:42px;"">PIZZA</div><img id = ""stim"" ><div class = red_square id = topsquare></div>",null,encoding,word_square,,,1,topsquare,32,true,,,PIZZA,6,,,
html-keyboard-response,725,1358510,null,"<div style=""font-size:42px;"">PIZZA</div>",null,,word,PIZZA,,,,,,,,,,,,
html-keyboard-response,726,1360019,75.7000000178814,"",32,,word,PIZZA,,,,,,,,,,,,
html-keyboard-response,727,1360232,null,"<div style=""font-size:42px;"">FOLDER</div><img id = ""stim"" ><div class = green_square id = topsquare></div>",null,encoding,word_square,,,0,topsquare,none,true,,,FOLDER,6,,,
html-keyboard-response,728,1360541,null,"<div style=""font-size:42px;"">FOLDER</div>",null,,word,FOLDER,,,,,,,,,,,,
html-keyboard-response,729,1362051,null,"",null,,word,FOLDER,,,,,,,,,,,,
html-keyboard-response,730,1362265,null,"<div style=""font-size:42px;"">ORANGE</div><img id = ""stim"" ><div class = green_square id = bottomsquare></div>",null,encoding,word_square,,,0,bottomsquare,none,true,,,ORANGE,6,,,
html-keyboard-response,731,1362575,null,"<div style=""font-size:42px;"">ORANGE</div>",null,,word,ORANGE,,,,,,,,,,,,
html-keyboard-response,732,1364099,null,"",null,,word,ORANGE,,,,,,,,,,,,
html-keyboard-response,733,1364330,null,"<div style=""font-size:42px;"">BATHTUB</div><img id = ""stim"" ><div class = red_square id = bottomsquare></div>",null,encoding,word_square,,,1,bottomsquare,32,true,,,BATHTUB,6,,,
html-keyboard-response,734,1364637,212.2999999821186,"<div style=""font-size:42px;"">BATHTUB</div>",32,,word,BATHTUB,,,,,,,,,,,,
html-keyboard-response,735,1366154,null,"",null,,word,BATHTUB,,,,,,,,,,,,
html-keyboard-response,736,1366366,null,"<div style=""font-size:42px;"">GARLIC</div><img id = ""stim"" ><div class = red_square id = topsquare></div>",null,encoding,word_square,,,1,topsquare,32,true,,,GARLIC,6,,,
html-keyboard-response,737,1366674,null,"<div style=""font-size:42px;"">GARLIC</div>",null,,word,GARLIC,,,,,,,,,,,,
html-keyboard-response,738,1368181,666.1999999880791,"",32,,word,GARLIC,,,,,,,,,,,,
html-keyboard-response,739,1368397,null,"<div style=""font-size:42px;"">TOOTHBRUSH</div><img id = ""stim"" ><div class = green_square id = topsquare></div>",null,encoding,word_square,,,0,topsquare,none,true,,,TOOTHBRUSH,6,,,
html-keyboard-response,740,1368707,null,"<div style=""font-size:42px;"">TOOTHBRUSH</div>",null,,word,TOOTHBRUSH,,,,,,,,,,,,
html-keyboard-response,741,1370216,null,"",null,,word,TOOTHBRUSH,,,,,,,,,,,,
html-keyboard-response,742,1370434,null,"<div style=""font-size:42px;"">FROG</div><img id = ""stim"" ><div class = red_square id = bottomsquare></div>",null,encoding,word_square,,,1,bottomsquare,32,true,,,FROG,6,,,
html-keyboard-response,743,1370742,263.90000000596046,"<div style=""font-size:42px;"">FROG</div>",32,,word,FROG,,,,,,,,,,,,
html-keyboard-response,744,1372249,null,"",null,,word,FROG,,,,,,,,,,,,
html-keyboard-response,745,1372465,null,"<div style=""font-size:42px;"">DAISY</div><img id = ""stim"" ><div class = green_square id = bottomsquare></div>",null,encoding,word_square,,,0,bottomsquare,none,true,,,DAISY,6,,,
html-keyboard-response,746,1372770,null,"<div style=""font-size:42px;"">DAISY</div>",null,,word,DAISY,,,,,,,,,,,,
html-keyboard-response,747,1374278,null,"",null,,word,DAISY,,,,,,,,,,,,
html-keyboard-response,748,1374497,null,"<div style=""font-size:42px;"">PISTON</div><img id = ""stim"" ><div class = red_square id = topsquare></div>",null,encoding,word_square,,,1,topsquare,32,true,,,PISTON,6,,,
html-keyboard-response,749,1374817,null,"<div style=""font-size:42px;"">PISTON</div>",null,,word,PISTON,,,,,,,,,,,,
html-keyboard-response,750,1376333,17.5,"",32,,word,PISTON,,,,,,,,,,,,
html-keyboard-response,751,1376549,null,"<div style=""font-size:42px;"">PIGMENT</div><img id = ""stim"" ><div class = red_square id = bottomsquare></div>",null,encoding,word_square,,,1,bottomsquare,32,true,,,PIGMENT,6,,,
html-keyboard-response,752,1376864,null,"<div style=""font-size:42px;"">PIGMENT</div>",null,,word,PIGMENT,,,,,,,,,,,,
html-keyboard-response,753,1378376,250.59999999403954,"",32,,word,PIGMENT,,,,,,,,,,,,
html-keyboard-response,754,1378583,null,"<div style=""font-size:42px;"">MARKER</div><img id = ""stim"" ><div class = green_square id = topsquare></div>",null,encoding,word_square,,,0,topsquare,none,true,,,MARKER,6,,,
html-keyboard-response,755,1378893,null,"<div style=""font-size:42px;"">MARKER</div>",null,,word,MARKER,,,,,,,,,,,,
html-keyboard-response,756,1380402,null,"",null,,word,MARKER,,,,,,,,,,,,
html-keyboard-response,757,1380617,null,"<div style=""font-size:42px;"">BRANCH</div><img id = ""stim"" ><div class = green_square id = bottomsquare></div>",null,encoding,word_square,,,0,bottomsquare,none,false,,,BRANCH,6,,,
html-keyboard-response,758,1380926,null,"<div style=""font-size:42px;"">BRANCH</div>",null,,word,BRANCH,,,,,,,,,,,,
html-keyboard-response,759,1382447,13.400000005960464,"",32,,word,BRANCH,,,,,,,,,,,,
html-keyboard-response,760,1382666,null,"<div style=""font-size:42px;"">KEYBOARD</div><img id = ""stim"" ><div class = red_square id = topsquare></div>",null,encoding,word_square,,,1,topsquare,32,true,,,KEYBOARD,6,,,
html-keyboard-response,761,1382977,null,"<div style=""font-size:42px;"">KEYBOARD</div>",null,,word,KEYBOARD,,,,,,,,,,,,
html-keyboard-response,762,1384484,19.900000005960464,"",32,,word,KEYBOARD,,,,,,,,,,,,
html-keyboard-response,763,1384692,null,"<div style=""font-size:42px;"">GRILL</div><img id = ""stim"" ><div class = red_square id = bottomsquare></div>",null,encoding,word_square,,,1,bottomsquare,32,true,,,GRILL,6,,,
html-keyboard-response,764,1385009,null,"<div style=""font-size:42px;"">GRILL</div>",null,,word,GRILL,,,,,,,,,,,,
html-keyboard-response,765,1386518,38.5,"",32,,word,GRILL,,,,,,,,,,,,
html-keyboard-response,766,1386724,null,"<div style=""font-size:42px;"">BOXER</div><img id = ""stim"" ><div class = green_square id = topsquare></div>",null,encoding,word_square,,,0,topsquare,none,true,,,BOXER,6,,,
html-keyboard-response,767,1387031,null,"<div style=""font-size:42px;"">BOXER</div>",null,,word,BOXER,,,,,,,,,,,,
html-keyboard-response,768,1388547,null,"",null,,word,BOXER,,,,,,,,,,,,
call-function,769,1388551,,"",,,,,,,,,,,,,,,,
html-keyboard-response,770,1388670,null,"",null,,,,,,,,,,,,,,,
math-period,771,1390999,4151,"",,,,,,,,,,,5,,,,,
html-keyboard-response,772,1391105,null,"",null,,,,,,,,,,,,,,,
math-period,773,1392715,2897.899999976158,"",,,,,,,,,,,3,,,,,
html-keyboard-response,774,1392823,null,"",null,,,,,,,,,,,,,,,
math-period,775,1394620,3246.900000035763,"",,,,,,,,,,,4,,,,,
html-keyboard-response,776,1394739,null,"",null,,,,,,,,,,,,,,,
math-period,777,1396378,2921.900000035763,"",,,,,,,,,,,5,,,,,
html-keyboard-response,778,1396490,null,"",null,,,,,,,,,,,,,,,
math-period,779,1398701,4029.0999999940395,"",,,,,,,,,,,1,,,,,
html-keyboard-response,780,1398806,null,"",null,,,,,,,,,,,,,,,
math-period,781,1401088,4306.9000000059605,"",,,,,,,,,,,3,,,,,
html-keyboard-response,782,1401192,null,"",null,,,,,,,,,,,,,,,
math-period,783,1403390,4103.300000011921,"",,,,,,,,,,,2,,,,,
html-keyboard-response,784,1403507,null,"",null,,,,,,,,,,,,,,,
math-period,785,1405464,3575.300000011921,"",,,,,,,,,,,1,,,,,
html-keyboard-response,786,1405576,null,"",null,,,,,,,,,,,,,,,
math-period,787,1407251,2999.5999999940395,"",,,,,,,,,,,3,,,,,
html-keyboard-response,788,1407359,null,"",null,,,,,,,,,,,,,,,
math-period,789,1409429,3795.7999999821186,"",,,,,,,,,,,4,,,,,
html-keyboard-response,790,1409539,null,"",null,,,,,,,,,,,,,,,
math-period,791,1410969,2492.399999976158,"",,,,,,,,,,,3,,,,,
html-keyboard-response,792,1411074,null,"",null,,,,,,,,,,,,,,,
math-period,793,1412558,null,"",,,,,,,,,,,,,,,,
html-keyboard-response,794,1413566,null,"Recall Period!",null,,,,,,,,,,,,,,,
call-function,795,1413569,,"",,,,,,,,,,,,,,,,
html-keyboard-response,796,1413678,null,"",null,,,,,,,,,,,,,,,
recall-period,797,1419895,37850.099999934435,"",,,,,,,,,,,folder,,,,,
html-keyboard-response,798,1420007,null,"",null,,,,,,,,,,,,,,,
recall-period,799,1421951,7734.800000041723,"",,,,,,,,,,,pizza,,,,,
html-keyboard-response,800,1422057,null,"",null,,,,,,,,,,,,,,,
recall-period,801,1433099,86056.20000010729,"",,,,,,,,,,,toothbrush,,,,,
html-keyboard-response,802,1433207,null,"",null,,,,,,,,,,,,,,,
recall-period,803,1448600,115530.60000008345,"",,,,,,,,,,,bathtub,,,,,
html-keyboard-response,804,1448707,null,"",null,,,,,,,,,,,,,,,
recall-period,805,1454071,38684.700000047684,"",,,,,,,,,,,keyboard,,,,,
html-keyboard-response,806,1454175,null,"",null,,,,,,,,,,,,,,,
recall-period,807,1456088,10273.499999940395,"",,,,,,,,,,,marker,,,,,
html-keyboard-response,808,1456192,null,"",null,,,,,,,,,,,,,,,
recall-period,809,1458584,11364.500000029802,"",,,,,,,,,,,boxer,,,,,
html-keyboard-response,810,1458693,null,"",null,,,,,,,,,,,,,,,
recall-period,811,1460388,6802.499999970198,"",,,,,,,,,,,grill,,,,,
html-keyboard-response,812,1460493,null,"",null,,,,,,,,,,,,,,,
recall-period,813,1488574,81326.60000002384,"",,,,,,,,,,,bra,,,,,
html-keyboard-response,814,1489083,null,"Time's Up!",null,,,,,,,,,,,,,,,
html-keyboard-response,815,1491648,2561.5,"<p> Good job! You have responded correctly to 99% of the trials. </p>
                      <p>Be sure to only press the spacebar if you see a red square, and please keep your accuracy above 80%.</p>
                      <p> Press any key to continue the experiment. </p>",32,,,,,,,,,,,,,,,
html-keyboard-response,816,1495771,4119.199999988079,"<div style=""font-size:48px;"">Press any key to begin list 8 of 16 </div>",32,,,,,,,,,,,,,,,
html-keyboard-response,817,1498291,null,"<div style=""font-size:60px;"">+</div>",null,,,,,,,,,,,,,,,
html-keyboard-response,818,1498504,null,"<div style=""font-size:42px;"">OFFICE</div><img id = ""stim"" ><div class = green_square id = topsquare></div>",null,encoding,word_square,,,0,topsquare,none,true,,,OFFICE,7,,,
html-keyboard-response,819,1498822,null,"<div style=""font-size:42px;"">OFFICE</div>",null,,word,OFFICE,,,,,,,,,,,,
html-keyboard-response,820,1500339,null,"",null,,word,OFFICE,,,,,,,,,,,,
html-keyboard-response,821,1500554,null,"<div style=""font-size:42px;"">POSTAGE</div><img id = ""stim"" ><div class = red_square id = bottomsquare></div>",null,encoding,word_square,,,1,bottomsquare,32,true,,,POSTAGE,7,,,
html-keyboard-response,822,1500871,149.09999999403954,"<div style=""font-size:42px;"">POSTAGE</div>",32,,word,POSTAGE,,,,,,,,,,,,
html-keyboard-response,823,1502382,null,"",null,,word,POSTAGE,,,,,,,,,,,,
html-keyboard-response,824,1502587,null,"<div style=""font-size:42px;"">MOP</div><img id = ""stim"" ><div class = red_square id = topsquare></div>",null,encoding,word_square,,,1,topsquare,32,true,,,MOP,7,,,
html-keyboard-response,825,1502899,null,"<div style=""font-size:42px;"">MOP</div>",null,,word,MOP,,,,,,,,,,,,
html-keyboard-response,826,1504411,30.900000005960464,"",32,,word,MOP,,,,,,,,,,,,
html-keyboard-response,827,1504622,null,"<div style=""font-size:42px;"">REINDEER</div><img id = ""stim"" ><div class = green_square id = bottomsquare></div>",null,encoding,word_square,,,0,bottomsquare,none,true,,,REINDEER,7,,,
html-keyboard-response,828,1504932,null,"<div style=""font-size:42px;"">REINDEER</div>",null,,word,REINDEER,,,,,,,,,,,,
html-keyboard-response,829,1506449,null,"",null,,word,REINDEER,,,,,,,,,,,,
html-keyboard-response,830,1506669,null,"<div style=""font-size:42px;"">SERVANT</div><img id = ""stim"" ><div class = green_square id = topsquare></div>",null,encoding,word_square,,,0,topsquare,none,true,,,SERVANT,7,,,
html-keyboard-response,831,1506983,null,"<div style=""font-size:42px;"">SERVANT</div>",null,,word,SERVANT,,,,,,,,,,,,
html-keyboard-response,832,1508492,null,"",null,,word,SERVANT,,,,,,,,,,,,
html-keyboard-response,833,1508704,null,"<div style=""font-size:42px;"">VIKING</div><img id = ""stim"" ><div class = red_square id = bottomsquare></div>",null,encoding,word_square,,,1,bottomsquare,32,true,,,VIKING,7,,,
html-keyboard-response,834,1509022,137.7000000178814,"<div style=""font-size:42px;"">VIKING</div>",32,,word,VIKING,,,,,,,,,,,,
html-keyboard-response,835,1510541,null,"",null,,word,VIKING,,,,,,,,,,,,
html-keyboard-response,836,1510753,null,"<div style=""font-size:42px;"">PARTY</div><img id = ""stim"" ><div class = red_square id = topsquare></div>",null,encoding,word_square,,,1,topsquare,32,true,,,PARTY,7,,,
html-keyboard-response,837,1511063,null,"<div style=""font-size:42px;"">PARTY</div>",null,,word,PARTY,,,,,,,,,,,,
html-keyboard-response,838,1512578,12.800000011920929,"",32,,word,PARTY,,,,,,,,,,,,
html-keyboard-response,839,1512790,null,"<div style=""font-size:42px;"">BANDIT</div><img id = ""stim"" ><div class = green_square id = bottomsquare></div>",null,encoding,word_square,,,0,bottomsquare,none,true,,,BANDIT,7,,,
html-keyboard-response,840,1513099,null,"<div style=""font-size:42px;"">BANDIT</div>",null,,word,BANDIT,,,,,,,,,,,,
html-keyboard-response,841,1514617,null,"",null,,word,BANDIT,,,,,,,,,,,,
html-keyboard-response,842,1514839,null,"<div style=""font-size:42px;"">BROOK</div><img id = ""stim"" ><div class = red_square id = bottomsquare></div>",null,encoding,word_square,,,1,bottomsquare,32,true,,,BROOK,7,,,
html-keyboard-response,843,1515158,195.69999998807907,"<div style=""font-size:42px;"">BROOK</div>",32,,word,BROOK,,,,,,,,,,,,
html-keyboard-response,844,1516677,null,"",null,,word,BROOK,,,,,,,,,,,,
html-keyboard-response,845,1516886,null,"<div style=""font-size:42px;"">MARSH</div><img id = ""stim"" ><div class = green_square id = topsquare></div>",null,encoding,word_square,,,0,topsquare,none,true,,,MARSH,7,,,
html-keyboard-response,846,1517196,null,"<div style=""font-size:42px;"">MARSH</div>",null,,word,MARSH,,,,,,,,,,,,
html-keyboard-response,847,1518712,null,"",null,,word,MARSH,,,,,,,,,,,,
html-keyboard-response,848,1518921,null,"<div style=""font-size:42px;"">BATHROOM</div><img id = ""stim"" ><div class = red_square id = topsquare></div>",null,encoding,word_square,,,1,topsquare,32,true,,,BATHROOM,7,,,
html-keyboard-response,849,1519229,238.40000000596046,"<div style=""font-size:42px;"">BATHROOM</div>",32,,word,BATHROOM,,,,,,,,,,,,
html-keyboard-response,850,1520739,null,"",null,,word,BATHROOM,,,,,,,,,,,,
html-keyboard-response,851,1520953,null,"<div style=""font-size:42px;"">BROTHER</div><img id = ""stim"" ><div class = red_square id = bottomsquare></div>",null,encoding,word_square,,,1,bottomsquare,32,true,,,BROTHER,7,,,
html-keyboard-response,852,1521262,null,"<div style=""font-size:42px;"">BROTHER</div>",null,,word,BROTHER,,,,,,,,,,,,
html-keyboard-response,853,1522774,20.599999994039536,"",32,,word,BROTHER,,,,,,,,,,,,
html-keyboard-response,854,1522986,null,"<div style=""font-size:42px;"">ZEBRA</div><img id = ""stim"" ><div class = green_square id = bottomsquare></div>",null,encoding,word_square,,,0,bottomsquare,none,true,,,ZEBRA,7,,,
html-keyboard-response,855,1523295,null,"<div style=""font-size:42px;"">ZEBRA</div>",null,,word,ZEBRA,,,,,,,,,,,,
html-keyboard-response,856,1524806,null,"",null,,word,ZEBRA,,,,,,,,,,,,
html-keyboard-response,857,1525020,null,"<div style=""font-size:42px;"">FINGER</div><img id = ""stim"" ><div class = green_square id = topsquare></div>",null,encoding,word_square,,,0,topsquare,none,true,,,FINGER,7,,,
html-keyboard-response,858,1525328,222.89999997615814,"<div style=""font-size:42px;"">FINGER</div>",32,,word,FINGER,,,,,,,,,,,,
html-keyboard-response,859,1526835,null,"",null,,word,FINGER,,,,,,,,,,,,
html-keyboard-response,860,1527052,null,"<div style=""font-size:42px;"">CELLAR</div><img id = ""stim"" ><div class = red_square id = topsquare></div>",null,encoding,word_square,,,1,topsquare,32,true,,,CELLAR,7,,,
html-keyboard-response,861,1527361,null,"<div style=""font-size:42px;"">CELLAR</div>",null,,word,CELLAR,,,,,,,,,,,,
html-keyboard-response,862,1528868,52.400000005960464,"",32,,word,CELLAR,,,,,,,,,,,,
html-keyboard-response,863,1529086,null,"<div style=""font-size:42px;"">BOTTLE</div><img id = ""stim"" ><div class = green_square id = bottomsquare></div>",null,encoding,word_square,,,0,bottomsquare,none,true,,,BOTTLE,7,,,
html-keyboard-response,864,1529397,null,"<div style=""font-size:42px;"">BOTTLE</div>",null,,word,BOTTLE,,,,,,,,,,,,
html-keyboard-response,865,1530915,null,"",null,,word,BOTTLE,,,,,,,,,,,,
call-function,866,1530919,,"",,,,,,,,,,,,,,,,
html-keyboard-response,867,1531026,null,"",null,,,,,,,,,,,,,,,
math-period,868,1533277,4202.899999976158,"",,,,,,,,,,,4,,,,,
html-keyboard-response,869,1533394,null,"",null,,,,,,,,,,,,,,,
math-period,870,1535638,4205.700000017881,"",,,,,,,,,,,3,,,,,
html-keyboard-response,871,1535744,null,"",null,,,,,,,,,,,,,,,
math-period,872,1537904,4052.4000000059605,"",,,,,,,,,,,1,,,,,
html-keyboard-response,873,1538011,null,"",null,,,,,,,,,,,,,,,
math-period,874,1540249,4263.4000000059605,"",,,,,,,,,,,2,,,,,
html-keyboard-response,875,1540361,null,"",null,,,,,,,,,,,,,,,
math-period,876,1542357,3759.5,"",,,,,,,,,,,1,,,,,
html-keyboard-response,877,1542477,null,"",null,,,,,,,,,,,,,,,
math-period,878,1544363,3501.5999999940395,"",,,,,,,,,,,5,,,,,
html-keyboard-response,879,1544474,null,"",null,,,,,,,,,,,,,,,
math-period,880,1546231,3177.8000000417233,"",,,,,,,,,,,6,,,,,
html-keyboard-response,881,1546344,null,"",null,,,,,,,,,,,,,,,
math-period,882,1548141,3255.400000035763,"",,,,,,,,,,,5,,,,,
html-keyboard-response,883,1548259,null,"",null,,,,,,,,,,,,,,,
math-period,884,1550879,4888.5999999940395,"",,,,,,,,,,,0,,,,,
html-keyboard-response,885,1550997,null,"",null,,,,,,,,,,,,,,,
math-period,886,1552987,3606.300000011921,"",,,,,,,,,,,1,,,,,
html-keyboard-response,887,1553095,null,"",null,,,,,,,,,,,,,,,
math-period,888,1554863,3191.300000011921,"",,,,,,,,,,,6,,,,,
html-keyboard-response,889,1554972,null,"",null,,,,,,,,,,,,,,,
math-period,890,1554979,null,"",,,,,,,,,,,,,,,,
html-keyboard-response,891,1555992,null,"Recall Period!",null,,,,,,,,,,,,,,,
call-function,892,1555994,,"",,,,,,,,,,,,,,,,
html-keyboard-response,893,1556110,null,"",null,,,,,,,,,,,,,,,
recall-period,894,1561161,30586.099999964237,"",,,,,,,,,,,brooke,,,,,
html-keyboard-response,895,1561277,null,"",null,,,,,,,,,,,,,,,
recall-period,896,1564631,12418.499999970198,"",,,,,,,,,,,marsh,,,,,
html-keyboard-response,897,1564744,null,"",null,,,,,,,,,,,,,,,
recall-period,898,1574732,77701.00000014901,"",,,,,,,,,,,bathroom,,,,,
html-keyboard-response,899,1574860,null,"",null,,,,,,,,,,,,,,,
recall-period,900,1579468,16546.400000035763,"",,,,,,,,,,,mop,,,,,
html-keyboard-response,901,1579575,null,"",null,,,,,,,,,,,,,,,
recall-period,902,1599363,153322.89999994636,"",,,,,,,,,,,brother,,,,,
html-keyboard-response,903,1599475,null,"",null,,,,,,,,,,,,,,,
recall-period,904,1602767,16357.499999970198,"",,,,,,,,,,,party,,,,,
html-keyboard-response,905,1602875,null,"",null,,,,,,,,,,,,,,,
recall-period,906,1615186,82422.69999995828,"",,,,,,,,,,,finger,,,,,
html-keyboard-response,907,1615292,null,"",null,,,,,,,,,,,,,,,
recall-period,908,1627198,117039.09999987483,"",,,,,,,,,,,bottle,,,,,
html-keyboard-response,909,1627309,null,"",null,,,,,,,,,,,,,,,
recall-period,910,1631001,null,"",,,,,,,,,,,,,,,,
html-keyboard-response,911,1631515,null,"Time's Up!",null,,,,,,,,,,,,,,,
html-keyboard-response,912,1633170,1649.7000000178814,"<p> Good job! You have responded correctly to 99% of the trials. </p>
                      <p>Be sure to only press the spacebar if you see a red square, and please keep your accuracy above 80%.</p>
                      <p> Press any key to continue the experiment. </p>",32,,,,,,,,,,,,,,,
html-keyboard-response,913,1634190,1015.5,"<div style=""font-size:48px;"">Press any key to begin list 9 of 16 </div>",32,,,,,,,,,,,,,,,
html-keyboard-response,914,1636720,null,"<div style=""font-size:60px;"">+</div>",null,,,,,,,,,,,,,,,
html-keyboard-response,915,1636931,null,"<div style=""font-size:42px;"">PICTURE</div><img id = ""stim"" ><div class = red_square id = topsquare></div>",null,encoding,word_square,,,1,topsquare,32,true,,,PICTURE,8,,,
html-keyboard-response,916,1637249,null,"<div style=""font-size:42px;"">PICTURE</div>",null,,word,PICTURE,,,,,,,,,,,,
html-keyboard-response,917,1638761,80.09999999403954,"",32,,word,PICTURE,,,,,,,,,,,,
html-keyboard-response,918,1638974,null,"<div style=""font-size:42px;"">PLUTO</div><img id = ""stim"" ><div class = red_square id = bottomsquare></div>",null,encoding,word_square,,,1,bottomsquare,32,true,,,PLUTO,8,,,
html-keyboard-response,919,1639283,null,"<div style=""font-size:42px;"">PLUTO</div>",null,,word,PLUTO,,,,,,,,,,,,
html-keyboard-response,920,1640793,83.2999999821186,"",32,,word,PLUTO,,,,,,,,,,,,
html-keyboard-response,921,1641017,null,"<div style=""font-size:42px;"">CAMEL</div><img id = ""stim"" ><div class = green_square id = bottomsquare></div>",null,encoding,word_square,,,0,bottomsquare,none,true,,,CAMEL,8,,,
html-keyboard-response,922,1641334,null,"<div style=""font-size:42px;"">CAMEL</div>",null,,word,CAMEL,,,,,,,,,,,,
