trial_type,trial_index,time_elapsed,rt,stimulus,key_press,exp_phase,test_part,word,task,targ_cond,sq_pos,correctKeyCode,correct,value,response,Word,List,RecResp,serial_pos,colorChosen
pavlovia,0,2386,,"",,,,,,,,,,,,,,,,
external-html,1,10319,7785.800000000745,"",,,,,,,,,,,,,,,,
html-keyboard-response,2,12177,1852.199999999255,"Welcome to the experiment. Press any key to begin.",72,,,,,,,,,,,,,,,
html-keyboard-response,3,27409,15228.89999999851,"<p>You will see a list of words and colored squares in the following task.<p><p>Press the spacebar whenever you see a GREEN square.<p><p>Do not press a key if the square is RED.<p><p>Press the spacebar to continue.</p>",32,,,,,,,,,,,,,,,
html-keyboard-response,4,37922,10000.800000000745,"<p>Please try to remember as many of the words as you can, and try to think about the meaning of each word as it appears.<p><p>After the detection and encoding task you will be asked to solve some math problems for 24 seconds.<p> Please solve as many problems as you can in the time given. <p><p><p>Press the spacebar to continue.</p>",32,,,,,,,,,,,,,,,
html-keyboard-response,5,50326,11901.39999999851,"After solving the math problems, you will be asked to type in as many words <p>from the previous list as you can remember for 75 seconds.<p> If you finish recalling before the 75 seconds are up,<p> just sit tight and try to think of any more words you could have missed. <p><p><p>Press the spacebar to continue.</p>",32,,,,,,,,,,,,,,,
html-keyboard-response,6,58993,8156.89999999851,"There will be 16 lists of words and recall, followed  by<p><p> a recognition phase. The experiment is expected to take up to 90 minutes.<p>We will begin with a brief practice session.<p>Press the spacebar to begin the practice.</p>",32,,,,,,,,,,,,,,,
html-keyboard-response,7,61521,null,"<div style=""font-size:60px;"">+</div>",null,,,,,,,,,,,,,,,
html-keyboard-response,8,61726,null,"<div style=""font-size:42px;"">HAPPY</div><img id = ""stim"" ><div class = red_square id = ""bottomsquare"" ></div>",null,practice,word_square,HAPPY,prac_response,0,Bottom,none,true,,,,,,,
html-keyboard-response,9,62042,null,"<div style=""font-size:42px;"">HAPPY</div>",null,,word,HAPPY,,,,,,,,,,,,
html-keyboard-response,10,63561,278.19999999925494,"",77,,word,HAPPY,,,,,,,,,,,,
html-keyboard-response,11,63776,null,"<div style=""font-size:42px;"">COLD</div><img id = ""stim"" ><div class = green_square id = ""bottomsquare"" ></div>",null,practice,word_square,COLD,prac_response,1,Bottom,32,true,,,,,,,
html-keyboard-response,12,64091,218.39999999850988,"<div style=""font-size:42px;"">COLD</div>",32,,word,COLD,,,,,,,,,,,,
html-keyboard-response,13,65603,null,"",null,,word,COLD,,,,,,,,,,,,
html-keyboard-response,14,65815,null,"<div style=""font-size:42px;"">HEAVY</div><img id = ""stim"" ><div class = green_square id = ""topsquare"" ></div>",null,practice,word_square,HEAVY,prac_response,1,Top,32,true,,,,,,,
html-keyboard-response,15,66131,286.69999999925494,"<div style=""font-size:42px;"">HEAVY</div>",32,,word,HEAVY,,,,,,,,,,,,
html-keyboard-response,16,67640,null,"",null,,word,HEAVY,,,,,,,,,,,,
html-keyboard-response,17,67850,null,"<div style=""font-size:42px;"">FUNNY</div><img id = ""stim"" ><div class = red_square id = ""topsquare"" ></div>",null,practice,word_square,FUNNY,prac_response,0,Top,none,true,,,,,,,
html-keyboard-response,18,68168,135,"<div style=""font-size:42px;"">FUNNY</div>",75,,word,FUNNY,,,,,,,,,,,,
html-keyboard-response,19,69673,null,"",null,,word,FUNNY,,,,,,,,,,,,
html-keyboard-response,20,69882,null,"<div style=""font-size:42px;"">SCARY</div><img id = ""stim"" ><div class = green_square id = ""bottomsquare"" ></div>",null,practice,word_square,SCARY,prac_response,1,Bottom,32,true,,,,,,,
html-keyboard-response,21,70188,249.60000000149012,"<div style=""font-size:42px;"">SCARY</div>",32,,word,SCARY,,,,,,,,,,,,
html-keyboard-response,22,71706,null,"",null,,word,SCARY,,,,,,,,,,,,
html-keyboard-response,23,71914,null,"<div style=""font-size:42px;"">PEACEFUL</div><img id = ""stim"" ><div class = green_square id = ""topsquare"" ></div>",null,practice,word_square,PEACEFUL,prac_response,1,Top,32,true,,,,,,,
html-keyboard-response,24,72225,142.69999999925494,"<div style=""font-size:42px;"">PEACEFUL</div>",32,,word,PEACEFUL,,,,,,,,,,,,
html-keyboard-response,25,73731,null,"",null,,word,PEACEFUL,,,,,,,,,,,,
html-keyboard-response,26,73946,null,"<div style=""font-size:42px;"">LITTLE</div><img id = ""stim"" ><div class = red_square id = ""bottomsquare"" ></div>",null,practice,word_square,LITTLE,prac_response,0,Bottom,none,true,,,,,,,
html-keyboard-response,27,74254,null,"<div style=""font-size:42px;"">LITTLE</div>",null,,word,LITTLE,,,,,,,,,,,,
html-keyboard-response,28,75757,18.300000000745058,"",75,,word,LITTLE,,,,,,,,,,,,
html-keyboard-response,29,75966,null,"<div style=""font-size:42px;"">TIRED</div><img id = ""stim"" ><div class = red_square id = ""topsquare"" ></div>",null,practice,word_square,TIRED,prac_response,0,Top,none,true,,,,,,,
html-keyboard-response,30,76270,142.5,"<div style=""font-size:42px;"">TIRED</div>",75,,word,TIRED,,,,,,,,,,,,
html-keyboard-response,31,77781,null,"",null,,word,TIRED,,,,,,,,,,,,
html-keyboard-response,32,77983,null,"<div style=""font-size:42px;"">ENTERTAINING</div><img id = ""stim"" ><div class = red_square id = ""bottomsquare"" ></div>",null,practice,word_square,ENTERTAINING,prac_response,0,Bottom,none,true,,,,,,,
html-keyboard-response,33,78289,202.40000000223517,"<div style=""font-size:42px;"">ENTERTAINING</div>",75,,word,ENTERTAINING,,,,,,,,,,,,
html-keyboard-response,34,79794,null,"",null,,word,ENTERTAINING,,,,,,,,,,,,
html-keyboard-response,35,80000,null,"<div style=""font-size:42px;"">GRATEFUL</div><img id = ""stim"" ><div class = green_square id = ""bottomsquare"" ></div>",null,practice,word_square,GRATEFUL,prac_response,1,Bottom,32,true,,,,,,,
html-keyboard-response,36,80308,217.19999999925494,"<div style=""font-size:42px;"">GRATEFUL</div>",32,,word,GRATEFUL,,,,,,,,,,,,
html-keyboard-response,37,81820,null,"",null,,word,GRATEFUL,,,,,,,,,,,,
html-keyboard-response,38,82026,null,"<div style=""font-size:42px;"">LOUD</div><img id = ""stim"" ><div class = red_square id = ""topsquare"" ></div>",null,practice,word_square,LOUD,prac_response,0,Top,none,true,,,,,,,
html-keyboard-response,39,82335,172.09999999776483,"<div style=""font-size:42px;"">LOUD</div>",75,,word,LOUD,,,,,,,,,,,,
html-keyboard-response,40,83846,null,"",null,,word,LOUD,,,,,,,,,,,,
html-keyboard-response,41,84059,null,"<div style=""font-size:42px;"">SMART</div><img id = ""stim"" ><div class = green_square id = ""topsquare"" ></div>",null,practice,word_square,SMART,prac_response,1,Top,32,true,,,,,,,
html-keyboard-response,42,84362,null,"<div style=""font-size:42px;"">SMART</div>",null,,word,SMART,,,,,,,,,,,,
html-keyboard-response,43,85870,123.39999999850988,"",32,,word,SMART,,,,,,,,,,,,
html-keyboard-response,44,86082,null,"<div style=""font-size:42px;"">SMOOTH</div><img id = ""stim"" ><div class = green_square id = ""bottomsquare"" ></div>",null,practice,word_square,SMOOTH,prac_response,1,Bottom,32,true,,,,,,,
html-keyboard-response,45,86387,175.60000000149012,"<div style=""font-size:42px;"">SMOOTH</div>",32,,word,SMOOTH,,,,,,,,,,,,
html-keyboard-response,46,87895,null,"",null,,word,SMOOTH,,,,,,,,,,,,
html-keyboard-response,47,88099,null,"<div style=""font-size:42px;"">DISHONEST</div><img id = ""stim"" ><div class = red_square id = ""bottomsquare"" ></div>",null,practice,word_square,DISHONEST,prac_response,0,Bottom,none,true,,,,,,,
html-keyboard-response,48,88405,147.10000000149012,"<div style=""font-size:42px;"">DISHONEST</div>",188,,word,DISHONEST,,,,,,,,,,,,
html-keyboard-response,49,89911,null,"",null,,word,DISHONEST,,,,,,,,,,,,
html-keyboard-response,50,90115,null,"<div style=""font-size:42px;"">WEALTHY</div><img id = ""stim"" ><div class = green_square id = ""topsquare"" ></div>",null,practice,word_square,WEALTHY,prac_response,1,Top,32,true,,,,,,,
html-keyboard-response,51,90418,174.40000000223517,"<div style=""font-size:42px;"">WEALTHY</div>",32,,word,WEALTHY,,,,,,,,,,,,
html-keyboard-response,52,91933,null,"",null,,word,WEALTHY,,,,,,,,,,,,
html-keyboard-response,53,92143,null,"<div style=""font-size:42px;"">BEAUTIFUL</div><img id = ""stim"" ><div class = red_square id = ""topsquare"" ></div>",null,practice,word_square,BEAUTIFUL,prac_response,0,Top,none,true,,,,,,,
html-keyboard-response,54,92450,110.10000000149012,"<div style=""font-size:42px;"">BEAUTIFUL</div>",188,,word,BEAUTIFUL,,,,,,,,,,,,
html-keyboard-response,55,93965,null,"",null,,word,BEAUTIFUL,,,,,,,,,,,,
html-keyboard-response,56,102164,8196.39999999851,"<p> Good job! You responded correctly to 100% of the trials. </p>
                  <p>Be sure to only press the spacebar if you see a GREEN square, and please keep your accuracy above 80%.</p>
                  <p>We're going to try once more to make sure you understand the task. press any key to continue. </p>",186,,,,,,,,,,,,,,,
html-keyboard-response,57,102197,30.600000001490116,"<p>You will see a list of words and colored squares in the following task.<p><p>Press the spacebar whenever you see a GREEN square.<p><p>Do not press a key if the square is RED<p><p>Press the spacebar to continue.</p>",76,,,,,,,,,,,,,,,
html-keyboard-response,58,104719,null,"<div style=""font-size:60px;"">+</div>",null,,,,,,,,,,,,,,,
html-keyboard-response,59,104925,null,"<div style=""font-size:42px;"">HAPPY</div><img id = ""stim"" ><div class = red_square id = ""bottomsquare"" ></div>",null,practice2,word_square,HAPPY,prac_response,0,Bottom,none,true,,,,,,,
html-keyboard-response,60,105231,303.30000000074506,"<div style=""font-size:42px;"">HAPPY</div>",76,,word,HAPPY,,,,,,,,,,,,
html-keyboard-response,61,106752,null,"",null,,word,HAPPY,,,,,,,,,,,,
html-keyboard-response,62,106958,null,"<div style=""font-size:42px;"">COLD</div><img id = ""stim"" ><div class = green_square id = ""bottomsquare"" ></div>",null,practice2,word_square,,prac_response,1,Bottom,32,true,,,,,,,
html-keyboard-response,63,107268,129.69999999925494,"<div style=""font-size:42px;"">COLD</div>",32,,word,COLD,,,,,,,,,,,,
html-keyboard-response,64,108785,null,"",null,,word,COLD,,,,,,,,,,,,
html-keyboard-response,65,108991,null,"<div style=""font-size:42px;"">HEAVY</div><img id = ""stim"" ><div class = green_square id = ""topsquare"" ></div>",null,practice2,word_square,,prac_response,1,Top,32,true,,,,,,,
html-keyboard-response,66,109301,198.69999999925494,"<div style=""font-size:42px;"">HEAVY</div>",32,,word,HEAVY,,,,,,,,,,,,
html-keyboard-response,67,110811,null,"",null,,word,HEAVY,,,,,,,,,,,,
html-keyboard-response,68,111028,null,"<div style=""font-size:42px;"">FUNNY</div><img id = ""stim"" ><div class = red_square id = ""topsquare"" ></div>",null,practice2,word_square,,prac_response,0,Top,none,true,,,,,,,
html-keyboard-response,69,111338,170.69999999925494,"<div style=""font-size:42px;"">FUNNY</div>",76,,word,FUNNY,,,,,,,,,,,,
html-keyboard-response,70,112843,null,"",null,,word,FUNNY,,,,,,,,,,,,
html-keyboard-response,71,113060,null,"<div style=""font-size:42px;"">SCARY</div><img id = ""stim"" ><div class = green_square id = ""bottomsquare"" ></div>",null,practice2,word_square,,prac_response,1,Bottom,32,true,,,,,,,
html-keyboard-response,72,113364,143.10000000149012,"<div style=""font-size:42px;"">SCARY</div>",32,,word,SCARY,,,,,,,,,,,,
html-keyboard-response,73,114879,null,"",null,,word,SCARY,,,,,,,,,,,,
html-keyboard-response,74,115093,null,"<div style=""font-size:42px;"">PEACEFUL</div><img id = ""stim"" ><div class = green_square id = ""topsquare"" ></div>",null,practice2,word_square,,prac_response,1,Top,32,true,,,,,,,
html-keyboard-response,75,115406,188.59999999776483,"<div style=""font-size:42px;"">PEACEFUL</div>",76,,word,PEACEFUL,,,,,,,,,,,,
html-keyboard-response,76,116911,111.59999999776483,"",32,,word,PEACEFUL,,,,,,,,,,,,
html-keyboard-response,77,117126,null,"<div style=""font-size:42px;"">LITTLE</div><img id = ""stim"" ><div class = red_square id = ""bottomsquare"" ></div>",null,practice2,word_square,LITTLE,prac_response,0,Bottom,none,true,,,,,,,
html-keyboard-response,78,117437,143.30000000074506,"<div style=""font-size:42px;"">LITTLE</div>",76,,word,LITTLE,,,,,,,,,,,,
html-keyboard-response,79,118953,null,"",null,,word,LITTLE,,,,,,,,,,,,
html-keyboard-response,80,119161,null,"<div style=""font-size:42px;"">TIRED</div><img id = ""stim"" ><div class = red_square id = ""topsquare"" ></div>",null,practice2,word_square,,prac_response,0,Top,none,true,,,,,,,
html-keyboard-response,81,119474,138.19999999925494,"<div style=""font-size:42px;"">TIRED</div>",76,,word,TIRED,,,,,,,,,,,,
html-keyboard-response,82,120977,null,"",null,,word,TIRED,,,,,,,,,,,,
html-keyboard-response,83,121193,null,"<div style=""font-size:42px;"">ENTERTAINING</div><img id = ""stim"" ><div class = red_square id = ""bottomsquare"" ></div>",null,practice2,word_square,ENTERTAINING,prac_response,0,Bottom,none,true,,,,,,,
html-keyboard-response,84,121503,237,"<div style=""font-size:42px;"">ENTERTAINING</div>",76,,word,ENTERTAINING,,,,,,,,,,,,
html-keyboard-response,85,123020,null,"",null,,word,ENTERTAINING,,,,,,,,,,,,
html-keyboard-response,86,123235,null,"<div style=""font-size:42px;"">GRATEFUL</div><img id = ""stim"" ><div class = green_square id = ""bottomsquare"" ></div>",null,practice2,word_square,,prac_response,1,Bottom,32,true,,,,,,,
html-keyboard-response,87,123539,113.69999999925494,"<div style=""font-size:42px;"">GRATEFUL</div>",32,,word,GRATEFUL,,,,,,,,,,,,
html-keyboard-response,88,125046,null,"",null,,word,GRATEFUL,,,,,,,,,,,,
html-keyboard-response,89,125258,null,"<div style=""font-size:42px;"">LOUD</div><img id = ""stim"" ><div class = red_square id = ""topsquare"" ></div>",null,practice2,word_square,,prac_response,0,Top,none,true,,,,,,,
html-keyboard-response,90,125563,193,"<div style=""font-size:42px;"">LOUD</div>",76,,word,LOUD,,,,,,,,,,,,
html-keyboard-response,91,127068,null,"",null,,word,LOUD,,,,,,,,,,,,
html-keyboard-response,92,127275,null,"<div style=""font-size:42px;"">SMART</div><img id = ""stim"" ><div class = green_square id = ""topsquare"" ></div>",null,practice2,word_square,,prac_response,1,Top,32,true,,,,,,,
html-keyboard-response,93,127585,241.10000000149012,"<div style=""font-size:42px;"">SMART</div>",32,,word,SMART,,,,,,,,,,,,
html-keyboard-response,94,129100,null,"",null,,word,SMART,,,,,,,,,,,,
html-keyboard-response,95,129309,null,"<div style=""font-size:42px;"">SMOOTH</div><img id = ""stim"" ><div class = green_square id = ""bottomsquare"" ></div>",null,practice2,word_square,,prac_response,1,Bottom,32,true,,,,,,,
html-keyboard-response,96,129627,null,"<div style=""font-size:42px;"">SMOOTH</div>",null,,word,SMOOTH,,,,,,,,,,,,
html-keyboard-response,97,131134,27.199999999254942,"",32,,word,SMOOTH,,,,,,,,,,,,
html-keyboard-response,98,131341,null,"<div style=""font-size:42px;"">DISHONEST</div><img id = ""stim"" ><div class = red_square id = ""bottomsquare"" ></div>",null,practice2,word_square,DISHONEST,prac_response,0,Bottom,none,true,,,,,,,
html-keyboard-response,99,131651,235.09999999776483,"<div style=""font-size:42px;"">DISHONEST</div>",76,,word,DISHONEST,,,,,,,,,,,,
html-keyboard-response,100,133168,null,"",null,,word,DISHONEST,,,,,,,,,,,,
html-keyboard-response,101,133372,null,"<div style=""font-size:42px;"">WEALTHY</div><img id = ""stim"" ><div class = green_square id = ""topsquare"" ></div>",null,practice2,word_square,,prac_response,1,Top,32,true,,,,,,,
html-keyboard-response,102,133686,293,"<div style=""font-size:42px;"">WEALTHY</div>",32,,word,WEALTHY,,,,,,,,,,,,
html-keyboard-response,103,135193,null,"",null,,word,WEALTHY,,,,,,,,,,,,
html-keyboard-response,104,135407,null,"<div style=""font-size:42px;"">BEAUTIFUL</div><img id = ""stim"" ><div class = red_square id = ""topsquare"" ></div>",null,practice2,word_square,,prac_response,0,Top,none,true,,,,,,,
html-keyboard-response,105,135717,null,"<div style=""font-size:42px;"">BEAUTIFUL</div>",null,,word,BEAUTIFUL,,,,,,,,,,,,
html-keyboard-response,106,137234,40.80000000074506,"",76,,word,BEAUTIFUL,,,,,,,,,,,,
html-keyboard-response,107,144451,7212.800000000745,"<p> Good job! You responded correctly to 100% of the trials. </p>
                    <p>Be sure to only press the spacebar if you see a GREEN square, and please keep your accuracy above 80%.</p>
                    <p>Press any key to begin the math and recall sections. Thank you! </p>",76,,,,,,,,,,,,,,,
call-function,108,144456,,"",,,,,,,,,,,,,,,,
html-keyboard-response,109,144563,null,"",null,,,,,,,,,,,,,,,
math-period,110,164914,395245.49999997765,"",,,,,,,,,,,minus1,,,,,
html-keyboard-response,111,165022,null,"",null,,,,,,,,,,,,,,,
math-period,112,168456,3209.199999999255,"",,,,,,,,,,,5,,,,,
html-keyboard-response,113,169462,null,"Recall Period!",null,,,,,,,,,,,,,,,
call-function,114,169464,,"",,,,,,,,,,,,,,,,
html-keyboard-response,115,169573,null,"",null,,,,,,,,,,,,,,,
recall-period,116,177298,50445.299999993294,"",,,,,,,,,,,wealthy,,,,,
html-keyboard-response,117,177406,null,"",null,,,,,,,,,,,,,,,
recall-period,118,181968,21911.20000000298,"",,,,,,,,,,,smart,,,,,
html-keyboard-response,119,182076,null,"",null,,,,,,,,,,,,,,,
recall-period,120,210660,140731.19999999925,"",,,,,,,,,,,kind,,,,,
html-keyboard-response,121,210771,null,"",null,,,,,,,,,,,,,,,
recall-period,122,244481,null,"",,,,,,,,,,,,,,,,
html-keyboard-response,123,244988,null,"Time's Up!",null,,,,,,,,,,,,,,,
html-keyboard-response,124,252806,7815.400000002235,"<p>We will now begin the experiment!<p><p>Please try to remember all words from each list.<p><p>Press the spacebar whenever you see a GREEN square.<p><p><p><p>Press the spacebar to begin.</p>",32,,,,,,,,,,,,,,,
html-keyboard-response,125,255717,2396.60000000149,"<div style=""font-size:48px;"">Press any key to begin list 1 of 16 </div>",186,,,,,,,,,,,,,,,
html-keyboard-response,126,258227,null,"<div style=""font-size:60px;"">+</div>",null,,,,,,,,,,,,,,,
html-keyboard-response,127,258432,null,"<div style=""font-size:42px;"">MUSHROOM</div><img id = ""stim"" ><div class = green_square id = topsquare></div>",null,encoding,word_square,,,1,topsquare,32,true,,,MUSHROOM,0,,,
html-keyboard-response,128,258736,null,"<div style=""font-size:42px;"">MUSHROOM</div>",null,,word,MUSHROOM,,,,,,,,,,,,
html-keyboard-response,129,260246,153.89999999850988,"",32,,word,MUSHROOM,,,,,,,,,,,,
html-keyboard-response,130,260459,null,"<div style=""font-size:42px;"">BEAKER</div><img id = ""stim"" ><div class = green_square id = bottomsquare></div>",null,encoding,word_square,,,1,bottomsquare,32,true,,,BEAKER,0,,,
html-keyboard-response,131,260768,null,"<div style=""font-size:42px;"">BEAKER</div>",null,,word,BEAKER,,,,,,,,,,,,
html-keyboard-response,132,262282,172.19999999925494,"",32,,word,BEAKER,,,,,,,,,,,,
html-keyboard-response,133,262489,null,"<div style=""font-size:42px;"">COBWEB</div><img id = ""stim"" ><div class = red_square id = bottomsquare></div>",null,encoding,word_square,,,0,bottomsquare,none,true,,,COBWEB,0,,,
html-keyboard-response,134,262803,null,"<div style=""font-size:42px;"">COBWEB</div>",null,,word,COBWEB,,,,,,,,,,,,
html-keyboard-response,135,264321,67,"",186,,word,COBWEB,,,,,,,,,,,,
html-keyboard-response,136,264533,null,"<div style=""font-size:42px;"">CREATURE</div><img id = ""stim"" ><div class = red_square id = topsquare></div>",null,encoding,word_square,,,0,topsquare,none,true,,,CREATURE,0,,,
html-keyboard-response,137,264849,null,"<div style=""font-size:42px;"">CREATURE</div>",null,,word,CREATURE,,,,,,,,,,,,
html-keyboard-response,138,266363,131,"",186,,word,CREATURE,,,,,,,,,,,,
html-keyboard-response,139,266568,null,"<div style=""font-size:42px;"">MARINE</div><img id = ""stim"" ><div class = green_square id = topsquare></div>",null,encoding,word_square,,,1,topsquare,32,true,,,MARINE,0,,,
html-keyboard-response,140,266882,null,"<div style=""font-size:42px;"">MARINE</div>",null,,word,MARINE,,,,,,,,,,,,
html-keyboard-response,141,268394,4,"",32,,word,MARINE,,,,,,,,,,,,
html-keyboard-response,142,268602,null,"<div style=""font-size:42px;"">RAFT</div><img id = ""stim"" ><div class = red_square id = bottomsquare></div>",null,encoding,word_square,,,0,bottomsquare,none,true,,,RAFT,0,,,
html-keyboard-response,143,268908,null,"<div style=""font-size:42px;"">RAFT</div>",null,,word,RAFT,,,,,,,,,,,,
html-keyboard-response,144,270415,161.19999999925494,"",186,,word,RAFT,,,,,,,,,,,,
html-keyboard-response,145,270623,null,"<div style=""font-size:42px;"">SOFTBALL</div><img id = ""stim"" ><div class = red_square id = topsquare></div>",null,encoding,word_square,,,0,topsquare,none,true,,,SOFTBALL,0,,,
html-keyboard-response,146,270931,270.80000000074506,"<div style=""font-size:42px;"">SOFTBALL</div>",186,,word,SOFTBALL,,,,,,,,,,,,
html-keyboard-response,147,272435,null,"",null,,word,SOFTBALL,,,,,,,,,,,,
html-keyboard-response,148,272641,null,"<div style=""font-size:42px;"">CRICKET</div><img id = ""stim"" ><div class = green_square id = bottomsquare></div>",null,encoding,word_square,,,1,bottomsquare,32,true,,,CRICKET,0,,,
html-keyboard-response,149,272948,271.19999999925494,"<div style=""font-size:42px;"">CRICKET</div>",32,,word,CRICKET,,,,,,,,,,,,
html-keyboard-response,150,274452,null,"",null,,word,CRICKET,,,,,,,,,,,,
html-keyboard-response,151,274662,null,"<div style=""font-size:42px;"">LOVER</div><img id = ""stim"" ><div class = red_square id = bottomsquare></div>",null,encoding,word_square,,,0,bottomsquare,none,true,,,LOVER,0,,,
html-keyboard-response,152,274980,206.69999999925494,"<div style=""font-size:42px;"">LOVER</div>",186,,word,LOVER,,,,,,,,,,,,
html-keyboard-response,153,276483,null,"",null,,word,LOVER,,,,,,,,,,,,
html-keyboard-response,154,276688,null,"<div style=""font-size:42px;"">NIGHTGOWN</div><img id = ""stim"" ><div class = green_square id = topsquare></div>",null,encoding,word_square,,,1,topsquare,32,true,,,NIGHTGOWN,0,,,
html-keyboard-response,155,276996,286.5,"<div style=""font-size:42px;"">NIGHTGOWN</div>",32,,word,NIGHTGOWN,,,,,,,,,,,,
html-keyboard-response,156,278505,null,"",null,,word,NIGHTGOWN,,,,,,,,,,,,
html-keyboard-response,157,278708,null,"<div style=""font-size:42px;"">LION</div><img id = ""stim"" ><div class = green_square id = bottomsquare></div>",null,encoding,word_square,,,1,bottomsquare,32,true,,,LION,0,,,
html-keyboard-response,158,279017,null,"<div style=""font-size:42px;"">LION</div>",null,,word,LION,,,,,,,,,,,,
html-keyboard-response,159,280525,25.900000002235174,"",32,,word,LION,,,,,,,,,,,,
html-keyboard-response,160,280740,null,"<div style=""font-size:42px;"">LAVA</div><img id = ""stim"" ><div class = green_square id = topsquare></div>",null,encoding,word_square,,,1,topsquare,32,true,,,LAVA,0,,,
html-keyboard-response,161,281046,null,"<div style=""font-size:42px;"">LAVA</div>",null,,word,LAVA,,,,,,,,,,,,
html-keyboard-response,162,282554,36.5,"",32,,word,LAVA,,,,,,,,,,,,
html-keyboard-response,163,282772,null,"<div style=""font-size:42px;"">BLOSSOM</div><img id = ""stim"" ><div class = red_square id = topsquare></div>",null,encoding,word_square,,,0,topsquare,none,true,,,BLOSSOM,0,,,
html-keyboard-response,164,283079,null,"<div style=""font-size:42px;"">BLOSSOM</div>",null,,word,BLOSSOM,,,,,,,,,,,,
html-keyboard-response,165,284589,527.3999999985099,"",186,,word,BLOSSOM,,,,,,,,,,,,
html-keyboard-response,166,284798,null,"<div style=""font-size:42px;"">SHACK</div><img id = ""stim"" ><div class = red_square id = bottomsquare></div>",null,encoding,word_square,,,0,bottomsquare,none,false,,,SHACK,0,,,
html-keyboard-response,167,285112,null,"<div style=""font-size:42px;"">SHACK</div>",null,,word,SHACK,,,,,,,,,,,,
html-keyboard-response,168,286622,1271.300000000745,"",32,,word,SHACK,,,,,,,,,,,,
html-keyboard-response,169,286839,null,"<div style=""font-size:42px;"">LAKE</div><img id = ""stim"" ><div class = green_square id = bottomsquare></div>",null,encoding,word_square,,,1,bottomsquare,32,true,,,LAKE,0,,,
html-keyboard-response,170,287144,null,"<div style=""font-size:42px;"">LAKE</div>",null,,word,LAKE,,,,,,,,,,,,
html-keyboard-response,171,288647,99.69999999552965,"",32,,word,LAKE,,,,,,,,,,,,
html-keyboard-response,172,288860,null,"<div style=""font-size:42px;"">BASEBALL</div><img id = ""stim"" ><div class = red_square id = topsquare></div>",null,encoding,word_square,,,0,topsquare,none,true,,,BASEBALL,0,,,
html-keyboard-response,173,289177,null,"<div style=""font-size:42px;"">BASEBALL</div>",null,,word,BASEBALL,,,,,,,,,,,,
html-keyboard-response,174,290691,429,"",186,,word,BASEBALL,,,,,,,,,,,,
call-function,175,290694,,"",,,,,,,,,,,,,,,,
html-keyboard-response,176,290809,null,"",null,,,,,,,,,,,,,,,
math-period,177,300657,18988.5,"",,,,,,,,,,,3,,,,,
html-keyboard-response,178,300761,null,"",null,,,,,,,,,,,,,,,
math-period,179,303312,4472.89999999851,"",,,,,,,,,,,3,,,,,
html-keyboard-response,180,303421,null,"",null,,,,,,,,,,,,,,,
math-period,181,306285,5116.0999999940395,"",,,,,,,,,,,2,,,,,
html-keyboard-response,182,306388,null,"",null,,,,,,,,,,,,,,,
math-period,183,309097,4761.20000000298,"",,,,,,,,,,,6,,,,,
html-keyboard-response,184,309207,null,"",null,,,,,,,,,,,,,,,
math-period,185,311593,4185,"",,,,,,,,,,,3,,,,,
html-keyboard-response,186,311708,null,"",null,,,,,,,,,,,,,,,
math-period,187,314123,5896.699999988079,"",,,,,,,,,,,5pagedown,,,,,
html-keyboard-response,188,314237,null,"",null,,,,,,,,,,,,,,,
math-period,189,314696,null,"",,,,,,,,,,,,,,,,
html-keyboard-response,190,315707,null,"Recall Period!",null,,,,,,,,,,,,,,,
call-function,191,315709,,"",,,,,,,,,,,,,,,,
html-keyboard-response,192,315820,null,"",null,,,,,,,,,,,,,,,
recall-period,193,316742,917.6000000014901,"",,,,,,,,,,,,,,,,
html-keyboard-response,194,316853,null,"",null,,,,,,,,,,,,,,,
recall-period,195,323708,51219.29999998212,"",,,,,,,,,,,baseball,,,,,
html-keyboard-response,196,323811,null,"",null,,,,,,,,,,,,,,,
recall-period,197,325618,7123.19999999553,"",,,,,,,,,,,laske,,,,,
html-keyboard-response,198,325730,null,"",null,,,,,,,,,,,,,,,
recall-period,199,332976,50388.00000000745,"",,,,,,,,,,,blossom,,,,,
html-keyboard-response,200,333079,null,"",null,,,,,,,,,,,,,,,
recall-period,201,337439,21295.20000001043,"",,,,,,,,,,,shack,,,,,
html-keyboard-response,202,337547,null,"",null,,,,,,,,,,,,,,,
recall-period,203,390718,null,"",,,,,,,,,,,,,,,,
html-keyboard-response,204,391227,null,"Time's Up!",null,,,,,,,,,,,,,,,
html-keyboard-response,205,395709,4477.69999999553,"<p> Good job! You have responded correctly to 94% of the trials. </p>
                      <p>Be sure to only press the spacebar if you see a GREEN square, and please keep your accuracy above 80%.</p>
                      <p> Press any key to continue the experiment. </p>",75,,,,,,,,,,,,,,,
html-keyboard-response,206,400802,5091.0999999940395,"<div style=""font-size:48px;"">Press any key to begin list 2 of 16 </div>",75,,,,,,,,,,,,,,,
html-keyboard-response,207,403316,null,"<div style=""font-size:60px;"">+</div>",null,,,,,,,,,,,,,,,
html-keyboard-response,208,403522,null,"<div style=""font-size:42px;"">HORSE</div><img id = ""stim"" ><div class = red_square id = topsquare></div>",null,encoding,word_square,,,0,topsquare,none,true,,,HORSE,1,,,
html-keyboard-response,209,403825,291.20000000298023,"<div style=""font-size:42px;"">HORSE</div>",75,,word,HORSE,,,,,,,,,,,,
html-keyboard-response,210,405338,null,"",null,,word,HORSE,,,,,,,,,,,,
html-keyboard-response,211,405556,null,"<div style=""font-size:42px;"">FIELD</div><img id = ""stim"" ><div class = green_square id = bottomsquare></div>",null,encoding,word_square,,,1,bottomsquare,32,true,,,FIELD,1,,,
html-keyboard-response,212,405871,273.1000000014901,"<div style=""font-size:42px;"">FIELD</div>",32,,word,FIELD,,,,,,,,,,,,
html-keyboard-response,213,407388,null,"",null,,word,FIELD,,,,,,,,,,,,
html-keyboard-response,214,407605,null,"<div style=""font-size:42px;"">BARLEY</div><img id = ""stim"" ><div class = red_square id = bottomsquare></div>",null,encoding,word_square,,,0,bottomsquare,none,true,,,BARLEY,1,,,
html-keyboard-response,215,407911,null,"<div style=""font-size:42px;"">BARLEY</div>",null,,word,BARLEY,,,,,,,,,,,,
html-keyboard-response,216,409419,8.5,"",75,,word,BARLEY,,,,,,,,,,,,
html-keyboard-response,217,409631,null,"<div style=""font-size:42px;"">HELMET</div><img id = ""stim"" ><div class = red_square id = topsquare></div>",null,encoding,word_square,,,0,topsquare,none,true,,,HELMET,1,,,
html-keyboard-response,218,409948,null,"<div style=""font-size:42px;"">HELMET</div>",null,,word,HELMET,,,,,,,,,,,,
html-keyboard-response,219,411455,13.5,"",75,,word,HELMET,,,,,,,,,,,,
html-keyboard-response,220,411665,null,"<div style=""font-size:42px;"">PEDAL</div><img id = ""stim"" ><div class = green_square id = topsquare></div>",null,encoding,word_square,,,1,topsquare,32,true,,,PEDAL,1,,,
html-keyboard-response,221,411976,null,"<div style=""font-size:42px;"">PEDAL</div>",null,,word,PEDAL,,,,,,,,,,,,
html-keyboard-response,222,413490,0.10000000149011612,"",32,,word,PEDAL,,,,,,,,,,,,
html-keyboard-response,223,413696,null,"<div style=""font-size:42px;"">ROBIN</div><img id = ""stim"" ><div class = green_square id = bottomsquare></div>",null,encoding,word_square,,,1,bottomsquare,32,true,,,ROBIN,1,,,
html-keyboard-response,224,414004,null,"<div style=""font-size:42px;"">ROBIN</div>",null,,word,ROBIN,,,,,,,,,,,,
html-keyboard-response,225,415521,136.60000000149012,"",32,,word,ROBIN,,,,,,,,,,,,
html-keyboard-response,226,415726,null,"<div style=""font-size:42px;"">POND</div><img id = ""stim"" ><div class = green_square id = topsquare></div>",null,encoding,word_square,,,1,topsquare,32,true,,,POND,1,,,
html-keyboard-response,227,416032,null,"<div style=""font-size:42px;"">POND</div>",null,,word,POND,,,,,,,,,,,,
html-keyboard-response,228,417539,32.79999999701977,"",32,,word,POND,,,,,,,,,,,,
html-keyboard-response,229,417751,null,"<div style=""font-size:42px;"">BRANDY</div><img id = ""stim"" ><div class = red_square id = bottomsquare></div>",null,encoding,word_square,,,0,bottomsquare,none,true,,,BRANDY,1,,,
html-keyboard-response,230,418055,null,"<div style=""font-size:42px;"">BRANDY</div>",null,,word,BRANDY,,,,,,,,,,,,
html-keyboard-response,231,419559,139.39999999850988,"",75,,word,BRANDY,,,,,,,,,,,,
html-keyboard-response,232,419774,null,"<div style=""font-size:42px;"">STREAM</div><img id = ""stim"" ><div class = green_square id = bottomsquare></div>",null,encoding,word_square,,,1,bottomsquare,32,true,,,STREAM,1,,,
html-keyboard-response,233,420091,null,"<div style=""font-size:42px;"">STREAM</div>",null,,word,STREAM,,,,,,,,,,,,
html-keyboard-response,234,421608,122.30000000447035,"",32,,word,STREAM,,,,,,,,,,,,
html-keyboard-response,235,421821,null,"<div style=""font-size:42px;"">KNAPSACK</div><img id = ""stim"" ><div class = red_square id = topsquare></div>",null,encoding,word_square,,,0,topsquare,none,false,,,KNAPSACK,1,,,
html-keyboard-response,236,422138,null,"<div style=""font-size:42px;"">KNAPSACK</div>",null,,word,KNAPSACK,,,,,,,,,,,,
html-keyboard-response,237,423656,138.70000000298023,"",32,,word,KNAPSACK,,,,,,,,,,,,
html-keyboard-response,238,423860,null,"<div style=""font-size:42px;"">FRECKLE</div><img id = ""stim"" ><div class = red_square id = bottomsquare></div>",null,encoding,word_square,,,0,bottomsquare,none,true,,,FRECKLE,1,,,
html-keyboard-response,239,424176,null,"<div style=""font-size:42px;"">FRECKLE</div>",null,,word,FRECKLE,,,,,,,,,,,,
html-keyboard-response,240,425690,136.19999999552965,"",75,,word,FRECKLE,,,,,,,,,,,,
html-keyboard-response,241,425903,null,"<div style=""font-size:42px;"">PEOPLE</div><img id = ""stim"" ><div class = green_square id = topsquare></div>",null,encoding,word_square,,,1,topsquare,32,true,,,PEOPLE,1,,,
html-keyboard-response,242,426206,null,"<div style=""font-size:42px;"">PEOPLE</div>",null,,word,PEOPLE,,,,,,,,,,,,
html-keyboard-response,243,427710,16.600000001490116,"",32,,word,PEOPLE,,,,,,,,,,,,
html-keyboard-response,244,427914,null,"<div style=""font-size:42px;"">POLICE</div><img id = ""stim"" ><div class = red_square id = topsquare></div>",null,encoding,word_square,,,0,topsquare,none,true,,,POLICE,1,,,
html-keyboard-response,245,428217,null,"<div style=""font-size:42px;"">POLICE</div>",null,,word,POLICE,,,,,,,,,,,,
html-keyboard-response,246,429725,364.70000000298023,"",75,,word,POLICE,,,,,,,,,,,,
html-keyboard-response,247,429936,null,"<div style=""font-size:42px;"">SUSPECT</div><img id = ""stim"" ><div class = red_square id = bottomsquare></div>",null,encoding,word_square,,,0,bottomsquare,none,true,,,SUSPECT,1,,,
html-keyboard-response,248,430244,289.80000000447035,"<div style=""font-size:42px;"">SUSPECT</div>",75,,word,SUSPECT,,,,,,,,,,,,
html-keyboard-response,249,431750,null,"",null,,word,SUSPECT,,,,,,,,,,,,
html-keyboard-response,250,431956,null,"<div style=""font-size:42px;"">DIVER</div><img id = ""stim"" ><div class = green_square id = bottomsquare></div>",null,encoding,word_square,,,1,bottomsquare,32,true,,,DIVER,1,,,
html-keyboard-response,251,432260,null,"<div style=""font-size:42px;"">DIVER</div>",null,,word,DIVER,,,,,,,,,,,,
html-keyboard-response,252,433762,8.099999994039536,"",32,,word,DIVER,,,,,,,,,,,,
html-keyboard-response,253,433966,null,"<div style=""font-size:42px;"">LOBBY</div><img id = ""stim"" ><div class = green_square id = topsquare></div>",null,encoding,word_square,,,1,topsquare,32,true,,,LOBBY,1,,,
html-keyboard-response,254,434269,280.5,"<div style=""font-size:42px;"">LOBBY</div>",32,,word,LOBBY,,,,,,,,,,,,
html-keyboard-response,255,435778,null,"",null,,word,LOBBY,,,,,,,,,,,,
call-function,256,435783,,"",,,,,,,,,,,,,,,,
html-keyboard-response,257,435885,null,"",null,,,,,,,,,,,,,,,
math-period,258,448180,186518.20000000298,"",,,,,,,,,,,4numpad,,,,,
html-keyboard-response,259,448296,null,"",null,,,,,,,,,,,,,,,
math-period,260,452506,7926.10000000149,"",,,,,,,,,,,1numpad,,,,,
html-keyboard-response,261,452613,null,"",null,,,,,,,,,,,,,,,
math-period,262,456471,7515.39999999851,"",,,,,,,,,,,3numpad,,,,,
html-keyboard-response,263,456581,null,"",null,,,,,,,,,,,,,,,
math-period,264,458542,3715.5999999940395,"",,,,,,,,,,,2numpad,,,,,
html-keyboard-response,265,458648,null,"",null,,,,,,,,,,,,,,,
math-period,266,459784,null,"",,,,,,,,,,,,,,,,
html-keyboard-response,267,460796,null,"Recall Period!",null,,,,,,,,,,,,,,,
call-function,268,460799,,"",,,,,,,,,,,,,,,,
html-keyboard-response,269,460902,null,"",null,,,,,,,,,,,,,,,
recall-period,270,467129,43335.79999998957,"",,,,,,,,,,,police,,,,,
html-keyboard-response,271,467243,null,"",null,,,,,,,,,,,,,,,
recall-period,272,470074,13338.20000000298,"",,,,,,,,,,,suspect,,,,,
html-keyboard-response,273,470180,null,"",null,,,,,,,,,,,,,,,
recall-period,274,474305,19828.60000000149,"",,,,,,,,,,,diver,,,,,
html-keyboard-response,275,474410,null,"",null,,,,,,,,,,,,,,,
recall-period,276,486831,79878.10000000149,"",,,,,,,,,,,brandy,,,,,
html-keyboard-response,277,486943,null,"",null,,,,,,,,,,,,,,,
recall-period,278,488563,6206.099999986589,"",,,,,,,,,,,stream,,,,,
html-keyboard-response,279,488668,null,"",null,,,,,,,,,,,,,,,
recall-period,280,535811,null,"",,,,,,,,,,,,,,,,
html-keyboard-response,281,536321,null,"Time's Up!",null,,,,,,,,,,,,,,,
html-keyboard-response,282,538023,1698.8999999985099,"<p> Good job! You have responded correctly to 94% of the trials. </p>
                      <p>Be sure to only press the spacebar if you see a GREEN square, and please keep your accuracy above 80%.</p>
                      <p> Press any key to continue the experiment. </p>",75,,,,,,,,,,,,,,,
html-keyboard-response,283,539349,1322.6999999955297,"<div style=""font-size:48px;"">Press any key to begin list 3 of 16 </div>",75,,,,,,,,,,,,,,,
html-keyboard-response,284,541877,null,"<div style=""font-size:60px;"">+</div>",null,,,,,,,,,,,,,,,
html-keyboard-response,285,542095,null,"<div style=""font-size:42px;"">DOCK</div><img id = ""stim"" ><div class = red_square id = bottomsquare></div>",null,encoding,word_square,,,0,bottomsquare,none,true,,,DOCK,2,,,
html-keyboard-response,286,542410,282.5,"<div style=""font-size:42px;"">DOCK</div>",75,,word,DOCK,,,,,,,,,,,,
html-keyboard-response,287,543913,null,"",null,,word,DOCK,,,,,,,,,,,,
html-keyboard-response,288,544127,null,"<div style=""font-size:42px;"">CITRUS</div><img id = ""stim"" ><div class = red_square id = topsquare></div>",null,encoding,word_square,,,0,topsquare,none,true,,,CITRUS,2,,,
html-keyboard-response,289,544438,null,"<div style=""font-size:42px;"">CITRUS</div>",null,,word,CITRUS,,,,,,,,,,,,
html-keyboard-response,290,545946,27.700000002980232,"",75,,word,CITRUS,,,,,,,,,,,,
html-keyboard-response,291,546158,null,"<div style=""font-size:42px;"">NURSE</div><img id = ""stim"" ><div class = green_square id = topsquare></div>",null,encoding,word_square,,,1,topsquare,32,true,,,NURSE,2,,,
html-keyboard-response,292,546471,null,"<div style=""font-size:42px;"">NURSE</div>",null,,word,NURSE,,,,,,,,,,,,
html-keyboard-response,293,547980,44.20000000298023,"",32,,word,NURSE,,,,,,,,,,,,
html-keyboard-response,294,548198,null,"<div style=""font-size:42px;"">CONVICT</div><img id = ""stim"" ><div class = green_square id = bottomsquare></div>",null,encoding,word_square,,,1,bottomsquare,32,true,,,CONVICT,2,,,
html-keyboard-response,295,548502,301.6000000014901,"<div style=""font-size:42px;"">CONVICT</div>",32,,word,CONVICT,,,,,,,,,,,,
html-keyboard-response,296,550011,null,"",null,,word,CONVICT,,,,,,,,,,,,
html-keyboard-response,297,550222,null,"<div style=""font-size:42px;"">CRAB</div><img id = ""stim"" ><div class = red_square id = bottomsquare></div>",null,encoding,word_square,,,0,bottomsquare,none,true,,,CRAB,2,,,
html-keyboard-response,298,550535,null,"<div style=""font-size:42px;"">CRAB</div>",null,,word,CRAB,,,,,,,,,,,,
html-keyboard-response,299,552039,171.70000000298023,"",75,,word,CRAB,,,,,,,,,,,,
html-keyboard-response,300,552249,null,"<div style=""font-size:42px;"">SCAPEGOAT</div><img id = ""stim"" ><div class = green_square id = topsquare></div>",null,encoding,word_square,,,1,topsquare,32,true,,,SCAPEGOAT,2,,,
html-keyboard-response,301,552558,null,"<div style=""font-size:42px;"">SCAPEGOAT</div>",null,,word,SCAPEGOAT,,,,,,,,,,,,
html-keyboard-response,302,554062,137.69999999552965,"",32,,word,SCAPEGOAT,,,,,,,,,,,,
html-keyboard-response,303,554270,null,"<div style=""font-size:42px;"">OZONE</div><img id = ""stim"" ><div class = green_square id = bottomsquare></div>",null,encoding,word_square,,,1,bottomsquare,32,true,,,OZONE,2,,,
html-keyboard-response,304,554580,null,"<div style=""font-size:42px;"">OZONE</div>",null,,word,OZONE,,,,,,,,,,,,
html-keyboard-response,305,556088,130.60000000149012,"",32,,word,OZONE,,,,,,,,,,,,
html-keyboard-response,306,556295,null,"<div style=""font-size:42px;"">PLUM</div><img id = ""stim"" ><div class = red_square id = topsquare></div>",null,encoding,word_square,,,0,topsquare,none,true,,,PLUM,2,,,
html-keyboard-response,307,556605,259.6000000014901,"<div style=""font-size:42px;"">PLUM</div>",75,,word,PLUM,,,,,,,,,,,,
html-keyboard-response,308,558111,null,"",null,,word,PLUM,,,,,,,,,,,,
html-keyboard-response,309,558319,null,"<div style=""font-size:42px;"">SIDEWALK</div><img id = ""stim"" ><div class = green_square id = topsquare></div>",null,encoding,word_square,,,1,topsquare,32,true,,,SIDEWALK,2,,,
html-keyboard-response,310,558625,null,"<div style=""font-size:42px;"">SIDEWALK</div>",null,,word,SIDEWALK,,,,,,,,,,,,
html-keyboard-response,311,560131,57.899999998509884,"",32,,word,SIDEWALK,,,,,,,,,,,,
html-keyboard-response,312,560339,null,"<div style=""font-size:42px;"">TRIBE</div><img id = ""stim"" ><div class = red_square id = bottomsquare></div>",null,encoding,word_square,,,0,bottomsquare,none,true,,,TRIBE,2,,,
html-keyboard-response,313,560648,null,"<div style=""font-size:42px;"">TRIBE</div>",null,,word,TRIBE,,,,,,,,,,,,
html-keyboard-response,314,562159,353.29999999701977,"",75,,word,TRIBE,,,,,,,,,,,,
html-keyboard-response,315,562368,null,"<div style=""font-size:42px;"">COWBOY</div><img id = ""stim"" ><div class = red_square id = topsquare></div>",null,encoding,word_square,,,0,topsquare,none,true,,,COWBOY,2,,,
html-keyboard-response,316,562676,null,"<div style=""font-size:42px;"">COWBOY</div>",null,,word,COWBOY,,,,,,,,,,,,
html-keyboard-response,317,564187,292.3999999985099,"",75,,word,COWBOY,,,,,,,,,,,,
html-keyboard-response,318,564393,null,"<div style=""font-size:42px;"">EUROPE</div><img id = ""stim"" ><div class = red_square id = bottomsquare></div>",null,encoding,word_square,,,0,bottomsquare,none,true,,,EUROPE,2,,,
html-keyboard-response,319,564697,null,"<div style=""font-size:42px;"">EUROPE</div>",null,,word,EUROPE,,,,,,,,,,,,
html-keyboard-response,320,566202,11.200000002980232,"",75,,word,EUROPE,,,,,,,,,,,,
html-keyboard-response,321,566412,null,"<div style=""font-size:42px;"">SALAD</div><img id = ""stim"" ><div class = green_square id = bottomsquare></div>",null,encoding,word_square,,,1,bottomsquare,32,true,,,SALAD,2,,,
html-keyboard-response,322,566717,null,"<div style=""font-size:42px;"">SALAD</div>",null,,word,SALAD,,,,,,,,,,,,
html-keyboard-response,323,568225,35.600000001490116,"",32,,word,SALAD,,,,,,,,,,,,
html-keyboard-response,324,568432,null,"<div style=""font-size:42px;"">STALLION</div><img id = ""stim"" ><div class = green_square id = topsquare></div>",null,encoding,word_square,,,1,topsquare,32,true,,,STALLION,2,,,
html-keyboard-response,325,568744,null,"<div style=""font-size:42px;"">STALLION</div>",null,,word,STALLION,,,,,,,,,,,,
html-keyboard-response,326,570260,8.100000001490116,"",32,,word,STALLION,,,,,,,,,,,,
html-keyboard-response,327,570470,null,"<div style=""font-size:42px;"">SADDLE</div><img id = ""stim"" ><div class = red_square id = topsquare></div>",null,encoding,word_square,,,0,topsquare,none,true,,,SADDLE,2,,,
html-keyboard-response,328,570786,null,"<div style=""font-size:42px;"">SADDLE</div>",null,,word,SADDLE,,,,,,,,,,,,
html-keyboard-response,329,572295,54.69999999552965,"",75,,word,SADDLE,,,,,,,,,,,,
html-keyboard-response,330,572505,null,"<div style=""font-size:42px;"">ZEBRA</div><img id = ""stim"" ><div class = green_square id = bottomsquare></div>",null,encoding,word_square,,,1,bottomsquare,32,true,,,ZEBRA,2,,,
html-keyboard-response,331,572820,null,"<div style=""font-size:42px;"">ZEBRA</div>",null,,word,ZEBRA,,,,,,,,,,,,
html-keyboard-response,332,574328,651.2999999970198,"",32,,word,ZEBRA,,,,,,,,,,,,
call-function,333,574331,,"",,,,,,,,,,,,,,,,
html-keyboard-response,334,574440,null,"",null,,,,,,,,,,,,,,,
math-period,335,578275,6249.100000008941,"",,,,,,,,,,,4numpad,,,,,
html-keyboard-response,336,578378,null,"",null,,,,,,,,,,,,,,,
math-period,337,579764,2594.60000000149,"",,,,,,,,,,,3numpad,,,,,
html-keyboard-response,338,579868,null,"",null,,,,,,,,,,,,,,,
math-period,339,581119,2307.200000010431,"",,,,,,,,,,,5numpad,,,,,
html-keyboard-response,340,581225,null,"",null,,,,,,,,,,,,,,,
math-period,341,582219,1819.9000000059605,"",,,,,,,,,,,5numpad,,,,,
html-keyboard-response,342,582336,null,"",null,,,,,,,,,,,,,,,
math-period,343,583299,1759,"",,,,,,,,,,,5numpad,,,,,
html-keyboard-response,344,583405,null,"",null,,,,,,,,,,,,,,,
math-period,345,584543,2109,"",,,,,,,,,,,3numpad,,,,,
html-keyboard-response,346,584656,null,"",null,,,,,,,,,,,,,,,
math-period,347,585705,1936.3000000044703,"",,,,,,,,,,,3numpad,,,,,
html-keyboard-response,348,585808,null,"",null,,,,,,,,,,,,,,,
math-period,349,588021,4221.79999999702,"",,,,,,,,,,,3numpad,,,,,
html-keyboard-response,350,588132,null,"",null,,,,,,,,,,,,,,,
math-period,351,589386,2341.200000010431,"",,,,,,,,,,,3numpad,,,,,
html-keyboard-response,352,589494,null,"",null,,,,,,,,,,,,,,,
math-period,353,590593,2039.1999999955297,"",,,,,,,,,,,2numpad,,,,,
html-keyboard-response,354,590698,null,"",null,,,,,,,,,,,,,,,
math-period,355,592311,3032.89999999851,"",,,,,,,,,,,3numpad,,,,,
html-keyboard-response,356,592414,null,"",null,,,,,,,,,,,,,,,
math-period,357,593831,2658.39999999851,"",,,,,,,,,,,5numpad,,,,,
html-keyboard-response,358,593935,null,"",null,,,,,,,,,,,,,,,
math-period,359,595289,2529.700000010431,"",,,,,,,,,,,3numpad,,,,,
html-keyboard-response,360,595393,null,"",null,,,,,,,,,,,,,,,
math-period,361,597825,4598.19999999553,"",,,,,,,,,,,4numpad,,,,,
html-keyboard-response,362,597939,null,"",null,,,,,,,,,,,,,,,
math-period,363,598339,null,"",,,,,,,,,,,,,,,,
html-keyboard-response,364,599344,null,"Recall Period!",null,,,,,,,,,,,,,,,
call-function,365,599347,,"",,,,,,,,,,,,,,,,
html-keyboard-response,366,599451,null,"",null,,,,,,,,,,,,,,,
recall-period,367,609593,99175.89999999851,"",,,,,,,,,,,scapegoat,,,,,
html-keyboard-response,368,609710,null,"",null,,,,,,,,,,,,,,,
recall-period,369,611753,10077.400000020862,"",,,,,,,,,,,saddle,,,,,
html-keyboard-response,370,611865,null,"",null,,,,,,,,,,,,,,,
recall-period,371,613659,6566.10000000149,"",,,,,,,,,,,horse,,,,,
html-keyboard-response,372,613772,null,"",null,,,,,,,,,,,,,,,
recall-period,373,617018,15070.199999988079,"",,,,,,,,,,,zebra,,,,,
html-keyboard-response,374,617123,null,"",null,,,,,,,,,,,,,,,
recall-period,375,632520,112970.89999998361,"",,,,,,,,,,,convict,,,,,
html-keyboard-response,376,632627,null,"",null,,,,,,,,,,,,,,,
recall-period,377,636253,17077.10000001639,"",,,,,,,,,,,nurse,,,,,
html-keyboard-response,378,636361,null,"",null,,,,,,,,,,,,,,,
recall-period,379,656363,116616.89999998361,"",,,,,,,,,,,field,,,,,
html-keyboard-response,380,656468,null,"",null,,,,,,,,,,,,,,,
recall-period,381,666961,59242.59999999404,"",,,,,,,,,,,ozone,,,,,
html-keyboard-response,382,667073,null,"",null,,,,,,,,,,,,,,,
recall-period,383,674355,null,"",,,,,,,,,,,,,,,,
html-keyboard-response,384,674865,null,"Time's Up!",null,,,,,,,,,,,,,,,
html-keyboard-response,385,679301,4431.79999999702,"<p> Good job! You have responded correctly to 96% of the trials. </p>
                      <p>Be sure to only press the spacebar if you see a GREEN square, and please keep your accuracy above 80%.</p>
                      <p> Press any key to continue the experiment. </p>",75,,,,,,,,,,,,,,,
html-keyboard-response,386,680262,958.2000000029802,"<div style=""font-size:48px;"">Press any key to begin list 4 of 16 </div>",32,,,,,,,,,,,,,,,
html-keyboard-response,387,682769,null,"<div style=""font-size:60px;"">+</div>",null,,,,,,,,,,,,,,,
html-keyboard-response,388,682976,null,"<div style=""font-size:42px;"">PIGEON</div><img id = ""stim"" ><div class = green_square id = bottomsquare></div>",null,encoding,word_square,,,1,bottomsquare,32,true,,,PIGEON,3,,,
html-keyboard-response,389,683291,248.5,"<div style=""font-size:42px;"">PIGEON</div>",32,,word,PIGEON,,,,,,,,,,,,
html-keyboard-response,390,684800,null,"",null,,word,PIGEON,,,,,,,,,,,,
html-keyboard-response,391,685014,null,"<div style=""font-size:42px;"">PARROT</div><img id = ""stim"" ><div class = red_square id = topsquare></div>",null,encoding,word_square,,,0,topsquare,none,true,,,PARROT,3,,,
html-keyboard-response,392,685326,291,"<div style=""font-size:42px;"">PARROT</div>",75,,word,PARROT,,,,,,,,,,,,
html-keyboard-response,393,686834,null,"",null,,word,PARROT,,,,,,,,,,,,
html-keyboard-response,394,687052,null,"<div style=""font-size:42px;"">SCOUT</div><img id = ""stim"" ><div class = green_square id = topsquare></div>",null,encoding,word_square,,,1,topsquare,32,true,,,SCOUT,3,,,
html-keyboard-response,395,687361,null,"<div style=""font-size:42px;"">SCOUT</div>",null,,word,SCOUT,,,,,,,,,,,,
html-keyboard-response,396,688870,489.6000000014901,"",32,,word,SCOUT,,,,,,,,,,,,
html-keyboard-response,397,689074,null,"<div style=""font-size:42px;"">DONKEY</div><img id = ""stim"" ><div class = green_square id = bottomsquare></div>",null,encoding,word_square,,,1,bottomsquare,32,true,,,DONKEY,3,,,
html-keyboard-response,398,689392,null,"<div style=""font-size:42px;"">DONKEY</div>",null,,word,DONKEY,,,,,,,,,,,,
html-keyboard-response,399,690902,124.70000000298023,"",32,,word,DONKEY,,,,,,,,,,,,
html-keyboard-response,400,691122,null,"<div style=""font-size:42px;"">FOREHEAD</div><img id = ""stim"" ><div class = red_square id = bottomsquare></div>",null,encoding,word_square,,,0,bottomsquare,none,true,,,FOREHEAD,3,,,
html-keyboard-response,401,691431,null,"<div style=""font-size:42px;"">FOREHEAD</div>",null,,word,FOREHEAD,,,,,,,,,,,,
html-keyboard-response,402,692937,26.100000001490116,"",75,,word,FOREHEAD,,,,,,,,,,,,
html-keyboard-response,403,693154,null,"<div style=""font-size:42px;"">SENATE</div><img id = ""stim"" ><div class = red_square id = topsquare></div>",null,encoding,word_square,,,0,topsquare,none,true,,,SENATE,3,,,
html-keyboard-response,404,693464,null,"<div style=""font-size:42px;"">SENATE</div>",null,,word,SENATE,,,,,,,,,,,,
html-keyboard-response,405,694970,380.5,"",75,,word,SENATE,,,,,,,,,,,,
html-keyboard-response,406,695183,null,"<div style=""font-size:42px;"">RAILROAD</div><img id = ""stim"" ><div class = red_square id = bottomsquare></div>",null,encoding,word_square,,,0,bottomsquare,none,true,,,RAILROAD,3,,,
html-keyboard-response,407,695502,null,"<div style=""font-size:42px;"">RAILROAD</div>",null,,word,RAILROAD,,,,,,,,,,,,
html-keyboard-response,408,697015,21,"",75,,word,RAILROAD,,,,,,,,,,,,
html-keyboard-response,409,697225,null,"<div style=""font-size:42px;"">HEART</div><img id = ""stim"" ><div class = green_square id = topsquare></div>",null,encoding,word_square,,,1,topsquare,32,true,,,HEART,3,,,
html-keyboard-response,410,697532,null,"<div style=""font-size:42px;"">HEART</div>",null,,word,HEART,,,,,,,,,,,,
html-keyboard-response,411,699036,80.89999999850988,"",32,,word,HEART,,,,,,,,,,,,
html-keyboard-response,412,699240,null,"<div style=""font-size:42px;"">LETTUCE</div><img id = ""stim"" ><div class = red_square id = topsquare></div>",null,encoding,word_square,,,0,topsquare,none,true,,,LETTUCE,3,,,
html-keyboard-response,413,699549,null,"<div style=""font-size:42px;"">LETTUCE</div>",null,,word,LETTUCE,,,,,,,,,,,,
html-keyboard-response,414,701063,82,"",75,,word,LETTUCE,,,,,,,,,,,,
html-keyboard-response,415,701276,null,"<div style=""font-size:42px;"">LEMON</div><img id = ""stim"" ><div class = green_square id = bottomsquare></div>",null,encoding,word_square,,,1,bottomsquare,32,true,,,LEMON,3,,,
html-keyboard-response,416,701588,null,"<div style=""font-size:42px;"">LEMON</div>",null,,word,LEMON,,,,,,,,,,,,
html-keyboard-response,417,703105,311.1000000014901,"",32,,word,LEMON,,,,,,,,,,,,
html-keyboard-response,418,703323,null,"<div style=""font-size:42px;"">SCARF</div><img id = ""stim"" ><div class = green_square id = topsquare></div>",null,encoding,word_square,,,1,topsquare,32,false,,,SCARF,3,,,
html-keyboard-response,419,703631,null,"<div style=""font-size:42px;"">SCARF</div>",null,,word,SCARF,,,,,,,,,,,,
html-keyboard-response,420,705141,126.5,"",75,,word,SCARF,,,,,,,,,,,,
html-keyboard-response,421,705346,null,"<div style=""font-size:42px;"">TORCH</div><img id = ""stim"" ><div class = red_square id = bottomsquare></div>",null,encoding,word_square,,,0,bottomsquare,none,true,,,TORCH,3,,,
html-keyboard-response,422,705658,252,"<div style=""font-size:42px;"">TORCH</div>",75,,word,TORCH,,,,,,,,,,,,
html-keyboard-response,423,707174,null,"",null,,word,TORCH,,,,,,,,,,,,
html-keyboard-response,424,707391,null,"<div style=""font-size:42px;"">PARENT</div><img id = ""stim"" ><div class = green_square id = bottomsquare></div>",null,encoding,word_square,,,1,bottomsquare,32,true,,,PARENT,3,,,
html-keyboard-response,425,707706,null,"<div style=""font-size:42px;"">PARENT</div>",null,,word,PARENT,,,,,,,,,,,,
html-keyboard-response,426,709211,111,"",32,,word,PARENT,,,,,,,,,,,,
html-keyboard-response,427,709423,null,"<div style=""font-size:42px;"">SWATTER</div><img id = ""stim"" ><div class = green_square id = topsquare></div>",null,encoding,word_square,,,1,topsquare,32,false,,,SWATTER,3,,,
html-keyboard-response,428,709739,null,"<div style=""font-size:42px;"">SWATTER</div>",null,,word,SWATTER,,,,,,,,,,,,
html-keyboard-response,429,711255,576.3999999985099,"",75,,word,SWATTER,,,,,,,,,,,,
html-keyboard-response,430,711459,null,"<div style=""font-size:42px;"">PATIENT</div><img id = ""stim"" ><div class = red_square id = topsquare></div>",null,encoding,word_square,,,0,topsquare,none,true,,,PATIENT,3,,,
html-keyboard-response,431,711771,null,"<div style=""font-size:42px;"">PATIENT</div>",null,,word,PATIENT,,,,,,,,,,,,
html-keyboard-response,432,713288,40.80000000447035,"",75,,word,PATIENT,,,,,,,,,,,,
html-keyboard-response,433,713494,null,"<div style=""font-size:42px;"">CRATER</div><img id = ""stim"" ><div class = red_square id = bottomsquare></div>",null,encoding,word_square,,,0,bottomsquare,none,false,,,CRATER,3,,,
html-keyboard-response,434,713805,null,"<div style=""font-size:42px;"">CRATER</div>",null,,word,CRATER,,,,,,,,,,,,
html-keyboard-response,435,715323,379.1000000014901,"",32,,word,CRATER,,,,,,,,,,,,
call-function,436,715326,,"",,,,,,,,,,,,,,,,
html-keyboard-response,437,715429,null,"",null,,,,,,,,,,,,,,,
math-period,438,718048,4311.39999999851,"",,,,,,,,,,,4numpad,,,,,
html-keyboard-response,439,718151,null,"",null,,,,,,,,,,,,,,,
math-period,440,720412,4335,"",,,,,,,,,,,1numpad,,,,,
html-keyboard-response,441,720529,null,"",null,,,,,,,,,,,,,,,
math-period,442,723543,5879.70000000298,"",,,,,,,,,,,2numpad,,,,,
html-keyboard-response,443,723652,null,"",null,,,,,,,,,,,,,,,
math-period,444,725115,2759.5000000074506,"",,,,,,,,,,,3numpad,,,,,
html-keyboard-response,445,725226,null,"",null,,,,,,,,,,,,,,,
math-period,446,732516,11888.39999999851,"",,,,,,,,,,,1numpad,,,,,
html-keyboard-response,447,732626,null,"",null,,,,,,,,,,,,,,,
math-period,448,734016,2591.5,"",,,,,,,,,,,4numpad,,,,,
html-keyboard-response,449,734120,null,"",null,,,,,,,,,,,,,,,
math-period,450,735664,2837.10000000149,"",,,,,,,,,,,3numpad,,,,,
html-keyboard-response,451,735775,null,"",null,,,,,,,,,,,,,,,
math-period,452,737486,3171.2999999970198,"",,,,,,,,,,,4numpad,,,,,
html-keyboard-response,453,737601,null,"",null,,,,,,,,,,,,,,,
math-period,454,739327,null,"",,,,,,,,,,,,,,,,
html-keyboard-response,455,740345,null,"Recall Period!",null,,,,,,,,,,,,,,,
call-function,456,740348,,"",,,,,,,,,,,,,,,,
html-keyboard-response,457,740451,null,"",null,,,,,,,,,,,,,,,
recall-period,458,743270,14047.10000000894,"",,,,,,,,,,,crater,,,,,
html-keyboard-response,459,743380,null,"",null,,,,,,,,,,,,,,,
recall-period,460,751380,50260.80000001192,"",,,,,,,,,,,parrot,,,,,
html-keyboard-response,461,751496,null,"",null,,,,,,,,,,,,,,,
recall-period,462,759988,79398.09999996424,"",,,,,,,,,,,pigeon,,,,,
html-keyboard-response,463,760107,null,"",null,,,,,,,,,,,,,,,
recall-period,464,815365,null,"",,,,,,,,,,,,,,,,
html-keyboard-response,465,815883,null,"Time's Up!",null,,,,,,,,,,,,,,,
html-keyboard-response,466,817546,1660,"<p> Good job! You have responded correctly to 92% of the trials. </p>
                      <p>Be sure to only press the spacebar if you see a GREEN square, and please keep your accuracy above 80%.</p>
                      <p> Press any key to continue the experiment. </p>",188,,,,,,,,,,,,,,,
html-keyboard-response,467,818710,1160.5999999940395,"<div style=""font-size:48px;"">Press any key to begin list 5 of 16 </div>",32,,,,,,,,,,,,,,,
html-keyboard-response,468,821223,null,"<div style=""font-size:60px;"">+</div>",null,,,,,,,,,,,,,,,
html-keyboard-response,469,821431,null,"<div style=""font-size:42px;"">VALVE</div><img id = ""stim"" ><div class = green_square id = topsquare></div>",null,encoding,word_square,,,1,topsquare,32,true,,,VALVE,4,,,
html-keyboard-response,470,821747,292.79999999701977,"<div style=""font-size:42px;"">VALVE</div>",32,,word,VALVE,,,,,,,,,,,,
html-keyboard-response,471,823256,null,"",null,,word,VALVE,,,,,,,,,,,,
html-keyboard-response,472,823462,null,"<div style=""font-size:42px;"">ASIA</div><img id = ""stim"" ><div class = red_square id = bottomsquare></div>",null,encoding,word_square,,,0,bottomsquare,none,true,,,ASIA,4,,,
html-keyboard-response,473,823775,277.69999999552965,"<div style=""font-size:42px;"">ASIA</div>",75,,word,ASIA,,,,,,,,,,,,
html-keyboard-response,474,825285,null,"",null,,word,ASIA,,,,,,,,,,,,
html-keyboard-response,475,825497,null,"<div style=""font-size:42px;"">COUNTRY</div><img id = ""stim"" ><div class = green_square id = bottomsquare></div>",null,encoding,word_square,,,1,bottomsquare,32,true,,,COUNTRY,4,,,
html-keyboard-response,476,825806,296.09999999403954,"<div style=""font-size:42px;"">COUNTRY</div>",32,,word,COUNTRY,,,,,,,,,,,,
html-keyboard-response,477,827319,null,"",null,,word,COUNTRY,,,,,,,,,,,,
html-keyboard-response,478,827530,null,"<div style=""font-size:42px;"">LAPEL</div><img id = ""stim"" ><div class = red_square id = topsquare></div>",null,encoding,word_square,,,0,topsquare,none,true,,,LAPEL,4,,,
html-keyboard-response,479,827833,null,"<div style=""font-size:42px;"">LAPEL</div>",null,,word,LAPEL,,,,,,,,,,,,
html-keyboard-response,480,829337,372.29999999701977,"",75,,word,LAPEL,,,,,,,,,,,,
html-keyboard-response,481,829543,null,"<div style=""font-size:42px;"">WITNESS</div><img id = ""stim"" ><div class = red_square id = bottomsquare></div>",null,encoding,word_square,,,0,bottomsquare,none,true,,,WITNESS,4,,,
html-keyboard-response,482,829858,null,"<div style=""font-size:42px;"">WITNESS</div>",null,,word,WITNESS,,,,,,,,,,,,
html-keyboard-response,483,831366,107.29999999701977,"",75,,word,WITNESS,,,,,,,,,,,,
html-keyboard-response,484,831582,null,"<div style=""font-size:42px;"">BOUILLON</div><img id = ""stim"" ><div class = green_square id = topsquare></div>",null,encoding,word_square,,,1,topsquare,32,true,,,BOUILLON,4,,,
html-keyboard-response,485,831892,null,"<div style=""font-size:42px;"">BOUILLON</div>",null,,word,BOUILLON,,,,,,,,,,,,
html-keyboard-response,486,833411,69.09999999403954,"",32,,word,BOUILLON,,,,,,,,,,,,
html-keyboard-response,487,833621,null,"<div style=""font-size:42px;"">DENIM</div><img id = ""stim"" ><div class = red_square id = topsquare></div>",null,encoding,word_square,,,0,topsquare,none,true,,,DENIM,4,,,
html-keyboard-response,488,833926,null,"<div style=""font-size:42px;"">DENIM</div>",null,,word,DENIM,,,,,,,,,,,,
html-keyboard-response,489,835449,239.79999999701977,"",75,,word,DENIM,,,,,,,,,,,,
html-keyboard-response,490,835666,null,"<div style=""font-size:42px;"">WAGON</div><img id = ""stim"" ><div class = green_square id = bottomsquare></div>",null,encoding,word_square,,,1,bottomsquare,32,true,,,WAGON,4,,,
html-keyboard-response,491,835979,null,"<div style=""font-size:42px;"">WAGON</div>",null,,word,WAGON,,,,,,,,,,,,
html-keyboard-response,492,837484,88.39999999850988,"",32,,word,WAGON,,,,,,,,,,,,
html-keyboard-response,493,837689,null,"<div style=""font-size:42px;"">YACHT</div><img id = ""stim"" ><div class = red_square id = bottomsquare></div>",null,encoding,word_square,,,0,bottomsquare,none,true,,,YACHT,4,,,
html-keyboard-response,494,837998,null,"<div style=""font-size:42px;"">YACHT</div>",null,,word,YACHT,,,,,,,,,,,,
html-keyboard-response,495,839515,81.20000000298023,"",75,,word,YACHT,,,,,,,,,,,,
html-keyboard-response,496,839724,null,"<div style=""font-size:42px;"">CANAL</div><img id = ""stim"" ><div class = red_square id = topsquare></div>",null,encoding,word_square,,,0,topsquare,none,true,,,CANAL,4,,,
html-keyboard-response,497,840030,null,"<div style=""font-size:42px;"">CANAL</div>",null,,word,CANAL,,,,,,,,,,,,
html-keyboard-response,498,841534,102.20000000298023,"",75,,word,CANAL,,,,,,,,,,,,
html-keyboard-response,499,841746,null,"<div style=""font-size:42px;"">CHECKERS</div><img id = ""stim"" ><div class = green_square id = topsquare></div>",null,encoding,word_square,,,1,topsquare,32,true,,,CHECKERS,4,,,
html-keyboard-response,500,842063,null,"<div style=""font-size:42px;"">CHECKERS</div>",null,,word,CHECKERS,,,,,,,,,,,,
html-keyboard-response,501,843567,91.60000000149012,"",32,,word,CHECKERS,,,,,,,,,,,,
html-keyboard-response,502,843774,null,"<div style=""font-size:42px;"">GRASS</div><img id = ""stim"" ><div class = green_square id = bottomsquare></div>",null,encoding,word_square,,,1,bottomsquare,32,true,,,GRASS,4,,,
html-keyboard-response,503,844076,null,"<div style=""font-size:42px;"">GRASS</div>",null,,word,GRASS,,,,,,,,,,,,
html-keyboard-response,504,845586,285.70000000298023,"",32,,word,GRASS,,,,,,,,,,,,
html-keyboard-response,505,845797,null,"<div style=""font-size:42px;"">SPACE</div><img id = ""stim"" ><div class = red_square id = bottomsquare></div>",null,encoding,word_square,,,0,bottomsquare,none,true,,,SPACE,4,,,
html-keyboard-response,506,846103,null,"<div style=""font-size:42px;"">SPACE</div>",null,,word,SPACE,,,,,,,,,,,,
html-keyboard-response,507,847608,292.5,"",75,,word,SPACE,,,,,,,,,,,,
html-keyboard-response,508,847812,null,"<div style=""font-size:42px;"">TURTLE</div><img id = ""stim"" ><div class = red_square id = topsquare></div>",null,encoding,word_square,,,0,topsquare,none,true,,,TURTLE,4,,,
html-keyboard-response,509,848124,null,"<div style=""font-size:42px;"">TURTLE</div>",null,,word,TURTLE,,,,,,,,,,,,
html-keyboard-response,510,849629,248.10000000149012,"",75,,word,TURTLE,,,,,,,,,,,,
html-keyboard-response,511,849839,null,"<div style=""font-size:42px;"">CLAM</div><img id = ""stim"" ><div class = green_square id = topsquare></div>",null,encoding,word_square,,,1,topsquare,32,true,,,CLAM,4,,,
html-keyboard-response,512,850150,null,"<div style=""font-size:42px;"">CLAM</div>",null,,word,CLAM,,,,,,,,,,,,
html-keyboard-response,513,851653,444.1000000014901,"",32,,word,CLAM,,,,,,,,,,,,
html-keyboard-response,514,851857,null,"<div style=""font-size:42px;"">NEUTRON</div><img id = ""stim"" ><div class = green_square id = bottomsquare></div>",null,encoding,word_square,,,1,bottomsquare,32,true,,,NEUTRON,4,,,
html-keyboard-response,515,852164,null,"<div style=""font-size:42px;"">NEUTRON</div>",null,,word,NEUTRON,,,,,,,,,,,,
html-keyboard-response,516,853676,535.5,"",32,,word,NEUTRON,,,,,,,,,,,,
call-function,517,853678,,"",,,,,,,,,,,,,,,,
html-keyboard-response,518,853779,null,"",null,,,,,,,,,,,,,,,
math-period,519,855639,3492.89999999851,"",,,,,,,,,,,1numpad,,,,,
html-keyboard-response,520,855749,null,"",null,,,,,,,,,,,,,,,
math-period,521,858241,4823.5,"",,,,,,,,,,,2numpad,,,,,
html-keyboard-response,522,858345,null,"",null,,,,,,,,,,,,,,,
math-period,523,859497,2131.4000000059605,"",,,,,,,,,,,3numpad,,,,,
html-keyboard-response,524,859602,null,"",null,,,,,,,,,,,,,,,
math-period,525,861199,3020.1999999955297,"",,,,,,,,,,,1numpad,,,,,
html-keyboard-response,526,861303,null,"",null,,,,,,,,,,,,,,,
math-period,527,862559,2350.10000000149,"",,,,,,,,,,,3numpad,,,,,
html-keyboard-response,528,862666,null,"",null,,,,,,,,,,,,,,,
math-period,529,864275,3065.0999999940395,"",,,,,,,,,,,1numpad,,,,,
html-keyboard-response,530,864378,null,"",null,,,,,,,,,,,,,,,
math-period,531,865389,1905.3000000044703,"",,,,,,,,,,,3numpad,,,,,
html-keyboard-response,532,865502,null,"",null,,,,,,,,,,,,,,,
math-period,533,866977,2769.89999999851,"",,,,,,,,,,,5numpad,,,,,
html-keyboard-response,534,867088,null,"",null,,,,,,,,,,,,,,,
math-period,535,868671,3009.5,"",,,,,,,,,,,2numpad,,,,,
html-keyboard-response,536,868786,null,"",null,,,,,,,,,,,,,,,
math-period,537,870446,3159.5000000074506,"",,,,,,,,,,,1numpad,,,,,
html-keyboard-response,538,870564,null,"",null,,,,,,,,,,,,,,,
math-period,539,872300,3311,"",,,,,,,,,,,1numpad,,,,,
html-keyboard-response,540,872409,null,"",null,,,,,,,,,,,,,,,
math-period,541,874163,3323.4000000059605,"",,,,,,,,,,,6numpad,,,,,
html-keyboard-response,542,874267,null,"",null,,,,,,,,,,,,,,,
math-period,543,875347,2008.7000000029802,"",,,,,,,,,,,3numpad,,,,,
html-keyboard-response,544,875451,null,"",null,,,,,,,,,,,,,,,
math-period,545,876266,1481.1000000014901,"",,,,,,,,,,,3numpad,,,,,
html-keyboard-response,546,876370,null,"",null,,,,,,,,,,,,,,,
math-period,547,877693,null,"",,,,,,,,,,,,,,,,
html-keyboard-response,548,878705,null,"Recall Period!",null,,,,,,,,,,,,,,,
call-function,549,878708,,"",,,,,,,,,,,,,,,,
html-keyboard-response,550,878817,null,"",null,,,,,,,,,,,,,,,
recall-period,551,882048,14306.40000000596,"",,,,,,,,,,,turtle,,,,,
html-keyboard-response,552,882158,null,"",null,,,,,,,,,,,,,,,
recall-period,553,883976,6244.10000000149,"",,,,,,,,,,,clam,,,,,
html-keyboard-response,554,884082,null,"",null,,,,,,,,,,,,,,,
recall-period,555,887382,12660.40000000596,"",,,,,,,,,,,neutron,,,,,
html-keyboard-response,556,887493,null,"",null,,,,,,,,,,,,,,,
recall-period,557,895714,80917.09999996424,"",,,,,,,,,,,bullliuon,,,,,
html-keyboard-response,558,895823,null,"",null,,,,,,,,,,,,,,,
recall-period,559,904255,59286.39999998361,"",,,,,,,,,,,country,,,,,
html-keyboard-response,560,904359,null,"",null,,,,,,,,,,,,,,,
recall-period,561,906598,7426.500000007451,"",,,,,,,,,,,asia,,,,,
html-keyboard-response,562,906705,null,"",null,,,,,,,,,,,,,,,
recall-period,563,953722,null,"",,,,,,,,,,,,,,,,
html-keyboard-response,564,954239,null,"Time's Up!",null,,,,,,,,,,,,,,,
html-keyboard-response,565,955333,1090.7999999970198,"<p> Good job! You have responded correctly to 94% of the trials. </p>
                      <p>Be sure to only press the spacebar if you see a GREEN square, and please keep your accuracy above 80%.</p>
                      <p> Press any key to continue the experiment. </p>",78,,,,,,,,,,,,,,,
html-keyboard-response,566,956122,784.6000000014901,"<div style=""font-size:48px;"">Press any key to begin list 6 of 16 </div>",32,,,,,,,,,,,,,,,
html-keyboard-response,567,958632,null,"<div style=""font-size:60px;"">+</div>",null,,,,,,,,,,,,,,,
html-keyboard-response,568,958836,null,"<div style=""font-size:42px;"">PANTHER</div><img id = ""stim"" ><div class = green_square id = bottomsquare></div>",null,encoding,word_square,,,1,bottomsquare,32,true,,,PANTHER,5,,,
html-keyboard-response,569,959138,null,"<div style=""font-size:42px;"">PANTHER</div>",null,,word,PANTHER,,,,,,,,,,,,
html-keyboard-response,570,960650,23.200000002980232,"",32,,word,PANTHER,,,,,,,,,,,,
html-keyboard-response,571,960854,null,"<div style=""font-size:42px;"">TROMBONE</div><img id = ""stim"" ><div class = green_square id = topsquare></div>",null,encoding,word_square,,,1,topsquare,32,true,,,TROMBONE,5,,,
html-keyboard-response,572,961164,null,"<div style=""font-size:42px;"">TROMBONE</div>",null,,word,TROMBONE,,,,,,,,,,,,
html-keyboard-response,573,962673,46.30000000447035,"",32,,word,TROMBONE,,,,,,,,,,,,
html-keyboard-response,574,962887,null,"<div style=""font-size:42px;"">PERFUME</div><img id = ""stim"" ><div class = red_square id = topsquare></div>",null,encoding,word_square,,,0,topsquare,none,true,,,PERFUME,5,,,
html-keyboard-response,575,963199,235,"<div style=""font-size:42px;"">PERFUME</div>",75,,word,PERFUME,,,,,,,,,,,,
html-keyboard-response,576,964707,null,"",null,,word,PERFUME,,,,,,,,,,,,
html-keyboard-response,577,964919,null,"<div style=""font-size:42px;"">PIRATE</div><img id = ""stim"" ><div class = red_square id = bottomsquare></div>",null,encoding,word_square,,,0,bottomsquare,none,true,,,PIRATE,5,,,
html-keyboard-response,578,965223,250.60000000149012,"<div style=""font-size:42px;"">PIRATE</div>",75,,word,PIRATE,,,,,,,,,,,,
html-keyboard-response,579,966727,null,"",null,,word,PIRATE,,,,,,,,,,,,
html-keyboard-response,580,966939,null,"<div style=""font-size:42px;"">LOBSTER</div><img id = ""stim"" ><div class = green_square id = bottomsquare></div>",null,encoding,word_square,,,1,bottomsquare,32,true,,,LOBSTER,5,,,
html-keyboard-response,581,967245,248.60000000149012,"<div style=""font-size:42px;"">LOBSTER</div>",32,,word,LOBSTER,,,,,,,,,,,,
html-keyboard-response,582,968758,null,"",null,,word,LOBSTER,,,,,,,,,,,,
html-keyboard-response,583,968962,null,"<div style=""font-size:42px;"">CYCLONE</div><img id = ""stim"" ><div class = green_square id = topsquare></div>",null,encoding,word_square,,,1,topsquare,32,true,,,CYCLONE,5,,,
html-keyboard-response,584,969271,null,"<div style=""font-size:42px;"">CYCLONE</div>",null,,word,CYCLONE,,,,,,,,,,,,
html-keyboard-response,585,970775,86.30000000447035,"",32,,word,CYCLONE,,,,,,,,,,,,
html-keyboard-response,586,970986,null,"<div style=""font-size:42px;"">BRIDE</div><img id = ""stim"" ><div class = red_square id = topsquare></div>",null,encoding,word_square,,,0,topsquare,none,true,,,BRIDE,5,,,
html-keyboard-response,587,971289,294,"<div style=""font-size:42px;"">BRIDE</div>",75,,word,BRIDE,,,,,,,,,,,,
html-keyboard-response,588,972800,null,"",null,,word,BRIDE,,,,,,,,,,,,
html-keyboard-response,589,973011,null,"<div style=""font-size:42px;"">WHISKERS</div><img id = ""stim"" ><div class = red_square id = bottomsquare></div>",null,encoding,word_square,,,0,bottomsquare,none,true,,,WHISKERS,5,,,
html-keyboard-response,590,973318,283.30000000447035,"<div style=""font-size:42px;"">WHISKERS</div>",75,,word,WHISKERS,,,,,,,,,,,,
html-keyboard-response,591,974826,null,"",null,,word,WHISKERS,,,,,,,,,,,,
html-keyboard-response,592,975035,null,"<div style=""font-size:42px;"">MARSH</div><img id = ""stim"" ><div class = green_square id = bottomsquare></div>",null,encoding,word_square,,,1,bottomsquare,32,true,,,MARSH,5,,,
html-keyboard-response,593,975346,293.5,"<div style=""font-size:42px;"">MARSH</div>",32,,word,MARSH,,,,,,,,,,,,
html-keyboard-response,594,976866,null,"",null,,word,MARSH,,,,,,,,,,,,
html-keyboard-response,595,977079,null,"<div style=""font-size:42px;"">HEDGE</div><img id = ""stim"" ><div class = red_square id = topsquare></div>",null,encoding,word_square,,,0,topsquare,none,true,,,HEDGE,5,,,
html-keyboard-response,596,977397,null,"<div style=""font-size:42px;"">HEDGE</div>",null,,word,HEDGE,,,,,,,,,,,,
html-keyboard-response,597,978911,29.900000005960464,"",75,,word,HEDGE,,,,,,,,,,,,
html-keyboard-response,598,979121,null,"<div style=""font-size:42px;"">CLOUD</div><img id = ""stim"" ><div class = green_square id = topsquare></div>",null,encoding,word_square,,,1,topsquare,32,true,,,CLOUD,5,,,
html-keyboard-response,599,979426,null,"<div style=""font-size:42px;"">CLOUD</div>",null,,word,CLOUD,,,,,,,,,,,,
html-keyboard-response,600,980943,126.20000000298023,"",32,,word,CLOUD,,,,,,,,,,,,
html-keyboard-response,601,981151,null,"<div style=""font-size:42px;"">WINDSHIELD</div><img id = ""stim"" ><div class = red_square id = bottomsquare></div>",null,encoding,word_square,,,0,bottomsquare,none,true,,,WINDSHIELD,5,,,
html-keyboard-response,602,981460,null,"<div style=""font-size:42px;"">WINDSHIELD</div>",null,,word,WINDSHIELD,,,,,,,,,,,,
html-keyboard-response,603,982978,229.10000000149012,"",75,,word,WINDSHIELD,,,,,,,,,,,,
html-keyboard-response,604,983187,null,"<div style=""font-size:42px;"">VILLAGE</div><img id = ""stim"" ><div class = red_square id = topsquare></div>",null,encoding,word_square,,,0,topsquare,none,true,,,VILLAGE,5,,,
html-keyboard-response,605,983497,null,"<div style=""font-size:42px;"">VILLAGE</div>",null,,word,VILLAGE,,,,,,,,,,,,
html-keyboard-response,606,985009,256,"",75,,word,VILLAGE,,,,,,,,,,,,
html-keyboard-response,607,985227,null,"<div style=""font-size:42px;"">LEG</div><img id = ""stim"" ><div class = green_square id = bottomsquare></div>",null,encoding,word_square,,,1,bottomsquare,32,true,,,LEG,5,,,
html-keyboard-response,608,985546,292.69999999552965,"<div style=""font-size:42px;"">LEG</div>",32,,word,LEG,,,,,,,,,,,,
html-keyboard-response,609,987058,null,"",null,,word,LEG,,,,,,,,,,,,
html-keyboard-response,610,987278,null,"<div style=""font-size:42px;"">WRIST</div><img id = ""stim"" ><div class = red_square id = bottomsquare></div>",null,encoding,word_square,,,0,bottomsquare,none,true,,,WRIST,5,,,
html-keyboard-response,611,987582,null,"<div style=""font-size:42px;"">WRIST</div>",null,,word,WRIST,,,,,,,,,,,,
html-keyboard-response,612,989096,190.39999999850988,"",75,,word,WRIST,,,,,,,,,,,,
html-keyboard-response,613,989310,null,"<div style=""font-size:42px;"">SKILLET</div><img id = ""stim"" ><div class = green_square id = topsquare></div>",null,encoding,word_square,,,1,topsquare,32,true,,,SKILLET,5,,,
html-keyboard-response,614,989613,null,"<div style=""font-size:42px;"">SKILLET</div>",null,,word,SKILLET,,,,,,,,,,,,
html-keyboard-response,615,991132,242,"",32,,word,SKILLET,,,,,,,,,,,,
call-function,616,991135,,"",,,,,,,,,,,,,,,,
html-keyboard-response,617,991242,null,"",null,,,,,,,,,,,,,,,
math-period,618,993033,3197.7999999970198,"",,,,,,,,,,,3numpad,,,,,
html-keyboard-response,619,993151,null,"",null,,,,,,,,,,,,,,,
math-period,620,994809,3041.4000000059605,"",,,,,,,,,,,4numpad,,,,,
html-keyboard-response,621,994923,null,"",null,,,,,,,,,,,,,,,
math-period,622,997329,3759.0000000074506,"",,,,,,,,,,,2numpad,,,,,
html-keyboard-response,623,997441,null,"",null,,,,,,,,,,,,,,,
math-period,624,999222,2835.2000000029802,"",,,,,,,,,,,5numpad,,,,,
html-keyboard-response,625,999330,null,"",null,,,,,,,,,,,,,,,
math-period,626,1002276,5222.29999999702,"",,,,,,,,,,,1numpad,,,,,
html-keyboard-response,627,1002380,null,"",null,,,,,,,,,,,,,,,
math-period,628,1010489,74151.10000003129,"",,,,,,,,,,,3,,,,,
html-keyboard-response,629,1010600,null,"",null,,,,,,,,,,,,,,,
math-period,630,1012319,2726.700000010431,"",,,,,,,,,,,3,,,,,
html-keyboard-response,631,1012426,null,"",null,,,,,,,,,,,,,,,
math-period,632,1015137,null,"",,,,,,,,,,,,,,,,
html-keyboard-response,633,1016147,null,"Recall Period!",null,,,,,,,,,,,,,,,
call-function,634,1016150,,"",,,,,,,,,,,,,,,,
html-keyboard-response,635,1016261,null,"",null,,,,,,,,,,,,,,,
recall-period,636,1018911,8841.60000000894,"",,,,,,,,,,,leg,,,,,
html-keyboard-response,637,1019018,null,"",null,,,,,,,,,,,,,,,
recall-period,638,1020910,5837.70000000298,"",,,,,,,,,,,wrist,,,,,
html-keyboard-response,639,1021014,null,"",null,,,,,,,,,,,,,,,
recall-period,640,1023144,7841.999999970198,"",,,,,,,,,,,skillet,,,,,
html-keyboard-response,641,1023251,null,"",null,,,,,,,,,,,,,,,
recall-period,642,1043707,171945.1000000015,"",,,,,,,,,,,trombone,,,,,
html-keyboard-response,643,1043812,null,"",null,,,,,,,,,,,,,,,
recall-period,644,1091159,null,"",,,,,,,,,,,,,,,,
html-keyboard-response,645,1091680,null,"Time's Up!",null,,,,,,,,,,,,,,,
html-keyboard-response,646,1094471,2785.8000000044703,"<p> Good job! You have responded correctly to 95% of the trials. </p>
                      <p>Be sure to only press the spacebar if you see a GREEN square, and please keep your accuracy above 80%.</p>
                      <p> Press any key to continue the experiment. </p>",74,,,,,,,,,,,,,,,
html-keyboard-response,647,1095498,1023.7999999970198,"<div style=""font-size:48px;"">Press any key to begin list 7 of 16 </div>",74,,,,,,,,,,,,,,,
html-keyboard-response,648,1098014,null,"<div style=""font-size:60px;"">+</div>",null,,,,,,,,,,,,,,,
html-keyboard-response,649,1098228,null,"<div style=""font-size:42px;"">SAPPHIRE</div><img id = ""stim"" ><div class = red_square id = bottomsquare></div>",null,encoding,word_square,,,0,bottomsquare,none,true,,,SAPPHIRE,6,,,
html-keyboard-response,650,1098548,null,"<div style=""font-size:42px;"">SAPPHIRE</div>",null,,word,SAPPHIRE,,,,,,,,,,,,
html-keyboard-response,651,1100066,47,"",75,,word,SAPPHIRE,,,,,,,,,,,,
html-keyboard-response,652,1100281,null,"<div style=""font-size:42px;"">LUNCH</div><img id = ""stim"" ><div class = green_square id = topsquare></div>",null,encoding,word_square,,,1,topsquare,32,true,,,LUNCH,6,,,
html-keyboard-response,653,1100599,291.80000000447035,"<div style=""font-size:42px;"">LUNCH</div>",32,,word,LUNCH,,,,,,,,,,,,
html-keyboard-response,654,1102111,null,"",null,,word,LUNCH,,,,,,,,,,,,
html-keyboard-response,655,1102323,null,"<div style=""font-size:42px;"">PICNIC</div><img id = ""stim"" ><div class = red_square id = topsquare></div>",null,encoding,word_square,,,0,topsquare,none,true,,,PICNIC,6,,,
html-keyboard-response,656,1102629,null,"<div style=""font-size:42px;"">PICNIC</div>",null,,word,PICNIC,,,,,,,,,,,,
html-keyboard-response,657,1104147,4.5999999940395355,"",75,,word,PICNIC,,,,,,,,,,,,
html-keyboard-response,658,1104364,null,"<div style=""font-size:42px;"">PLAID</div><img id = ""stim"" ><div class = green_square id = bottomsquare></div>",null,encoding,word_square,,,1,bottomsquare,32,true,,,PLAID,6,,,
html-keyboard-response,659,1104669,null,"<div style=""font-size:42px;"">PLAID</div>",null,,word,PLAID,,,,,,,,,,,,
html-keyboard-response,660,1106181,232.70000000298023,"",32,,word,PLAID,,,,,,,,,,,,
html-keyboard-response,661,1106395,null,"<div style=""font-size:42px;"">QUAIL</div><img id = ""stim"" ><div class = green_square id = topsquare></div>",null,encoding,word_square,,,1,topsquare,32,true,,,QUAIL,6,,,
html-keyboard-response,662,1106700,281.79999999701977,"<div style=""font-size:42px;"">QUAIL</div>",32,,word,QUAIL,,,,,,,,,,,,
html-keyboard-response,663,1108213,null,"",null,,word,QUAIL,,,,,,,,,,,,
html-keyboard-response,664,1108426,null,"<div style=""font-size:42px;"">WAIST</div><img id = ""stim"" ><div class = red_square id = bottomsquare></div>",null,encoding,word_square,,,0,bottomsquare,none,true,,,WAIST,6,,,
html-keyboard-response,665,1108734,227.60000000149012,"<div style=""font-size:42px;"">WAIST</div>",75,,word,WAIST,,,,,,,,,,,,
html-keyboard-response,666,1110253,null,"",null,,word,WAIST,,,,,,,,,,,,
html-keyboard-response,667,1110458,null,"<div style=""font-size:42px;"">PIANO</div><img id = ""stim"" ><div class = green_square id = bottomsquare></div>",null,encoding,word_square,,,1,bottomsquare,32,true,,,PIANO,6,,,
html-keyboard-response,668,1110765,262.20000000298023,"<div style=""font-size:42px;"">PIANO</div>",32,,word,PIANO,,,,,,,,,,,,
html-keyboard-response,669,1112281,null,"",null,,word,PIANO,,,,,,,,,,,,
html-keyboard-response,670,1112492,null,"<div style=""font-size:42px;"">MAILBOX</div><img id = ""stim"" ><div class = red_square id = topsquare></div>",null,encoding,word_square,,,0,topsquare,none,true,,,MAILBOX,6,,,
html-keyboard-response,671,1112808,null,"<div style=""font-size:42px;"">MAILBOX</div>",null,,word,MAILBOX,,,,,,,,,,,,
html-keyboard-response,672,1114316,45.80000000447035,"",75,,word,MAILBOX,,,,,,,,,,,,
html-keyboard-response,673,1114520,null,"<div style=""font-size:42px;"">BOX</div><img id = ""stim"" ><div class = green_square id = topsquare></div>",null,encoding,word_square,,,1,topsquare,32,true,,,BOX,6,,,
html-keyboard-response,674,1114825,284.5,"<div style=""font-size:42px;"">BOX</div>",32,,word,BOX,,,,,,,,,,,,
html-keyboard-response,675,1116338,null,"",null,,word,BOX,,,,,,,,,,,,
html-keyboard-response,676,1116555,null,"<div style=""font-size:42px;"">OX</div><img id = ""stim"" ><div class = green_square id = bottomsquare></div>",null,encoding,word_square,,,1,bottomsquare,32,true,,,OX,6,,,
html-keyboard-response,677,1116861,null,"<div style=""font-size:42px;"">OX</div>",null,,word,OX,,,,,,,,,,,,
html-keyboard-response,678,1118368,80.70000000298023,"",32,,word,OX,,,,,,,,,,,,
html-keyboard-response,679,1118579,null,"<div style=""font-size:42px;"">PLUMBER</div><img id = ""stim"" ><div class = red_square id = bottomsquare></div>",null,encoding,word_square,,,0,bottomsquare,none,true,,,PLUMBER,6,,,
html-keyboard-response,680,1118883,null,"<div style=""font-size:42px;"">PLUMBER</div>",null,,word,PLUMBER,,,,,,,,,,,,
html-keyboard-response,681,1120392,376.29999999701977,"",75,,word,PLUMBER,,,,,,,,,,,,
html-keyboard-response,682,1120605,null,"<div style=""font-size:42px;"">KNUCKLE</div><img id = ""stim"" ><div class = red_square id = topsquare></div>",null,encoding,word_square,,,0,topsquare,none,true,,,KNUCKLE,6,,,
html-keyboard-response,683,1120913,null,"<div style=""font-size:42px;"">KNUCKLE</div>",null,,word,KNUCKLE,,,,,,,,,,,,
html-keyboard-response,684,1122421,241.39999999850988,"",75,,word,KNUCKLE,,,,,,,,,,,,
html-keyboard-response,685,1122633,null,"<div style=""font-size:42px;"">COUNTY</div><img id = ""stim"" ><div class = green_square id = topsquare></div>",null,encoding,word_square,,,1,topsquare,32,true,,,COUNTY,6,,,
html-keyboard-response,686,1122942,null,"<div style=""font-size:42px;"">COUNTY</div>",null,,word,COUNTY,,,,,,,,,,,,
html-keyboard-response,687,1124452,21.899999998509884,"",32,,word,COUNTY,,,,,,,,,,,,
html-keyboard-response,688,1124657,null,"<div style=""font-size:42px;"">JOKER</div><img id = ""stim"" ><div class = green_square id = bottomsquare></div>",null,encoding,word_square,,,1,bottomsquare,32,true,,,JOKER,6,,,
html-keyboard-response,689,1124963,null,"<div style=""font-size:42px;"">JOKER</div>",null,,word,JOKER,,,,,,,,,,,,
html-keyboard-response,690,1126469,64.80000000447035,"",32,,word,JOKER,,,,,,,,,,,,
html-keyboard-response,691,1126673,null,"<div style=""font-size:42px;"">TABLET</div><img id = ""stim"" ><div class = red_square id = bottomsquare></div>",null,encoding,word_square,,,0,bottomsquare,none,true,,,TABLET,6,,,
html-keyboard-response,692,1126979,null,"<div style=""font-size:42px;"">TABLET</div>",null,,word,TABLET,,,,,,,,,,,,
html-keyboard-response,693,1128489,146.10000000149012,"",75,,word,TABLET,,,,,,,,,,,,
html-keyboard-response,694,1128705,null,"<div style=""font-size:42px;"">MUMMY</div><img id = ""stim"" ><div class = red_square id = topsquare></div>",null,encoding,word_square,,,0,topsquare,none,true,,,MUMMY,6,,,
html-keyboard-response,695,1129018,null,"<div style=""font-size:42px;"">MUMMY</div>",null,,word,MUMMY,,,,,,,,,,,,
html-keyboard-response,696,1130525,387.6000000014901,"",75,,word,MUMMY,,,,,,,,,,,,
call-function,697,1130528,,"",,,,,,,,,,,,,,,,
html-keyboard-response,698,1130636,null,"",null,,,,,,,,,,,,,,,
math-period,699,1132789,4149,"",,,,,,,,,,,3numpad,,,,,
html-keyboard-response,700,1132901,null,"",null,,,,,,,,,,,,,,,
math-period,701,1134024,2093,"",,,,,,,,,,,4numpad,,,,,
html-keyboard-response,702,1134140,null,"",null,,,,,,,,,,,,,,,
math-period,703,1143635,18679.20000001043,"",,,,,,,,,,,3numpad,,,,,
html-keyboard-response,704,1143743,null,"",null,,,,,,,,,,,,,,,
math-period,705,1146532,5308.89999999851,"",,,,,,,,,,,1numpad,,,,,
html-keyboard-response,706,1146641,null,"",null,,,,,,,,,,,,,,,
math-period,707,1148187,2725.4000000059605,"",,,,,,,,,,,5numpad,,,,,
html-keyboard-response,708,1148291,null,"",null,,,,,,,,,,,,,,,
math-period,709,1154544,null,"",,,,,,,,,,,,,,,,
html-keyboard-response,710,1155554,null,"Recall Period!",null,,,,,,,,,,,,,,,
call-function,711,1155557,,"",,,,,,,,,,,,,,,,
html-keyboard-response,712,1155665,null,"",null,,,,,,,,,,,,,,,
recall-period,713,1158383,11852.099999986589,"",,,,,,,,,,,joker,,,,,
html-keyboard-response,714,1158490,null,"",null,,,,,,,,,,,,,,,
recall-period,715,1160567,6651.399999983609,"",,,,,,,,,,,tablt,,,,,
html-keyboard-response,716,1160673,null,"",null,,,,,,,,,,,,,,,
recall-period,717,1162503,6117.000000007451,"",,,,,,,,,,,mummy,,,,,
html-keyboard-response,718,1162619,null,"",null,,,,,,,,,,,,,,,
recall-period,719,1165012,9705.29999999702,"",,,,,,,,,,,mailbox,,,,,
html-keyboard-response,720,1165121,null,"",null,,,,,,,,,,,,,,,
recall-period,721,1167170,6304.299999989569,"",,,,,,,,,,,box,,,,,
html-keyboard-response,722,1167275,null,"",null,,,,,,,,,,,,,,,
recall-period,723,1168404,2231.2000000029802,"",,,,,,,,,,,ox,,,,,
html-keyboard-response,724,1168521,null,"",null,,,,,,,,,,,,,,,
recall-period,725,1185256,109486.70000001043,"",,,,,,,,,,,county,,,,,
html-keyboard-response,726,1185365,null,"",null,,,,,,,,,,,,,,,
recall-period,727,1198497,72665.19999998808,"",,,,,,,,,,,wrist,,,,,
html-keyboard-response,728,1198600,null,"",null,,,,,,,,,,,,,,,
recall-period,729,1231204,null,"",,,,,,,,,,,,,,,,
html-keyboard-response,730,1232199,null,"Time's Up!",null,,,,,,,,,,,,,,,
html-keyboard-response,731,1243956,11746,"<p> Good job! You have responded correctly to 96% of the trials. </p>
                      <p>Be sure to only press the spacebar if you see a GREEN square, and please keep your accuracy above 80%.</p>
                      <p> Press any key to continue the experiment. </p>",77,,,,,,,,,,,,,,,
html-keyboard-response,732,1245336,1376.6000000014901,"<div style=""font-size:48px;"">Press any key to begin list 8 of 16 </div>",75,,,,,,,,,,,,,,,
html-keyboard-response,733,1247844,null,"<div style=""font-size:60px;"">+</div>",null,,,,,,,,,,,,,,,
html-keyboard-response,734,1248056,null,"<div style=""font-size:42px;"">RACCOON</div><img id = ""stim"" ><div class = red_square id = topsquare></div>",null,encoding,word_square,,,0,topsquare,none,true,,,RACCOON,7,,,
html-keyboard-response,735,1248369,null,"<div style=""font-size:42px;"">RACCOON</div>",null,,word,RACCOON,,,,,,,,,,,,
html-keyboard-response,736,1249873,2.7000000029802322,"",75,,word,RACCOON,,,,,,,,,,,,
html-keyboard-response,737,1250090,null,"<div style=""font-size:42px;"">CROSS</div><img id = ""stim"" ><div class = red_square id = bottomsquare></div>",null,encoding,word_square,,,0,bottomsquare,none,true,,,CROSS,7,,,
html-keyboard-response,738,1250400,215.60000000149012,"<div style=""font-size:42px;"">CROSS</div>",75,,word,CROSS,,,,,,,,,,,,
html-keyboard-response,739,1251916,null,"",null,,word,CROSS,,,,,,,,,,,,
html-keyboard-response,740,1252129,null,"<div style=""font-size:42px;"">IDOL</div><img id = ""stim"" ><div class = green_square id = bottomsquare></div>",null,encoding,word_square,,,1,bottomsquare,32,true,,,IDOL,7,,,
html-keyboard-response,741,1252433,280.8999999985099,"<div style=""font-size:42px;"">IDOL</div>",32,,word,IDOL,,,,,,,,,,,,
html-keyboard-response,742,1253946,null,"",null,,word,IDOL,,,,,,,,,,,,
html-keyboard-response,743,1254162,null,"<div style=""font-size:42px;"">ANTLER</div><img id = ""stim"" ><div class = green_square id = topsquare></div>",null,encoding,word_square,,,1,topsquare,32,true,,,ANTLER,7,,,
html-keyboard-response,744,1254466,251.70000000298023,"<div style=""font-size:42px;"">ANTLER</div>",32,,word,ANTLER,,,,,,,,,,,,
html-keyboard-response,745,1255980,null,"",null,,word,ANTLER,,,,,,,,,,,,
html-keyboard-response,746,1256194,null,"<div style=""font-size:42px;"">GAZELLE</div><img id = ""stim"" ><div class = red_square id = topsquare></div>",null,encoding,word_square,,,0,topsquare,none,true,,,GAZELLE,7,,,
html-keyboard-response,747,1256503,257.6000000014901,"<div style=""font-size:42px;"">GAZELLE</div>",75,,word,GAZELLE,,,,,,,,,,,,
html-keyboard-response,748,1258016,null,"",null,,word,GAZELLE,,,,,,,,,,,,
html-keyboard-response,749,1258229,null,"<div style=""font-size:42px;"">BROTHER</div><img id = ""stim"" ><div class = red_square id = bottomsquare></div>",null,encoding,word_square,,,0,bottomsquare,none,true,,,BROTHER,7,,,
html-keyboard-response,750,1258548,254.79999999701977,"<div style=""font-size:42px;"">BROTHER</div>",75,,word,BROTHER,,,,,,,,,,,,
html-keyboard-response,751,1260062,null,"",null,,word,BROTHER,,,,,,,,,,,,
html-keyboard-response,752,1260278,null,"<div style=""font-size:42px;"">FRIEND</div><img id = ""stim"" ><div class = green_square id = bottomsquare></div>",null,encoding,word_square,,,1,bottomsquare,32,true,,,FRIEND,7,,,
html-keyboard-response,753,1260583,null,"<div style=""font-size:42px;"">FRIEND</div>",null,,word,FRIEND,,,,,,,,,,,,
html-keyboard-response,754,1262098,11.5,"",32,,word,FRIEND,,,,,,,,,,,,
html-keyboard-response,755,1262304,null,"<div style=""font-size:42px;"">POSSUM</div><img id = ""stim"" ><div class = green_square id = topsquare></div>",null,encoding,word_square,,,1,topsquare,32,true,,,POSSUM,7,,,
html-keyboard-response,756,1262608,264.5,"<div style=""font-size:42px;"">POSSUM</div>",32,,word,POSSUM,,,,,,,,,,,,
html-keyboard-response,757,1264126,null,"",null,,word,POSSUM,,,,,,,,,,,,
html-keyboard-response,758,1264341,null,"<div style=""font-size:42px;"">ARMY</div><img id = ""stim"" ><div class = red_square id = topsquare></div>",null,encoding,word_square,,,0,topsquare,none,true,,,ARMY,7,,,
html-keyboard-response,759,1264656,251.10000000149012,"<div style=""font-size:42px;"">ARMY</div>",75,,word,ARMY,,,,,,,,,,,,
html-keyboard-response,760,1266174,null,"",null,,word,ARMY,,,,,,,,,,,,
html-keyboard-response,761,1266387,null,"<div style=""font-size:42px;"">CLIPPERS</div><img id = ""stim"" ><div class = green_square id = bottomsquare></div>",null,encoding,word_square,,,1,bottomsquare,32,true,,,CLIPPERS,7,,,
html-keyboard-response,762,1266698,265.20000000298023,"<div style=""font-size:42px;"">CLIPPERS</div>",32,,word,CLIPPERS,,,,,,,,,,,,
html-keyboard-response,763,1268210,null,"",null,,word,CLIPPERS,,,,,,,,,,,,
html-keyboard-response,764,1268427,null,"<div style=""font-size:42px;"">GLASS</div><img id = ""stim"" ><div class = red_square id = bottomsquare></div>",null,encoding,word_square,,,0,bottomsquare,none,true,,,GLASS,7,,,
html-keyboard-response,765,1268734,null,"<div style=""font-size:42px;"">GLASS</div>",null,,word,GLASS,,,,,,,,,,,,
html-keyboard-response,766,1270243,90.70000000298023,"",75,,word,GLASS,,,,,,,,,,,,
html-keyboard-response,767,1270449,null,"<div style=""font-size:42px;"">YARN</div><img id = ""stim"" ><div class = green_square id = topsquare></div>",null,encoding,word_square,,,1,topsquare,32,true,,,YARN,7,,,
html-keyboard-response,768,1270753,null,"<div style=""font-size:42px;"">YARN</div>",null,,word,YARN,,,,,,,,,,,,
html-keyboard-response,769,1272265,413.1000000014901,"",32,,word,YARN,,,,,,,,,,,,
html-keyboard-response,770,1272470,null,"<div style=""font-size:42px;"">BASKET</div><img id = ""stim"" ><div class = green_square id = bottomsquare></div>",null,encoding,word_square,,,1,bottomsquare,32,true,,,BASKET,7,,,
html-keyboard-response,771,1272785,null,"<div style=""font-size:42px;"">BASKET</div>",null,,word,BASKET,,,,,,,,,,,,
html-keyboard-response,772,1274298,582.6000000014901,"",32,,word,BASKET,,,,,,,,,,,,
html-keyboard-response,773,1274504,null,"<div style=""font-size:42px;"">TRUMPET</div><img id = ""stim"" ><div class = red_square id = topsquare></div>",null,encoding,word_square,,,0,topsquare,none,true,,,TRUMPET,7,,,
html-keyboard-response,774,1274807,null,"<div style=""font-size:42px;"">TRUMPET</div>",null,,word,TRUMPET,,,,,,,,,,,,
html-keyboard-response,775,1276318,578.3999999985099,"",75,,word,TRUMPET,,,,,,,,,,,,
html-keyboard-response,776,1276524,null,"<div style=""font-size:42px;"">ISLAND</div><img id = ""stim"" ><div class = green_square id = topsquare></div>",null,encoding,word_square,,,1,topsquare,32,true,,,ISLAND,7,,,
html-keyboard-response,777,1276834,null,"<div style=""font-size:42px;"">ISLAND</div>",null,,word,ISLAND,,,,,,,,,,,,
html-keyboard-response,778,1278343,110.80000000447035,"",32,,word,ISLAND,,,,,,,,,,,,
html-keyboard-response,779,1278560,null,"<div style=""font-size:42px;"">MARKET</div><img id = ""stim"" ><div class = red_square id = bottomsquare></div>",null,encoding,word_square,,,0,bottomsquare,none,true,,,MARKET,7,,,
html-keyboard-response,780,1278865,null,"<div style=""font-size:42px;"">MARKET</div>",null,,word,MARKET,,,,,,,,,,,,
html-keyboard-response,781,1280370,105.39999999850988,"",75,,word,MARKET,,,,,,,,,,,,
call-function,782,1280372,,"",,,,,,,,,,,,,,,,
html-keyboard-response,783,1280481,null,"",null,,,,,,,,,,,,,,,
math-period,784,1287542,13895.20000001043,"",,,,,,,,,,,3numpad,,,,,
html-keyboard-response,785,1287660,null,"",null,,,,,,,,,,,,,,,
math-period,786,1288872,2159.1999999955297,"",,,,,,,,,,,4numpad,,,,,
html-keyboard-response,787,1288983,null,"",null,,,,,,,,,,,,,,,
math-period,788,1290590,3025.89999999851,"",,,,,,,,,,,2numpad,,,,,
html-keyboard-response,789,1290705,null,"",null,,,,,,,,,,,,,,,
math-period,790,1292781,3963,"",,,,,,,,,,,1numpad,,,,,
html-keyboard-response,791,1292886,null,"",null,,,,,,,,,,,,,,,
math-period,792,1294750,3541.9999999925494,"",,,,,,,,,,,2numpad,,,,,
html-keyboard-response,793,1294854,null,"",null,,,,,,,,,,,,,,,
math-period,794,1296222,2549.39999999851,"",,,,,,,,,,,3numpad,,,,,
html-keyboard-response,795,1296337,null,"",null,,,,,,,,,,,,,,,
math-period,796,1297963,2984.10000000149,"",,,,,,,,,,,1numpad,,,,,
html-keyboard-response,797,1298079,null,"",null,,,,,,,,,,,,,,,
math-period,798,1300933,5524.80000000447,"",,,,,,,,,,,0numpad,,,,,
html-keyboard-response,799,1301042,null,"",null,,,,,,,,,,,,,,,
math-period,800,1303758,5279.80000000447,"",,,,,,,,,,,0numpad,,,,,
html-keyboard-response,801,1303872,null,"",null,,,,,,,,,,,,,,,
math-period,802,1304378,null,"",,,,,,,,,,,,,,,,
html-keyboard-response,803,1305386,null,"Recall Period!",null,,,,,,,,,,,,,,,
call-function,804,1305389,,"",,,,,,,,,,,,,,,,
html-keyboard-response,805,1305497,null,"",null,,,,,,,,,,,,,,,
recall-period,806,1307654,9049.49999999255,"",,,,,,,,,,,glass,,,,,
html-keyboard-response,807,1307765,null,"",null,,,,,,,,,,,,,,,
recall-period,808,1310248,10975.700000025332,"",,,,,,,,,,,trumpet,,,,,
html-keyboard-response,809,1310352,null,"",null,,,,,,,,,,,,,,,
recall-period,810,1311979,6511,"",,,,,,,,,,,island,,,,,
html-keyboard-response,811,1312090,null,"",null,,,,,,,,,,,,,,,
recall-period,812,1341415,223056.20000001788,"",,,,,,,,,,,gazelle,,,,,
html-keyboard-response,813,1341530,null,"",null,,,,,,,,,,,,,,,
recall-period,814,1348069,44401.49999999255,"",,,,,,,,,,,antlers,,,,,
html-keyboard-response,815,1348184,null,"",null,,,,,,,,,,,,,,,
recall-period,816,1380403,null,"",,,,,,,,,,,,,,,,
html-keyboard-response,817,1380923,null,"Time's Up!",null,,,,,,,,,,,,,,,
html-keyboard-response,818,1383556,2625.9000000059605,"<p> Good job! You have responded correctly to 96% of the trials. </p>
                      <p>Be sure to only press the spacebar if you see a GREEN square, and please keep your accuracy above 80%.</p>
                      <p> Press any key to continue the experiment. </p>",78,,,,,,,,,,,,,,,
html-keyboard-response,819,1384804,1243.6999999955297,"<div style=""font-size:48px;"">Press any key to begin list 9 of 16 </div>",32,,,,,,,,,,,,,,,
html-keyboard-response,820,1387321,null,"<div style=""font-size:60px;"">+</div>",null,,,,,,,,,,,,,,,
html-keyboard-response,821,1387537,null,"<div style=""font-size:42px;"">FOLDER</div><img id = ""stim"" ><div class = green_square id = topsquare></div>",null,encoding,word_square,,,1,topsquare,32,true,,,FOLDER,8,,,
html-keyboard-response,822,1387843,null,"<div style=""font-size:42px;"">FOLDER</div>",null,,word,FOLDER,,,,,,,,,,,,
html-keyboard-response,823,1389355,122.20000000298023,"",32,,word,FOLDER,,,,,,,,,,,,
html-keyboard-response,824,1389568,null,"<div style=""font-size:42px;"">BATHTUB</div><img id = ""stim"" ><div class = red_square id = bottomsquare></div>",null,encoding,word_square,,,0,bottomsquare,none,true,,,BATHTUB,8,,,
html-keyboard-response,825,1389872,256.20000000298023,"<div style=""font-size:42px;"">BATHTUB</div>",75,,word,BATHTUB,,,,,,,,,,,,
html-keyboard-response,826,1391388,null,"",null,,word,BATHTUB,,,,,,,,,,,,
html-keyboard-response,827,1391594,null,"<div style=""font-size:42px;"">PAIL</div><img id = ""stim"" ><div class = green_square id = bottomsquare></div>",null,encoding,word_square,,,1,bottomsquare,32,true,,,PAIL,8,,,
html-keyboard-response,828,1391902,206.79999999701977,"<div style=""font-size:42px;"">PAIL</div>",32,,word,PAIL,,,,,,,,,,,,
html-keyboard-response,829,1393418,null,"",null,,word,PAIL,,,,,,,,,,,,
html-keyboard-response,830,1393630,null,"<div style=""font-size:42px;"">NOTEBOOK</div><img id = ""stim"" ><div class = green_square id = topsquare></div>",null,encoding,word_square,,,1,topsquare,32,true,,,NOTEBOOK,8,,,
html-keyboard-response,831,1393939,null,"<div style=""font-size:42px;"">NOTEBOOK</div>",null,,word,NOTEBOOK,,,,,,,,,,,,
html-keyboard-response,832,1395444,235.29999999701977,"",32,,word,NOTEBOOK,,,,,,,,,,,,
html-keyboard-response,833,1395654,null,"<div style=""font-size:42px;"">ATLAS</div><img id = ""stim"" ><div class = red_square id = topsquare></div>",null,encoding,word_square,,,0,topsquare,none,true,,,ATLAS,8,,,
html-keyboard-response,834,1395963,null,"<div style=""font-size:42px;"">ATLAS</div>",null,,word,ATLAS,,,,,,,,,,,,
html-keyboard-response,835,1397468,192.89999999850988,"",75,,word,ATLAS,,,,,,,,,,,,
html-keyboard-response,836,1397674,null,"<div style=""font-size:42px;"">COFFIN</div><img id = ""stim"" ><div class = green_square id = bottomsquare></div>",null,encoding,word_square,,,1,bottomsquare,32,true,,,COFFIN,8,,,
html-keyboard-response,837,1397978,null,"<div style=""font-size:42px;"">COFFIN</div>",null,,word,COFFIN,,,,,,,,,,,,
html-keyboard-response,838,1399485,685,"",32,,word,COFFIN,,,,,,,,,,,,
html-keyboard-response,839,1399692,null,"<div style=""font-size:42px;"">SAND</div><img id = ""stim"" ><div class = red_square id = bottomsquare></div>",null,encoding,word_square,,,0,bottomsquare,none,true,,,SAND,8,,,
html-keyboard-response,840,1399997,299.1000000014901,"<div style=""font-size:42px;"">SAND</div>",75,,word,SAND,,,,,,,,,,,,
html-keyboard-response,841,1401504,null,"",null,,word,SAND,,,,,,,,,,,,
html-keyboard-response,842,1401708,null,"<div style=""font-size:42px;"">HAMPER</div><img id = ""stim"" ><div class = red_square id = topsquare></div>",null,encoding,word_square,,,0,topsquare,none,true,,,HAMPER,8,,,
html-keyboard-response,843,1402020,null,"<div style=""font-size:42px;"">HAMPER</div>",null,,word,HAMPER,,,,,,,,,,,,
html-keyboard-response,844,1403532,112,"",75,,word,HAMPER,,,,,,,,,,,,
html-keyboard-response,845,1403747,null,"<div style=""font-size:42px;"">ACTOR</div><img id = ""stim"" ><div class = green_square id = topsquare></div>",null,encoding,word_square,,,1,topsquare,32,true,,,ACTOR,8,,,
html-keyboard-response,846,1404059,295.1000000014901,"<div style=""font-size:42px;"">ACTOR</div>",32,,word,ACTOR,,,,,,,,,,,,
html-keyboard-response,847,1405567,null,"",null,,word,ACTOR,,,,,,,,,,,,
html-keyboard-response,848,1405775,null,"<div style=""font-size:42px;"">CATCHER</div><img id = ""stim"" ><div class = green_square id = bottomsquare></div>",null,encoding,word_square,,,1,bottomsquare,32,true,,,CATCHER,8,,,
html-keyboard-response,849,1406082,303,"<div style=""font-size:42px;"">CATCHER</div>",32,,word,CATCHER,,,,,,,,,,,,
html-keyboard-response,850,1407593,null,"",null,,word,CATCHER,,,,,,,,,,,,
html-keyboard-response,851,1407805,null,"<div style=""font-size:42px;"">FIGHTER</div><img id = ""stim"" ><div class = green_square id = topsquare></div>",null,encoding,word_square,,,1,topsquare,32,true,,,FIGHTER,8,,,
html-keyboard-response,852,1408113,null,"<div style=""font-size:42px;"">FIGHTER</div>",null,,word,FIGHTER,,,,,,,,,,,,
html-keyboard-response,853,1409619,153.39999999850988,"",32,,word,FIGHTER,,,,,,,,,,,,
html-keyboard-response,854,1409844,null,"<div style=""font-size:42px;"">GODDESS</div><img id = ""stim"" ><div class = red_square id = bottomsquare></div>",null,encoding,word_square,,,0,bottomsquare,none,true,,,GODDESS,8,,,
html-keyboard-response,855,1410149,null,"<div style=""font-size:42px;"">GODDESS</div>",null,,word,GODDESS,,,,,,,,,,,,
html-keyboard-response,856,1411663,131.79999999701977,"",75,,word,GODDESS,,,,,,,,,,,,
html-keyboard-response,857,1411869,null,"<div style=""font-size:42px;"">LABEL</div><img id = ""stim"" ><div class = red_square id = topsquare></div>",null,encoding,word_square,,,0,topsquare,none,true,,,LABEL,8,,,
html-keyboard-response,858,1412175,null,"<div style=""font-size:42px;"">LABEL</div>",null,,word,LABEL,,,,,,,,,,,,
html-keyboard-response,859,1413684,194.79999999701977,"",75,,word,LABEL,,,,,,,,,,,,
html-keyboard-response,860,1413892,null,"<div style=""font-size:42px;"">BLENDER</div><img id = ""stim"" ><div class = green_square id = bottomsquare></div>",null,encoding,word_square,,,1,bottomsquare,32,true,,,BLENDER,8,,,
html-keyboard-response,861,1414196,null,"<div style=""font-size:42px;"">BLENDER</div>",null,,word,BLENDER,,,,,,,,,,,,
html-keyboard-response,862,1415714,99.40000000596046,"",32,,word,BLENDER,,,,,,,,,,,,
html-keyboard-response,863,1415933,null,"<div style=""font-size:42px;"">FRANCE</div><img id = ""stim"" ><div class = red_square id = bottomsquare></div>",null,encoding,word_square,,,0,bottomsquare,none,true,,,FRANCE,8,,,
html-keyboard-response,864,1416250,null,"<div style=""font-size:42px;"">FRANCE</div>",null,,word,FRANCE,,,,,,,,,,,,
html-keyboard-response,865,1417766,512.8999999985099,"",75,,word,FRANCE,,,,,,,,,,,,
html-keyboard-response,866,1417974,null,"<div style=""font-size:42px;"">JAPAN</div><img id = ""stim"" ><div class = red_square id = topsquare></div>",null,encoding,word_square,,,0,topsquare,none,true,,,JAPAN,8,,,
